[{"trial_n":1,"min":25,"max":230,"target":"present","response":"absent","rt":6273.3000000007,"correct":false,"confidence":-1},{"trial_n":2,"min":25,"max":230,"target":"present","response":"present","rt":1677.9000000022,"correct":true,"confidence":-1},{"trial_n":3,"min":25,"max":230,"target":"absent","response":"absent","rt":1374.6000000015,"correct":true,"confidence":-1},{"trial_n":4,"min":41,"max":214,"target":"absent","response":"absent","rt":774.59999999776,"correct":true,"confidence":-1},{"trial_n":5,"min":41,"max":214,"target":"present","response":"present","rt":1051.8999999985,"correct":true,"confidence":-1},{"trial_n":6,"min":57,"max":198,"target":"present","response":"present","rt":812,"correct":true,"confidence":-1},{"trial_n":7,"min":57,"max":198,"target":"present","response":"present","rt":717.39999999851,"correct":true,"confidence":-1},{"trial_n":8,"min":73,"max":182,"target":"present","response":"present","rt":881.89999999851,"correct":true,"confidence":-1},{"trial_n":9,"min":73,"max":182,"target":"present","response":"present","rt":448,"correct":true,"confidence":-1},{"trial_n":10,"min":89,"max":166,"target":"absent","response":"absent","rt":1113.5,"correct":true,"confidence":-1},{"trial_n":11,"min":89,"max":166,"target":"absent","response":"present","rt":1238.6999999993,"correct":false,"confidence":-1},{"trial_n":12,"min":81,"max":174,"target":"present","response":"absent","rt":961,"correct":false,"confidence":-1},{"trial_n":13,"min":73,"max":182,"target":"absent","response":"absent","rt":1937.1999999993,"correct":true,"confidence":-1},{"trial_n":14,"min":73,"max":182,"target":"absent","response":"present","rt":1949.3999999985,"correct":false,"confidence":-1},{"trial_n":15,"min":65,"max":190,"target":"absent","response":"absent","rt":982.19999999925,"correct":true,"confidence":-1},{"trial_n":16,"min":65,"max":190,"target":"present","response":"absent","rt":1139.700000003,"correct":false,"confidence":-1},{"trial_n":17,"min":57,"max":198,"target":"present","response":"present","rt":1500.700000003,"correct":true,"confidence":-1},{"trial_n":18,"min":57,"max":198,"target":"absent","response":"absent","rt":1380.799999997,"correct":true,"confidence":-1},{"trial_n":19,"min":65,"max":190,"target":"absent","response":"absent","rt":776.30000000075,"correct":true,"confidence":-1},{"trial_n":20,"min":65,"max":190,"target":"absent","response":"absent","rt":875.39999999851,"correct":true,"confidence":-1},{"trial_n":21,"min":69,"max":186,"target":"present","response":"present","rt":1060.5,"correct":true,"confidence":3},{"trial_n":22,"min":69,"max":186,"target":"absent","response":"present","rt":3042.5,"correct":false,"confidence":3},{"trial_n":23,"min":65,"max":190,"target":"present","response":"present","rt":1035.4000000022,"correct":true,"confidence":4},{"trial_n":24,"min":65,"max":190,"target":"absent","response":"absent","rt":1858.5,"correct":true,"confidence":1},{"trial_n":25,"min":69,"max":186,"target":"present","response":"present","rt":1204.8999999985,"correct":true,"confidence":5},{"trial_n":26,"min":69,"max":186,"target":"present","response":"present","rt":4141.1999999993,"correct":true,"confidence":1},{"trial_n":27,"min":73,"max":182,"target":"present","response":"present","rt":1344.8999999985,"correct":true,"confidence":5},{"trial_n":28,"min":73,"max":182,"target":"present","response":"present","rt":890.5,"correct":true,"confidence":5},{"trial_n":29,"min":77,"max":178,"target":"present","response":"present","rt":3284.8000000007,"correct":true,"confidence":3},{"trial_n":30,"min":77,"max":178,"target":"present","response":"present","rt":1186.5999999978,"correct":true,"confidence":5},{"trial_n":31,"min":79,"max":176,"target":"absent","response":"present","rt":1581.1999999993,"correct":false,"confidence":1},{"trial_n":32,"min":77,"max":178,"target":"present","response":"present","rt":933.20000000298,"correct":true,"confidence":5},{"trial_n":33,"min":77,"max":178,"target":"absent","response":"present","rt":1004.3000000007,"correct":false,"confidence":5},{"trial_n":34,"min":75,"max":180,"target":"absent","response":"present","rt":6649.3999999985,"correct":false,"confidence":3},{"trial_n":35,"min":73,"max":182,"target":"present","response":"present","rt":858.60000000149,"correct":true,"confidence":5},{"trial_n":36,"min":73,"max":182,"target":"absent","response":"absent","rt":2441.6999999993,"correct":true,"confidence":1},{"trial_n":37,"min":75,"max":180,"target":"present","response":"present","rt":1511.700000003,"correct":true,"confidence":5},{"trial_n":38,"min":75,"max":180,"target":"present","response":"absent","rt":1701.1999999993,"correct":false,"confidence":1},{"trial_n":39,"min":73,"max":182,"target":"present","response":"absent","rt":850.80000000075,"correct":false,"confidence":1},{"trial_n":40,"min":71,"max":184,"target":"absent","response":"absent","rt":1210.5,"correct":true,"confidence":1},{"trial_n":41,"min":71,"max":184,"target":"absent","response":"absent","rt":1335.5,"correct":true,"confidence":4},{"trial_n":42,"min":72,"max":183,"target":"present","response":"present","rt":1585.299999997,"correct":true,"confidence":4},{"trial_n":43,"min":72,"max":183,"target":"present","response":"present","rt":2541.6999999993,"correct":true,"confidence":2},{"trial_n":44,"min":73,"max":182,"target":"present","response":"present","rt":999.09999999776,"correct":true,"confidence":5},{"trial_n":45,"min":73,"max":182,"target":"absent","response":"present","rt":972.40000000224,"correct":false,"confidence":2},{"trial_n":46,"min":72,"max":183,"target":"present","response":"present","rt":881.30000000075,"correct":true,"confidence":5},{"trial_n":47,"min":72,"max":183,"target":"absent","response":"present","rt":3827.8000000007,"correct":false,"confidence":1},{"trial_n":48,"min":71,"max":184,"target":"present","response":"present","rt":875,"correct":true,"confidence":5},{"trial_n":49,"min":71,"max":184,"target":"absent","response":"absent","rt":2106.6000000015,"correct":true,"confidence":1},{"trial_n":50,"min":72,"max":183,"target":"absent","response":"absent","rt":1042.8000000007,"correct":true,"confidence":2},{"trial_n":51,"min":72,"max":183,"target":"present","response":"present","rt":1726.6999999993,"correct":true,"confidence":5},{"trial_n":52,"min":73,"max":182,"target":"absent","response":"absent","rt":2143.5,"correct":true,"confidence":1},{"trial_n":53,"min":73,"max":182,"target":"absent","response":"absent","rt":938.59999999776,"correct":true,"confidence":1},{"trial_n":54,"min":74,"max":181,"target":"present","response":"present","rt":1309.3000000007,"correct":true,"confidence":5},{"trial_n":55,"min":74,"max":181,"target":"absent","response":"absent","rt":2418,"correct":true,"confidence":3},{"trial_n":56,"min":75,"max":180,"target":"present","response":"present","rt":906.30000000075,"correct":true,"confidence":5},{"trial_n":57,"min":75,"max":180,"target":"present","response":"present","rt":1098,"correct":true,"confidence":5},{"trial_n":58,"min":76,"max":179,"target":"absent","response":"present","rt":1193.5,"correct":false,"confidence":4},{"trial_n":59,"min":75,"max":180,"target":"present","response":"present","rt":844.5,"correct":true,"confidence":5},{"trial_n":60,"min":75,"max":180,"target":"absent","response":"absent","rt":3951.1999999993,"correct":true,"confidence":1},{"trial_n":61,"min":76,"max":179,"target":"absent","response":"absent","rt":2517.5,"correct":true,"confidence":1},{"trial_n":62,"min":76,"max":179,"target":"absent","response":"absent","rt":1363.4000000022,"correct":true,"confidence":1},{"trial_n":63,"min":77,"max":178,"target":"absent","response":"absent","rt":1016.6000000015,"correct":true,"confidence":1},{"trial_n":64,"min":77,"max":178,"target":"absent","response":"absent","rt":1045.8000000007,"correct":true,"confidence":3},{"trial_n":65,"min":78,"max":177,"target":"present","response":"absent","rt":903,"correct":false,"confidence":3},{"trial_n":66,"min":77,"max":178,"target":"absent","response":"absent","rt":896.69999999925,"correct":true,"confidence":3},{"trial_n":67,"min":77,"max":178,"target":"absent","response":"absent","rt":876.40000000224,"correct":true,"confidence":3},{"trial_n":68,"min":78,"max":177,"target":"absent","response":"absent","rt":845.5,"correct":true,"confidence":3},{"trial_n":69,"min":78,"max":177,"target":"present","response":"absent","rt":756.90000000224,"correct":false,"confidence":3},{"trial_n":70,"min":77,"max":178,"target":"present","response":"present","rt":2123.5,"correct":true,"confidence":3},{"trial_n":71,"min":41,"max":214,"target":"present","response":"absent","rt":11721.199999999,"correct":false,"confidence":-1},{"trial_n":72,"min":41,"max":214,"target":"present","response":"absent","rt":6885,"correct":false,"confidence":-1},{"trial_n":73,"min":25,"max":230,"target":"absent","response":"absent","rt":2777,"correct":true,"confidence":-1},{"trial_n":74,"min":25,"max":230,"target":"absent","response":"absent","rt":1345.3000000007,"correct":true,"confidence":-1},{"trial_n":75,"min":41,"max":214,"target":"present","response":"present","rt":1034.1999999993,"correct":true,"confidence":-1},{"trial_n":76,"min":41,"max":214,"target":"absent","response":"absent","rt":716.60000000149,"correct":true,"confidence":-1},{"trial_n":77,"min":57,"max":198,"target":"present","response":"absent","rt":2534.6000000015,"correct":false,"confidence":-1},{"trial_n":78,"min":41,"max":214,"target":"present","response":"present","rt":1018.3000000007,"correct":true,"confidence":-1},{"trial_n":79,"min":41,"max":214,"target":"absent","response":"absent","rt":1227.1000000015,"correct":true,"confidence":-1},{"trial_n":80,"min":57,"max":198,"target":"present","response":"absent","rt":3214.6999999993,"correct":false,"confidence":-1},{"trial_n":81,"min":49,"max":206,"target":"present","response":"present","rt":740.69999999925,"correct":true,"confidence":-1},{"trial_n":82,"min":49,"max":206,"target":"absent","response":"absent","rt":1355.8999999985,"correct":true,"confidence":-1},{"trial_n":83,"min":57,"max":198,"target":"absent","response":"present","rt":1465.5,"correct":false,"confidence":-1},{"trial_n":84,"min":49,"max":206,"target":"present","response":"present","rt":766.30000000075,"correct":true,"confidence":-1},{"trial_n":85,"min":49,"max":206,"target":"absent","response":"absent","rt":1394.0999999978,"correct":true,"confidence":-1},{"trial_n":86,"min":57,"max":198,"target":"absent","response":"absent","rt":3495.1999999993,"correct":true,"confidence":-1},{"trial_n":87,"min":57,"max":198,"target":"absent","response":"absent","rt":946.59999999776,"correct":true,"confidence":-1},{"trial_n":88,"min":65,"max":190,"target":"present","response":"present","rt":1116.200000003,"correct":true,"confidence":-1},{"trial_n":89,"min":65,"max":190,"target":"present","response":"present","rt":2842.3999999985,"correct":true,"confidence":-1},{"trial_n":90,"min":73,"max":182,"target":"present","response":"absent","rt":1042.1000000015,"correct":false,"confidence":-1},{"trial_n":91,"min":69,"max":186,"target":"absent","response":"absent","rt":2013.0999999978,"correct":true,"confidence":2},{"trial_n":92,"min":69,"max":186,"target":"present","response":"present","rt":2203.3999999985,"correct":true,"confidence":3},{"trial_n":93,"min":73,"max":182,"target":"present","response":"present","rt":1607.1000000015,"correct":true,"confidence":3},{"trial_n":94,"min":73,"max":182,"target":"present","response":"present","rt":2169.700000003,"correct":true,"confidence":3},{"trial_n":95,"min":77,"max":178,"target":"absent","response":"present","rt":1974.9000000022,"correct":false,"confidence":1},{"trial_n":96,"min":73,"max":182,"target":"absent","response":"present","rt":1398.8000000007,"correct":false,"confidence":1},{"trial_n":97,"min":69,"max":186,"target":"present","response":"present","rt":1845,"correct":true,"confidence":3},{"trial_n":98,"min":69,"max":186,"target":"present","response":"present","rt":2661.8999999985,"correct":true,"confidence":3},{"trial_n":99,"min":73,"max":182,"target":"present","response":"present","rt":974.19999999925,"correct":true,"confidence":3},{"trial_n":100,"min":73,"max":182,"target":"absent","response":"absent","rt":1773.6999999993,"correct":true,"confidence":3},{"trial_n":101,"min":75,"max":180,"target":"absent","response":"absent","rt":3529.0999999978,"correct":true,"confidence":1},{"trial_n":102,"min":75,"max":180,"target":"absent","response":"absent","rt":1628.6999999993,"correct":true,"confidence":3},{"trial_n":103,"min":77,"max":178,"target":"present","response":"present","rt":1219.1999999993,"correct":true,"confidence":4},{"trial_n":104,"min":77,"max":178,"target":"present","response":"present","rt":1747.799999997,"correct":true,"confidence":4},{"trial_n":105,"min":79,"max":176,"target":"present","response":"present","rt":1596.6000000015,"correct":true,"confidence":1},{"trial_n":106,"min":79,"max":176,"target":"absent","response":"present","rt":1365.5,"correct":false,"confidence":1},{"trial_n":107,"min":77,"max":178,"target":"present","response":"present","rt":1486.3999999985,"correct":true,"confidence":4},{"trial_n":108,"min":77,"max":178,"target":"absent","response":"present","rt":1250,"correct":false,"confidence":1},{"trial_n":109,"min":75,"max":180,"target":"present","response":"present","rt":828.10000000149,"correct":true,"confidence":1},{"trial_n":110,"min":75,"max":180,"target":"absent","response":"present","rt":1322,"correct":false,"confidence":1},{"trial_n":111,"min":74,"max":181,"target":"present","response":"absent","rt":3156.0999999978,"correct":false,"confidence":1},{"trial_n":112,"min":73,"max":182,"target":"absent","response":"present","rt":1463.1999999993,"correct":false,"confidence":1},{"trial_n":113,"min":72,"max":183,"target":"present","response":"present","rt":1227.5,"correct":true,"confidence":1},{"trial_n":114,"min":72,"max":183,"target":"absent","response":"absent","rt":1217,"correct":true,"confidence":1},{"trial_n":115,"min":73,"max":182,"target":"present","response":"present","rt":2505,"correct":true,"confidence":3},{"trial_n":116,"min":73,"max":182,"target":"present","response":"present","rt":2083.8000000007,"correct":true,"confidence":3},{"trial_n":117,"min":74,"max":181,"target":"absent","response":"absent","rt":1197.9000000022,"correct":true,"confidence":3},{"trial_n":118,"min":74,"max":181,"target":"present","response":"present","rt":864.69999999925,"correct":true,"confidence":3},{"trial_n":119,"min":75,"max":180,"target":"absent","response":"present","rt":1113.1000000015,"correct":false,"confidence":3},{"trial_n":120,"min":74,"max":181,"target":"absent","response":"absent","rt":1293,"correct":true,"confidence":2},{"trial_n":121,"min":74,"max":181,"target":"present","response":"present","rt":1224.299999997,"correct":true,"confidence":4},{"trial_n":122,"min":75,"max":180,"target":"absent","response":"absent","rt":1572.5999999978,"correct":true,"confidence":4},{"trial_n":123,"min":75,"max":180,"target":"present","response":"present","rt":1038.8000000007,"correct":true,"confidence":4},{"trial_n":124,"min":76,"max":179,"target":"absent","response":"absent","rt":1419.6999999993,"correct":true,"confidence":4},{"trial_n":125,"min":76,"max":179,"target":"present","response":"present","rt":811.40000000224,"correct":true,"confidence":4},{"trial_n":126,"min":77,"max":178,"target":"absent","response":"absent","rt":1540.3999999985,"correct":true,"confidence":4},{"trial_n":127,"min":77,"max":178,"target":"absent","response":"absent","rt":1346.5999999978,"correct":true,"confidence":4},{"trial_n":128,"min":78,"max":177,"target":"present","response":"absent","rt":1844.9000000022,"correct":false,"confidence":4},{"trial_n":129,"min":77,"max":178,"target":"absent","response":"absent","rt":1497,"correct":true,"confidence":4},{"trial_n":130,"min":77,"max":178,"target":"absent","response":"absent","rt":1655.6999999993,"correct":true,"confidence":4},{"trial_n":131,"min":78,"max":177,"target":"absent","response":"absent","rt":2521.9000000022,"correct":true,"confidence":1},{"trial_n":132,"min":78,"max":177,"target":"present","response":"absent","rt":1498.700000003,"correct":false,"confidence":1},{"trial_n":133,"min":77,"max":178,"target":"absent","response":"absent","rt":1362.5,"correct":true,"confidence":4},{"trial_n":134,"min":77,"max":178,"target":"absent","response":"absent","rt":966.5,"correct":true,"confidence":1},{"trial_n":135,"min":78,"max":177,"target":"present","response":"absent","rt":1051.1999999993,"correct":false,"confidence":1},{"trial_n":136,"min":77,"max":178,"target":"present","response":"present","rt":1404.9000000022,"correct":true,"confidence":4},{"trial_n":137,"min":77,"max":178,"target":"absent","response":"absent","rt":1134.799999997,"correct":true,"confidence":4},{"trial_n":138,"min":78,"max":177,"target":"present","response":"present","rt":1015.6999999993,"correct":true,"confidence":4},{"trial_n":139,"min":78,"max":177,"target":"absent","response":"absent","rt":1651.299999997,"correct":true,"confidence":4},{"trial_n":140,"min":79,"max":176,"target":"present","response":"absent","rt":1182,"correct":false,"confidence":1}]