[{"trial_n":1,"min":25,"max":230,"target":"present","response":"present","rt":3830.2999999998,"correct":true,"confidence":-1},{"trial_n":2,"min":25,"max":230,"target":"present","response":"present","rt":538.10000000056,"correct":true,"confidence":-1},{"trial_n":3,"min":41,"max":214,"target":"absent","response":"absent","rt":967.79999999981,"correct":true,"confidence":-1},{"trial_n":4,"min":41,"max":214,"target":"absent","response":"absent","rt":295.09999999963,"correct":true,"confidence":-1},{"trial_n":5,"min":57,"max":198,"target":"present","response":"absent","rt":267.20000000019,"correct":false,"confidence":-1},{"trial_n":6,"min":41,"max":214,"target":"present","response":"absent","rt":416.09999999963,"correct":false,"confidence":-1},{"trial_n":7,"min":25,"max":230,"target":"present","response":"present","rt":258.90000000037,"correct":true,"confidence":-1},{"trial_n":8,"min":25,"max":230,"target":"absent","response":"absent","rt":245,"correct":true,"confidence":-1},{"trial_n":9,"min":41,"max":214,"target":"present","response":"present","rt":227.5,"correct":true,"confidence":-1},{"trial_n":10,"min":41,"max":214,"target":"present","response":"absent","rt":232.70000000019,"correct":false,"confidence":-1},{"trial_n":11,"min":33,"max":222,"target":"absent","response":"absent","rt":383.59999999963,"correct":true,"confidence":-1},{"trial_n":12,"min":33,"max":222,"target":"present","response":"present","rt":285.70000000019,"correct":true,"confidence":-1},{"trial_n":13,"min":41,"max":214,"target":"absent","response":"absent","rt":328.70000000019,"correct":true,"confidence":-1},{"trial_n":14,"min":41,"max":214,"target":"absent","response":"absent","rt":305.59999999963,"correct":true,"confidence":-1},{"trial_n":15,"min":49,"max":206,"target":"present","response":"present","rt":317.70000000019,"correct":true,"confidence":-1},{"trial_n":16,"min":49,"max":206,"target":"present","response":"present","rt":515.5,"correct":true,"confidence":-1},{"trial_n":17,"min":57,"max":198,"target":"present","response":"present","rt":389.70000000019,"correct":true,"confidence":-1},{"trial_n":18,"min":57,"max":198,"target":"present","response":"present","rt":345.89999999944,"correct":true,"confidence":-1},{"trial_n":19,"min":65,"max":190,"target":"present","response":"absent","rt":450.20000000019,"correct":false,"confidence":-1},{"trial_n":20,"min":57,"max":198,"target":"absent","response":"present","rt":343.39999999944,"correct":false,"confidence":-1},{"trial_n":21,"min":53,"max":202,"target":"absent","response":"present","rt":347.09999999963,"correct":false,"confidence":5},{"trial_n":22,"min":49,"max":206,"target":"absent","response":"present","rt":1251,"correct":false,"confidence":5},{"trial_n":23,"min":45,"max":210,"target":"absent","response":"present","rt":1270.2000000002,"correct":false,"confidence":5},{"trial_n":24,"min":41,"max":214,"target":"absent","response":"present","rt":1180.2000000002,"correct":false,"confidence":5},{"trial_n":25,"min":37,"max":218,"target":"present","response":"absent","rt":649.70000000019,"correct":false,"confidence":5},{"trial_n":26,"min":33,"max":222,"target":"absent","response":"present","rt":315.39999999944,"correct":false,"confidence":5},{"trial_n":27,"min":29,"max":226,"target":"present","response":"absent","rt":591.80000000075,"correct":false,"confidence":5},{"trial_n":28,"min":25,"max":230,"target":"absent","response":"present","rt":2604.9000000004,"correct":false,"confidence":5},{"trial_n":29,"min":21,"max":234,"target":"present","response":"present","rt":2941.2999999998,"correct":true,"confidence":5},{"trial_n":30,"min":21,"max":234,"target":"absent","response":"absent","rt":621.20000000019,"correct":true,"confidence":5},{"trial_n":31,"min":23,"max":232,"target":"present","response":"present","rt":1005.2999999998,"correct":true,"confidence":5},{"trial_n":32,"min":23,"max":232,"target":"absent","response":"absent","rt":723.5,"correct":true,"confidence":5},{"trial_n":33,"min":25,"max":230,"target":"absent","response":"absent","rt":496.60000000056,"correct":true,"confidence":5},{"trial_n":34,"min":25,"max":230,"target":"present","response":"present","rt":991.5,"correct":true,"confidence":5},{"trial_n":35,"min":27,"max":228,"target":"absent","response":"absent","rt":409.5,"correct":true,"confidence":5},{"trial_n":36,"min":27,"max":228,"target":"present","response":"absent","rt":437.89999999944,"correct":false,"confidence":1},{"trial_n":37,"min":25,"max":230,"target":"present","response":"present","rt":765.09999999963,"correct":true,"confidence":5},{"trial_n":38,"min":25,"max":230,"target":"present","response":"present","rt":1136.7000000002,"correct":true,"confidence":5},{"trial_n":39,"min":27,"max":228,"target":"present","response":"present","rt":636.40000000037,"correct":true,"confidence":5},{"trial_n":40,"min":27,"max":228,"target":"present","response":"present","rt":689.10000000056,"correct":true,"confidence":5},{"trial_n":41,"min":28,"max":227,"target":"present","response":"present","rt":690.80000000075,"correct":true,"confidence":5},{"trial_n":42,"min":28,"max":227,"target":"present","response":"present","rt":2058.4000000004,"correct":true,"confidence":5},{"trial_n":43,"min":29,"max":226,"target":"present","response":"present","rt":761.79999999981,"correct":true,"confidence":5},{"trial_n":44,"min":29,"max":226,"target":"absent","response":"absent","rt":578.09999999963,"correct":true,"confidence":5},{"trial_n":45,"min":30,"max":225,"target":"absent","response":"absent","rt":614.89999999944,"correct":true,"confidence":5},{"trial_n":46,"min":30,"max":225,"target":"absent","response":"absent","rt":511.20000000019,"correct":true,"confidence":5},{"trial_n":47,"min":31,"max":224,"target":"present","response":"present","rt":516.79999999981,"correct":true,"confidence":5},{"trial_n":48,"min":31,"max":224,"target":"absent","response":"absent","rt":527,"correct":true,"confidence":5},{"trial_n":49,"min":32,"max":223,"target":"absent","response":"absent","rt":382.20000000019,"correct":true,"confidence":5},{"trial_n":50,"min":32,"max":223,"target":"absent","response":"absent","rt":484,"correct":true,"confidence":5},{"trial_n":51,"min":33,"max":222,"target":"present","response":"present","rt":851.19999999925,"correct":true,"confidence":5},{"trial_n":52,"min":33,"max":222,"target":"present","response":"absent","rt":263.60000000056,"correct":false,"confidence":5},{"trial_n":53,"min":32,"max":223,"target":"absent","response":"absent","rt":935.29999999981,"correct":true,"confidence":5},{"trial_n":54,"min":32,"max":223,"target":"absent","response":"absent","rt":280.20000000019,"correct":true,"confidence":5},{"trial_n":55,"min":33,"max":222,"target":"absent","response":"absent","rt":214.5,"correct":true,"confidence":5},{"trial_n":56,"min":33,"max":222,"target":"absent","response":"absent","rt":210.19999999925,"correct":true,"confidence":5},{"trial_n":57,"min":34,"max":221,"target":"absent","response":"absent","rt":155.19999999925,"correct":true,"confidence":5},{"trial_n":58,"min":34,"max":221,"target":"absent","response":"absent","rt":168.70000000019,"correct":true,"confidence":5},{"trial_n":59,"min":35,"max":220,"target":"absent","response":"absent","rt":146.59999999963,"correct":true,"confidence":5},{"trial_n":60,"min":35,"max":220,"target":"absent","response":"absent","rt":152,"correct":true,"confidence":5},{"trial_n":61,"min":36,"max":219,"target":"absent","response":"absent","rt":412.5,"correct":true,"confidence":5},{"trial_n":62,"min":36,"max":219,"target":"absent","response":"absent","rt":229.80000000075,"correct":true,"confidence":5},{"trial_n":63,"min":37,"max":218,"target":"present","response":"present","rt":799,"correct":true,"confidence":5},{"trial_n":64,"min":37,"max":218,"target":"absent","response":"present","rt":747.09999999963,"correct":false,"confidence":5},{"trial_n":65,"min":36,"max":219,"target":"present","response":"absent","rt":644.20000000019,"correct":false,"confidence":5},{"trial_n":66,"min":35,"max":220,"target":"present","response":"present","rt":1210.5,"correct":true,"confidence":5},{"trial_n":67,"min":35,"max":220,"target":"present","response":"present","rt":2234.1000000006,"correct":true,"confidence":5},{"trial_n":68,"min":36,"max":219,"target":"present","response":"present","rt":805.09999999963,"correct":true,"confidence":5},{"trial_n":69,"min":36,"max":219,"target":"present","response":"present","rt":639.10000000056,"correct":true,"confidence":5},{"trial_n":70,"min":37,"max":218,"target":"present","response":"present","rt":465,"correct":true,"confidence":5},{"trial_n":71,"min":41,"max":214,"target":"present","response":"absent","rt":6362.2000000002,"correct":false,"confidence":-1},{"trial_n":72,"min":41,"max":214,"target":"present","response":"present","rt":600.20000000019,"correct":true,"confidence":-1},{"trial_n":73,"min":41,"max":214,"target":"absent","response":"absent","rt":1786.7000000002,"correct":true,"confidence":-1},{"trial_n":74,"min":57,"max":198,"target":"absent","response":"absent","rt":290.89999999944,"correct":true,"confidence":-1},{"trial_n":75,"min":57,"max":198,"target":"present","response":"present","rt":69.899999999441,"correct":true,"confidence":-1},{"trial_n":76,"min":73,"max":182,"target":"present","response":"absent","rt":401.40000000037,"correct":false,"confidence":-1},{"trial_n":77,"min":57,"max":198,"target":"absent","response":"absent","rt":148.20000000019,"correct":true,"confidence":-1},{"trial_n":78,"min":57,"max":198,"target":"absent","response":"absent","rt":15.200000000186,"correct":true,"confidence":-1},{"trial_n":79,"min":73,"max":182,"target":"absent","response":"absent","rt":86.299999999814,"correct":true,"confidence":-1},{"trial_n":80,"min":73,"max":182,"target":"present","response":"present","rt":472.89999999944,"correct":true,"confidence":-1},{"trial_n":81,"min":81,"max":174,"target":"absent","response":"absent","rt":153.29999999981,"correct":true,"confidence":-1},{"trial_n":82,"min":81,"max":174,"target":"present","response":"absent","rt":275.40000000037,"correct":false,"confidence":-1},{"trial_n":83,"min":73,"max":182,"target":"absent","response":"present","rt":187.59999999963,"correct":false,"confidence":-1},{"trial_n":84,"min":65,"max":190,"target":"absent","response":"absent","rt":178.60000000056,"correct":true,"confidence":-1},{"trial_n":85,"min":65,"max":190,"target":"absent","response":"absent","rt":136.60000000056,"correct":true,"confidence":-1},{"trial_n":86,"min":73,"max":182,"target":"present","response":"present","rt":214.29999999981,"correct":true,"confidence":-1},{"trial_n":87,"min":73,"max":182,"target":"present","response":"present","rt":375.29999999981,"correct":true,"confidence":-1},{"trial_n":88,"min":81,"max":174,"target":"absent","response":"present","rt":114.09999999963,"correct":false,"confidence":-1},{"trial_n":89,"min":73,"max":182,"target":"present","response":"present","rt":218.60000000056,"correct":true,"confidence":-1},{"trial_n":90,"min":73,"max":182,"target":"absent","response":"present","rt":39.899999999441,"correct":false,"confidence":-1},{"trial_n":91,"min":69,"max":186,"target":"present","response":"present","rt":479.5,"correct":true,"confidence":1},{"trial_n":92,"min":69,"max":186,"target":"present","response":"present","rt":274.90000000037,"correct":true,"confidence":1},{"trial_n":93,"min":73,"max":182,"target":"present","response":"present","rt":218.5,"correct":true,"confidence":1},{"trial_n":94,"min":73,"max":182,"target":"present","response":"absent","rt":734.20000000019,"correct":false,"confidence":1},{"trial_n":95,"min":69,"max":186,"target":"absent","response":"absent","rt":343.70000000019,"correct":true,"confidence":1},{"trial_n":96,"min":69,"max":186,"target":"absent","response":"present","rt":303.40000000037,"correct":false,"confidence":1},{"trial_n":97,"min":65,"max":190,"target":"absent","response":"absent","rt":301.60000000056,"correct":true,"confidence":1},{"trial_n":98,"min":65,"max":190,"target":"present","response":"present","rt":291.80000000075,"correct":true,"confidence":1},{"trial_n":99,"min":69,"max":186,"target":"present","response":"present","rt":297.19999999925,"correct":true,"confidence":1},{"trial_n":100,"min":69,"max":186,"target":"present","response":"present","rt":225.20000000019,"correct":true,"confidence":1},{"trial_n":101,"min":71,"max":184,"target":"absent","response":"absent","rt":792.40000000037,"correct":true,"confidence":2},{"trial_n":102,"min":71,"max":184,"target":"present","response":"absent","rt":185,"correct":false,"confidence":3},{"trial_n":103,"min":69,"max":186,"target":"present","response":"present","rt":477.5,"correct":true,"confidence":3},{"trial_n":104,"min":69,"max":186,"target":"absent","response":"absent","rt":620.5,"correct":true,"confidence":3},{"trial_n":105,"min":71,"max":184,"target":"absent","response":"present","rt":478.09999999963,"correct":false,"confidence":1},{"trial_n":106,"min":69,"max":186,"target":"absent","response":"absent","rt":5013.7999999998,"correct":true,"confidence":1},{"trial_n":107,"min":69,"max":186,"target":"present","response":"present","rt":184.89999999944,"correct":true,"confidence":1},{"trial_n":108,"min":71,"max":184,"target":"absent","response":"absent","rt":358.89999999944,"correct":true,"confidence":1},{"trial_n":109,"min":71,"max":184,"target":"present","response":"present","rt":346.40000000037,"correct":true,"confidence":3},{"trial_n":110,"min":73,"max":182,"target":"present","response":"present","rt":856.70000000019,"correct":true,"confidence":1},{"trial_n":111,"min":73,"max":182,"target":"present","response":"present","rt":5771,"correct":true,"confidence":1},{"trial_n":112,"min":74,"max":181,"target":"present","response":"present","rt":467.20000000019,"correct":true,"confidence":1},{"trial_n":113,"min":74,"max":181,"target":"present","response":"present","rt":396.90000000037,"correct":true,"confidence":1},{"trial_n":114,"min":75,"max":180,"target":"absent","response":"absent","rt":473.20000000019,"correct":true,"confidence":1},{"trial_n":115,"min":75,"max":180,"target":"present","response":"present","rt":152.19999999925,"correct":true,"confidence":1},{"trial_n":116,"min":76,"max":179,"target":"absent","response":"present","rt":148.60000000056,"correct":false,"confidence":3},{"trial_n":117,"min":75,"max":180,"target":"present","response":"present","rt":414.40000000037,"correct":true,"confidence":2},{"trial_n":118,"min":75,"max":180,"target":"absent","response":"absent","rt":197.70000000019,"correct":true,"confidence":2},{"trial_n":119,"min":76,"max":179,"target":"present","response":"absent","rt":266.30000000075,"correct":false,"confidence":1},{"trial_n":120,"min":75,"max":180,"target":"absent","response":"absent","rt":242.5,"correct":true,"confidence":2},{"trial_n":121,"min":75,"max":180,"target":"present","response":"present","rt":122.20000000019,"correct":true,"confidence":3},{"trial_n":122,"min":76,"max":179,"target":"absent","response":"absent","rt":364.40000000037,"correct":true,"confidence":4},{"trial_n":123,"min":76,"max":179,"target":"present","response":"present","rt":198.40000000037,"correct":true,"confidence":4},{"trial_n":124,"min":77,"max":178,"target":"present","response":"present","rt":224.70000000019,"correct":true,"confidence":4},{"trial_n":125,"min":77,"max":178,"target":"absent","response":"absent","rt":992.09999999963,"correct":true,"confidence":1},{"trial_n":126,"min":78,"max":177,"target":"absent","response":"absent","rt":594.29999999981,"correct":true,"confidence":4},{"trial_n":127,"min":78,"max":177,"target":"present","response":"present","rt":360.29999999981,"correct":true,"confidence":4},{"trial_n":128,"min":79,"max":176,"target":"absent","response":"absent","rt":621.80000000075,"correct":true,"confidence":1},{"trial_n":129,"min":79,"max":176,"target":"absent","response":"present","rt":342.20000000019,"correct":false,"confidence":4},{"trial_n":130,"min":78,"max":177,"target":"absent","response":"present","rt":267.70000000019,"correct":false,"confidence":3},{"trial_n":131,"min":77,"max":178,"target":"absent","response":"present","rt":690.70000000019,"correct":false,"confidence":1},{"trial_n":132,"min":76,"max":179,"target":"present","response":"present","rt":201.70000000019,"correct":true,"confidence":3},{"trial_n":133,"min":76,"max":179,"target":"absent","response":"absent","rt":235.19999999925,"correct":true,"confidence":3},{"trial_n":134,"min":77,"max":178,"target":"absent","response":"absent","rt":311.60000000056,"correct":true,"confidence":1},{"trial_n":135,"min":77,"max":178,"target":"present","response":"present","rt":244.20000000019,"correct":true,"confidence":2},{"trial_n":136,"min":78,"max":177,"target":"absent","response":"absent","rt":303.59999999963,"correct":true,"confidence":2},{"trial_n":137,"min":78,"max":177,"target":"present","response":"absent","rt":629.79999999981,"correct":false,"confidence":2},{"trial_n":138,"min":77,"max":178,"target":"present","response":"present","rt":166.70000000019,"correct":true,"confidence":2},{"trial_n":139,"min":77,"max":178,"target":"present","response":"present","rt":607.29999999981,"correct":true,"confidence":4},{"trial_n":140,"min":78,"max":177,"target":"absent","response":"present","rt":327.70000000019,"correct":false,"confidence":1}]