[{"trial_n":1,"min":25,"max":230,"target":"present","response":"present","rt":47479.600000024,"correct":true,"confidence":-1},{"trial_n":2,"min":25,"max":230,"target":"present","response":"present","rt":4499.1000000238,"correct":true,"confidence":-1},{"trial_n":3,"min":41,"max":214,"target":"absent","response":"absent","rt":3631,"correct":true,"confidence":-1},{"trial_n":4,"min":41,"max":214,"target":"absent","response":"absent","rt":6375.2999999523,"correct":true,"confidence":-1},{"trial_n":5,"min":57,"max":198,"target":"present","response":"absent","rt":3257.5,"correct":false,"confidence":-1},{"trial_n":6,"min":41,"max":214,"target":"present","response":"present","rt":4044.8000000715,"correct":true,"confidence":-1},{"trial_n":7,"min":41,"max":214,"target":"present","response":"present","rt":3170.8000000715,"correct":true,"confidence":-1},{"trial_n":8,"min":57,"max":198,"target":"present","response":"absent","rt":2473.7000000477,"correct":false,"confidence":-1},{"trial_n":9,"min":41,"max":214,"target":"present","response":"present","rt":1142.6000000238,"correct":true,"confidence":-1},{"trial_n":10,"min":41,"max":214,"target":"present","response":"present","rt":1199.7000000477,"correct":true,"confidence":-1},{"trial_n":11,"min":49,"max":206,"target":"present","response":"present","rt":1603.6000000238,"correct":true,"confidence":-1},{"trial_n":12,"min":49,"max":206,"target":"absent","response":"present","rt":697.5,"correct":false,"confidence":-1},{"trial_n":13,"min":41,"max":214,"target":"absent","response":"absent","rt":1219.7000000477,"correct":true,"confidence":-1},{"trial_n":14,"min":41,"max":214,"target":"present","response":"absent","rt":912.19999992847,"correct":false,"confidence":-1},{"trial_n":15,"min":33,"max":222,"target":"present","response":"present","rt":4612.8999999762,"correct":true,"confidence":-1},{"trial_n":16,"min":33,"max":222,"target":"present","response":"present","rt":1130.5,"correct":true,"confidence":-1},{"trial_n":17,"min":41,"max":214,"target":"present","response":"present","rt":1101.7000000477,"correct":true,"confidence":-1},{"trial_n":18,"min":41,"max":214,"target":"present","response":"present","rt":787.80000007153,"correct":true,"confidence":-1},{"trial_n":19,"min":49,"max":206,"target":"present","response":"present","rt":923.20000004768,"correct":true,"confidence":-1},{"trial_n":20,"min":49,"max":206,"target":"present","response":"absent","rt":805.30000007153,"correct":false,"confidence":-1},{"trial_n":21,"min":45,"max":210,"target":"absent","response":"present","rt":1348.0999999046,"correct":false,"confidence":3},{"trial_n":22,"min":41,"max":214,"target":"absent","response":"present","rt":1922.6000000238,"correct":false,"confidence":2},{"trial_n":23,"min":37,"max":218,"target":"present","response":"present","rt":2460.6000000238,"correct":true,"confidence":4},{"trial_n":24,"min":37,"max":218,"target":"present","response":"present","rt":2823.3000000715,"correct":true,"confidence":4},{"trial_n":25,"min":41,"max":214,"target":"absent","response":"present","rt":2300.2000000477,"correct":false,"confidence":2},{"trial_n":26,"min":37,"max":218,"target":"absent","response":"present","rt":1752,"correct":false,"confidence":2},{"trial_n":27,"min":33,"max":222,"target":"absent","response":"absent","rt":1521.8999999762,"correct":true,"confidence":2},{"trial_n":28,"min":33,"max":222,"target":"present","response":"present","rt":2156.8000000715,"correct":true,"confidence":3},{"trial_n":29,"min":37,"max":218,"target":"present","response":"present","rt":948,"correct":true,"confidence":4},{"trial_n":30,"min":37,"max":218,"target":"present","response":"present","rt":1307.3000000715,"correct":true,"confidence":3},{"trial_n":31,"min":39,"max":216,"target":"present","response":"present","rt":2874.8999999762,"correct":true,"confidence":3},{"trial_n":32,"min":39,"max":216,"target":"absent","response":"absent","rt":1122.4000000954,"correct":true,"confidence":2},{"trial_n":33,"min":41,"max":214,"target":"present","response":"present","rt":912.5,"correct":true,"confidence":4},{"trial_n":34,"min":41,"max":214,"target":"absent","response":"absent","rt":2056.7000000477,"correct":true,"confidence":1},{"trial_n":35,"min":43,"max":212,"target":"absent","response":"present","rt":2889.6000000238,"correct":false,"confidence":1},{"trial_n":36,"min":41,"max":214,"target":"absent","response":"absent","rt":1064.1000000238,"correct":true,"confidence":2},{"trial_n":37,"min":41,"max":214,"target":"absent","response":"present","rt":2201,"correct":false,"confidence":2},{"trial_n":38,"min":39,"max":216,"target":"present","response":"present","rt":1309.2000000477,"correct":true,"confidence":3},{"trial_n":39,"min":39,"max":216,"target":"present","response":"present","rt":876.39999997616,"correct":true,"confidence":3},{"trial_n":40,"min":41,"max":214,"target":"absent","response":"present","rt":2281.8000000715,"correct":false,"confidence":2},{"trial_n":41,"min":40,"max":215,"target":"present","response":"present","rt":898.29999995232,"correct":true,"confidence":3},{"trial_n":42,"min":40,"max":215,"target":"present","response":"present","rt":779.19999992847,"correct":true,"confidence":3},{"trial_n":43,"min":41,"max":214,"target":"absent","response":"absent","rt":964.5,"correct":true,"confidence":3},{"trial_n":44,"min":41,"max":214,"target":"absent","response":"absent","rt":1170.5,"correct":true,"confidence":3},{"trial_n":45,"min":42,"max":213,"target":"absent","response":"absent","rt":919.70000004768,"correct":true,"confidence":3},{"trial_n":46,"min":42,"max":213,"target":"absent","response":"absent","rt":1816.5,"correct":true,"confidence":2},{"trial_n":47,"min":43,"max":212,"target":"present","response":"present","rt":1347.3000000715,"correct":true,"confidence":3},{"trial_n":48,"min":43,"max":212,"target":"present","response":"present","rt":794.5,"correct":true,"confidence":3},{"trial_n":49,"min":44,"max":211,"target":"absent","response":"absent","rt":1145.6999999285,"correct":true,"confidence":3},{"trial_n":50,"min":44,"max":211,"target":"absent","response":"absent","rt":4400.7999999523,"correct":true,"confidence":1},{"trial_n":51,"min":45,"max":210,"target":"absent","response":"absent","rt":1473.1000000238,"correct":true,"confidence":2},{"trial_n":52,"min":45,"max":210,"target":"absent","response":"absent","rt":1073.7000000477,"correct":true,"confidence":2},{"trial_n":53,"min":46,"max":209,"target":"absent","response":"absent","rt":975.39999997616,"correct":true,"confidence":2},{"trial_n":54,"min":46,"max":209,"target":"absent","response":"absent","rt":861.40000009537,"correct":true,"confidence":3},{"trial_n":55,"min":47,"max":208,"target":"absent","response":"absent","rt":796.20000004768,"correct":true,"confidence":3},{"trial_n":56,"min":47,"max":208,"target":"present","response":"present","rt":794.40000009537,"correct":true,"confidence":2},{"trial_n":57,"min":48,"max":207,"target":"absent","response":"absent","rt":738.79999995232,"correct":true,"confidence":3},{"trial_n":58,"min":48,"max":207,"target":"present","response":"present","rt":1270.9000000954,"correct":true,"confidence":2},{"trial_n":59,"min":49,"max":206,"target":"present","response":"present","rt":801.19999992847,"correct":true,"confidence":3},{"trial_n":60,"min":49,"max":206,"target":"present","response":"present","rt":817.89999997616,"correct":true,"confidence":3},{"trial_n":61,"min":50,"max":205,"target":"present","response":"present","rt":794.30000007153,"correct":true,"confidence":3},{"trial_n":62,"min":50,"max":205,"target":"absent","response":"absent","rt":1024.2999999523,"correct":true,"confidence":2},{"trial_n":63,"min":51,"max":204,"target":"absent","response":"absent","rt":712.59999990463,"correct":true,"confidence":3},{"trial_n":64,"min":51,"max":204,"target":"absent","response":"absent","rt":695.10000002384,"correct":true,"confidence":2},{"trial_n":65,"min":52,"max":203,"target":"absent","response":"absent","rt":809.29999995232,"correct":true,"confidence":2},{"trial_n":66,"min":52,"max":203,"target":"absent","response":"absent","rt":1299.2000000477,"correct":true,"confidence":2},{"trial_n":67,"min":53,"max":202,"target":"present","response":"present","rt":1349,"correct":true,"confidence":3},{"trial_n":68,"min":53,"max":202,"target":"absent","response":"absent","rt":902,"correct":true,"confidence":2},{"trial_n":69,"min":54,"max":201,"target":"present","response":"present","rt":995.89999997616,"correct":true,"confidence":3},{"trial_n":70,"min":54,"max":201,"target":"absent","response":"absent","rt":2557.8999999762,"correct":true,"confidence":1},{"trial_n":71,"min":41,"max":214,"target":"present","response":"present","rt":2908.5,"correct":true,"confidence":-1},{"trial_n":72,"min":41,"max":214,"target":"present","response":"present","rt":827.39999997616,"correct":true,"confidence":-1},{"trial_n":73,"min":57,"max":198,"target":"absent","response":"absent","rt":2607.9000000954,"correct":true,"confidence":-1},{"trial_n":74,"min":57,"max":198,"target":"absent","response":"absent","rt":1226.2000000477,"correct":true,"confidence":-1},{"trial_n":75,"min":73,"max":182,"target":"present","response":"present","rt":698.89999997616,"correct":true,"confidence":-1},{"trial_n":76,"min":73,"max":182,"target":"absent","response":"absent","rt":1327.0999999046,"correct":true,"confidence":-1},{"trial_n":77,"min":89,"max":166,"target":"absent","response":"absent","rt":931.39999997616,"correct":true,"confidence":-1},{"trial_n":78,"min":89,"max":166,"target":"present","response":"absent","rt":970.5,"correct":false,"confidence":-1},{"trial_n":79,"min":73,"max":182,"target":"present","response":"present","rt":807.09999990463,"correct":true,"confidence":-1},{"trial_n":80,"min":73,"max":182,"target":"absent","response":"absent","rt":1376.7999999523,"correct":true,"confidence":-1},{"trial_n":81,"min":81,"max":174,"target":"present","response":"present","rt":663.60000002384,"correct":true,"confidence":-1},{"trial_n":82,"min":81,"max":174,"target":"present","response":"present","rt":1230.2000000477,"correct":true,"confidence":-1},{"trial_n":83,"min":89,"max":166,"target":"absent","response":"present","rt":716.89999997616,"correct":false,"confidence":-1},{"trial_n":84,"min":81,"max":174,"target":"absent","response":"absent","rt":1014.6000000238,"correct":true,"confidence":-1},{"trial_n":85,"min":81,"max":174,"target":"present","response":"present","rt":2163.1999999285,"correct":true,"confidence":-1},{"trial_n":86,"min":89,"max":166,"target":"present","response":"present","rt":576.80000007153,"correct":true,"confidence":-1},{"trial_n":87,"min":89,"max":166,"target":"present","response":"present","rt":603.09999990463,"correct":true,"confidence":-1},{"trial_n":88,"min":97,"max":158,"target":"present","response":"present","rt":816.5,"correct":true,"confidence":-1},{"trial_n":89,"min":97,"max":158,"target":"present","response":"present","rt":465.70000004768,"correct":true,"confidence":-1},{"trial_n":90,"min":105,"max":150,"target":"present","response":"absent","rt":687.90000009537,"correct":false,"confidence":-1},{"trial_n":91,"min":101,"max":154,"target":"absent","response":"absent","rt":736.80000007153,"correct":true,"confidence":1},{"trial_n":92,"min":101,"max":154,"target":"present","response":"absent","rt":2173.6999999285,"correct":false,"confidence":2},{"trial_n":93,"min":97,"max":158,"target":"absent","response":"present","rt":722.89999997616,"correct":false,"confidence":2},{"trial_n":94,"min":93,"max":162,"target":"absent","response":"absent","rt":921.89999997616,"correct":true,"confidence":2},{"trial_n":95,"min":93,"max":162,"target":"absent","response":"present","rt":847.10000002384,"correct":false,"confidence":3},{"trial_n":96,"min":89,"max":166,"target":"present","response":"absent","rt":1128.3999999762,"correct":false,"confidence":2},{"trial_n":97,"min":85,"max":170,"target":"absent","response":"absent","rt":1207.6000000238,"correct":true,"confidence":2},{"trial_n":98,"min":85,"max":170,"target":"absent","response":"present","rt":1007.7999999523,"correct":false,"confidence":1},{"trial_n":99,"min":81,"max":174,"target":"present","response":"present","rt":763.79999995232,"correct":true,"confidence":2},{"trial_n":100,"min":81,"max":174,"target":"absent","response":"absent","rt":1056.5,"correct":true,"confidence":2},{"trial_n":101,"min":83,"max":172,"target":"absent","response":"present","rt":1046.7999999523,"correct":false,"confidence":2},{"trial_n":102,"min":81,"max":174,"target":"present","response":"present","rt":1238.6000000238,"correct":true,"confidence":3},{"trial_n":103,"min":81,"max":174,"target":"absent","response":"absent","rt":1071.7000000477,"correct":true,"confidence":1},{"trial_n":104,"min":83,"max":172,"target":"absent","response":"absent","rt":933.60000002384,"correct":true,"confidence":2},{"trial_n":105,"min":83,"max":172,"target":"present","response":"present","rt":781.60000002384,"correct":true,"confidence":2},{"trial_n":106,"min":85,"max":170,"target":"present","response":"absent","rt":980.80000007153,"correct":false,"confidence":2},{"trial_n":107,"min":83,"max":172,"target":"present","response":"absent","rt":1028.2000000477,"correct":false,"confidence":2},{"trial_n":108,"min":81,"max":174,"target":"absent","response":"absent","rt":949.29999995232,"correct":true,"confidence":2},{"trial_n":109,"min":81,"max":174,"target":"present","response":"absent","rt":712.70000004768,"correct":false,"confidence":3},{"trial_n":110,"min":79,"max":176,"target":"absent","response":"absent","rt":726.5,"correct":true,"confidence":2},{"trial_n":111,"min":79,"max":176,"target":"absent","response":"absent","rt":794.30000007153,"correct":true,"confidence":1},{"trial_n":112,"min":80,"max":175,"target":"present","response":"present","rt":820,"correct":true,"confidence":2},{"trial_n":113,"min":80,"max":175,"target":"absent","response":"absent","rt":1115,"correct":true,"confidence":3},{"trial_n":114,"min":81,"max":174,"target":"present","response":"present","rt":785.70000004768,"correct":true,"confidence":1},{"trial_n":115,"min":81,"max":174,"target":"present","response":"absent","rt":974,"correct":false,"confidence":2},{"trial_n":116,"min":80,"max":175,"target":"present","response":"present","rt":773,"correct":true,"confidence":2},{"trial_n":117,"min":80,"max":175,"target":"present","response":"present","rt":771.5,"correct":true,"confidence":3},{"trial_n":118,"min":81,"max":174,"target":"absent","response":"present","rt":777,"correct":false,"confidence":2},{"trial_n":119,"min":80,"max":175,"target":"present","response":"absent","rt":1082.8999999762,"correct":false,"confidence":1},{"trial_n":120,"min":79,"max":176,"target":"present","response":"present","rt":811.39999997616,"correct":true,"confidence":2},{"trial_n":121,"min":79,"max":176,"target":"absent","response":"absent","rt":820.89999997616,"correct":true,"confidence":2},{"trial_n":122,"min":80,"max":175,"target":"absent","response":"present","rt":6793.1000000238,"correct":false,"confidence":1},{"trial_n":123,"min":79,"max":176,"target":"present","response":"present","rt":799.19999992847,"correct":true,"confidence":2},{"trial_n":124,"min":79,"max":176,"target":"absent","response":"present","rt":937.40000009537,"correct":false,"confidence":2},{"trial_n":125,"min":78,"max":177,"target":"absent","response":"present","rt":747.5,"correct":false,"confidence":2},{"trial_n":126,"min":77,"max":178,"target":"absent","response":"absent","rt":836,"correct":true,"confidence":3},{"trial_n":127,"min":77,"max":178,"target":"present","response":"present","rt":702.69999992847,"correct":true,"confidence":3},{"trial_n":128,"min":78,"max":177,"target":"present","response":"present","rt":1521.1999999285,"correct":true,"confidence":3},{"trial_n":129,"min":78,"max":177,"target":"present","response":"present","rt":807.20000004768,"correct":true,"confidence":2},{"trial_n":130,"min":79,"max":176,"target":"absent","response":"absent","rt":984.90000009537,"correct":true,"confidence":3},{"trial_n":131,"min":79,"max":176,"target":"absent","response":"present","rt":894.5,"correct":false,"confidence":2},{"trial_n":132,"min":78,"max":177,"target":"absent","response":"absent","rt":1020.6999999285,"correct":true,"confidence":1},{"trial_n":133,"min":78,"max":177,"target":"present","response":"present","rt":623.20000004768,"correct":true,"confidence":2},{"trial_n":134,"min":79,"max":176,"target":"absent","response":"present","rt":695,"correct":false,"confidence":2},{"trial_n":135,"min":78,"max":177,"target":"absent","response":"absent","rt":981.19999992847,"correct":true,"confidence":3},{"trial_n":136,"min":78,"max":177,"target":"present","response":"present","rt":775.20000004768,"correct":true,"confidence":3},{"trial_n":137,"min":79,"max":176,"target":"present","response":"present","rt":1124.7000000477,"correct":true,"confidence":1},{"trial_n":138,"min":79,"max":176,"target":"absent","response":"present","rt":870.60000002384,"correct":false,"confidence":2},{"trial_n":139,"min":78,"max":177,"target":"present","response":"present","rt":796.89999997616,"correct":true,"confidence":3},{"trial_n":140,"min":78,"max":177,"target":"absent","response":"absent","rt":876.60000002384,"correct":true,"confidence":3}]