[{"trial_n":1,"span":8,"encoder":"37296147","distractor":"35296147","target":"present","response":"present","rt":"6023.6999999881","correct":true,"confidence":-1},{"trial_n":2,"span":8,"encoder":"92947515","distractor":"93947515","target":"present","response":"present","rt":"1877.900000006","correct":true,"confidence":-1},{"trial_n":3,"span":10,"encoder":"6567782527","distractor":"6167782527","target":"absent","response":"present","rt":"1020.6999999881","correct":false,"confidence":-1},{"trial_n":4,"span":8,"encoder":"53259123","distractor":"53959123","target":"absent","response":"present","rt":"1508.1999999881","correct":false,"confidence":-1},{"trial_n":5,"span":6,"encoder":"436474","distractor":"432474","target":"present","response":"present","rt":"1207.7000000179","correct":true,"confidence":-1},{"trial_n":6,"span":6,"encoder":"636246","distractor":"631246","target":"absent","response":"absent","rt":"1970","correct":true,"confidence":-1},{"trial_n":7,"span":8,"encoder":"03983032","distractor":"03986032","target":"absent","response":"present","rt":"1656.900000006","correct":false,"confidence":-1},{"trial_n":8,"span":6,"encoder":"692019","distractor":"792019","target":"absent","response":"present","rt":"1565.6999999881","correct":false,"confidence":-1},{"trial_n":9,"span":4,"encoder":"6818","distractor":"6815","target":"absent","response":"absent","rt":"1721.1999999881","correct":true,"confidence":-1},{"trial_n":10,"span":4,"encoder":"4871","distractor":"4874","target":"absent","response":"absent","rt":"9614.400000006","correct":true,"confidence":-1},{"trial_n":11,"span":6,"encoder":"664599","distractor":"624599","target":"absent","response":"absent","rt":"1475.099999994","correct":true,"confidence":-1},{"trial_n":12,"span":6,"encoder":"043818","distractor":"643818","target":"absent","response":"present","rt":"1103.599999994","correct":false,"confidence":-1},{"trial_n":13,"span":5,"encoder":"62922","distractor":"67922","target":"absent","response":"absent","rt":"1408.599999994","correct":true,"confidence":-1},{"trial_n":14,"span":5,"encoder":"21419","distractor":"61419","target":"present","response":"present","rt":"957.90000000596","correct":true,"confidence":-1},{"trial_n":15,"span":6,"encoder":"247089","distractor":"244089","target":"present","response":"present","rt":"905.59999999404","correct":true,"confidence":-1},{"trial_n":16,"span":6,"encoder":"919779","distractor":"919770","target":"present","response":"present","rt":"984.09999999404","correct":true,"confidence":-1},{"trial_n":17,"span":7,"encoder":"3324557","distractor":"3824557","target":"present","response":"present","rt":"904.79999998212","correct":true,"confidence":-1},{"trial_n":18,"span":7,"encoder":"2755137","distractor":"2155137","target":"absent","response":"present","rt":"748.40000000596","correct":false,"confidence":-1},{"trial_n":19,"span":6,"encoder":"408681","distractor":"428681","target":"present","response":"present","rt":"2000.6999999881","correct":true,"confidence":-1},{"trial_n":20,"span":6,"encoder":"985581","distractor":"985582","target":"present","response":"present","rt":"1534.599999994","correct":true,"confidence":-1},{"trial_n":21,"span":7,"encoder":"0911361","distractor":"0911061","target":"absent","response":"absent","rt":"1861.8000000119","correct":true,"confidence":5},{"trial_n":22,"span":7,"encoder":"4124923","distractor":"5124923","target":"present","response":"present","rt":"3744.5","correct":true,"confidence":4},{"trial_n":23,"span":8,"encoder":"91147255","distractor":"91147257","target":"present","response":"present","rt":"2289.599999994","correct":true,"confidence":5},{"trial_n":24,"span":8,"encoder":"29355468","distractor":"29357468","target":"present","response":"absent","rt":"5275.900000006","correct":false,"confidence":2},{"trial_n":25,"span":7,"encoder":"6670223","distractor":"6670233","target":"present","response":"present","rt":"2183.5","correct":true,"confidence":4},{"trial_n":26,"span":7,"encoder":"9148231","distractor":"9748231","target":"present","response":"absent","rt":"3840.599999994","correct":false,"confidence":1},{"trial_n":27,"span":6,"encoder":"358675","distractor":"358605","target":"present","response":"absent","rt":"1501.400000006","correct":false,"confidence":3},{"trial_n":28,"span":5,"encoder":"67902","distractor":"67982","target":"present","response":"absent","rt":"3917.400000006","correct":false,"confidence":2},{"trial_n":29,"span":4,"encoder":"1780","distractor":"1787","target":"present","response":"present","rt":"1065.599999994","correct":true,"confidence":5},{"trial_n":30,"span":4,"encoder":"1697","distractor":"1497","target":"present","response":"present","rt":"1785.6000000238","correct":true,"confidence":4},{"trial_n":31,"span":5,"encoder":"43981","distractor":"43991","target":"absent","response":"absent","rt":"1182.2000000179","correct":true,"confidence":5},{"trial_n":32,"span":5,"encoder":"77888","distractor":"77088","target":"present","response":"present","rt":"2245.6999999881","correct":true,"confidence":5},{"trial_n":33,"span":6,"encoder":"419668","distractor":"419661","target":"absent","response":"absent","rt":"1145.2000000179","correct":true,"confidence":5},{"trial_n":34,"span":6,"encoder":"637824","distractor":"635824","target":"present","response":"present","rt":"3076.099999994","correct":true,"confidence":2},{"trial_n":35,"span":7,"encoder":"4484557","distractor":"4484558","target":"absent","response":"absent","rt":"1331.3999999762","correct":true,"confidence":5},{"trial_n":36,"span":7,"encoder":"9272676","distractor":"9172676","target":"absent","response":"present","rt":"2689.099999994","correct":false,"confidence":1},{"trial_n":37,"span":6,"encoder":"232820","distractor":"232120","target":"absent","response":"absent","rt":"1397.1000000238","correct":true,"confidence":5},{"trial_n":38,"span":6,"encoder":"398884","distractor":"308884","target":"absent","response":"absent","rt":"1148.400000006","correct":true,"confidence":5},{"trial_n":39,"span":7,"encoder":"3033873","distractor":"3033573","target":"absent","response":"present","rt":"2952.5","correct":false,"confidence":1},{"trial_n":40,"span":6,"encoder":"090326","distractor":"010326","target":"absent","response":"absent","rt":"1305.099999994","correct":true,"confidence":5},{"trial_n":41,"span":6,"encoder":"750660","distractor":"650660","target":"absent","response":"absent","rt":"1370.8000000119","correct":true,"confidence":5},{"trial_n":42,"span":7,"encoder":"3015451","distractor":"3016451","target":"absent","response":"absent","rt":"1292.2000000179","correct":true,"confidence":5},{"trial_n":43,"span":7,"encoder":"4953314","distractor":"4953316","target":"absent","response":"absent","rt":"2311.6000000238","correct":true,"confidence":5},{"trial_n":44,"span":8,"encoder":"55721901","distractor":"55727901","target":"absent","response":"present","rt":"4679","correct":false,"confidence":2},{"trial_n":45,"span":7,"encoder":"0372753","distractor":"0374753","target":"absent","response":"absent","rt":"1731.8000000119","correct":true,"confidence":5},{"trial_n":46,"span":7,"encoder":"5417222","distractor":"5417022","target":"present","response":"present","rt":"1116.5","correct":true,"confidence":3},{"trial_n":47,"span":8,"encoder":"21596649","distractor":"21596669","target":"absent","response":"absent","rt":"2054.900000006","correct":true,"confidence":4},{"trial_n":48,"span":8,"encoder":"06708084","distractor":"06708884","target":"present","response":"present","rt":"3599.900000006","correct":true,"confidence":1},{"trial_n":49,"span":9,"encoder":"819538132","distractor":"819438132","target":"present","response":"present","rt":"2667.2999999821","correct":true,"confidence":3},{"trial_n":50,"span":9,"encoder":"277075060","distractor":"277075000","target":"present","response":"present","rt":"1535.400000006","correct":true,"confidence":4},{"trial_n":51,"span":10,"encoder":"8142218326","distractor":"8162218326","target":"present","response":"present","rt":"1678.400000006","correct":true,"confidence":3},{"trial_n":52,"span":10,"encoder":"6769938509","distractor":"6729938509","target":"absent","response":"present","rt":"3858.599999994","correct":false,"confidence":4},{"trial_n":53,"span":9,"encoder":"728171856","distractor":"728171866","target":"present","response":"present","rt":"1812.5","correct":true,"confidence":3},{"trial_n":54,"span":9,"encoder":"787820565","distractor":"781820565","target":"absent","response":"absent","rt":"2129.3000000119","correct":true,"confidence":4},{"trial_n":55,"span":10,"encoder":"5145723202","distractor":"5145123202","target":"present","response":"absent","rt":"5864.3000000119","correct":false,"confidence":2},{"trial_n":56,"span":9,"encoder":"010651113","distractor":"010651103","target":"absent","response":"present","rt":"3445.6999999881","correct":false,"confidence":1},{"trial_n":57,"span":8,"encoder":"85603414","distractor":"87603414","target":"present","response":"present","rt":"1432.400000006","correct":true,"confidence":3},{"trial_n":58,"span":8,"encoder":"64345775","distractor":"64347775","target":"present","response":"present","rt":"1909.8000000119","correct":true,"confidence":5},{"trial_n":59,"span":9,"encoder":"025981152","distractor":"045981152","target":"present","response":"present","rt":"5941.2000000179","correct":true,"confidence":3},{"trial_n":60,"span":9,"encoder":"763411391","distractor":"063411391","target":"present","response":"absent","rt":"2308.5","correct":false,"confidence":3},{"trial_n":61,"span":8,"encoder":"87948157","distractor":"87848157","target":"absent","response":"present","rt":"1219.3000000119","correct":false,"confidence":4},{"trial_n":62,"span":7,"encoder":"2076349","distractor":"2076749","target":"absent","response":"absent","rt":"3225.599999994","correct":true,"confidence":2},{"trial_n":63,"span":7,"encoder":"6293751","distractor":"6293051","target":"present","response":"present","rt":"999.90000000596","correct":true,"confidence":5},{"trial_n":64,"span":8,"encoder":"04451886","distractor":"24451886","target":"present","response":"present","rt":"1981.5","correct":true,"confidence":4},{"trial_n":65,"span":8,"encoder":"39100419","distractor":"39190419","target":"absent","response":"absent","rt":"2074.7000000179","correct":true,"confidence":2},{"trial_n":66,"span":9,"encoder":"668900823","distractor":"668906823","target":"present","response":"absent","rt":"3494.1000000238","correct":false,"confidence":2},{"trial_n":67,"span":8,"encoder":"78559758","distractor":"48559758","target":"present","response":"present","rt":"1182.5","correct":true,"confidence":3},{"trial_n":68,"span":8,"encoder":"57745068","distractor":"87745068","target":"absent","response":"present","rt":"1576.7000000179","correct":false,"confidence":4},{"trial_n":69,"span":7,"encoder":"3995739","distractor":"3995339","target":"present","response":"present","rt":"985.5","correct":true,"confidence":1},{"trial_n":70,"span":7,"encoder":"2440495","distractor":"2840495","target":"absent","response":"absent","rt":"2133","correct":true,"confidence":3},{"trial_n":71,"span":8,"encoder":"37269884","distractor":"37569884","target":"present","response":"present","rt":"3554.7000000179","correct":true,"confidence":-1},{"trial_n":72,"span":8,"encoder":"43902057","distractor":"43942057","target":"present","response":"present","rt":"2663.5","correct":true,"confidence":-1},{"trial_n":73,"span":9,"encoder":"669663406","distractor":"669663401","target":"absent","response":"absent","rt":"1438.6000000238","correct":true,"confidence":-1},{"trial_n":74,"span":9,"encoder":"918592612","distractor":"918502612","target":"absent","response":"present","rt":"3645","correct":false,"confidence":-1},{"trial_n":75,"span":8,"encoder":"71964674","distractor":"71864674","target":"present","response":"absent","rt":"2543.5","correct":false,"confidence":-1},{"trial_n":76,"span":7,"encoder":"5374004","distractor":"2374004","target":"absent","response":"absent","rt":"1804","correct":true,"confidence":-1},{"trial_n":77,"span":7,"encoder":"4623624","distractor":"4623724","target":"present","response":"absent","rt":"2210.099999994","correct":false,"confidence":-1},{"trial_n":78,"span":6,"encoder":"468324","distractor":"668324","target":"absent","response":"absent","rt":"1267.1999999881","correct":true,"confidence":-1},{"trial_n":79,"span":6,"encoder":"212279","distractor":"212219","target":"present","response":"present","rt":"1579.7000000179","correct":true,"confidence":-1},{"trial_n":80,"span":7,"encoder":"7815245","distractor":"4815245","target":"absent","response":"absent","rt":"1804.8000000119","correct":true,"confidence":-1},{"trial_n":81,"span":7,"encoder":"2973268","distractor":"7973268","target":"absent","response":"absent","rt":"1228.5","correct":true,"confidence":-1},{"trial_n":82,"span":8,"encoder":"89615298","distractor":"89615198","target":"absent","response":"absent","rt":"2766.400000006","correct":true,"confidence":-1},{"trial_n":83,"span":8,"encoder":"31627688","distractor":"31627488","target":"absent","response":"absent","rt":"2445.099999994","correct":true,"confidence":-1},{"trial_n":84,"span":9,"encoder":"361797118","distractor":"361797114","target":"present","response":"present","rt":"1547.3999999762","correct":true,"confidence":-1},{"trial_n":85,"span":9,"encoder":"989001295","distractor":"089001295","target":"present","response":"present","rt":"5397.099999994","correct":true,"confidence":-1},{"trial_n":86,"span":10,"encoder":"2374333211","distractor":"2374343211","target":"absent","response":"absent","rt":"3752.5","correct":true,"confidence":-1},{"trial_n":87,"span":10,"encoder":"5758932406","distractor":"5758932476","target":"present","response":"present","rt":"1195.5","correct":true,"confidence":-1},{"trial_n":88,"span":11,"encoder":"72157915395","distractor":"72167915395","target":"absent","response":"present","rt":"812.5","correct":false,"confidence":-1},{"trial_n":89,"span":10,"encoder":"1180718633","distractor":"1190718633","target":"present","response":"present","rt":"5021.599999994","correct":true,"confidence":-1},{"trial_n":90,"span":10,"encoder":"2094826323","distractor":"2094820323","target":"present","response":"absent","rt":"3198.900000006","correct":false,"confidence":-1},{"trial_n":91,"span":9,"encoder":"816761393","distractor":"814761393","target":"present","response":"present","rt":"11198.399999976","correct":true,"confidence":2},{"trial_n":92,"span":9,"encoder":"900297877","distractor":"903297877","target":"absent","response":"absent","rt":"2828.2000000179","correct":true,"confidence":2},{"trial_n":93,"span":10,"encoder":"3270218533","distractor":"3970218533","target":"present","response":"present","rt":"3464.1000000238","correct":true,"confidence":4},{"trial_n":94,"span":10,"encoder":"9865483497","distractor":"1865483497","target":"present","response":"present","rt":"2083.6999999881","correct":true,"confidence":4},{"trial_n":95,"span":11,"encoder":"52400892616","distractor":"52400892666","target":"present","response":"present","rt":"5673.599999994","correct":true,"confidence":3},{"trial_n":96,"span":11,"encoder":"23061426781","distractor":"23061426381","target":"absent","response":"absent","rt":"4736.7999999821","correct":true,"confidence":2},{"trial_n":97,"span":12,"encoder":"156477516148","distractor":"156477016148","target":"present","response":"present","rt":"4232.599999994","correct":true,"confidence":4},{"trial_n":98,"span":12,"encoder":"499573293009","distractor":"499573293909","target":"absent","response":"absent","rt":"2373.599999994","correct":true,"confidence":4},{"trial_n":99,"span":13,"encoder":"1711028332397","distractor":"1711028352397","target":"present","response":"present","rt":"6656.8000000119","correct":true,"confidence":3},{"trial_n":100,"span":13,"encoder":"7841051740894","distractor":"7841051746894","target":"present","response":"present","rt":"5621","correct":true,"confidence":2},{"trial_n":101,"span":14,"encoder":"80183890930392","distractor":"80183890930395","target":"present","response":"present","rt":"3010.7999999821","correct":true,"confidence":5},{"trial_n":102,"span":14,"encoder":"32785276131617","distractor":"32785276431617","target":"present","response":"present","rt":"6620.2000000179","correct":true,"confidence":3},{"trial_n":103,"span":15,"encoder":"577811336240637","distractor":"577811336246637","target":"absent","response":"absent","rt":"3918.2999999821","correct":true,"confidence":2},{"trial_n":104,"span":15,"encoder":"401408064180095","distractor":"401408062180095","target":"absent","response":"absent","rt":"3577.6999999881","correct":true,"confidence":3},{"trial_n":105,"span":16,"encoder":"8584586193508880","distractor":"8564586193508880","target":"present","response":"absent","rt":"8444.6999999881","correct":false,"confidence":2},{"trial_n":106,"span":15,"encoder":"760057393456816","distractor":"760757393456816","target":"absent","response":"present","rt":"16288.699999988","correct":false,"confidence":2},{"trial_n":107,"span":14,"encoder":"22100113343399","distractor":"22160113343399","target":"absent","response":"absent","rt":"5469.599999994","correct":true,"confidence":2},{"trial_n":108,"span":14,"encoder":"27674805750982","distractor":"27674905750982","target":"present","response":"present","rt":"7056.900000006","correct":true,"confidence":2},{"trial_n":109,"span":15,"encoder":"065303384295546","distractor":"065203384295546","target":"absent","response":"present","rt":"6382.8000000119","correct":false,"confidence":2},{"trial_n":110,"span":14,"encoder":"21145072387830","distractor":"21145072387430","target":"present","response":"absent","rt":"5144.7000000179","correct":false,"confidence":2},{"trial_n":111,"span":13,"encoder":"3397605554479","distractor":"4397605554479","target":"absent","response":"present","rt":"9378.8999999762","correct":false,"confidence":2},{"trial_n":112,"span":12,"encoder":"366934356825","distractor":"366934396825","target":"present","response":"absent","rt":"9243.599999994","correct":false,"confidence":3},{"trial_n":113,"span":11,"encoder":"28115027097","distractor":"28135027097","target":"absent","response":"absent","rt":"2287.7999999821","correct":true,"confidence":4},{"trial_n":114,"span":11,"encoder":"67003223372","distractor":"67003223572","target":"absent","response":"absent","rt":"2318.5","correct":true,"confidence":4},{"trial_n":115,"span":12,"encoder":"045982506863","distractor":"045982406863","target":"absent","response":"absent","rt":"5119.099999994","correct":true,"confidence":3},{"trial_n":116,"span":12,"encoder":"429941463075","distractor":"429941463375","target":"absent","response":"absent","rt":"1833.7999999821","correct":true,"confidence":2},{"trial_n":117,"span":13,"encoder":"5832089827795","distractor":"5832089027795","target":"present","response":"present","rt":"2290.7000000179","correct":true,"confidence":4},{"trial_n":118,"span":13,"encoder":"0320820957326","distractor":"0320820937326","target":"absent","response":"absent","rt":"3565.6999999881","correct":true,"confidence":5},{"trial_n":119,"span":14,"encoder":"12004742799625","distractor":"12044742799625","target":"present","response":"absent","rt":"6170.8000000119","correct":false,"confidence":2},{"trial_n":120,"span":13,"encoder":"5337486049353","distractor":"5337466049353","target":"present","response":"absent","rt":"5190.8999999762","correct":false,"confidence":1},{"trial_n":121,"span":12,"encoder":"933979858301","distractor":"933979858351","target":"absent","response":"absent","rt":"1132.7999999821","correct":true,"confidence":5},{"trial_n":122,"span":12,"encoder":"339281022750","distractor":"339281022740","target":"present","response":"present","rt":"2738.8000000119","correct":true,"confidence":5},{"trial_n":123,"span":13,"encoder":"2760529646210","distractor":"2660529646210","target":"present","response":"present","rt":"7035.3000000119","correct":true,"confidence":3},{"trial_n":124,"span":13,"encoder":"5662747575626","distractor":"5762747575626","target":"present","response":"present","rt":"5212.5","correct":true,"confidence":2},{"trial_n":125,"span":14,"encoder":"63672176647812","distractor":"63672172647812","target":"absent","response":"absent","rt":"3260.6000000238","correct":true,"confidence":3},{"trial_n":126,"span":14,"encoder":"90869266293904","distractor":"90869206293904","target":"present","response":"absent","rt":"9151.400000006","correct":false,"confidence":2},{"trial_n":127,"span":13,"encoder":"8468869189092","distractor":"8468839189092","target":"present","response":"present","rt":"10723.200000018","correct":true,"confidence":1},{"trial_n":128,"span":13,"encoder":"2629175801373","distractor":"2629175801873","target":"absent","response":"absent","rt":"14287","correct":true,"confidence":2},{"trial_n":129,"span":14,"encoder":"97605689803861","distractor":"97605684803861","target":"present","response":"absent","rt":"4802.5","correct":false,"confidence":3},{"trial_n":130,"span":13,"encoder":"1339658549121","distractor":"1339657549121","target":"absent","response":"present","rt":"4589.599999994","correct":false,"confidence":2},{"trial_n":131,"span":12,"encoder":"801015641499","distractor":"801015641491","target":"absent","response":"absent","rt":"1392.099999994","correct":true,"confidence":4},{"trial_n":132,"span":12,"encoder":"374897080433","distractor":"374827080433","target":"present","response":"present","rt":"4494.3000000119","correct":true,"confidence":4},{"trial_n":133,"span":13,"encoder":"4450147525269","distractor":"4454147525269","target":"absent","response":"present","rt":"4560.1000000238","correct":false,"confidence":2},{"trial_n":134,"span":12,"encoder":"478244995116","distractor":"478244991116","target":"present","response":"present","rt":"2586.2000000179","correct":true,"confidence":4},{"trial_n":135,"span":12,"encoder":"889807754105","distractor":"889807154105","target":"absent","response":"absent","rt":"15319.599999994","correct":true,"confidence":3},{"trial_n":136,"span":13,"encoder":"6824465171940","distractor":"6824465178940","target":"present","response":"absent","rt":"6111.900000006","correct":false,"confidence":2},{"trial_n":137,"span":12,"encoder":"718691652207","distractor":"718691552207","target":"absent","response":"present","rt":"7890.1999999881","correct":false,"confidence":2},{"trial_n":138,"span":11,"encoder":"49176567143","distractor":"49476567143","target":"present","response":"absent","rt":"4534.599999994","correct":false,"confidence":2},{"trial_n":139,"span":10,"encoder":"9583506381","distractor":"9583306381","target":"absent","response":"present","rt":"2850.8000000119","correct":false,"confidence":1},{"trial_n":140,"span":9,"encoder":"413780699","distractor":"416780699","target":"absent","response":"present","rt":"2517.7999999821","correct":false,"confidence":3}]