[{"trial_n":1,"n_dots":4.25,"target":"left","response":"right","rt":6428.6000003815,"correct":false,"confidence":-1},{"trial_n":2,"n_dots":4.25,"target":"left","response":"left","rt":1004.8000001907,"correct":true,"confidence":-1},{"trial_n":3,"n_dots":4.25,"target":"right","response":"right","rt":434.2000002861,"correct":true,"confidence":-1},{"trial_n":4,"n_dots":3.85,"target":"left","response":"left","rt":630.40000009537,"correct":true,"confidence":-1},{"trial_n":5,"n_dots":3.85,"target":"right","response":"right","rt":59.599999904633,"correct":true,"confidence":-1},{"trial_n":6,"n_dots":3.45,"target":"left","response":"left","rt":409.40000009537,"correct":true,"confidence":-1},{"trial_n":7,"n_dots":3.45,"target":"left","response":"left","rt":717.7999997139,"correct":true,"confidence":-1},{"trial_n":8,"n_dots":3.25,"target":"left","response":"left","rt":546.80000019073,"correct":true,"confidence":-1},{"trial_n":9,"n_dots":3.25,"target":"right","response":"right","rt":491.19999980927,"correct":true,"confidence":-1},{"trial_n":10,"n_dots":3.05,"target":"right","response":"right","rt":395.69999980927,"correct":true,"confidence":-1},{"trial_n":11,"n_dots":3.05,"target":"left","response":"right","rt":582.09999990463,"correct":false,"confidence":-1},{"trial_n":12,"n_dots":3.25,"target":"right","response":"right","rt":305.60000038147,"correct":true,"confidence":-1},{"trial_n":13,"n_dots":3.25,"target":"left","response":"right","rt":475.09999990463,"correct":false,"confidence":-1},{"trial_n":14,"n_dots":3.35,"target":"right","response":"left","rt":410.30000019073,"correct":false,"confidence":-1},{"trial_n":15,"n_dots":3.45,"target":"right","response":"left","rt":572.2999997139,"correct":false,"confidence":-1},{"trial_n":16,"n_dots":3.55,"target":"left","response":"left","rt":636.2999997139,"correct":true,"confidence":-1},{"trial_n":17,"n_dots":3.55,"target":"left","response":"left","rt":414.09999990463,"correct":true,"confidence":-1},{"trial_n":18,"n_dots":3.45,"target":"right","response":"right","rt":449.10000038147,"correct":true,"confidence":-1},{"trial_n":19,"n_dots":3.45,"target":"right","response":"right","rt":563,"correct":true,"confidence":-1},{"trial_n":20,"n_dots":3.35,"target":"left","response":"left","rt":430.40000009537,"correct":true,"confidence":-1},{"trial_n":21,"n_dots":3.35,"target":"left","response":"left","rt":811,"correct":true,"confidence":5},{"trial_n":22,"n_dots":3.25,"target":"left","response":"left","rt":793.69999980927,"correct":true,"confidence":4},{"trial_n":23,"n_dots":3.25,"target":"right","response":"right","rt":569.69999980927,"correct":true,"confidence":4},{"trial_n":24,"n_dots":3.15,"target":"left","response":"left","rt":922.2999997139,"correct":true,"confidence":4},{"trial_n":25,"n_dots":3.15,"target":"right","response":"right","rt":586.10000038147,"correct":true,"confidence":4},{"trial_n":26,"n_dots":3.05,"target":"left","response":"right","rt":2079.3000001907,"correct":false,"confidence":3},{"trial_n":27,"n_dots":3.15,"target":"right","response":"right","rt":649.80000019073,"correct":true,"confidence":4},{"trial_n":28,"n_dots":3.15,"target":"left","response":"left","rt":665.30000019073,"correct":true,"confidence":3},{"trial_n":29,"n_dots":3.05,"target":"left","response":"left","rt":1569.8000001907,"correct":true,"confidence":3},{"trial_n":30,"n_dots":3.05,"target":"right","response":"right","rt":655.39999961853,"correct":true,"confidence":3},{"trial_n":31,"n_dots":2.95,"target":"right","response":"right","rt":402.90000009537,"correct":true,"confidence":4},{"trial_n":32,"n_dots":2.95,"target":"right","response":"right","rt":717,"correct":true,"confidence":4},{"trial_n":33,"n_dots":2.85,"target":"left","response":"left","rt":476.19999980927,"correct":true,"confidence":3},{"trial_n":34,"n_dots":2.85,"target":"right","response":"right","rt":811.59999990463,"correct":true,"confidence":3},{"trial_n":35,"n_dots":2.75,"target":"right","response":"right","rt":638.7000002861,"correct":true,"confidence":4},{"trial_n":36,"n_dots":2.75,"target":"right","response":"right","rt":1043.5999999046,"correct":true,"confidence":3},{"trial_n":37,"n_dots":2.65,"target":"right","response":"left","rt":1611.1999998093,"correct":false,"confidence":2},{"trial_n":38,"n_dots":2.75,"target":"right","response":"right","rt":581.09999990463,"correct":true,"confidence":3},{"trial_n":39,"n_dots":2.75,"target":"right","response":"right","rt":419.7999997139,"correct":true,"confidence":5},{"trial_n":40,"n_dots":2.65,"target":"left","response":"right","rt":734.2999997139,"correct":false,"confidence":2},{"trial_n":41,"n_dots":2.75,"target":"left","response":"right","rt":1556.6999998093,"correct":false,"confidence":2},{"trial_n":42,"n_dots":2.85,"target":"right","response":"left","rt":912.19999980927,"correct":false,"confidence":3},{"trial_n":43,"n_dots":2.95,"target":"right","response":"right","rt":604.59999990463,"correct":true,"confidence":3},{"trial_n":44,"n_dots":2.95,"target":"left","response":"left","rt":777.7999997139,"correct":true,"confidence":3},{"trial_n":45,"n_dots":2.85,"target":"right","response":"right","rt":830.5,"correct":true,"confidence":3},{"trial_n":46,"n_dots":2.85,"target":"left","response":"left","rt":497.09999990463,"correct":true,"confidence":4},{"trial_n":47,"n_dots":2.75,"target":"right","response":"left","rt":1409.1999998093,"correct":false,"confidence":3},{"trial_n":48,"n_dots":2.85,"target":"left","response":"left","rt":939.2999997139,"correct":true,"confidence":3},{"trial_n":49,"n_dots":2.85,"target":"left","response":"right","rt":981.5,"correct":false,"confidence":3},{"trial_n":50,"n_dots":2.95,"target":"right","response":"left","rt":922.59999990463,"correct":false,"confidence":3},{"trial_n":51,"n_dots":3.05,"target":"left","response":"right","rt":776.2000002861,"correct":false,"confidence":3},{"trial_n":52,"n_dots":3.15,"target":"left","response":"left","rt":419.09999990463,"correct":true,"confidence":3},{"trial_n":53,"n_dots":3.15,"target":"left","response":"left","rt":608.19999980927,"correct":true,"confidence":3},{"trial_n":54,"n_dots":3.05,"target":"right","response":"right","rt":748.30000019073,"correct":true,"confidence":4},{"trial_n":55,"n_dots":3.05,"target":"left","response":"right","rt":1704.7999997139,"correct":false,"confidence":3},{"trial_n":56,"n_dots":3.15,"target":"left","response":"left","rt":442,"correct":true,"confidence":4},{"trial_n":57,"n_dots":3.15,"target":"left","response":"left","rt":1137.9000000954,"correct":true,"confidence":3},{"trial_n":58,"n_dots":3.05,"target":"left","response":"left","rt":765.7000002861,"correct":true,"confidence":3},{"trial_n":59,"n_dots":3.05,"target":"left","response":"right","rt":1362.6999998093,"correct":false,"confidence":3},{"trial_n":60,"n_dots":3.15,"target":"right","response":"right","rt":371.2000002861,"correct":true,"confidence":3},{"trial_n":61,"n_dots":3.15,"target":"right","response":"right","rt":526.69999980927,"correct":true,"confidence":3},{"trial_n":62,"n_dots":3.05,"target":"left","response":"left","rt":681.90000009537,"correct":true,"confidence":3},{"trial_n":63,"n_dots":3.05,"target":"right","response":"right","rt":585.2999997139,"correct":true,"confidence":4},{"trial_n":64,"n_dots":2.95,"target":"left","response":"left","rt":532.7000002861,"correct":true,"confidence":3},{"trial_n":65,"n_dots":2.95,"target":"left","response":"left","rt":550.5,"correct":true,"confidence":3},{"trial_n":66,"n_dots":2.85,"target":"right","response":"right","rt":454.40000009537,"correct":true,"confidence":3},{"trial_n":67,"n_dots":2.85,"target":"right","response":"right","rt":156.40000009537,"correct":true,"confidence":3},{"trial_n":68,"n_dots":2.75,"target":"right","response":"left","rt":1429.6000003815,"correct":false,"confidence":2},{"trial_n":69,"n_dots":2.85,"target":"right","response":"right","rt":485.39999961853,"correct":true,"confidence":3},{"trial_n":70,"n_dots":2.85,"target":"right","response":"right","rt":485.40000009537,"correct":true,"confidence":3},{"trial_n":71,"n_dots":2.75,"target":"left","response":"right","rt":1185.9000000954,"correct":false,"confidence":3},{"trial_n":72,"n_dots":2.85,"target":"right","response":"right","rt":377.5,"correct":true,"confidence":3},{"trial_n":73,"n_dots":2.85,"target":"right","response":"left","rt":907.60000038147,"correct":false,"confidence":2},{"trial_n":74,"n_dots":2.95,"target":"left","response":"left","rt":454.2000002861,"correct":true,"confidence":4},{"trial_n":75,"n_dots":2.95,"target":"right","response":"right","rt":676.2000002861,"correct":true,"confidence":3},{"trial_n":76,"n_dots":2.85,"target":"right","response":"left","rt":766.09999990463,"correct":false,"confidence":3},{"trial_n":77,"n_dots":2.95,"target":"left","response":"left","rt":685.5,"correct":true,"confidence":3},{"trial_n":78,"n_dots":2.95,"target":"right","response":"left","rt":423.19999980927,"correct":false,"confidence":3},{"trial_n":79,"n_dots":3.05,"target":"right","response":"right","rt":1727.7999997139,"correct":true,"confidence":2},{"trial_n":80,"n_dots":3.05,"target":"right","response":"left","rt":836.90000009537,"correct":false,"confidence":2},{"trial_n":81,"n_dots":3.15,"target":"right","response":"right","rt":828.59999990463,"correct":true,"confidence":3},{"trial_n":82,"n_dots":3.15,"target":"left","response":"left","rt":847.59999990463,"correct":true,"confidence":2},{"trial_n":83,"n_dots":3.05,"target":"left","response":"left","rt":331.89999961853,"correct":true,"confidence":4},{"trial_n":84,"n_dots":3.05,"target":"left","response":"left","rt":450.59999990463,"correct":true,"confidence":3},{"trial_n":85,"n_dots":2.95,"target":"left","response":"left","rt":428.5,"correct":true,"confidence":4},{"trial_n":86,"n_dots":2.95,"target":"left","response":"left","rt":461.30000019073,"correct":true,"confidence":3},{"trial_n":87,"n_dots":2.85,"target":"right","response":"right","rt":531.90000009537,"correct":true,"confidence":2},{"trial_n":88,"n_dots":2.85,"target":"left","response":"left","rt":707.09999990463,"correct":true,"confidence":3},{"trial_n":89,"n_dots":2.75,"target":"left","response":"right","rt":1533.4000000954,"correct":false,"confidence":2},{"trial_n":90,"n_dots":2.85,"target":"right","response":"right","rt":392.69999980927,"correct":true,"confidence":3},{"trial_n":91,"n_dots":2.85,"target":"right","response":"right","rt":376.90000009537,"correct":true,"confidence":3},{"trial_n":92,"n_dots":2.75,"target":"left","response":"left","rt":478.5,"correct":true,"confidence":2},{"trial_n":93,"n_dots":2.75,"target":"left","response":"right","rt":1697,"correct":false,"confidence":3},{"trial_n":94,"n_dots":2.85,"target":"right","response":"right","rt":398.09999990463,"correct":true,"confidence":3},{"trial_n":95,"n_dots":2.85,"target":"left","response":"left","rt":539.40000009537,"correct":true,"confidence":3},{"trial_n":96,"n_dots":2.75,"target":"right","response":"right","rt":402.09999990463,"correct":true,"confidence":3},{"trial_n":97,"n_dots":2.75,"target":"right","response":"left","rt":475,"correct":false,"confidence":1},{"trial_n":98,"n_dots":2.85,"target":"right","response":"right","rt":3268.5,"correct":true,"confidence":3},{"trial_n":99,"n_dots":2.85,"target":"right","response":"right","rt":331.40000009537,"correct":true,"confidence":3},{"trial_n":100,"n_dots":2.75,"target":"right","response":"right","rt":503.09999990463,"correct":true,"confidence":3},{"trial_n":101,"n_dots":2.75,"target":"left","response":"left","rt":474.40000009537,"correct":true,"confidence":3},{"trial_n":102,"n_dots":2.65,"target":"right","response":"left","rt":2939.8000001907,"correct":false,"confidence":1},{"trial_n":103,"n_dots":2.75,"target":"left","response":"left","rt":1314.9000000954,"correct":true,"confidence":3},{"trial_n":104,"n_dots":2.75,"target":"left","response":"left","rt":2369.4000000954,"correct":true,"confidence":2},{"trial_n":105,"n_dots":2.65,"target":"left","response":"left","rt":1332,"correct":true,"confidence":3},{"trial_n":106,"n_dots":2.65,"target":"left","response":"right","rt":2344.8000001907,"correct":false,"confidence":3},{"trial_n":107,"n_dots":2.75,"target":"left","response":"left","rt":610.59999990463,"correct":true,"confidence":3},{"trial_n":108,"n_dots":2.75,"target":"right","response":"left","rt":990.90000009537,"correct":false,"confidence":3},{"trial_n":109,"n_dots":2.85,"target":"right","response":"right","rt":618.59999990463,"correct":true,"confidence":4},{"trial_n":110,"n_dots":2.85,"target":"right","response":"right","rt":509.2000002861,"correct":true,"confidence":4},{"trial_n":111,"n_dots":2.75,"target":"right","response":"right","rt":576.5,"correct":true,"confidence":4},{"trial_n":112,"n_dots":2.75,"target":"right","response":"left","rt":580.59999990463,"correct":false,"confidence":3},{"trial_n":113,"n_dots":2.85,"target":"left","response":"right","rt":975.69999980927,"correct":false,"confidence":2},{"trial_n":114,"n_dots":2.95,"target":"left","response":"left","rt":497.5,"correct":true,"confidence":4},{"trial_n":115,"n_dots":2.95,"target":"right","response":"right","rt":705.59999990463,"correct":true,"confidence":3},{"trial_n":116,"n_dots":2.85,"target":"left","response":"left","rt":473.7999997139,"correct":true,"confidence":3},{"trial_n":117,"n_dots":2.85,"target":"left","response":"left","rt":629.7000002861,"correct":true,"confidence":3},{"trial_n":118,"n_dots":2.75,"target":"left","response":"left","rt":1353.7999997139,"correct":true,"confidence":2},{"trial_n":119,"n_dots":2.75,"target":"right","response":"right","rt":461.7000002861,"correct":true,"confidence":4},{"trial_n":120,"n_dots":2.65,"target":"left","response":"left","rt":1000.5,"correct":true,"confidence":3}]