[{"trial_n":1,"min":25,"max":230,"target":"present","response":"present","rt":5951.3000001907,"correct":true,"confidence":-1},{"trial_n":2,"min":25,"max":230,"target":"present","response":"present","rt":734.60000038147,"correct":true,"confidence":-1},{"trial_n":3,"min":41,"max":214,"target":"absent","response":"absent","rt":475,"correct":true,"confidence":-1},{"trial_n":4,"min":41,"max":214,"target":"absent","response":"absent","rt":295.59999990463,"correct":true,"confidence":-1},{"trial_n":5,"min":57,"max":198,"target":"present","response":"present","rt":203,"correct":true,"confidence":-1},{"trial_n":6,"min":57,"max":198,"target":"present","response":"present","rt":291.59999990463,"correct":true,"confidence":-1},{"trial_n":7,"min":73,"max":182,"target":"absent","response":"absent","rt":303.7999997139,"correct":true,"confidence":-1},{"trial_n":8,"min":73,"max":182,"target":"present","response":"absent","rt":335.5,"correct":false,"confidence":-1},{"trial_n":9,"min":57,"max":198,"target":"present","response":"present","rt":279.59999990463,"correct":true,"confidence":-1},{"trial_n":10,"min":57,"max":198,"target":"absent","response":"present","rt":1144.7999997139,"correct":false,"confidence":-1},{"trial_n":11,"min":49,"max":206,"target":"present","response":"present","rt":385.2999997139,"correct":true,"confidence":-1},{"trial_n":12,"min":49,"max":206,"target":"present","response":"present","rt":291.2999997139,"correct":true,"confidence":-1},{"trial_n":13,"min":57,"max":198,"target":"absent","response":"absent","rt":337.59999990463,"correct":true,"confidence":-1},{"trial_n":14,"min":57,"max":198,"target":"absent","response":"absent","rt":320.19999980927,"correct":true,"confidence":-1},{"trial_n":15,"min":65,"max":190,"target":"absent","response":"absent","rt":862.5,"correct":true,"confidence":-1},{"trial_n":16,"min":65,"max":190,"target":"present","response":"present","rt":305.40000009537,"correct":true,"confidence":-1},{"trial_n":17,"min":73,"max":182,"target":"absent","response":"present","rt":1072.5999999046,"correct":false,"confidence":-1},{"trial_n":18,"min":65,"max":190,"target":"present","response":"present","rt":371.7999997139,"correct":true,"confidence":-1},{"trial_n":19,"min":65,"max":190,"target":"absent","response":"absent","rt":316.2000002861,"correct":true,"confidence":-1},{"trial_n":20,"min":73,"max":182,"target":"absent","response":"absent","rt":356.7000002861,"correct":true,"confidence":-1},{"trial_n":21,"min":73,"max":182,"target":"absent","response":"absent","rt":1179.1999998093,"correct":true,"confidence":5},{"trial_n":22,"min":77,"max":178,"target":"present","response":"absent","rt":1928.9000000954,"correct":false,"confidence":4},{"trial_n":23,"min":73,"max":182,"target":"present","response":"present","rt":3521.0999999046,"correct":true,"confidence":4},{"trial_n":24,"min":73,"max":182,"target":"absent","response":"absent","rt":874.10000038147,"correct":true,"confidence":4},{"trial_n":25,"min":77,"max":178,"target":"present","response":"absent","rt":1682.1000003815,"correct":false,"confidence":4},{"trial_n":26,"min":73,"max":182,"target":"present","response":"present","rt":1274.5999999046,"correct":true,"confidence":4},{"trial_n":27,"min":73,"max":182,"target":"present","response":"present","rt":859.09999990463,"correct":true,"confidence":5},{"trial_n":28,"min":77,"max":178,"target":"present","response":"present","rt":394.80000019073,"correct":true,"confidence":5},{"trial_n":29,"min":77,"max":178,"target":"absent","response":"absent","rt":963.90000009537,"correct":true,"confidence":4},{"trial_n":30,"min":81,"max":174,"target":"absent","response":"absent","rt":485.09999990463,"correct":true,"confidence":5},{"trial_n":31,"min":81,"max":174,"target":"present","response":"absent","rt":1136.3000001907,"correct":false,"confidence":3},{"trial_n":32,"min":79,"max":176,"target":"absent","response":"absent","rt":634,"correct":true,"confidence":5},{"trial_n":33,"min":79,"max":176,"target":"present","response":"present","rt":425.5,"correct":true,"confidence":5},{"trial_n":34,"min":81,"max":174,"target":"absent","response":"absent","rt":624.30000019073,"correct":true,"confidence":4},{"trial_n":35,"min":81,"max":174,"target":"present","response":"absent","rt":435.2999997139,"correct":false,"confidence":5},{"trial_n":36,"min":79,"max":176,"target":"present","response":"present","rt":390.2000002861,"correct":true,"confidence":5},{"trial_n":37,"min":79,"max":176,"target":"absent","response":"absent","rt":953,"correct":true,"confidence":5},{"trial_n":38,"min":81,"max":174,"target":"present","response":"absent","rt":506.10000038147,"correct":false,"confidence":5},{"trial_n":39,"min":79,"max":176,"target":"absent","response":"absent","rt":381,"correct":true,"confidence":4},{"trial_n":40,"min":79,"max":176,"target":"absent","response":"absent","rt":922.09999990463,"correct":true,"confidence":4},{"trial_n":41,"min":80,"max":175,"target":"absent","response":"absent","rt":428.5,"correct":true,"confidence":5},{"trial_n":42,"min":80,"max":175,"target":"present","response":"absent","rt":1116.9000000954,"correct":false,"confidence":4},{"trial_n":43,"min":79,"max":176,"target":"present","response":"present","rt":396.09999990463,"correct":true,"confidence":4},{"trial_n":44,"min":79,"max":176,"target":"absent","response":"absent","rt":354.59999990463,"correct":true,"confidence":4},{"trial_n":45,"min":80,"max":175,"target":"absent","response":"absent","rt":370.80000019073,"correct":true,"confidence":5},{"trial_n":46,"min":80,"max":175,"target":"present","response":"present","rt":910.19999980927,"correct":true,"confidence":4},{"trial_n":47,"min":81,"max":174,"target":"present","response":"absent","rt":763.69999980927,"correct":false,"confidence":4},{"trial_n":48,"min":80,"max":175,"target":"absent","response":"absent","rt":636,"correct":true,"confidence":3},{"trial_n":49,"min":80,"max":175,"target":"present","response":"present","rt":2121.4000000954,"correct":true,"confidence":3},{"trial_n":50,"min":81,"max":174,"target":"absent","response":"absent","rt":700,"correct":true,"confidence":4},{"trial_n":51,"min":81,"max":174,"target":"absent","response":"absent","rt":1023.2999997139,"correct":true,"confidence":3},{"trial_n":52,"min":82,"max":173,"target":"absent","response":"present","rt":2389.6999998093,"correct":false,"confidence":3},{"trial_n":53,"min":81,"max":174,"target":"absent","response":"absent","rt":697.19999980927,"correct":true,"confidence":5},{"trial_n":54,"min":81,"max":174,"target":"absent","response":"absent","rt":693.60000038147,"correct":true,"confidence":5},{"trial_n":55,"min":82,"max":173,"target":"absent","response":"absent","rt":472.69999980927,"correct":true,"confidence":5},{"trial_n":56,"min":82,"max":173,"target":"present","response":"absent","rt":1234.6999998093,"correct":false,"confidence":4},{"trial_n":57,"min":81,"max":174,"target":"present","response":"present","rt":1120.0999999046,"correct":true,"confidence":3},{"trial_n":58,"min":81,"max":174,"target":"present","response":"present","rt":495.90000009537,"correct":true,"confidence":4},{"trial_n":59,"min":82,"max":173,"target":"absent","response":"present","rt":1347.8000001907,"correct":false,"confidence":4},{"trial_n":60,"min":81,"max":174,"target":"present","response":"present","rt":738.09999990463,"correct":true,"confidence":5},{"trial_n":61,"min":81,"max":174,"target":"present","response":"present","rt":371,"correct":true,"confidence":5},{"trial_n":62,"min":82,"max":173,"target":"present","response":"present","rt":849.69999980927,"correct":true,"confidence":3},{"trial_n":63,"min":82,"max":173,"target":"present","response":"present","rt":2261.5,"correct":true,"confidence":4},{"trial_n":64,"min":83,"max":172,"target":"present","response":"present","rt":927.30000019073,"correct":true,"confidence":3},{"trial_n":65,"min":83,"max":172,"target":"absent","response":"absent","rt":467.59999990463,"correct":true,"confidence":4},{"trial_n":66,"min":84,"max":171,"target":"present","response":"absent","rt":1167.9000000954,"correct":false,"confidence":4},{"trial_n":67,"min":83,"max":172,"target":"present","response":"absent","rt":621.19999980927,"correct":false,"confidence":4},{"trial_n":68,"min":82,"max":173,"target":"absent","response":"absent","rt":511.89999961853,"correct":true,"confidence":3},{"trial_n":69,"min":82,"max":173,"target":"absent","response":"absent","rt":845,"correct":true,"confidence":4},{"trial_n":70,"min":83,"max":172,"target":"absent","response":"absent","rt":790.40000009537,"correct":true,"confidence":4},{"trial_n":71,"min":41,"max":214,"target":"present","response":"present","rt":3304.7999997139,"correct":true,"confidence":-1},{"trial_n":72,"min":41,"max":214,"target":"present","response":"present","rt":686.39999961853,"correct":true,"confidence":-1},{"trial_n":73,"min":57,"max":198,"target":"absent","response":"absent","rt":572.2000002861,"correct":true,"confidence":-1},{"trial_n":74,"min":57,"max":198,"target":"absent","response":"absent","rt":489.69999980927,"correct":true,"confidence":-1},{"trial_n":75,"min":73,"max":182,"target":"present","response":"present","rt":340.19999980927,"correct":true,"confidence":-1},{"trial_n":76,"min":73,"max":182,"target":"present","response":"present","rt":385.10000038147,"correct":true,"confidence":-1},{"trial_n":77,"min":89,"max":166,"target":"absent","response":"present","rt":684.30000019073,"correct":false,"confidence":-1},{"trial_n":78,"min":73,"max":182,"target":"absent","response":"absent","rt":358.7999997139,"correct":true,"confidence":-1},{"trial_n":79,"min":73,"max":182,"target":"present","response":"present","rt":431.10000038147,"correct":true,"confidence":-1},{"trial_n":80,"min":89,"max":166,"target":"present","response":"absent","rt":448.7999997139,"correct":false,"confidence":-1},{"trial_n":81,"min":81,"max":174,"target":"present","response":"present","rt":520.90000009537,"correct":true,"confidence":-1},{"trial_n":82,"min":81,"max":174,"target":"absent","response":"present","rt":1539.3999996185,"correct":false,"confidence":-1},{"trial_n":83,"min":73,"max":182,"target":"absent","response":"absent","rt":917.2000002861,"correct":true,"confidence":-1},{"trial_n":84,"min":73,"max":182,"target":"absent","response":"absent","rt":492.09999990463,"correct":true,"confidence":-1},{"trial_n":85,"min":81,"max":174,"target":"present","response":"absent","rt":469.7999997139,"correct":false,"confidence":-1},{"trial_n":86,"min":73,"max":182,"target":"present","response":"present","rt":1495.8000001907,"correct":true,"confidence":-1},{"trial_n":87,"min":73,"max":182,"target":"present","response":"present","rt":281.09999990463,"correct":true,"confidence":-1},{"trial_n":88,"min":81,"max":174,"target":"present","response":"present","rt":616.69999980927,"correct":true,"confidence":-1},{"trial_n":89,"min":81,"max":174,"target":"absent","response":"absent","rt":550.5,"correct":true,"confidence":-1},{"trial_n":90,"min":89,"max":166,"target":"absent","response":"absent","rt":916.5,"correct":true,"confidence":-1},{"trial_n":91,"min":89,"max":166,"target":"present","response":"present","rt":936.2999997139,"correct":true,"confidence":5},{"trial_n":92,"min":93,"max":162,"target":"present","response":"present","rt":631.59999990463,"correct":true,"confidence":5},{"trial_n":93,"min":93,"max":162,"target":"absent","response":"present","rt":2898.8000001907,"correct":false,"confidence":1},{"trial_n":94,"min":89,"max":166,"target":"present","response":"present","rt":493.80000019073,"correct":true,"confidence":5},{"trial_n":95,"min":89,"max":166,"target":"absent","response":"absent","rt":3619.5999999046,"correct":true,"confidence":3},{"trial_n":96,"min":93,"max":162,"target":"absent","response":"present","rt":1152.5999999046,"correct":false,"confidence":4},{"trial_n":97,"min":89,"max":166,"target":"present","response":"present","rt":874.30000019073,"correct":true,"confidence":5},{"trial_n":98,"min":89,"max":166,"target":"absent","response":"present","rt":751.19999980927,"correct":false,"confidence":4},{"trial_n":99,"min":85,"max":170,"target":"present","response":"present","rt":666.40000009537,"correct":true,"confidence":4},{"trial_n":100,"min":85,"max":170,"target":"present","response":"present","rt":551.30000019073,"correct":true,"confidence":5},{"trial_n":101,"min":87,"max":168,"target":"absent","response":"absent","rt":1225.8000001907,"correct":true,"confidence":3},{"trial_n":102,"min":87,"max":168,"target":"absent","response":"absent","rt":2299.6999998093,"correct":true,"confidence":2},{"trial_n":103,"min":89,"max":166,"target":"absent","response":"absent","rt":1651.5999999046,"correct":true,"confidence":1},{"trial_n":104,"min":89,"max":166,"target":"present","response":"present","rt":599.2999997139,"correct":true,"confidence":5},{"trial_n":105,"min":91,"max":164,"target":"present","response":"present","rt":626.90000009537,"correct":true,"confidence":5},{"trial_n":106,"min":91,"max":164,"target":"present","response":"present","rt":1099.5,"correct":true,"confidence":4},{"trial_n":107,"min":93,"max":162,"target":"absent","response":"present","rt":1040.0999999046,"correct":false,"confidence":2},{"trial_n":108,"min":91,"max":164,"target":"absent","response":"present","rt":1981.6000003815,"correct":false,"confidence":5},{"trial_n":109,"min":89,"max":166,"target":"present","response":"present","rt":970,"correct":true,"confidence":5},{"trial_n":110,"min":89,"max":166,"target":"present","response":"present","rt":892.2000002861,"correct":true,"confidence":5},{"trial_n":111,"min":90,"max":165,"target":"absent","response":"absent","rt":1383.2999997139,"correct":true,"confidence":2},{"trial_n":112,"min":90,"max":165,"target":"present","response":"absent","rt":1464.8000001907,"correct":false,"confidence":1},{"trial_n":113,"min":89,"max":166,"target":"present","response":"absent","rt":1077.2999997139,"correct":false,"confidence":1},{"trial_n":114,"min":88,"max":167,"target":"absent","response":"present","rt":810.19999980927,"correct":false,"confidence":4},{"trial_n":115,"min":87,"max":168,"target":"present","response":"present","rt":992.09999990463,"correct":true,"confidence":4},{"trial_n":116,"min":87,"max":168,"target":"present","response":"present","rt":557.80000019073,"correct":true,"confidence":5},{"trial_n":117,"min":88,"max":167,"target":"absent","response":"present","rt":1751.1999998093,"correct":false,"confidence":1},{"trial_n":118,"min":87,"max":168,"target":"absent","response":"present","rt":604.80000019073,"correct":false,"confidence":3},{"trial_n":119,"min":86,"max":169,"target":"absent","response":"present","rt":850.2000002861,"correct":false,"confidence":1},{"trial_n":120,"min":85,"max":170,"target":"present","response":"present","rt":1084.4000000954,"correct":true,"confidence":5},{"trial_n":121,"min":85,"max":170,"target":"present","response":"present","rt":245,"correct":true,"confidence":5},{"trial_n":122,"min":86,"max":169,"target":"absent","response":"absent","rt":698.2000002861,"correct":true,"confidence":5},{"trial_n":123,"min":86,"max":169,"target":"absent","response":"absent","rt":557.5,"correct":true,"confidence":5},{"trial_n":124,"min":87,"max":168,"target":"absent","response":"absent","rt":1115.4000000954,"correct":true,"confidence":3},{"trial_n":125,"min":87,"max":168,"target":"present","response":"present","rt":392.19999980927,"correct":true,"confidence":5},{"trial_n":126,"min":88,"max":167,"target":"present","response":"absent","rt":1767,"correct":false,"confidence":1},{"trial_n":127,"min":87,"max":168,"target":"present","response":"present","rt":795.5,"correct":true,"confidence":3},{"trial_n":128,"min":87,"max":168,"target":"absent","response":"absent","rt":1704.8999996185,"correct":true,"confidence":4},{"trial_n":129,"min":88,"max":167,"target":"absent","response":"present","rt":675.40000009537,"correct":false,"confidence":3},{"trial_n":130,"min":87,"max":168,"target":"absent","response":"absent","rt":1480.8999996185,"correct":true,"confidence":2},{"trial_n":131,"min":87,"max":168,"target":"absent","response":"present","rt":969.40000009537,"correct":false,"confidence":1},{"trial_n":132,"min":86,"max":169,"target":"absent","response":"absent","rt":1270.7000002861,"correct":true,"confidence":3},{"trial_n":133,"min":86,"max":169,"target":"present","response":"present","rt":383.5,"correct":true,"confidence":5},{"trial_n":134,"min":87,"max":168,"target":"absent","response":"absent","rt":2276.9000000954,"correct":true,"confidence":1},{"trial_n":135,"min":87,"max":168,"target":"present","response":"present","rt":1043,"correct":true,"confidence":1},{"trial_n":136,"min":88,"max":167,"target":"present","response":"present","rt":408.90000009537,"correct":true,"confidence":5},{"trial_n":137,"min":88,"max":167,"target":"present","response":"present","rt":988,"correct":true,"confidence":3},{"trial_n":138,"min":89,"max":166,"target":"absent","response":"present","rt":887.5,"correct":false,"confidence":3},{"trial_n":139,"min":88,"max":167,"target":"absent","response":"absent","rt":1331,"correct":true,"confidence":4},{"trial_n":140,"min":88,"max":167,"target":"present","response":"absent","rt":952.5,"correct":false,"confidence":2}]