[{"trial_n":1,"span":8,"encoder":"10899258","distractor":"10799258","target":"present","response":"absent","rt":"6778.4000000954","correct":false,"confidence":-1},{"trial_n":2,"span":6,"encoder":"030956","distractor":"030936","target":"present","response":"present","rt":"2739.1999998093","correct":true,"confidence":-1},{"trial_n":3,"span":6,"encoder":"872050","distractor":"872070","target":"absent","response":"absent","rt":"2463.7000002861","correct":true,"confidence":-1},{"trial_n":4,"span":8,"encoder":"30763262","distractor":"90763262","target":"absent","response":"present","rt":"5751","correct":false,"confidence":-1},{"trial_n":5,"span":6,"encoder":"030590","distractor":"030190","target":"present","response":"present","rt":"1844.6999998093","correct":true,"confidence":-1},{"trial_n":6,"span":6,"encoder":"266548","distractor":"266448","target":"present","response":"present","rt":"1515.3999996185","correct":true,"confidence":-1},{"trial_n":7,"span":8,"encoder":"46250892","distractor":"46050892","target":"absent","response":"present","rt":"2976","correct":false,"confidence":-1},{"trial_n":8,"span":6,"encoder":"758748","distractor":"758740","target":"absent","response":"present","rt":"1910.5","correct":false,"confidence":-1},{"trial_n":9,"span":4,"encoder":"8619","distractor":"8618","target":"absent","response":"present","rt":"4467.1999998093","correct":false,"confidence":-1},{"trial_n":10,"span":2,"encoder":"41","distractor":"21","target":"present","response":"present","rt":"1106.5","correct":true,"confidence":-1},{"trial_n":11,"span":2,"encoder":"88","distractor":"98","target":"present","response":"present","rt":"1054","correct":true,"confidence":-1},{"trial_n":12,"span":3,"encoder":"235","distractor":"035","target":"absent","response":"absent","rt":"1086.7000002861","correct":true,"confidence":-1},{"trial_n":13,"span":3,"encoder":"338","distractor":"038","target":"absent","response":"absent","rt":"1289.2000002861","correct":true,"confidence":-1},{"trial_n":14,"span":4,"encoder":"3099","distractor":"0099","target":"present","response":"present","rt":"807.89999961853","correct":true,"confidence":-1},{"trial_n":15,"span":4,"encoder":"7257","distractor":"7237","target":"present","response":"present","rt":"810.69999980927","correct":true,"confidence":-1},{"trial_n":16,"span":5,"encoder":"01464","distractor":"01465","target":"present","response":"present","rt":"984.40000009537","correct":true,"confidence":-1},{"trial_n":17,"span":5,"encoder":"33000","distractor":"33070","target":"present","response":"present","rt":"1084.4000000954","correct":true,"confidence":-1},{"trial_n":18,"span":6,"encoder":"604911","distractor":"904911","target":"present","response":"present","rt":"1504.9000000954","correct":true,"confidence":-1},{"trial_n":19,"span":6,"encoder":"592609","distractor":"532609","target":"present","response":"present","rt":"1472.6999998093","correct":true,"confidence":-1},{"trial_n":20,"span":7,"encoder":"2115992","distractor":"2115994","target":"present","response":"present","rt":"935.40000009537","correct":true,"confidence":-1},{"trial_n":21,"span":7,"encoder":"6180258","distractor":"6580258","target":"absent","response":"absent","rt":"4200.9000000954","correct":true,"confidence":3},{"trial_n":22,"span":8,"encoder":"71018744","distractor":"81018744","target":"present","response":"present","rt":"2405.6000003815","correct":true,"confidence":5},{"trial_n":23,"span":8,"encoder":"20024217","distractor":"20024218","target":"absent","response":"absent","rt":"2823.1000003815","correct":true,"confidence":5},{"trial_n":24,"span":9,"encoder":"220432887","distractor":"220432837","target":"absent","response":"absent","rt":"4493.4000000954","correct":true,"confidence":4},{"trial_n":25,"span":9,"encoder":"650802356","distractor":"650804356","target":"absent","response":"absent","rt":"3892.8000001907","correct":true,"confidence":3},{"trial_n":26,"span":10,"encoder":"6173649397","distractor":"6173649357","target":"present","response":"present","rt":"5300.2000002861","correct":true,"confidence":3},{"trial_n":27,"span":10,"encoder":"4228957425","distractor":"4223957425","target":"absent","response":"present","rt":"7546.7000002861","correct":false,"confidence":2},{"trial_n":28,"span":9,"encoder":"421743736","distractor":"421743731","target":"absent","response":"absent","rt":"4184.0999999046","correct":true,"confidence":4},{"trial_n":29,"span":9,"encoder":"727795448","distractor":"727796448","target":"absent","response":"present","rt":"6490.8000001907","correct":false,"confidence":3},{"trial_n":30,"span":8,"encoder":"87401999","distractor":"87407999","target":"absent","response":"present","rt":"2537.8999996185","correct":false,"confidence":4},{"trial_n":31,"span":7,"encoder":"9730497","distractor":"5730497","target":"present","response":"present","rt":"2414.6999998093","correct":true,"confidence":5},{"trial_n":32,"span":7,"encoder":"8892049","distractor":"8892019","target":"present","response":"present","rt":"2023.4000000954","correct":true,"confidence":5},{"trial_n":33,"span":8,"encoder":"70165667","distractor":"70165627","target":"present","response":"present","rt":"1779.7000002861","correct":true,"confidence":4},{"trial_n":34,"span":8,"encoder":"56413328","distractor":"56413324","target":"present","response":"present","rt":"2242.7999997139","correct":true,"confidence":5},{"trial_n":35,"span":9,"encoder":"635596308","distractor":"635596301","target":"present","response":"present","rt":"2527.4000000954","correct":true,"confidence":3},{"trial_n":36,"span":9,"encoder":"831904910","distractor":"811904910","target":"absent","response":"present","rt":"5062.9000000954","correct":false,"confidence":3},{"trial_n":37,"span":8,"encoder":"60628029","distractor":"60678029","target":"present","response":"absent","rt":"3367.6000003815","correct":false,"confidence":3},{"trial_n":38,"span":7,"encoder":"4588757","distractor":"4589757","target":"absent","response":"absent","rt":"4258.7000002861","correct":true,"confidence":5},{"trial_n":39,"span":7,"encoder":"3111755","distractor":"3191755","target":"absent","response":"absent","rt":"1920.8000001907","correct":true,"confidence":5},{"trial_n":40,"span":8,"encoder":"04852112","distractor":"04852111","target":"absent","response":"absent","rt":"1842.7000002861","correct":true,"confidence":5},{"trial_n":41,"span":8,"encoder":"21100927","distractor":"21107927","target":"absent","response":"present","rt":"3937.1999998093","correct":false,"confidence":4},{"trial_n":42,"span":7,"encoder":"2407863","distractor":"2407763","target":"present","response":"present","rt":"5756.6999998093","correct":true,"confidence":4},{"trial_n":43,"span":7,"encoder":"1960131","distractor":"1260131","target":"absent","response":"absent","rt":"6712.7999997139","correct":true,"confidence":5},{"trial_n":44,"span":8,"encoder":"36244005","distractor":"36244105","target":"absent","response":"absent","rt":"1632.9000000954","correct":true,"confidence":5},{"trial_n":45,"span":8,"encoder":"21469817","distractor":"21969817","target":"absent","response":"present","rt":"5261","correct":false,"confidence":3},{"trial_n":46,"span":7,"encoder":"7950998","distractor":"7960998","target":"present","response":"present","rt":"2106.3000001907","correct":true,"confidence":4},{"trial_n":47,"span":7,"encoder":"8417626","distractor":"8817626","target":"present","response":"present","rt":"2679.1999998093","correct":true,"confidence":4},{"trial_n":48,"span":8,"encoder":"86716571","distractor":"86716561","target":"absent","response":"absent","rt":"3088.5999999046","correct":true,"confidence":4},{"trial_n":49,"span":8,"encoder":"31902916","distractor":"31902911","target":"present","response":"present","rt":"2272.9000000954","correct":true,"confidence":5},{"trial_n":50,"span":9,"encoder":"565935542","distractor":"555935542","target":"absent","response":"absent","rt":"1777.5","correct":true,"confidence":5},{"trial_n":51,"span":9,"encoder":"650870581","distractor":"659870581","target":"absent","response":"absent","rt":"2562.5999999046","correct":true,"confidence":4},{"trial_n":52,"span":10,"encoder":"5113296528","distractor":"5115296528","target":"present","response":"present","rt":"3932.0999999046","correct":true,"confidence":3},{"trial_n":53,"span":10,"encoder":"8076436839","distractor":"8076436837","target":"present","response":"present","rt":"5720.9000000954","correct":true,"confidence":4},{"trial_n":54,"span":11,"encoder":"30461674464","distractor":"30461684464","target":"absent","response":"absent","rt":"10585.300000191","correct":true,"confidence":4},{"trial_n":55,"span":11,"encoder":"99748612937","distractor":"99708612937","target":"absent","response":"absent","rt":"3258.2000002861","correct":true,"confidence":5},{"trial_n":56,"span":12,"encoder":"487519752869","distractor":"487619752869","target":"present","response":"absent","rt":"5937.7000002861","correct":false,"confidence":4},{"trial_n":57,"span":11,"encoder":"75303155792","distractor":"75303157792","target":"absent","response":"present","rt":"5113.9000000954","correct":false,"confidence":2},{"trial_n":58,"span":10,"encoder":"8474122742","distractor":"8477122742","target":"present","response":"present","rt":"5048.5","correct":true,"confidence":3},{"trial_n":59,"span":10,"encoder":"2160862518","distractor":"4160862518","target":"present","response":"present","rt":"3797.7000002861","correct":true,"confidence":4},{"trial_n":60,"span":11,"encoder":"43592833603","distractor":"43992833603","target":"present","response":"present","rt":"5601.9000000954","correct":true,"confidence":3},{"trial_n":61,"span":11,"encoder":"42301268206","distractor":"42301468206","target":"absent","response":"absent","rt":"5113.0999999046","correct":true,"confidence":3},{"trial_n":62,"span":12,"encoder":"733950540256","distractor":"733950140256","target":"absent","response":"present","rt":"3919.1999998093","correct":false,"confidence":3},{"trial_n":63,"span":11,"encoder":"05246018996","distractor":"05243018996","target":"present","response":"present","rt":"6484.5","correct":true,"confidence":2},{"trial_n":64,"span":11,"encoder":"89519618208","distractor":"99519618208","target":"present","response":"absent","rt":"4358.1999998093","correct":false,"confidence":3},{"trial_n":65,"span":10,"encoder":"4301687288","distractor":"5301687288","target":"present","response":"present","rt":"3679.2999997139","correct":true,"confidence":3},{"trial_n":66,"span":10,"encoder":"6906499845","distractor":"6906499865","target":"absent","response":"present","rt":"4407.8999996185","correct":false,"confidence":3},{"trial_n":67,"span":9,"encoder":"645845509","distractor":"645855509","target":"present","response":"present","rt":"4335.0999999046","correct":true,"confidence":3},{"trial_n":68,"span":9,"encoder":"415515211","distractor":"475515211","target":"present","response":"present","rt":"3306.5999999046","correct":true,"confidence":3},{"trial_n":69,"span":10,"encoder":"2193513631","distractor":"2193513611","target":"absent","response":"present","rt":"5815","correct":false,"confidence":3},{"trial_n":70,"span":9,"encoder":"464438282","distractor":"264438282","target":"absent","response":"present","rt":"7093.6999998093","correct":false,"confidence":3},{"trial_n":71,"span":8,"encoder":"78056333","distractor":"78056303","target":"present","response":"absent","rt":"9785","correct":false,"confidence":-1},{"trial_n":72,"span":7,"encoder":"1582722","distractor":"1582728","target":"present","response":"present","rt":"1935.4000000954","correct":true,"confidence":-1},{"trial_n":73,"span":7,"encoder":"0444563","distractor":"0454563","target":"absent","response":"absent","rt":"3677.6999998093","correct":true,"confidence":-1},{"trial_n":74,"span":8,"encoder":"00823447","distractor":"06823447","target":"absent","response":"absent","rt":"4779.8000001907","correct":true,"confidence":-1},{"trial_n":75,"span":8,"encoder":"61992706","distractor":"61993706","target":"present","response":"present","rt":"1837.5999999046","correct":true,"confidence":-1},{"trial_n":76,"span":9,"encoder":"130504039","distractor":"130505039","target":"absent","response":"absent","rt":"2308.5999999046","correct":true,"confidence":-1},{"trial_n":77,"span":9,"encoder":"540176432","distractor":"540176438","target":"absent","response":"absent","rt":"1762.6999998093","correct":true,"confidence":-1},{"trial_n":78,"span":10,"encoder":"0139611264","distractor":"0139631264","target":"present","response":"present","rt":"2070.3000001907","correct":true,"confidence":-1},{"trial_n":79,"span":10,"encoder":"1886280152","distractor":"1786280152","target":"present","response":"absent","rt":"7113.2000002861","correct":false,"confidence":-1},{"trial_n":80,"span":9,"encoder":"290328065","distractor":"250328065","target":"absent","response":"absent","rt":"1772.5","correct":true,"confidence":-1},{"trial_n":81,"span":9,"encoder":"756653568","distractor":"756953568","target":"absent","response":"absent","rt":"3534","correct":true,"confidence":-1},{"trial_n":82,"span":10,"encoder":"2948356645","distractor":"2948356045","target":"absent","response":"absent","rt":"1365.8999996185","correct":true,"confidence":-1},{"trial_n":83,"span":10,"encoder":"5942006136","distractor":"5942006116","target":"present","response":"present","rt":"2247.9000000954","correct":true,"confidence":-1},{"trial_n":84,"span":11,"encoder":"64257958416","distractor":"64257950416","target":"absent","response":"absent","rt":"2002.5999999046","correct":true,"confidence":-1},{"trial_n":85,"span":11,"encoder":"63616342687","distractor":"63616342787","target":"present","response":"present","rt":"1661.6999998093","correct":true,"confidence":-1},{"trial_n":86,"span":12,"encoder":"014071642965","distractor":"014071645965","target":"absent","response":"absent","rt":"5353.1999998093","correct":true,"confidence":-1},{"trial_n":87,"span":12,"encoder":"141961986099","distractor":"141901986099","target":"present","response":"present","rt":"4934.4000000954","correct":true,"confidence":-1},{"trial_n":88,"span":13,"encoder":"8382209002903","distractor":"8382209002908","target":"present","response":"present","rt":"1152.0999999046","correct":true,"confidence":-1},{"trial_n":89,"span":13,"encoder":"7611803195039","distractor":"7611503195039","target":"present","response":"absent","rt":"6291.2000002861","correct":false,"confidence":-1},{"trial_n":90,"span":12,"encoder":"279535436436","distractor":"279555436436","target":"absent","response":"absent","rt":"3877.3000001907","correct":true,"confidence":-1},{"trial_n":91,"span":12,"encoder":"034378800481","distractor":"034370800481","target":"present","response":"present","rt":"6617.2000002861","correct":true,"confidence":4},{"trial_n":92,"span":13,"encoder":"5945902358033","distractor":"5945908358033","target":"present","response":"present","rt":"9330","correct":true,"confidence":2},{"trial_n":93,"span":13,"encoder":"8704368974228","distractor":"8704368974728","target":"absent","response":"absent","rt":"5446.1999998093","correct":true,"confidence":4},{"trial_n":94,"span":14,"encoder":"78655720337925","distractor":"78655420337925","target":"absent","response":"absent","rt":"6497.9000000954","correct":true,"confidence":3},{"trial_n":95,"span":14,"encoder":"18196932316295","distractor":"18196932314295","target":"absent","response":"absent","rt":"3050.5","correct":true,"confidence":5},{"trial_n":96,"span":15,"encoder":"032406141718487","distractor":"032416141718487","target":"present","response":"present","rt":"5673.9000000954","correct":true,"confidence":5},{"trial_n":97,"span":15,"encoder":"636584665183547","distractor":"636584665153547","target":"present","response":"present","rt":"16066.5","correct":true,"confidence":2},{"trial_n":98,"span":16,"encoder":"6591298975950759","distractor":"6591298975450759","target":"absent","response":"present","rt":"10631.400000095","correct":false,"confidence":2},{"trial_n":99,"span":15,"encoder":"484471129813927","distractor":"484471129813921","target":"absent","response":"absent","rt":"7213.0999999046","correct":true,"confidence":3},{"trial_n":100,"span":15,"encoder":"413051253776260","distractor":"413051253779260","target":"present","response":"present","rt":"7995","correct":true,"confidence":3},{"trial_n":101,"span":16,"encoder":"9270462152304472","distractor":"9270462352304472","target":"present","response":"present","rt":"5089.9000000954","correct":true,"confidence":3},{"trial_n":102,"span":16,"encoder":"0107620145876960","distractor":"0100620145876960","target":"absent","response":"absent","rt":"4490.2000002861","correct":true,"confidence":5},{"trial_n":103,"span":17,"encoder":"84487931718514233","distractor":"84483931718514233","target":"present","response":"present","rt":"7099.1999998093","correct":true,"confidence":3},{"trial_n":104,"span":17,"encoder":"08398300818500864","distractor":"08398300818500664","target":"present","response":"present","rt":"6880.9000000954","correct":true,"confidence":4},{"trial_n":105,"span":18,"encoder":"290964632199882588","distractor":"290364632199882588","target":"absent","response":"absent","rt":"7569.6999998093","correct":true,"confidence":2},{"trial_n":106,"span":18,"encoder":"091214635341355576","distractor":"097214635341355576","target":"present","response":"absent","rt":"6557.2999997139","correct":false,"confidence":3},{"trial_n":107,"span":17,"encoder":"56758267901135908","distractor":"56758267901135948","target":"present","response":"present","rt":"2144.8999996185","correct":true,"confidence":5},{"trial_n":108,"span":17,"encoder":"24019138144982312","distractor":"24019138144382312","target":"absent","response":"present","rt":"7539","correct":false,"confidence":3},{"trial_n":109,"span":16,"encoder":"5697119029083346","distractor":"5697149029083346","target":"absent","response":"absent","rt":"3634.7999997139","correct":true,"confidence":5},{"trial_n":110,"span":16,"encoder":"6619025836110209","distractor":"6619005836110209","target":"present","response":"present","rt":"6066.4000000954","correct":true,"confidence":3},{"trial_n":111,"span":17,"encoder":"48954713405244423","distractor":"48954713405244403","target":"absent","response":"absent","rt":"2018.5","correct":true,"confidence":5},{"trial_n":112,"span":17,"encoder":"92553208905016607","distractor":"92553208905026607","target":"absent","response":"absent","rt":"2041.5999999046","correct":true,"confidence":5},{"trial_n":113,"span":18,"encoder":"819482878711954488","distractor":"819282878711954488","target":"present","response":"present","rt":"5273.9000000954","correct":true,"confidence":3},{"trial_n":114,"span":18,"encoder":"161189697401117169","distractor":"161179697401117169","target":"present","response":"present","rt":"8091.0999999046","correct":true,"confidence":4},{"trial_n":115,"span":19,"encoder":"7761253436382685975","distractor":"7761253436382685575","target":"present","response":"present","rt":"2507.2000002861","correct":true,"confidence":5},{"trial_n":116,"span":19,"encoder":"5278177593505083380","distractor":"5278177593505003380","target":"present","response":"present","rt":"9356.3000001907","correct":true,"confidence":3},{"trial_n":117,"span":20,"encoder":"72034764982988219591","distractor":"72034764982988219590","target":"absent","response":"absent","rt":"1961.7999997139","correct":true,"confidence":5},{"trial_n":118,"span":20,"encoder":"52354786413783840370","distractor":"82354786413783840370","target":"absent","response":"absent","rt":"13020.400000095","correct":true,"confidence":2},{"trial_n":119,"span":21,"encoder":"948142874722064669188","distractor":"998142874722064669188","target":"absent","response":"present","rt":"17122.199999809","correct":false,"confidence":3},{"trial_n":120,"span":20,"encoder":"53364701276123552314","distractor":"53364731276123552314","target":"present","response":"absent","rt":"7140.3000001907","correct":false,"confidence":3},{"trial_n":121,"span":19,"encoder":"3071369009443310287","distractor":"3071369009444310287","target":"absent","response":"absent","rt":"6534.1999998093","correct":true,"confidence":3},{"trial_n":122,"span":19,"encoder":"3594645541578987789","distractor":"3594645581578987789","target":"absent","response":"present","rt":"5606.9000000954","correct":false,"confidence":3},{"trial_n":123,"span":18,"encoder":"857861731158495222","distractor":"857860731158495222","target":"absent","response":"absent","rt":"8374.7000002861","correct":true,"confidence":3},{"trial_n":124,"span":18,"encoder":"741544416384220063","distractor":"741444416384220063","target":"absent","response":"absent","rt":"5395.7999997139","correct":true,"confidence":4},{"trial_n":125,"span":19,"encoder":"8303811702840189349","distractor":"8303411702840189349","target":"absent","response":"absent","rt":"6307.6999998093","correct":true,"confidence":5},{"trial_n":126,"span":19,"encoder":"3203643005199191189","distractor":"5203643005199191189","target":"absent","response":"absent","rt":"3298.3000001907","correct":true,"confidence":4},{"trial_n":127,"span":20,"encoder":"82822752945858966784","distractor":"82825752945858966784","target":"present","response":"absent","rt":"6901.9000000954","correct":false,"confidence":3},{"trial_n":128,"span":19,"encoder":"8814699125345922441","distractor":"8814609125345922441","target":"present","response":"present","rt":"4923.4000000954","correct":true,"confidence":5},{"trial_n":129,"span":19,"encoder":"8185748868748609531","distractor":"8185748868748009531","target":"absent","response":"present","rt":"13889.099999905","correct":false,"confidence":2},{"trial_n":130,"span":18,"encoder":"427859325374946102","distractor":"427859325374946101","target":"present","response":"present","rt":"2605","correct":true,"confidence":5},{"trial_n":131,"span":18,"encoder":"679704298181836158","distractor":"679704298181836151","target":"absent","response":"present","rt":"9212.9000000954","correct":false,"confidence":3},{"trial_n":132,"span":17,"encoder":"40747828380757616","distractor":"40747828380757613","target":"present","response":"present","rt":"7241.5","correct":true,"confidence":3},{"trial_n":133,"span":17,"encoder":"11133649466070780","distractor":"11133649466050780","target":"present","response":"present","rt":"13501","correct":true,"confidence":3},{"trial_n":134,"span":18,"encoder":"498016207630692292","distractor":"491016207630692292","target":"present","response":"present","rt":"7111.8999996185","correct":true,"confidence":3},{"trial_n":135,"span":18,"encoder":"696713173019027578","distractor":"696713193019027578","target":"absent","response":"absent","rt":"8102.6999998093","correct":true,"confidence":3},{"trial_n":136,"span":19,"encoder":"1287394485861455601","distractor":"1287394485861465601","target":"present","response":"absent","rt":"7086","correct":false,"confidence":4},{"trial_n":137,"span":18,"encoder":"774566857022460792","distractor":"774566850022460792","target":"present","response":"present","rt":"5870.7999997139","correct":true,"confidence":4},{"trial_n":138,"span":18,"encoder":"989164006951872526","distractor":"989164006901872526","target":"absent","response":"absent","rt":"8546.0999999046","correct":true,"confidence":2},{"trial_n":139,"span":19,"encoder":"9135305747020763787","distractor":"9135305747022763787","target":"present","response":"absent","rt":"10177.5","correct":false,"confidence":3},{"trial_n":140,"span":18,"encoder":"089704381920422940","distractor":"089754381920422940","target":"present","response":"absent","rt":"16492.099999905","correct":false,"confidence":3}]