[{"trial_n":1,"span":8,"encoder":"59616148","distractor":"59615148","target":"present","response":"present","rt":"3439.9999999851","correct":true,"confidence":-1},{"trial_n":2,"span":8,"encoder":"69687886","distractor":"59687886","target":"present","response":"present","rt":"1639","correct":true,"confidence":-1},{"trial_n":3,"span":10,"encoder":"5299831912","distractor":"5290831912","target":"absent","response":"present","rt":"2805.0000000149","correct":false,"confidence":-1},{"trial_n":4,"span":8,"encoder":"56471724","distractor":"56471754","target":"absent","response":"present","rt":"2788","correct":false,"confidence":-1},{"trial_n":5,"span":6,"encoder":"660166","distractor":"460166","target":"present","response":"present","rt":"1593","correct":true,"confidence":-1},{"trial_n":6,"span":6,"encoder":"350642","distractor":"550642","target":"present","response":"present","rt":"1318","correct":true,"confidence":-1},{"trial_n":7,"span":8,"encoder":"50935580","distractor":"50735580","target":"absent","response":"present","rt":"1561","correct":false,"confidence":-1},{"trial_n":8,"span":6,"encoder":"008117","distractor":"008167","target":"present","response":"present","rt":"1528.9999999851","correct":true,"confidence":-1},{"trial_n":9,"span":6,"encoder":"405710","distractor":"408710","target":"absent","response":"present","rt":"1271","correct":false,"confidence":-1},{"trial_n":10,"span":4,"encoder":"6754","distractor":"7754","target":"absent","response":"absent","rt":"1471","correct":true,"confidence":-1},{"trial_n":11,"span":4,"encoder":"0543","distractor":"0573","target":"present","response":"absent","rt":"1390.9999999851","correct":false,"confidence":-1},{"trial_n":12,"span":3,"encoder":"810","distractor":"811","target":"absent","response":"absent","rt":"1773.0000000149","correct":true,"confidence":-1},{"trial_n":13,"span":3,"encoder":"227","distractor":"207","target":"absent","response":"absent","rt":"1422","correct":true,"confidence":-1},{"trial_n":14,"span":4,"encoder":"4977","distractor":"0977","target":"absent","response":"absent","rt":"964","correct":true,"confidence":-1},{"trial_n":15,"span":4,"encoder":"1740","distractor":"9740","target":"present","response":"absent","rt":"894","correct":false,"confidence":-1},{"trial_n":16,"span":3,"encoder":"223","distractor":"233","target":"present","response":"present","rt":"1078","correct":true,"confidence":-1},{"trial_n":17,"span":3,"encoder":"715","distractor":"719","target":"absent","response":"absent","rt":"1133","correct":true,"confidence":-1},{"trial_n":18,"span":4,"encoder":"1887","distractor":"1387","target":"present","response":"present","rt":"1671","correct":true,"confidence":-1},{"trial_n":19,"span":4,"encoder":"9632","distractor":"9932","target":"absent","response":"absent","rt":"1273","correct":true,"confidence":-1},{"trial_n":20,"span":5,"encoder":"29427","distractor":"29424","target":"present","response":"absent","rt":"2490","correct":false,"confidence":-1},{"trial_n":21,"span":4,"encoder":"7584","distractor":"7588","target":"absent","response":"absent","rt":"1738","correct":true,"confidence":3},{"trial_n":22,"span":4,"encoder":"6049","distractor":"6549","target":"present","response":"present","rt":"1598","correct":true,"confidence":2},{"trial_n":23,"span":5,"encoder":"19586","distractor":"19584","target":"absent","response":"absent","rt":"2513","correct":true,"confidence":3},{"trial_n":24,"span":5,"encoder":"24808","distractor":"94808","target":"present","response":"present","rt":"2495","correct":true,"confidence":2},{"trial_n":25,"span":6,"encoder":"026157","distractor":"926157","target":"present","response":"present","rt":"2524.0000000149","correct":true,"confidence":2},{"trial_n":26,"span":6,"encoder":"865664","distractor":"868664","target":"absent","response":"present","rt":"1981.9999999851","correct":false,"confidence":2},{"trial_n":27,"span":5,"encoder":"98677","distractor":"98667","target":"present","response":"present","rt":"1611","correct":true,"confidence":3},{"trial_n":28,"span":5,"encoder":"04336","distractor":"04386","target":"absent","response":"absent","rt":"1637","correct":true,"confidence":3},{"trial_n":29,"span":6,"encoder":"779865","distractor":"779863","target":"absent","response":"present","rt":"2207","correct":false,"confidence":2},{"trial_n":30,"span":5,"encoder":"09168","distractor":"06168","target":"present","response":"absent","rt":"1959","correct":false,"confidence":2},{"trial_n":31,"span":4,"encoder":"3659","distractor":"3639","target":"present","response":"present","rt":"1355.0000000149","correct":true,"confidence":3},{"trial_n":32,"span":4,"encoder":"8344","distractor":"8347","target":"absent","response":"absent","rt":"1761.9999999851","correct":true,"confidence":2},{"trial_n":33,"span":5,"encoder":"78085","distractor":"78080","target":"present","response":"absent","rt":"2784","correct":false,"confidence":1},{"trial_n":34,"span":4,"encoder":"9615","distractor":"9619","target":"present","response":"absent","rt":"2953.0000000149","correct":false,"confidence":1},{"trial_n":35,"span":3,"encoder":"915","distractor":"945","target":"absent","response":"absent","rt":"1628","correct":true,"confidence":3},{"trial_n":36,"span":3,"encoder":"832","distractor":"032","target":"absent","response":"absent","rt":"1725","correct":true,"confidence":4},{"trial_n":37,"span":4,"encoder":"9225","distractor":"9285","target":"absent","response":"absent","rt":"1272","correct":true,"confidence":4},{"trial_n":38,"span":4,"encoder":"8612","distractor":"8632","target":"present","response":"present","rt":"2436","correct":true,"confidence":4},{"trial_n":39,"span":5,"encoder":"63422","distractor":"63452","target":"absent","response":"absent","rt":"1262","correct":true,"confidence":3},{"trial_n":40,"span":5,"encoder":"53688","distractor":"53388","target":"absent","response":"absent","rt":"2467","correct":true,"confidence":2},{"trial_n":41,"span":6,"encoder":"314484","distractor":"314384","target":"present","response":"present","rt":"2018","correct":true,"confidence":1},{"trial_n":42,"span":6,"encoder":"891184","distractor":"881184","target":"present","response":"absent","rt":"1396","correct":false,"confidence":1},{"trial_n":43,"span":5,"encoder":"27445","distractor":"27745","target":"absent","response":"present","rt":"2248","correct":false,"confidence":2},{"trial_n":44,"span":4,"encoder":"0896","distractor":"0886","target":"absent","response":"absent","rt":"1896","correct":true,"confidence":3},{"trial_n":45,"span":4,"encoder":"6542","distractor":"6544","target":"present","response":"absent","rt":"2181","correct":false,"confidence":3},{"trial_n":46,"span":3,"encoder":"703","distractor":"773","target":"absent","response":"absent","rt":"1282","correct":true,"confidence":4},{"trial_n":47,"span":3,"encoder":"515","distractor":"115","target":"absent","response":"absent","rt":"2300","correct":true,"confidence":3},{"trial_n":48,"span":4,"encoder":"9141","distractor":"9941","target":"absent","response":"absent","rt":"1412","correct":true,"confidence":4},{"trial_n":49,"span":4,"encoder":"5380","distractor":"5389","target":"present","response":"absent","rt":"2499","correct":false,"confidence":2},{"trial_n":50,"span":3,"encoder":"150","distractor":"120","target":"present","response":"absent","rt":"2430","correct":false,"confidence":2},{"trial_n":51,"span":2,"encoder":"24","distractor":"74","target":"present","response":"present","rt":"1404","correct":true,"confidence":5},{"trial_n":52,"span":2,"encoder":"98","distractor":"92","target":"present","response":"present","rt":"928","correct":true,"confidence":5},{"trial_n":53,"span":3,"encoder":"061","distractor":"661","target":"absent","response":"absent","rt":"1397.0000000149","correct":true,"confidence":5},{"trial_n":54,"span":3,"encoder":"151","distractor":"251","target":"present","response":"present","rt":"1351","correct":true,"confidence":5},{"trial_n":55,"span":4,"encoder":"1598","distractor":"1594","target":"present","response":"present","rt":"1109","correct":true,"confidence":5},{"trial_n":56,"span":4,"encoder":"5233","distractor":"5243","target":"present","response":"present","rt":"2217","correct":true,"confidence":4},{"trial_n":57,"span":5,"encoder":"57299","distractor":"57199","target":"present","response":"present","rt":"3311","correct":true,"confidence":4},{"trial_n":58,"span":5,"encoder":"90925","distractor":"50925","target":"present","response":"present","rt":"1737","correct":true,"confidence":5},{"trial_n":59,"span":6,"encoder":"427063","distractor":"427053","target":"present","response":"present","rt":"2331","correct":true,"confidence":3},{"trial_n":60,"span":6,"encoder":"106521","distractor":"116521","target":"absent","response":"absent","rt":"1538","correct":true,"confidence":3},{"trial_n":61,"span":7,"encoder":"9048210","distractor":"9048220","target":"present","response":"absent","rt":"3727","correct":false,"confidence":2},{"trial_n":62,"span":6,"encoder":"325087","distractor":"325487","target":"absent","response":"absent","rt":"1642","correct":true,"confidence":3},{"trial_n":63,"span":6,"encoder":"644098","distractor":"664098","target":"absent","response":"absent","rt":"2270","correct":true,"confidence":2},{"trial_n":64,"span":7,"encoder":"1299943","distractor":"1099943","target":"absent","response":"absent","rt":"2464","correct":true,"confidence":3},{"trial_n":65,"span":7,"encoder":"9080012","distractor":"9050012","target":"present","response":"present","rt":"2167","correct":true,"confidence":2},{"trial_n":66,"span":8,"encoder":"86840718","distractor":"86840778","target":"absent","response":"absent","rt":"2309","correct":true,"confidence":1},{"trial_n":67,"span":8,"encoder":"89832764","distractor":"89832760","target":"absent","response":"absent","rt":"1962","correct":true,"confidence":2},{"trial_n":68,"span":9,"encoder":"420374225","distractor":"423374225","target":"present","response":"absent","rt":"1964","correct":false,"confidence":2},{"trial_n":69,"span":8,"encoder":"22149045","distractor":"22149055","target":"absent","response":"absent","rt":"2584","correct":true,"confidence":1},{"trial_n":70,"span":8,"encoder":"62405215","distractor":"67405215","target":"present","response":"absent","rt":"2869","correct":false,"confidence":1},{"trial_n":71,"span":8,"encoder":"13914445","distractor":"13914425","target":"present","response":"present","rt":"3866","correct":true,"confidence":-1},{"trial_n":72,"span":8,"encoder":"50733026","distractor":"50743026","target":"present","response":"absent","rt":"4320","correct":false,"confidence":-1},{"trial_n":73,"span":7,"encoder":"3521897","distractor":"3521895","target":"absent","response":"present","rt":"3085","correct":false,"confidence":-1},{"trial_n":74,"span":6,"encoder":"415299","distractor":"215299","target":"absent","response":"absent","rt":"4032.0000000149","correct":true,"confidence":-1},{"trial_n":75,"span":6,"encoder":"961423","distractor":"961723","target":"present","response":"present","rt":"3220","correct":true,"confidence":-1},{"trial_n":76,"span":7,"encoder":"2398545","distractor":"2394545","target":"absent","response":"absent","rt":"3925","correct":true,"confidence":-1},{"trial_n":77,"span":7,"encoder":"4695002","distractor":"4691002","target":"absent","response":"absent","rt":"1881","correct":true,"confidence":-1},{"trial_n":78,"span":8,"encoder":"46192285","distractor":"36192285","target":"absent","response":"absent","rt":"3867","correct":true,"confidence":-1},{"trial_n":79,"span":8,"encoder":"90320151","distractor":"91320151","target":"present","response":"present","rt":"6017.9999999851","correct":true,"confidence":-1},{"trial_n":80,"span":9,"encoder":"469977096","distractor":"469937096","target":"absent","response":"present","rt":"4072.9999999851","correct":false,"confidence":-1},{"trial_n":81,"span":8,"encoder":"38711534","distractor":"38711504","target":"absent","response":"absent","rt":"9060","correct":true,"confidence":-1},{"trial_n":82,"span":8,"encoder":"62291297","distractor":"62891297","target":"present","response":"present","rt":"2544.9999999851","correct":true,"confidence":-1},{"trial_n":83,"span":9,"encoder":"539674525","distractor":"538674525","target":"absent","response":"present","rt":"5202","correct":false,"confidence":-1},{"trial_n":84,"span":8,"encoder":"87200907","distractor":"87200987","target":"present","response":"absent","rt":"2925.9999999851","correct":false,"confidence":-1},{"trial_n":85,"span":7,"encoder":"2394363","distractor":"2394323","target":"absent","response":"absent","rt":"1364","correct":true,"confidence":-1},{"trial_n":86,"span":7,"encoder":"0447583","distractor":"0447513","target":"present","response":"present","rt":"2510","correct":true,"confidence":-1},{"trial_n":87,"span":8,"encoder":"18538378","distractor":"18558378","target":"present","response":"present","rt":"3421.0000000149","correct":true,"confidence":-1},{"trial_n":88,"span":8,"encoder":"78907516","distractor":"68907516","target":"absent","response":"present","rt":"2111","correct":false,"confidence":-1},{"trial_n":89,"span":7,"encoder":"9289756","distractor":"9288756","target":"absent","response":"absent","rt":"2324","correct":true,"confidence":-1},{"trial_n":90,"span":7,"encoder":"4299668","distractor":"4299868","target":"present","response":"present","rt":"2138","correct":true,"confidence":-1},{"trial_n":91,"span":8,"encoder":"08290944","distractor":"48290944","target":"absent","response":"absent","rt":"2257","correct":true,"confidence":3},{"trial_n":92,"span":8,"encoder":"27945422","distractor":"25945422","target":"absent","response":"present","rt":"6080","correct":false,"confidence":2},{"trial_n":93,"span":7,"encoder":"5192376","distractor":"5192373","target":"present","response":"present","rt":"14137","correct":true,"confidence":1},{"trial_n":94,"span":7,"encoder":"2166355","distractor":"2166385","target":"present","response":"present","rt":"3129","correct":true,"confidence":3},{"trial_n":95,"span":8,"encoder":"51686051","distractor":"51786051","target":"absent","response":"absent","rt":"4798.0000000149","correct":true,"confidence":2},{"trial_n":96,"span":8,"encoder":"66272569","distractor":"66272869","target":"present","response":"absent","rt":"9414","correct":false,"confidence":1},{"trial_n":97,"span":7,"encoder":"1121627","distractor":"1121622","target":"present","response":"present","rt":"5014","correct":true,"confidence":3},{"trial_n":98,"span":7,"encoder":"0394863","distractor":"0394463","target":"present","response":"present","rt":"4206","correct":true,"confidence":2},{"trial_n":99,"span":8,"encoder":"12466438","distractor":"12466038","target":"present","response":"present","rt":"10372","correct":true,"confidence":2},{"trial_n":100,"span":8,"encoder":"66368440","distractor":"66308440","target":"absent","response":"present","rt":"12267.000000015","correct":false,"confidence":1},{"trial_n":101,"span":7,"encoder":"5832277","distractor":"5932277","target":"present","response":"present","rt":"3764","correct":true,"confidence":4},{"trial_n":102,"span":7,"encoder":"4578142","distractor":"4578122","target":"absent","response":"absent","rt":"3591","correct":true,"confidence":3},{"trial_n":103,"span":8,"encoder":"71293416","distractor":"71293916","target":"present","response":"present","rt":"8944","correct":true,"confidence":3},{"trial_n":104,"span":8,"encoder":"47153504","distractor":"47153204","target":"present","response":"present","rt":"13486.999999985","correct":true,"confidence":1},{"trial_n":105,"span":9,"encoder":"136560411","distractor":"136560419","target":"absent","response":"absent","rt":"2803","correct":true,"confidence":4},{"trial_n":106,"span":9,"encoder":"140147287","distractor":"148147287","target":"absent","response":"present","rt":"5040","correct":false,"confidence":1},{"trial_n":107,"span":8,"encoder":"68005875","distractor":"68001875","target":"present","response":"present","rt":"8018","correct":true,"confidence":3},{"trial_n":108,"span":8,"encoder":"53303723","distractor":"53003723","target":"present","response":"absent","rt":"14115","correct":false,"confidence":1},{"trial_n":109,"span":7,"encoder":"1585702","distractor":"1585703","target":"present","response":"present","rt":"5363","correct":true,"confidence":2},{"trial_n":110,"span":7,"encoder":"1630641","distractor":"1690641","target":"absent","response":"present","rt":"4280","correct":false,"confidence":1},{"trial_n":111,"span":6,"encoder":"361495","distractor":"360495","target":"absent","response":"absent","rt":"4963","correct":true,"confidence":3},{"trial_n":112,"span":6,"encoder":"054692","distractor":"054698","target":"present","response":"present","rt":"2618","correct":true,"confidence":4},{"trial_n":113,"span":7,"encoder":"6887935","distractor":"6887835","target":"present","response":"present","rt":"9317","correct":true,"confidence":3},{"trial_n":114,"span":7,"encoder":"0010214","distractor":"0010914","target":"present","response":"present","rt":"2861","correct":true,"confidence":3},{"trial_n":115,"span":8,"encoder":"99135028","distractor":"99135021","target":"present","response":"absent","rt":"5426","correct":false,"confidence":1},{"trial_n":116,"span":7,"encoder":"9819666","distractor":"9817666","target":"absent","response":"present","rt":"5826","correct":false,"confidence":1},{"trial_n":117,"span":6,"encoder":"662250","distractor":"672250","target":"present","response":"present","rt":"3429","correct":true,"confidence":5},{"trial_n":118,"span":6,"encoder":"163946","distractor":"163546","target":"absent","response":"absent","rt":"4886.0000000149","correct":true,"confidence":3},{"trial_n":119,"span":7,"encoder":"7250169","distractor":"7250163","target":"absent","response":"present","rt":"10311","correct":false,"confidence":1},{"trial_n":120,"span":6,"encoder":"455465","distractor":"455464","target":"absent","response":"absent","rt":"4097","correct":true,"confidence":1},{"trial_n":121,"span":6,"encoder":"730859","distractor":"780859","target":"present","response":"present","rt":"3582","correct":true,"confidence":3},{"trial_n":122,"span":7,"encoder":"3355053","distractor":"1355053","target":"absent","response":"absent","rt":"3392","correct":true,"confidence":2},{"trial_n":123,"span":7,"encoder":"9177269","distractor":"9177469","target":"present","response":"present","rt":"3434","correct":true,"confidence":3},{"trial_n":124,"span":8,"encoder":"09514255","distractor":"89514255","target":"absent","response":"absent","rt":"2425","correct":true,"confidence":3},{"trial_n":125,"span":8,"encoder":"86563352","distractor":"86566352","target":"present","response":"present","rt":"4059","correct":true,"confidence":3},{"trial_n":126,"span":9,"encoder":"244813017","distractor":"244413017","target":"present","response":"present","rt":"2615","correct":true,"confidence":3},{"trial_n":127,"span":9,"encoder":"672534523","distractor":"472534523","target":"present","response":"present","rt":"10685","correct":true,"confidence":2},{"trial_n":128,"span":10,"encoder":"0923686218","distractor":"0923686268","target":"present","response":"present","rt":"7060.0000000149","correct":true,"confidence":1},{"trial_n":129,"span":10,"encoder":"1933291805","distractor":"1903291805","target":"present","response":"present","rt":"6410.9999999851","correct":true,"confidence":2},{"trial_n":130,"span":11,"encoder":"42068079604","distractor":"42068879604","target":"absent","response":"absent","rt":"6450","correct":true,"confidence":1},{"trial_n":131,"span":11,"encoder":"18753611017","distractor":"17753611017","target":"present","response":"present","rt":"6444","correct":true,"confidence":2},{"trial_n":132,"span":12,"encoder":"663034285451","distractor":"663034225451","target":"absent","response":"absent","rt":"5518","correct":true,"confidence":2},{"trial_n":133,"span":12,"encoder":"428575867123","distractor":"428575867122","target":"absent","response":"absent","rt":"3292","correct":true,"confidence":4},{"trial_n":134,"span":13,"encoder":"4322084678040","distractor":"4322094678040","target":"absent","response":"absent","rt":"3873.9999999851","correct":true,"confidence":3},{"trial_n":135,"span":13,"encoder":"6721530928176","distractor":"6721530928976","target":"absent","response":"present","rt":"11056.999999985","correct":false,"confidence":2},{"trial_n":136,"span":12,"encoder":"558879324294","distractor":"558878324294","target":"absent","response":"present","rt":"8303.9999999851","correct":false,"confidence":2},{"trial_n":137,"span":11,"encoder":"73183789531","distractor":"73883789531","target":"present","response":"present","rt":"8115.9999999851","correct":true,"confidence":1},{"trial_n":138,"span":11,"encoder":"24361045436","distractor":"24361045466","target":"absent","response":"absent","rt":"3400","correct":true,"confidence":2},{"trial_n":139,"span":12,"encoder":"549027793657","distractor":"549022793657","target":"present","response":"present","rt":"18124","correct":true,"confidence":2},{"trial_n":140,"span":12,"encoder":"327188487109","distractor":"427188487109","target":"absent","response":"present","rt":"7276","correct":false,"confidence":2}]