[{"trial_n":1,"n_dots":4.25,"target":"left","response":"left","rt":6626.5999999046,"correct":true,"confidence":-1},{"trial_n":2,"n_dots":4.25,"target":"left","response":"left","rt":1993.1999998093,"correct":true,"confidence":-1},{"trial_n":3,"n_dots":3.85,"target":"left","response":"right","rt":1093.2999999523,"correct":false,"confidence":-1},{"trial_n":4,"n_dots":4.25,"target":"right","response":"right","rt":833.90000009537,"correct":true,"confidence":-1},{"trial_n":5,"n_dots":4.25,"target":"left","response":"left","rt":917.69999980927,"correct":true,"confidence":-1},{"trial_n":6,"n_dots":3.85,"target":"left","response":"left","rt":625.5,"correct":true,"confidence":-1},{"trial_n":7,"n_dots":3.85,"target":"left","response":"left","rt":837.29999995232,"correct":true,"confidence":-1},{"trial_n":8,"n_dots":3.65,"target":"left","response":"left","rt":1695.7000000477,"correct":true,"confidence":-1},{"trial_n":9,"n_dots":3.65,"target":"right","response":"right","rt":1012.0999999046,"correct":true,"confidence":-1},{"trial_n":10,"n_dots":3.45,"target":"right","response":"right","rt":609.29999995232,"correct":true,"confidence":-1},{"trial_n":11,"n_dots":3.45,"target":"left","response":"left","rt":1552.4000000954,"correct":true,"confidence":-1},{"trial_n":12,"n_dots":3.25,"target":"left","response":"left","rt":1059.3999998569,"correct":true,"confidence":-1},{"trial_n":13,"n_dots":3.25,"target":"right","response":"right","rt":1156.4000000954,"correct":true,"confidence":-1},{"trial_n":14,"n_dots":3.15,"target":"right","response":"left","rt":1223,"correct":false,"confidence":-1},{"trial_n":15,"n_dots":3.25,"target":"right","response":"right","rt":1137.4000000954,"correct":true,"confidence":-1},{"trial_n":16,"n_dots":3.25,"target":"left","response":"right","rt":921.39999985695,"correct":false,"confidence":-1},{"trial_n":17,"n_dots":3.35,"target":"right","response":"left","rt":1481.2999999523,"correct":false,"confidence":-1},{"trial_n":18,"n_dots":3.45,"target":"left","response":"right","rt":797,"correct":false,"confidence":-1},{"trial_n":19,"n_dots":3.55,"target":"left","response":"right","rt":1124,"correct":false,"confidence":-1},{"trial_n":20,"n_dots":3.65,"target":"right","response":"left","rt":1182.3999998569,"correct":false,"confidence":-1},{"trial_n":21,"n_dots":3.75,"target":"right","response":"right","rt":3112.8999998569,"correct":true,"confidence":3},{"trial_n":22,"n_dots":3.75,"target":"right","response":"right","rt":386.30000019073,"correct":true,"confidence":4},{"trial_n":23,"n_dots":3.65,"target":"left","response":"left","rt":1173.8999998569,"correct":true,"confidence":3},{"trial_n":24,"n_dots":3.65,"target":"right","response":"right","rt":482.40000009537,"correct":true,"confidence":3},{"trial_n":25,"n_dots":3.55,"target":"left","response":"left","rt":1034.5999999046,"correct":true,"confidence":3},{"trial_n":26,"n_dots":3.55,"target":"right","response":"right","rt":847.30000019073,"correct":true,"confidence":4},{"trial_n":27,"n_dots":3.45,"target":"left","response":"right","rt":1011.5,"correct":false,"confidence":4},{"trial_n":28,"n_dots":3.55,"target":"left","response":"left","rt":681.59999990463,"correct":true,"confidence":3},{"trial_n":29,"n_dots":3.55,"target":"left","response":"left","rt":1031.5999999046,"correct":true,"confidence":4},{"trial_n":30,"n_dots":3.45,"target":"right","response":"right","rt":519.29999995232,"correct":true,"confidence":3},{"trial_n":31,"n_dots":3.45,"target":"left","response":"left","rt":803.20000004768,"correct":true,"confidence":3},{"trial_n":32,"n_dots":3.35,"target":"left","response":"left","rt":1485.5,"correct":true,"confidence":3},{"trial_n":33,"n_dots":3.35,"target":"left","response":"left","rt":773.10000014305,"correct":true,"confidence":3},{"trial_n":34,"n_dots":3.25,"target":"left","response":"right","rt":807.59999990463,"correct":false,"confidence":3},{"trial_n":35,"n_dots":3.35,"target":"right","response":"left","rt":1277.5999999046,"correct":false,"confidence":4},{"trial_n":36,"n_dots":3.45,"target":"right","response":"right","rt":835.39999985695,"correct":true,"confidence":3},{"trial_n":37,"n_dots":3.45,"target":"left","response":"left","rt":806.59999990463,"correct":true,"confidence":4},{"trial_n":38,"n_dots":3.35,"target":"right","response":"right","rt":467.80000019073,"correct":true,"confidence":3},{"trial_n":39,"n_dots":3.35,"target":"right","response":"right","rt":534.5,"correct":true,"confidence":3},{"trial_n":40,"n_dots":3.25,"target":"right","response":"right","rt":523.10000014305,"correct":true,"confidence":3},{"trial_n":41,"n_dots":3.25,"target":"left","response":"right","rt":780.20000004768,"correct":false,"confidence":3},{"trial_n":42,"n_dots":3.35,"target":"right","response":"left","rt":648.40000009537,"correct":false,"confidence":3},{"trial_n":43,"n_dots":3.45,"target":"right","response":"right","rt":751.79999995232,"correct":true,"confidence":3},{"trial_n":44,"n_dots":3.45,"target":"right","response":"right","rt":597.70000004768,"correct":true,"confidence":3},{"trial_n":45,"n_dots":3.35,"target":"left","response":"left","rt":467.90000009537,"correct":true,"confidence":3},{"trial_n":46,"n_dots":3.35,"target":"left","response":"right","rt":640.69999980927,"correct":false,"confidence":3},{"trial_n":47,"n_dots":3.45,"target":"left","response":"left","rt":440.40000009537,"correct":true,"confidence":3},{"trial_n":48,"n_dots":3.45,"target":"right","response":"right","rt":457.39999985695,"correct":true,"confidence":3},{"trial_n":49,"n_dots":3.35,"target":"left","response":"right","rt":584.5,"correct":false,"confidence":3},{"trial_n":50,"n_dots":3.45,"target":"left","response":"left","rt":537.70000004768,"correct":true,"confidence":3},{"trial_n":51,"n_dots":3.45,"target":"left","response":"right","rt":771.40000009537,"correct":false,"confidence":3},{"trial_n":52,"n_dots":3.55,"target":"right","response":"right","rt":732.89999985695,"correct":true,"confidence":3},{"trial_n":53,"n_dots":3.55,"target":"left","response":"left","rt":350.09999990463,"correct":true,"confidence":3},{"trial_n":54,"n_dots":3.45,"target":"left","response":"right","rt":631.5,"correct":false,"confidence":3},{"trial_n":55,"n_dots":3.55,"target":"right","response":"right","rt":439.59999990463,"correct":true,"confidence":3},{"trial_n":56,"n_dots":3.55,"target":"right","response":"right","rt":587,"correct":true,"confidence":3},{"trial_n":57,"n_dots":3.45,"target":"left","response":"left","rt":95.400000095367,"correct":true,"confidence":3},{"trial_n":58,"n_dots":3.45,"target":"left","response":"right","rt":376.90000009537,"correct":false,"confidence":3},{"trial_n":59,"n_dots":3.55,"target":"right","response":"right","rt":384.79999995232,"correct":true,"confidence":3},{"trial_n":60,"n_dots":3.55,"target":"left","response":"right","rt":678.09999990463,"correct":false,"confidence":3},{"trial_n":61,"n_dots":3.65,"target":"right","response":"right","rt":223.10000014305,"correct":true,"confidence":4},{"trial_n":62,"n_dots":3.65,"target":"right","response":"left","rt":610.70000004768,"correct":false,"confidence":3},{"trial_n":63,"n_dots":3.75,"target":"right","response":"right","rt":249.59999990463,"correct":true,"confidence":3},{"trial_n":64,"n_dots":3.75,"target":"right","response":"right","rt":26.299999952316,"correct":true,"confidence":4},{"trial_n":65,"n_dots":3.65,"target":"right","response":"right","rt":687.29999995232,"correct":true,"confidence":3},{"trial_n":66,"n_dots":3.65,"target":"left","response":"right","rt":578.5,"correct":false,"confidence":4},{"trial_n":67,"n_dots":3.75,"target":"left","response":"right","rt":483.30000019073,"correct":false,"confidence":3},{"trial_n":68,"n_dots":3.85,"target":"right","response":"right","rt":165.5,"correct":true,"confidence":3},{"trial_n":69,"n_dots":3.85,"target":"right","response":"right","rt":37.5,"correct":true,"confidence":3},{"trial_n":70,"n_dots":3.75,"target":"left","response":"left","rt":504.10000014305,"correct":true,"confidence":3},{"trial_n":71,"n_dots":3.75,"target":"right","response":"right","rt":305.40000009537,"correct":true,"confidence":3},{"trial_n":72,"n_dots":3.65,"target":"right","response":"left","rt":280,"correct":false,"confidence":3},{"trial_n":73,"n_dots":3.75,"target":"left","response":"right","rt":265.39999985695,"correct":false,"confidence":3},{"trial_n":74,"n_dots":3.85,"target":"right","response":"right","rt":143,"correct":true,"confidence":3},{"trial_n":75,"n_dots":3.85,"target":"right","response":"right","rt":1582.2000000477,"correct":true,"confidence":3},{"trial_n":76,"n_dots":3.75,"target":"left","response":"right","rt":464.79999995232,"correct":false,"confidence":3},{"trial_n":77,"n_dots":3.85,"target":"left","response":"left","rt":1017.5999999046,"correct":true,"confidence":2},{"trial_n":78,"n_dots":3.85,"target":"left","response":"right","rt":1286.2000000477,"correct":false,"confidence":4},{"trial_n":79,"n_dots":3.95,"target":"right","response":"right","rt":4004.2000000477,"correct":true,"confidence":1},{"trial_n":80,"n_dots":3.95,"target":"right","response":"right","rt":305,"correct":true,"confidence":3},{"trial_n":81,"n_dots":3.85,"target":"right","response":"right","rt":89,"correct":true,"confidence":3},{"trial_n":82,"n_dots":3.85,"target":"right","response":"right","rt":387.39999985695,"correct":true,"confidence":3},{"trial_n":83,"n_dots":3.75,"target":"left","response":"left","rt":18.799999952316,"correct":true,"confidence":3},{"trial_n":84,"n_dots":3.75,"target":"left","response":"left","rt":79.599999904633,"correct":true,"confidence":3},{"trial_n":85,"n_dots":3.65,"target":"right","response":"right","rt":875.29999995232,"correct":true,"confidence":2},{"trial_n":86,"n_dots":3.65,"target":"right","response":"right","rt":191,"correct":true,"confidence":3},{"trial_n":87,"n_dots":3.55,"target":"right","response":"right","rt":872.79999995232,"correct":true,"confidence":2},{"trial_n":88,"n_dots":3.55,"target":"right","response":"right","rt":698.29999995232,"correct":true,"confidence":2},{"trial_n":89,"n_dots":3.45,"target":"right","response":"right","rt":240.20000004768,"correct":true,"confidence":3},{"trial_n":90,"n_dots":3.45,"target":"right","response":"right","rt":634.89999985695,"correct":true,"confidence":2},{"trial_n":91,"n_dots":3.35,"target":"right","response":"right","rt":230.90000009537,"correct":true,"confidence":3},{"trial_n":92,"n_dots":3.35,"target":"left","response":"left","rt":112.39999985695,"correct":true,"confidence":3},{"trial_n":93,"n_dots":3.25,"target":"left","response":"right","rt":390.39999985695,"correct":false,"confidence":2},{"trial_n":94,"n_dots":3.35,"target":"left","response":"right","rt":316.5,"correct":false,"confidence":4},{"trial_n":95,"n_dots":3.45,"target":"left","response":"left","rt":61.399999856949,"correct":true,"confidence":2},{"trial_n":96,"n_dots":3.45,"target":"left","response":"left","rt":1655.2999999523,"correct":true,"confidence":3},{"trial_n":97,"n_dots":3.35,"target":"right","response":"right","rt":177.59999990463,"correct":true,"confidence":3},{"trial_n":98,"n_dots":3.35,"target":"left","response":"left","rt":127.09999990463,"correct":true,"confidence":2},{"trial_n":99,"n_dots":3.25,"target":"left","response":"right","rt":230.29999995232,"correct":false,"confidence":3},{"trial_n":100,"n_dots":3.35,"target":"left","response":"right","rt":106.19999980927,"correct":false,"confidence":2},{"trial_n":101,"n_dots":3.45,"target":"right","response":"right","rt":701.29999995232,"correct":true,"confidence":3},{"trial_n":102,"n_dots":3.45,"target":"left","response":"right","rt":509.90000009537,"correct":false,"confidence":3},{"trial_n":103,"n_dots":3.55,"target":"right","response":"right","rt":253.70000004768,"correct":true,"confidence":3},{"trial_n":104,"n_dots":3.55,"target":"right","response":"right","rt":224.5,"correct":true,"confidence":4},{"trial_n":105,"n_dots":3.45,"target":"left","response":"left","rt":10.5,"correct":true,"confidence":3},{"trial_n":106,"n_dots":3.45,"target":"left","response":"right","rt":490.20000004768,"correct":false,"confidence":3},{"trial_n":107,"n_dots":3.55,"target":"right","response":"right","rt":254.29999995232,"correct":true,"confidence":3},{"trial_n":108,"n_dots":3.55,"target":"right","response":"right","rt":1026.5,"correct":true,"confidence":3},{"trial_n":109,"n_dots":3.45,"target":"right","response":"right","rt":225.29999995232,"correct":true,"confidence":3},{"trial_n":110,"n_dots":3.45,"target":"left","response":"right","rt":100,"correct":false,"confidence":3},{"trial_n":111,"n_dots":3.55,"target":"right","response":"right","rt":103.09999990463,"correct":true,"confidence":3},{"trial_n":112,"n_dots":3.55,"target":"right","response":"left","rt":45.599999904633,"correct":false,"confidence":2},{"trial_n":113,"n_dots":3.65,"target":"left","response":"right","rt":1037.5,"correct":false,"confidence":3},{"trial_n":114,"n_dots":3.75,"target":"left","response":"right","rt":265.09999990463,"correct":false,"confidence":3},{"trial_n":115,"n_dots":3.85,"target":"left","response":"left","rt":812.30000019073,"correct":true,"confidence":3},{"trial_n":116,"n_dots":3.85,"target":"right","response":"right","rt":400.09999990463,"correct":true,"confidence":3},{"trial_n":117,"n_dots":3.75,"target":"left","response":"right","rt":23.799999952316,"correct":false,"confidence":3},{"trial_n":118,"n_dots":3.85,"target":"left","response":"left","rt":228.29999995232,"correct":true,"confidence":3},{"trial_n":119,"n_dots":3.85,"target":"right","response":"right","rt":593.59999990463,"correct":true,"confidence":3},{"trial_n":120,"n_dots":3.75,"target":"right","response":"left","rt":129.89999985695,"correct":false,"confidence":3}]