[{"trial_n":1,"min":25,"max":230,"target":"present","response":"present","rt":6478,"correct":true,"confidence":-1},{"trial_n":2,"min":25,"max":230,"target":"present","response":"present","rt":532,"correct":true,"confidence":-1},{"trial_n":3,"min":41,"max":214,"target":"absent","response":"absent","rt":1705,"correct":true,"confidence":-1},{"trial_n":4,"min":41,"max":214,"target":"absent","response":"absent","rt":885.00000000003,"correct":true,"confidence":-1},{"trial_n":5,"min":57,"max":198,"target":"present","response":"present","rt":649,"correct":true,"confidence":-1},{"trial_n":6,"min":57,"max":198,"target":"absent","response":"absent","rt":493,"correct":true,"confidence":-1},{"trial_n":7,"min":73,"max":182,"target":"absent","response":"absent","rt":427.99999999997,"correct":true,"confidence":-1},{"trial_n":8,"min":73,"max":182,"target":"absent","response":"absent","rt":367.99999999997,"correct":true,"confidence":-1},{"trial_n":9,"min":89,"max":166,"target":"present","response":"present","rt":682,"correct":true,"confidence":-1},{"trial_n":10,"min":89,"max":166,"target":"absent","response":"absent","rt":275,"correct":true,"confidence":-1},{"trial_n":11,"min":97,"max":158,"target":"present","response":"present","rt":253,"correct":true,"confidence":-1},{"trial_n":12,"min":97,"max":158,"target":"absent","response":"absent","rt":665,"correct":true,"confidence":-1},{"trial_n":13,"min":105,"max":150,"target":"absent","response":"present","rt":317,"correct":false,"confidence":-1},{"trial_n":14,"min":97,"max":158,"target":"present","response":"absent","rt":571,"correct":false,"confidence":-1},{"trial_n":15,"min":89,"max":166,"target":"present","response":"present","rt":847,"correct":true,"confidence":-1},{"trial_n":16,"min":89,"max":166,"target":"absent","response":"absent","rt":1456,"correct":true,"confidence":-1},{"trial_n":17,"min":97,"max":158,"target":"present","response":"present","rt":506,"correct":true,"confidence":-1},{"trial_n":18,"min":97,"max":158,"target":"absent","response":"absent","rt":592,"correct":true,"confidence":-1},{"trial_n":19,"min":105,"max":150,"target":"present","response":"present","rt":2143,"correct":true,"confidence":-1},{"trial_n":20,"min":105,"max":150,"target":"present","response":"absent","rt":440,"correct":false,"confidence":-1},{"trial_n":21,"min":101,"max":154,"target":"absent","response":"present","rt":1328,"correct":false,"confidence":1},{"trial_n":22,"min":97,"max":158,"target":"present","response":"absent","rt":893,"correct":false,"confidence":1},{"trial_n":23,"min":93,"max":162,"target":"present","response":"absent","rt":1679,"correct":false,"confidence":1},{"trial_n":24,"min":89,"max":166,"target":"absent","response":"present","rt":674,"correct":false,"confidence":1},{"trial_n":25,"min":85,"max":170,"target":"present","response":"present","rt":643,"correct":true,"confidence":1},{"trial_n":26,"min":85,"max":170,"target":"present","response":"present","rt":724.99999999997,"correct":true,"confidence":1},{"trial_n":27,"min":89,"max":166,"target":"present","response":"present","rt":1820,"correct":true,"confidence":1},{"trial_n":28,"min":89,"max":166,"target":"present","response":"absent","rt":2685,"correct":false,"confidence":1},{"trial_n":29,"min":85,"max":170,"target":"absent","response":"present","rt":809.99999999997,"correct":false,"confidence":2},{"trial_n":30,"min":81,"max":174,"target":"absent","response":"present","rt":1458,"correct":false,"confidence":2},{"trial_n":31,"min":79,"max":176,"target":"absent","response":"present","rt":773.99999999997,"correct":false,"confidence":2},{"trial_n":32,"min":77,"max":178,"target":"absent","response":"present","rt":1335,"correct":false,"confidence":2},{"trial_n":33,"min":75,"max":180,"target":"absent","response":"present","rt":1445,"correct":false,"confidence":3},{"trial_n":34,"min":73,"max":182,"target":"absent","response":"present","rt":649,"correct":false,"confidence":2},{"trial_n":35,"min":71,"max":184,"target":"present","response":"present","rt":1239,"correct":true,"confidence":2},{"trial_n":36,"min":71,"max":184,"target":"present","response":"present","rt":597.00000000006,"correct":true,"confidence":1},{"trial_n":37,"min":73,"max":182,"target":"present","response":"present","rt":993.99999999997,"correct":true,"confidence":3},{"trial_n":38,"min":73,"max":182,"target":"present","response":"present","rt":3317,"correct":true,"confidence":4},{"trial_n":39,"min":75,"max":180,"target":"absent","response":"present","rt":1522.9999999999,"correct":false,"confidence":3},{"trial_n":40,"min":73,"max":182,"target":"present","response":"present","rt":1189,"correct":true,"confidence":3},{"trial_n":41,"min":73,"max":182,"target":"absent","response":"present","rt":1705,"correct":false,"confidence":2},{"trial_n":42,"min":72,"max":183,"target":"absent","response":"present","rt":945,"correct":false,"confidence":1},{"trial_n":43,"min":71,"max":184,"target":"present","response":"present","rt":2101,"correct":true,"confidence":3},{"trial_n":44,"min":71,"max":184,"target":"present","response":"present","rt":593,"correct":true,"confidence":4},{"trial_n":45,"min":72,"max":183,"target":"absent","response":"present","rt":609,"correct":false,"confidence":3},{"trial_n":46,"min":71,"max":184,"target":"absent","response":"present","rt":1054,"correct":false,"confidence":1},{"trial_n":47,"min":70,"max":185,"target":"absent","response":"present","rt":1738.9999999999,"correct":false,"confidence":3},{"trial_n":48,"min":69,"max":186,"target":"absent","response":"present","rt":931,"correct":false,"confidence":3},{"trial_n":49,"min":68,"max":187,"target":"present","response":"present","rt":543,"correct":true,"confidence":3},{"trial_n":50,"min":68,"max":187,"target":"absent","response":"present","rt":1311,"correct":false,"confidence":3},{"trial_n":51,"min":67,"max":188,"target":"absent","response":"present","rt":861,"correct":false,"confidence":2},{"trial_n":52,"min":66,"max":189,"target":"absent","response":"present","rt":1445,"correct":false,"confidence":2},{"trial_n":53,"min":65,"max":190,"target":"present","response":"present","rt":1001,"correct":true,"confidence":2},{"trial_n":54,"min":65,"max":190,"target":"absent","response":"present","rt":857,"correct":false,"confidence":2},{"trial_n":55,"min":64,"max":191,"target":"absent","response":"absent","rt":925,"correct":true,"confidence":2},{"trial_n":56,"min":64,"max":191,"target":"present","response":"present","rt":580,"correct":true,"confidence":4},{"trial_n":57,"min":65,"max":190,"target":"present","response":"present","rt":744,"correct":true,"confidence":4},{"trial_n":58,"min":65,"max":190,"target":"present","response":"present","rt":351.00000000006,"correct":true,"confidence":4},{"trial_n":59,"min":66,"max":189,"target":"absent","response":"present","rt":540,"correct":false,"confidence":4},{"trial_n":60,"min":65,"max":190,"target":"present","response":"present","rt":380,"correct":true,"confidence":4},{"trial_n":61,"min":65,"max":190,"target":"present","response":"present","rt":544,"correct":true,"confidence":4},{"trial_n":62,"min":66,"max":189,"target":"absent","response":"present","rt":213.99999999994,"correct":false,"confidence":2},{"trial_n":63,"min":65,"max":190,"target":"present","response":"present","rt":698,"correct":true,"confidence":4},{"trial_n":64,"min":65,"max":190,"target":"present","response":"present","rt":716,"correct":true,"confidence":4},{"trial_n":65,"min":66,"max":189,"target":"present","response":"present","rt":234,"correct":true,"confidence":5},{"trial_n":66,"min":66,"max":189,"target":"absent","response":"present","rt":1143,"correct":false,"confidence":3},{"trial_n":67,"min":65,"max":190,"target":"present","response":"present","rt":593,"correct":true,"confidence":3},{"trial_n":68,"min":65,"max":190,"target":"present","response":"present","rt":549.99999999994,"correct":true,"confidence":4},{"trial_n":69,"min":66,"max":189,"target":"absent","response":"present","rt":1322,"correct":false,"confidence":3},{"trial_n":70,"min":65,"max":190,"target":"present","response":"present","rt":334,"correct":true,"confidence":1},{"trial_n":71,"min":41,"max":214,"target":"present","response":"present","rt":2030,"correct":true,"confidence":-1},{"trial_n":72,"min":41,"max":214,"target":"present","response":"absent","rt":797,"correct":false,"confidence":-1},{"trial_n":73,"min":25,"max":230,"target":"absent","response":"present","rt":1937.0000000001,"correct":false,"confidence":-1},{"trial_n":74,"min":9,"max":246,"target":"absent","response":"present","rt":736,"correct":false,"confidence":-1},{"trial_n":75,"min":0,"max":255,"target":"present","response":"present","rt":1039,"correct":true,"confidence":-1},{"trial_n":76,"min":0,"max":255,"target":"present","response":"present","rt":773.00000000006,"correct":true,"confidence":-1},{"trial_n":77,"min":16,"max":239,"target":"absent","response":"present","rt":466,"correct":false,"confidence":-1},{"trial_n":78,"min":0,"max":255,"target":"present","response":"present","rt":725,"correct":true,"confidence":-1},{"trial_n":79,"min":0,"max":255,"target":"absent","response":"absent","rt":371,"correct":true,"confidence":-1},{"trial_n":80,"min":16,"max":239,"target":"present","response":"present","rt":765.99999999994,"correct":true,"confidence":-1},{"trial_n":81,"min":16,"max":239,"target":"absent","response":"absent","rt":484,"correct":true,"confidence":-1},{"trial_n":82,"min":24,"max":231,"target":"present","response":"present","rt":4765.0000000001,"correct":true,"confidence":-1},{"trial_n":83,"min":24,"max":231,"target":"absent","response":"absent","rt":1437,"correct":true,"confidence":-1},{"trial_n":84,"min":32,"max":223,"target":"present","response":"present","rt":2511,"correct":true,"confidence":-1},{"trial_n":85,"min":32,"max":223,"target":"absent","response":"absent","rt":518,"correct":true,"confidence":-1},{"trial_n":86,"min":40,"max":215,"target":"absent","response":"absent","rt":402,"correct":true,"confidence":-1},{"trial_n":87,"min":40,"max":215,"target":"absent","response":"absent","rt":388.99999999994,"correct":true,"confidence":-1},{"trial_n":88,"min":48,"max":207,"target":"present","response":"present","rt":1892,"correct":true,"confidence":-1},{"trial_n":89,"min":48,"max":207,"target":"absent","response":"absent","rt":990,"correct":true,"confidence":-1},{"trial_n":90,"min":56,"max":199,"target":"absent","response":"present","rt":1085,"correct":false,"confidence":-1},{"trial_n":91,"min":52,"max":203,"target":"present","response":"present","rt":2846,"correct":true,"confidence":4},{"trial_n":92,"min":52,"max":203,"target":"absent","response":"absent","rt":498,"correct":true,"confidence":4},{"trial_n":93,"min":56,"max":199,"target":"absent","response":"absent","rt":547,"correct":true,"confidence":4},{"trial_n":94,"min":56,"max":199,"target":"present","response":"present","rt":331,"correct":true,"confidence":3},{"trial_n":95,"min":60,"max":195,"target":"absent","response":"absent","rt":867,"correct":true,"confidence":3},{"trial_n":96,"min":60,"max":195,"target":"present","response":"present","rt":275.99999999994,"correct":true,"confidence":3},{"trial_n":97,"min":64,"max":191,"target":"present","response":"present","rt":812,"correct":true,"confidence":4},{"trial_n":98,"min":64,"max":191,"target":"present","response":"present","rt":457,"correct":true,"confidence":4},{"trial_n":99,"min":68,"max":187,"target":"present","response":"present","rt":958.99999999994,"correct":true,"confidence":4},{"trial_n":100,"min":68,"max":187,"target":"absent","response":"absent","rt":958,"correct":true,"confidence":3},{"trial_n":101,"min":70,"max":185,"target":"absent","response":"present","rt":3676,"correct":false,"confidence":1},{"trial_n":102,"min":68,"max":187,"target":"absent","response":"absent","rt":1205.0000000001,"correct":true,"confidence":3},{"trial_n":103,"min":68,"max":187,"target":"absent","response":"absent","rt":1017,"correct":true,"confidence":3},{"trial_n":104,"min":70,"max":185,"target":"absent","response":"absent","rt":896.99999999994,"correct":true,"confidence":3},{"trial_n":105,"min":70,"max":185,"target":"present","response":"present","rt":1024,"correct":true,"confidence":4},{"trial_n":106,"min":72,"max":183,"target":"absent","response":"absent","rt":1622,"correct":true,"confidence":3},{"trial_n":107,"min":72,"max":183,"target":"present","response":"present","rt":1900,"correct":true,"confidence":4},{"trial_n":108,"min":74,"max":181,"target":"absent","response":"absent","rt":396,"correct":true,"confidence":3},{"trial_n":109,"min":74,"max":181,"target":"absent","response":"present","rt":1823,"correct":false,"confidence":1},{"trial_n":110,"min":72,"max":183,"target":"present","response":"present","rt":389,"correct":true,"confidence":3},{"trial_n":111,"min":72,"max":183,"target":"present","response":"present","rt":411.99999999988,"correct":true,"confidence":4},{"trial_n":112,"min":73,"max":182,"target":"present","response":"present","rt":800.99999999988,"correct":true,"confidence":5},{"trial_n":113,"min":73,"max":182,"target":"present","response":"present","rt":315.00000000006,"correct":true,"confidence":5},{"trial_n":114,"min":74,"max":181,"target":"present","response":"present","rt":1164.0000000001,"correct":true,"confidence":5},{"trial_n":115,"min":74,"max":181,"target":"present","response":"present","rt":242,"correct":true,"confidence":5},{"trial_n":116,"min":75,"max":180,"target":"absent","response":"present","rt":1381,"correct":false,"confidence":1},{"trial_n":117,"min":74,"max":181,"target":"absent","response":"absent","rt":1118,"correct":true,"confidence":4},{"trial_n":118,"min":74,"max":181,"target":"present","response":"absent","rt":2549,"correct":false,"confidence":4},{"trial_n":119,"min":73,"max":182,"target":"present","response":"present","rt":1189,"correct":true,"confidence":5},{"trial_n":120,"min":73,"max":182,"target":"absent","response":"absent","rt":1143,"correct":true,"confidence":3},{"trial_n":121,"min":74,"max":181,"target":"absent","response":"present","rt":1296,"correct":false,"confidence":1},{"trial_n":122,"min":73,"max":182,"target":"absent","response":"present","rt":845.00000000012,"correct":false,"confidence":1},{"trial_n":123,"min":72,"max":183,"target":"present","response":"present","rt":552,"correct":true,"confidence":3},{"trial_n":124,"min":72,"max":183,"target":"absent","response":"absent","rt":1269,"correct":true,"confidence":1},{"trial_n":125,"min":73,"max":182,"target":"present","response":"absent","rt":3396,"correct":false,"confidence":2},{"trial_n":126,"min":72,"max":183,"target":"absent","response":"absent","rt":1122,"correct":true,"confidence":3},{"trial_n":127,"min":72,"max":183,"target":"absent","response":"absent","rt":802,"correct":true,"confidence":1},{"trial_n":128,"min":73,"max":182,"target":"present","response":"absent","rt":989,"correct":false,"confidence":3},{"trial_n":129,"min":72,"max":183,"target":"absent","response":"absent","rt":1827,"correct":true,"confidence":2},{"trial_n":130,"min":72,"max":183,"target":"present","response":"present","rt":554,"correct":true,"confidence":3},{"trial_n":131,"min":73,"max":182,"target":"present","response":"present","rt":323,"correct":true,"confidence":3},{"trial_n":132,"min":73,"max":182,"target":"absent","response":"present","rt":1477,"correct":false,"confidence":1},{"trial_n":133,"min":72,"max":183,"target":"present","response":"present","rt":1401,"correct":true,"confidence":2},{"trial_n":134,"min":72,"max":183,"target":"present","response":"present","rt":1384,"correct":true,"confidence":2},{"trial_n":135,"min":73,"max":182,"target":"present","response":"absent","rt":878,"correct":false,"confidence":3},{"trial_n":136,"min":72,"max":183,"target":"present","response":"present","rt":381,"correct":true,"confidence":3},{"trial_n":137,"min":72,"max":183,"target":"absent","response":"absent","rt":2766,"correct":true,"confidence":3},{"trial_n":138,"min":73,"max":182,"target":"present","response":"present","rt":1262.9999999999,"correct":true,"confidence":4},{"trial_n":139,"min":73,"max":182,"target":"present","response":"present","rt":1159,"correct":true,"confidence":3},{"trial_n":140,"min":74,"max":181,"target":"absent","response":"absent","rt":5204,"correct":true,"confidence":3}]