[{"trial_n":1,"n_dots":4.25,"target":"left","response":"left","rt":18751,"correct":true,"confidence":-1},{"trial_n":2,"n_dots":4.25,"target":"left","response":"left","rt":3114,"correct":true,"confidence":-1},{"trial_n":3,"n_dots":3.85,"target":"right","response":"right","rt":4018,"correct":true,"confidence":-1},{"trial_n":4,"n_dots":3.85,"target":"left","response":"left","rt":632,"correct":true,"confidence":-1},{"trial_n":5,"n_dots":3.45,"target":"right","response":"left","rt":917,"correct":false,"confidence":-1},{"trial_n":6,"n_dots":3.85,"target":"left","response":"right","rt":813,"correct":false,"confidence":-1},{"trial_n":7,"n_dots":4.25,"target":"right","response":"right","rt":366.99999999999,"correct":true,"confidence":-1},{"trial_n":8,"n_dots":4.25,"target":"left","response":"left","rt":858.00000000001,"correct":true,"confidence":-1},{"trial_n":9,"n_dots":4.05,"target":"right","response":"left","rt":552,"correct":false,"confidence":-1},{"trial_n":10,"n_dots":4.25,"target":"left","response":"left","rt":374.00000000001,"correct":true,"confidence":-1},{"trial_n":11,"n_dots":4.25,"target":"left","response":"left","rt":123857,"correct":true,"confidence":-1},{"trial_n":12,"n_dots":4.05,"target":"left","response":"left","rt":936,"correct":true,"confidence":-1},{"trial_n":13,"n_dots":4.05,"target":"left","response":"left","rt":620.99999999997,"correct":true,"confidence":-1},{"trial_n":14,"n_dots":3.95,"target":"left","response":"left","rt":435,"correct":true,"confidence":-1},{"trial_n":15,"n_dots":3.95,"target":"left","response":"left","rt":569,"correct":true,"confidence":-1},{"trial_n":16,"n_dots":3.85,"target":"left","response":"left","rt":2122,"correct":true,"confidence":-1},{"trial_n":17,"n_dots":3.85,"target":"left","response":"left","rt":530,"correct":true,"confidence":-1},{"trial_n":18,"n_dots":3.75,"target":"left","response":"left","rt":444,"correct":true,"confidence":-1},{"trial_n":19,"n_dots":3.75,"target":"right","response":"right","rt":1360,"correct":true,"confidence":-1},{"trial_n":20,"n_dots":3.65,"target":"right","response":"right","rt":766,"correct":true,"confidence":-1},{"trial_n":21,"n_dots":3.65,"target":"left","response":"right","rt":886.00000000003,"correct":false,"confidence":2},{"trial_n":22,"n_dots":3.75,"target":"right","response":"right","rt":1920,"correct":true,"confidence":2},{"trial_n":23,"n_dots":3.75,"target":"left","response":"right","rt":2040,"correct":false,"confidence":3},{"trial_n":24,"n_dots":3.85,"target":"left","response":"left","rt":296,"correct":true,"confidence":2},{"trial_n":25,"n_dots":3.85,"target":"right","response":"right","rt":476,"correct":true,"confidence":2},{"trial_n":26,"n_dots":3.75,"target":"left","response":"right","rt":2160,"correct":false,"confidence":2},{"trial_n":27,"n_dots":3.85,"target":"left","response":"left","rt":265,"correct":true,"confidence":2},{"trial_n":28,"n_dots":3.85,"target":"left","response":"left","rt":832,"correct":true,"confidence":1},{"trial_n":29,"n_dots":3.75,"target":"right","response":"right","rt":1619,"correct":true,"confidence":1},{"trial_n":30,"n_dots":3.75,"target":"right","response":"right","rt":819,"correct":true,"confidence":2},{"trial_n":31,"n_dots":3.65,"target":"right","response":"right","rt":367,"correct":true,"confidence":3},{"trial_n":32,"n_dots":3.65,"target":"left","response":"left","rt":625,"correct":true,"confidence":3},{"trial_n":33,"n_dots":3.55,"target":"right","response":"right","rt":345,"correct":true,"confidence":2},{"trial_n":34,"n_dots":3.55,"target":"left","response":"left","rt":1923,"correct":true,"confidence":2},{"trial_n":35,"n_dots":3.45,"target":"right","response":"right","rt":1357,"correct":true,"confidence":1},{"trial_n":36,"n_dots":3.45,"target":"right","response":"right","rt":649,"correct":true,"confidence":1},{"trial_n":37,"n_dots":3.35,"target":"right","response":"left","rt":757,"correct":false,"confidence":1},{"trial_n":38,"n_dots":3.45,"target":"right","response":"left","rt":1719,"correct":false,"confidence":2},{"trial_n":39,"n_dots":3.55,"target":"right","response":"right","rt":781,"correct":true,"confidence":2},{"trial_n":40,"n_dots":3.55,"target":"right","response":"left","rt":839,"correct":false,"confidence":2},{"trial_n":41,"n_dots":3.65,"target":"left","response":"left","rt":1594,"correct":true,"confidence":2},{"trial_n":42,"n_dots":3.65,"target":"right","response":"right","rt":1142,"correct":true,"confidence":1},{"trial_n":43,"n_dots":3.55,"target":"left","response":"left","rt":697,"correct":true,"confidence":1},{"trial_n":44,"n_dots":3.55,"target":"right","response":"left","rt":969,"correct":false,"confidence":1},{"trial_n":45,"n_dots":3.65,"target":"right","response":"left","rt":1117,"correct":false,"confidence":1},{"trial_n":46,"n_dots":3.75,"target":"right","response":"left","rt":1074,"correct":false,"confidence":2},{"trial_n":47,"n_dots":3.85,"target":"right","response":"right","rt":1184,"correct":true,"confidence":2},{"trial_n":48,"n_dots":3.85,"target":"right","response":"right","rt":395,"correct":true,"confidence":3},{"trial_n":49,"n_dots":3.75,"target":"right","response":"right","rt":1020,"correct":true,"confidence":2},{"trial_n":50,"n_dots":3.75,"target":"left","response":"left","rt":300,"correct":true,"confidence":2},{"trial_n":51,"n_dots":3.65,"target":"right","response":"right","rt":1015,"correct":true,"confidence":2},{"trial_n":52,"n_dots":3.65,"target":"left","response":"left","rt":439,"correct":true,"confidence":3},{"trial_n":53,"n_dots":3.55,"target":"right","response":"left","rt":328,"correct":false,"confidence":3},{"trial_n":54,"n_dots":3.65,"target":"left","response":"left","rt":968.99999999994,"correct":true,"confidence":2},{"trial_n":55,"n_dots":3.65,"target":"right","response":"right","rt":1568,"correct":true,"confidence":1},{"trial_n":56,"n_dots":3.55,"target":"left","response":"left","rt":153,"correct":true,"confidence":3},{"trial_n":57,"n_dots":3.55,"target":"right","response":"right","rt":1721,"correct":true,"confidence":1},{"trial_n":58,"n_dots":3.45,"target":"left","response":"left","rt":260,"correct":true,"confidence":2},{"trial_n":59,"n_dots":3.45,"target":"right","response":"right","rt":1192,"correct":true,"confidence":2},{"trial_n":60,"n_dots":3.35,"target":"right","response":"left","rt":2223,"correct":false,"confidence":1},{"trial_n":61,"n_dots":3.45,"target":"left","response":"left","rt":1396.0000000001,"correct":true,"confidence":1},{"trial_n":62,"n_dots":3.45,"target":"right","response":"left","rt":1366,"correct":false,"confidence":2},{"trial_n":63,"n_dots":3.55,"target":"right","response":"right","rt":2254,"correct":true,"confidence":2},{"trial_n":64,"n_dots":3.55,"target":"left","response":"left","rt":1130,"correct":true,"confidence":2},{"trial_n":65,"n_dots":3.45,"target":"left","response":"left","rt":230,"correct":true,"confidence":3},{"trial_n":66,"n_dots":3.45,"target":"right","response":"left","rt":753.99999999988,"correct":false,"confidence":2},{"trial_n":67,"n_dots":3.55,"target":"left","response":"left","rt":380,"correct":true,"confidence":2},{"trial_n":68,"n_dots":3.55,"target":"left","response":"left","rt":412,"correct":true,"confidence":3},{"trial_n":69,"n_dots":3.45,"target":"right","response":"left","rt":1351,"correct":false,"confidence":1},{"trial_n":70,"n_dots":3.55,"target":"right","response":"right","rt":864,"correct":true,"confidence":2},{"trial_n":71,"n_dots":3.55,"target":"right","response":"right","rt":2444,"correct":true,"confidence":2},{"trial_n":72,"n_dots":3.45,"target":"left","response":"left","rt":445,"correct":true,"confidence":3},{"trial_n":73,"n_dots":3.45,"target":"left","response":"left","rt":157,"correct":true,"confidence":3},{"trial_n":74,"n_dots":3.35,"target":"right","response":"left","rt":1954.9999999999,"correct":false,"confidence":2},{"trial_n":75,"n_dots":3.45,"target":"right","response":"left","rt":459.99999999988,"correct":false,"confidence":3},{"trial_n":76,"n_dots":3.55,"target":"left","response":"left","rt":478,"correct":true,"confidence":2},{"trial_n":77,"n_dots":3.55,"target":"right","response":"left","rt":653,"correct":false,"confidence":2},{"trial_n":78,"n_dots":3.65,"target":"left","response":"left","rt":447,"correct":true,"confidence":2},{"trial_n":79,"n_dots":3.65,"target":"left","response":"left","rt":267,"correct":true,"confidence":2},{"trial_n":80,"n_dots":3.55,"target":"right","response":"right","rt":747,"correct":true,"confidence":2},{"trial_n":81,"n_dots":3.55,"target":"left","response":"left","rt":1074,"correct":true,"confidence":3},{"trial_n":82,"n_dots":3.45,"target":"right","response":"left","rt":1776,"correct":false,"confidence":2},{"trial_n":83,"n_dots":3.55,"target":"left","response":"left","rt":389,"correct":true,"confidence":3},{"trial_n":84,"n_dots":3.55,"target":"right","response":"right","rt":995,"correct":true,"confidence":3},{"trial_n":85,"n_dots":3.45,"target":"left","response":"left","rt":734,"correct":true,"confidence":3},{"trial_n":86,"n_dots":3.45,"target":"left","response":"left","rt":834.99999999988,"correct":true,"confidence":3},{"trial_n":87,"n_dots":3.35,"target":"right","response":"right","rt":948.00000000012,"correct":true,"confidence":2},{"trial_n":88,"n_dots":3.35,"target":"left","response":"left","rt":360,"correct":true,"confidence":2},{"trial_n":89,"n_dots":3.25,"target":"right","response":"left","rt":1498,"correct":false,"confidence":2},{"trial_n":90,"n_dots":3.35,"target":"right","response":"left","rt":1044,"correct":false,"confidence":2},{"trial_n":91,"n_dots":3.45,"target":"left","response":"left","rt":599,"correct":true,"confidence":2},{"trial_n":92,"n_dots":3.45,"target":"left","response":"right","rt":1855,"correct":false,"confidence":1},{"trial_n":93,"n_dots":3.55,"target":"right","response":"right","rt":611,"correct":true,"confidence":2},{"trial_n":94,"n_dots":3.55,"target":"right","response":"right","rt":979,"correct":true,"confidence":3},{"trial_n":95,"n_dots":3.45,"target":"right","response":"right","rt":1201,"correct":true,"confidence":2},{"trial_n":96,"n_dots":3.45,"target":"left","response":"left","rt":422,"correct":true,"confidence":2},{"trial_n":97,"n_dots":3.35,"target":"right","response":"left","rt":615,"correct":false,"confidence":2},{"trial_n":98,"n_dots":3.45,"target":"right","response":"right","rt":561,"correct":true,"confidence":2},{"trial_n":99,"n_dots":3.45,"target":"right","response":"right","rt":1091,"correct":true,"confidence":2},{"trial_n":100,"n_dots":3.35,"target":"right","response":"right","rt":752,"correct":true,"confidence":2},{"trial_n":101,"n_dots":3.35,"target":"left","response":"left","rt":6686,"correct":true,"confidence":2},{"trial_n":102,"n_dots":3.25,"target":"left","response":"left","rt":323.99999999988,"correct":true,"confidence":2},{"trial_n":103,"n_dots":3.25,"target":"left","response":"left","rt":472.00000000023,"correct":true,"confidence":2},{"trial_n":104,"n_dots":3.15,"target":"right","response":"left","rt":1260.9999999998,"correct":false,"confidence":2},{"trial_n":105,"n_dots":3.25,"target":"left","response":"left","rt":463,"correct":true,"confidence":2},{"trial_n":106,"n_dots":3.25,"target":"right","response":"right","rt":997,"correct":true,"confidence":3},{"trial_n":107,"n_dots":3.15,"target":"right","response":"right","rt":815,"correct":true,"confidence":3},{"trial_n":108,"n_dots":3.15,"target":"left","response":"left","rt":537,"correct":true,"confidence":2},{"trial_n":109,"n_dots":3.05,"target":"left","response":"right","rt":962.99999999977,"correct":false,"confidence":2},{"trial_n":110,"n_dots":3.15,"target":"left","response":"left","rt":470,"correct":true,"confidence":2},{"trial_n":111,"n_dots":3.15,"target":"left","response":"left","rt":442,"correct":true,"confidence":3},{"trial_n":112,"n_dots":3.05,"target":"left","response":"left","rt":591,"correct":true,"confidence":3},{"trial_n":113,"n_dots":3.05,"target":"left","response":"left","rt":494,"correct":true,"confidence":2},{"trial_n":114,"n_dots":2.95,"target":"right","response":"left","rt":1025,"correct":false,"confidence":3},{"trial_n":115,"n_dots":3.05,"target":"right","response":"right","rt":4297,"correct":true,"confidence":2},{"trial_n":116,"n_dots":3.05,"target":"right","response":"left","rt":931.00000000023,"correct":false,"confidence":3},{"trial_n":117,"n_dots":3.15,"target":"left","response":"left","rt":883,"correct":true,"confidence":3},{"trial_n":118,"n_dots":3.15,"target":"left","response":"left","rt":801,"correct":true,"confidence":3},{"trial_n":119,"n_dots":3.05,"target":"right","response":"left","rt":1126,"correct":false,"confidence":2},{"trial_n":120,"n_dots":3.15,"target":"left","response":"left","rt":992,"correct":true,"confidence":3}]