[{"trial_n":1,"min":25,"max":230,"target":"present","response":"present","rt":8964.3999998569,"correct":true,"confidence":-1},{"trial_n":2,"min":25,"max":230,"target":"present","response":"present","rt":4118.4000000954,"correct":true,"confidence":-1},{"trial_n":3,"min":41,"max":214,"target":"absent","response":"absent","rt":2321,"correct":true,"confidence":-1},{"trial_n":4,"min":41,"max":214,"target":"absent","response":"present","rt":2062.8000001907,"correct":false,"confidence":-1},{"trial_n":5,"min":25,"max":230,"target":"present","response":"present","rt":5800.2000000477,"correct":true,"confidence":-1},{"trial_n":6,"min":25,"max":230,"target":"absent","response":"absent","rt":2638.2000000477,"correct":true,"confidence":-1},{"trial_n":7,"min":41,"max":214,"target":"present","response":"present","rt":1706.6999998093,"correct":true,"confidence":-1},{"trial_n":8,"min":41,"max":214,"target":"absent","response":"present","rt":1371.8999998569,"correct":false,"confidence":-1},{"trial_n":9,"min":25,"max":230,"target":"present","response":"present","rt":1526.2000000477,"correct":true,"confidence":-1},{"trial_n":10,"min":25,"max":230,"target":"present","response":"present","rt":1378.2999999523,"correct":true,"confidence":-1},{"trial_n":11,"min":33,"max":222,"target":"present","response":"present","rt":700.40000009537,"correct":true,"confidence":-1},{"trial_n":12,"min":33,"max":222,"target":"absent","response":"absent","rt":1059.5999999046,"correct":true,"confidence":-1},{"trial_n":13,"min":41,"max":214,"target":"present","response":"present","rt":1156.7999999523,"correct":true,"confidence":-1},{"trial_n":14,"min":41,"max":214,"target":"absent","response":"absent","rt":1486.7999999523,"correct":true,"confidence":-1},{"trial_n":15,"min":49,"max":206,"target":"absent","response":"absent","rt":700.59999990463,"correct":true,"confidence":-1},{"trial_n":16,"min":49,"max":206,"target":"present","response":"present","rt":891.30000019073,"correct":true,"confidence":-1},{"trial_n":17,"min":57,"max":198,"target":"present","response":"present","rt":829.90000009537,"correct":true,"confidence":-1},{"trial_n":18,"min":57,"max":198,"target":"present","response":"present","rt":743.10000014305,"correct":true,"confidence":-1},{"trial_n":19,"min":65,"max":190,"target":"absent","response":"absent","rt":1078.5,"correct":true,"confidence":-1},{"trial_n":20,"min":65,"max":190,"target":"absent","response":"present","rt":1493.3999998569,"correct":false,"confidence":-1},{"trial_n":21,"min":61,"max":194,"target":"present","response":"present","rt":1557.6000001431,"correct":true,"confidence":3},{"trial_n":22,"min":61,"max":194,"target":"present","response":"present","rt":1082.2000000477,"correct":true,"confidence":4},{"trial_n":23,"min":65,"max":190,"target":"absent","response":"absent","rt":2181.5,"correct":true,"confidence":2},{"trial_n":24,"min":65,"max":190,"target":"present","response":"present","rt":1196.7000000477,"correct":true,"confidence":2},{"trial_n":25,"min":69,"max":186,"target":"absent","response":"present","rt":1075.4000000954,"correct":false,"confidence":2},{"trial_n":26,"min":65,"max":190,"target":"present","response":"present","rt":836.20000004768,"correct":true,"confidence":5},{"trial_n":27,"min":65,"max":190,"target":"present","response":"present","rt":1032,"correct":true,"confidence":4},{"trial_n":28,"min":69,"max":186,"target":"absent","response":"present","rt":999.40000009537,"correct":false,"confidence":2},{"trial_n":29,"min":65,"max":190,"target":"present","response":"present","rt":1183.5999999046,"correct":true,"confidence":3},{"trial_n":30,"min":65,"max":190,"target":"present","response":"present","rt":1127.2000000477,"correct":true,"confidence":4},{"trial_n":31,"min":67,"max":188,"target":"present","response":"present","rt":947.59999990463,"correct":true,"confidence":3},{"trial_n":32,"min":67,"max":188,"target":"present","response":"present","rt":980.90000009537,"correct":true,"confidence":3},{"trial_n":33,"min":69,"max":186,"target":"absent","response":"absent","rt":1011.7000000477,"correct":true,"confidence":3},{"trial_n":34,"min":69,"max":186,"target":"present","response":"present","rt":768.5,"correct":true,"confidence":4},{"trial_n":35,"min":71,"max":184,"target":"present","response":"present","rt":720.79999995232,"correct":true,"confidence":4},{"trial_n":36,"min":71,"max":184,"target":"absent","response":"absent","rt":2325,"correct":true,"confidence":2},{"trial_n":37,"min":73,"max":182,"target":"absent","response":"absent","rt":2329,"correct":true,"confidence":2},{"trial_n":38,"min":73,"max":182,"target":"present","response":"present","rt":704.89999985695,"correct":true,"confidence":3},{"trial_n":39,"min":75,"max":180,"target":"absent","response":"absent","rt":1119,"correct":true,"confidence":3},{"trial_n":40,"min":75,"max":180,"target":"absent","response":"absent","rt":1100.0999999046,"correct":true,"confidence":4},{"trial_n":41,"min":76,"max":179,"target":"present","response":"present","rt":1208.6000001431,"correct":true,"confidence":3},{"trial_n":42,"min":76,"max":179,"target":"present","response":"present","rt":961.20000004768,"correct":true,"confidence":3},{"trial_n":43,"min":77,"max":178,"target":"absent","response":"absent","rt":963.40000009537,"correct":true,"confidence":3},{"trial_n":44,"min":77,"max":178,"target":"absent","response":"absent","rt":1039.2000000477,"correct":true,"confidence":3},{"trial_n":45,"min":78,"max":177,"target":"absent","response":"absent","rt":1291.7000000477,"correct":true,"confidence":3},{"trial_n":46,"min":78,"max":177,"target":"present","response":"absent","rt":1847.7000000477,"correct":false,"confidence":3},{"trial_n":47,"min":77,"max":178,"target":"present","response":"present","rt":899.90000009537,"correct":true,"confidence":3},{"trial_n":48,"min":77,"max":178,"target":"present","response":"present","rt":975.59999990463,"correct":true,"confidence":3},{"trial_n":49,"min":78,"max":177,"target":"absent","response":"absent","rt":958.79999995232,"correct":true,"confidence":4},{"trial_n":50,"min":78,"max":177,"target":"absent","response":"absent","rt":1671.7999999523,"correct":true,"confidence":3},{"trial_n":51,"min":79,"max":176,"target":"present","response":"present","rt":2424,"correct":true,"confidence":4},{"trial_n":52,"min":79,"max":176,"target":"absent","response":"absent","rt":1069.2999999523,"correct":true,"confidence":3},{"trial_n":53,"min":80,"max":175,"target":"absent","response":"absent","rt":3670.2000000477,"correct":true,"confidence":3},{"trial_n":54,"min":80,"max":175,"target":"present","response":"absent","rt":1063.1000001431,"correct":false,"confidence":3},{"trial_n":55,"min":79,"max":176,"target":"present","response":"absent","rt":5460.3999998569,"correct":false,"confidence":3},{"trial_n":56,"min":78,"max":177,"target":"present","response":"present","rt":1007.5999999046,"correct":true,"confidence":3},{"trial_n":57,"min":78,"max":177,"target":"absent","response":"absent","rt":1011.5999999046,"correct":true,"confidence":4},{"trial_n":58,"min":79,"max":176,"target":"absent","response":"absent","rt":1093.8999998569,"correct":true,"confidence":3},{"trial_n":59,"min":79,"max":176,"target":"absent","response":"absent","rt":2090.1000001431,"correct":true,"confidence":3},{"trial_n":60,"min":80,"max":175,"target":"present","response":"absent","rt":1473.6000001431,"correct":false,"confidence":3},{"trial_n":61,"min":79,"max":176,"target":"absent","response":"absent","rt":1392.7999999523,"correct":true,"confidence":3},{"trial_n":62,"min":79,"max":176,"target":"absent","response":"present","rt":1667.8999998569,"correct":false,"confidence":2},{"trial_n":63,"min":78,"max":177,"target":"present","response":"absent","rt":1703.5,"correct":false,"confidence":3},{"trial_n":64,"min":77,"max":178,"target":"absent","response":"absent","rt":1134.7999999523,"correct":true,"confidence":3},{"trial_n":65,"min":77,"max":178,"target":"absent","response":"present","rt":2693.0999999046,"correct":false,"confidence":3},{"trial_n":66,"min":76,"max":179,"target":"absent","response":"absent","rt":1048.9000000954,"correct":true,"confidence":3},{"trial_n":67,"min":76,"max":179,"target":"present","response":"present","rt":862,"correct":true,"confidence":4},{"trial_n":68,"min":77,"max":178,"target":"absent","response":"absent","rt":1106.7000000477,"correct":true,"confidence":4},{"trial_n":69,"min":77,"max":178,"target":"absent","response":"absent","rt":925.40000009537,"correct":true,"confidence":4},{"trial_n":70,"min":78,"max":177,"target":"present","response":"present","rt":1266.4000000954,"correct":true,"confidence":3},{"trial_n":71,"min":41,"max":214,"target":"present","response":"present","rt":1954,"correct":true,"confidence":-1},{"trial_n":72,"min":41,"max":214,"target":"present","response":"present","rt":2025.7000000477,"correct":true,"confidence":-1},{"trial_n":73,"min":57,"max":198,"target":"absent","response":"absent","rt":947.29999995232,"correct":true,"confidence":-1},{"trial_n":74,"min":57,"max":198,"target":"absent","response":"absent","rt":674.29999995232,"correct":true,"confidence":-1},{"trial_n":75,"min":73,"max":182,"target":"present","response":"present","rt":1009.5999999046,"correct":true,"confidence":-1},{"trial_n":76,"min":73,"max":182,"target":"absent","response":"absent","rt":928.5,"correct":true,"confidence":-1},{"trial_n":77,"min":89,"max":166,"target":"absent","response":"absent","rt":839.90000009537,"correct":true,"confidence":-1},{"trial_n":78,"min":89,"max":166,"target":"absent","response":"absent","rt":1772.7999999523,"correct":true,"confidence":-1},{"trial_n":79,"min":105,"max":150,"target":"present","response":"present","rt":1306.2999999523,"correct":true,"confidence":-1},{"trial_n":80,"min":105,"max":150,"target":"absent","response":"present","rt":934.70000004768,"correct":false,"confidence":-1},{"trial_n":81,"min":97,"max":158,"target":"absent","response":"absent","rt":890.20000004768,"correct":true,"confidence":-1},{"trial_n":82,"min":97,"max":158,"target":"absent","response":"present","rt":843,"correct":false,"confidence":-1},{"trial_n":83,"min":89,"max":166,"target":"present","response":"present","rt":679.40000009537,"correct":true,"confidence":-1},{"trial_n":84,"min":89,"max":166,"target":"present","response":"present","rt":618.90000009537,"correct":true,"confidence":-1},{"trial_n":85,"min":97,"max":158,"target":"absent","response":"absent","rt":1220.2000000477,"correct":true,"confidence":-1},{"trial_n":86,"min":97,"max":158,"target":"present","response":"present","rt":883.79999995232,"correct":true,"confidence":-1},{"trial_n":87,"min":105,"max":150,"target":"present","response":"present","rt":1774,"correct":true,"confidence":-1},{"trial_n":88,"min":105,"max":150,"target":"present","response":"present","rt":1736,"correct":true,"confidence":-1},{"trial_n":89,"min":113,"max":142,"target":"present","response":"present","rt":1162.0999999046,"correct":true,"confidence":-1},{"trial_n":90,"min":113,"max":142,"target":"present","response":"present","rt":1313.1000001431,"correct":true,"confidence":-1},{"trial_n":91,"min":117,"max":138,"target":"present","response":"present","rt":1074.9000000954,"correct":true,"confidence":3},{"trial_n":92,"min":117,"max":138,"target":"present","response":"present","rt":764.5,"correct":true,"confidence":3},{"trial_n":93,"min":121,"max":134,"target":"absent","response":"absent","rt":1322.5,"correct":true,"confidence":3},{"trial_n":94,"min":121,"max":134,"target":"present","response":"present","rt":854.90000009537,"correct":true,"confidence":3},{"trial_n":95,"min":125,"max":130,"target":"present","response":"present","rt":844.80000019073,"correct":true,"confidence":3},{"trial_n":96,"min":125,"max":130,"target":"present","response":"present","rt":974.09999990463,"correct":true,"confidence":3},{"trial_n":97,"min":125,"max":130,"target":"present","response":"present","rt":1070.1000001431,"correct":true,"confidence":3},{"trial_n":98,"min":125,"max":130,"target":"absent","response":"absent","rt":1782.0999999046,"correct":true,"confidence":3},{"trial_n":99,"min":125,"max":130,"target":"absent","response":"present","rt":943.59999990463,"correct":false,"confidence":3},{"trial_n":100,"min":125,"max":130,"target":"absent","response":"present","rt":1109,"correct":false,"confidence":4},{"trial_n":101,"min":125,"max":130,"target":"absent","response":"present","rt":1524.7999999523,"correct":false,"confidence":2},{"trial_n":102,"min":125,"max":130,"target":"absent","response":"present","rt":903.20000004768,"correct":false,"confidence":1},{"trial_n":103,"min":125,"max":130,"target":"present","response":"present","rt":949.79999995232,"correct":true,"confidence":2},{"trial_n":104,"min":125,"max":130,"target":"present","response":"present","rt":1001.7000000477,"correct":true,"confidence":4},{"trial_n":105,"min":125,"max":130,"target":"absent","response":"present","rt":1312.7999999523,"correct":false,"confidence":3},{"trial_n":106,"min":125,"max":130,"target":"present","response":"present","rt":2561.8999998569,"correct":true,"confidence":4},{"trial_n":107,"min":125,"max":130,"target":"present","response":"present","rt":1002.3000001907,"correct":true,"confidence":3},{"trial_n":108,"min":125,"max":130,"target":"present","response":"present","rt":1325.2999999523,"correct":true,"confidence":3},{"trial_n":109,"min":125,"max":130,"target":"present","response":"present","rt":819,"correct":true,"confidence":3},{"trial_n":110,"min":125,"max":130,"target":"present","response":"present","rt":916.70000004768,"correct":true,"confidence":3},{"trial_n":111,"min":125,"max":130,"target":"absent","response":"present","rt":1354.4000000954,"correct":false,"confidence":2},{"trial_n":112,"min":124,"max":131,"target":"absent","response":"present","rt":998.70000004768,"correct":false,"confidence":3},{"trial_n":113,"min":123,"max":132,"target":"present","response":"present","rt":1065.9000000954,"correct":true,"confidence":3},{"trial_n":114,"min":123,"max":132,"target":"absent","response":"present","rt":740.90000009537,"correct":false,"confidence":3},{"trial_n":115,"min":122,"max":133,"target":"absent","response":"present","rt":821.09999990463,"correct":false,"confidence":3},{"trial_n":116,"min":121,"max":134,"target":"absent","response":"absent","rt":1153.9000000954,"correct":true,"confidence":2},{"trial_n":117,"min":121,"max":134,"target":"present","response":"present","rt":1038.7999999523,"correct":true,"confidence":3},{"trial_n":118,"min":122,"max":133,"target":"absent","response":"present","rt":850.09999990463,"correct":false,"confidence":3},{"trial_n":119,"min":121,"max":134,"target":"present","response":"present","rt":821.59999990463,"correct":true,"confidence":3},{"trial_n":120,"min":121,"max":134,"target":"present","response":"present","rt":935.5,"correct":true,"confidence":3},{"trial_n":121,"min":122,"max":133,"target":"absent","response":"present","rt":1342.2000000477,"correct":false,"confidence":2},{"trial_n":122,"min":121,"max":134,"target":"absent","response":"present","rt":883.5,"correct":false,"confidence":3},{"trial_n":123,"min":120,"max":135,"target":"present","response":"present","rt":2147.1000001431,"correct":true,"confidence":3},{"trial_n":124,"min":120,"max":135,"target":"absent","response":"absent","rt":1580.4000000954,"correct":true,"confidence":3},{"trial_n":125,"min":121,"max":134,"target":"absent","response":"present","rt":1061.5999999046,"correct":false,"confidence":3},{"trial_n":126,"min":120,"max":135,"target":"absent","response":"absent","rt":1419.7000000477,"correct":true,"confidence":3},{"trial_n":127,"min":120,"max":135,"target":"present","response":"present","rt":1019,"correct":true,"confidence":4},{"trial_n":128,"min":121,"max":134,"target":"present","response":"present","rt":879.09999990463,"correct":true,"confidence":3},{"trial_n":129,"min":121,"max":134,"target":"present","response":"present","rt":1244.5,"correct":true,"confidence":3},{"trial_n":130,"min":122,"max":133,"target":"absent","response":"absent","rt":1593.2999999523,"correct":true,"confidence":3},{"trial_n":131,"min":122,"max":133,"target":"absent","response":"present","rt":1518.6000001431,"correct":false,"confidence":3},{"trial_n":132,"min":121,"max":134,"target":"absent","response":"absent","rt":2519.7999999523,"correct":true,"confidence":4},{"trial_n":133,"min":121,"max":134,"target":"present","response":"present","rt":1390.2000000477,"correct":true,"confidence":4},{"trial_n":134,"min":122,"max":133,"target":"absent","response":"absent","rt":1893.7999999523,"correct":true,"confidence":4},{"trial_n":135,"min":122,"max":133,"target":"absent","response":"present","rt":1312.0999999046,"correct":false,"confidence":3},{"trial_n":136,"min":121,"max":134,"target":"present","response":"present","rt":793.19999980927,"correct":true,"confidence":3},{"trial_n":137,"min":121,"max":134,"target":"absent","response":"present","rt":1028.7000000477,"correct":false,"confidence":3},{"trial_n":138,"min":120,"max":135,"target":"present","response":"present","rt":844.69999980927,"correct":true,"confidence":4},{"trial_n":139,"min":120,"max":135,"target":"present","response":"present","rt":689.09999990463,"correct":true,"confidence":3},{"trial_n":140,"min":121,"max":134,"target":"absent","response":"present","rt":807,"correct":false,"confidence":2}]