[{"trial_n":1,"span":8,"encoder":"40955934","distractor":"43955934","target":"present","response":"present","rt":"3269.0999999046","correct":true,"confidence":-1},{"trial_n":2,"span":8,"encoder":"33469239","distractor":"03469239","target":"present","response":"absent","rt":"2568.9000000954","correct":false,"confidence":-1},{"trial_n":3,"span":6,"encoder":"032176","distractor":"032196","target":"absent","response":"absent","rt":"3031.5","correct":true,"confidence":-1},{"trial_n":4,"span":6,"encoder":"475544","distractor":"475543","target":"absent","response":"absent","rt":"3165.1999998093","correct":true,"confidence":-1},{"trial_n":5,"span":8,"encoder":"76322673","distractor":"76422673","target":"present","response":"present","rt":"1566.3000001907","correct":true,"confidence":-1},{"trial_n":6,"span":8,"encoder":"90929540","distractor":"99929540","target":"present","response":"absent","rt":"3327.5999999046","correct":false,"confidence":-1},{"trial_n":7,"span":6,"encoder":"597737","distractor":"595737","target":"present","response":"present","rt":"2029.3999998569","correct":true,"confidence":-1},{"trial_n":8,"span":6,"encoder":"070021","distractor":"079021","target":"present","response":"present","rt":"1363.0999999046","correct":true,"confidence":-1},{"trial_n":9,"span":8,"encoder":"06497216","distractor":"05497216","target":"absent","response":"absent","rt":"2354.2000000477","correct":true,"confidence":-1},{"trial_n":10,"span":8,"encoder":"84931070","distractor":"84931079","target":"present","response":"present","rt":"1023.6000001431","correct":true,"confidence":-1},{"trial_n":11,"span":10,"encoder":"9955908255","distractor":"9955108255","target":"absent","response":"present","rt":"1426.5999999046","correct":false,"confidence":-1},{"trial_n":12,"span":9,"encoder":"598411052","distractor":"598412052","target":"absent","response":"present","rt":"2162.7999999523","correct":false,"confidence":-1},{"trial_n":13,"span":8,"encoder":"69843752","distractor":"69843952","target":"present","response":"present","rt":"1951.0999999046","correct":true,"confidence":-1},{"trial_n":14,"span":8,"encoder":"16024299","distractor":"16044299","target":"present","response":"present","rt":"1029.7999999523","correct":true,"confidence":-1},{"trial_n":15,"span":9,"encoder":"706089388","distractor":"206089388","target":"absent","response":"present","rt":"1876.0999999046","correct":false,"confidence":-1},{"trial_n":16,"span":8,"encoder":"27087387","distractor":"27085387","target":"present","response":"present","rt":"863.29999995232","correct":true,"confidence":-1},{"trial_n":17,"span":8,"encoder":"53911713","distractor":"53911113","target":"absent","response":"present","rt":"814.5","correct":false,"confidence":-1},{"trial_n":18,"span":7,"encoder":"4083662","distractor":"4083562","target":"absent","response":"present","rt":"897.29999995232","correct":false,"confidence":-1},{"trial_n":19,"span":6,"encoder":"275564","distractor":"075564","target":"absent","response":"present","rt":"1187.6000001431","correct":false,"confidence":-1},{"trial_n":20,"span":5,"encoder":"60297","distractor":"70297","target":"present","response":"present","rt":"1208","correct":true,"confidence":-1},{"trial_n":21,"span":5,"encoder":"79717","distractor":"79757","target":"absent","response":"absent","rt":"2128.2000000477","correct":true,"confidence":3},{"trial_n":22,"span":6,"encoder":"845893","distractor":"815893","target":"present","response":"present","rt":"1828.4000000954","correct":true,"confidence":4},{"trial_n":23,"span":6,"encoder":"383379","distractor":"323379","target":"absent","response":"absent","rt":"2815.7999999523","correct":true,"confidence":4},{"trial_n":24,"span":7,"encoder":"6125479","distractor":"6125474","target":"present","response":"present","rt":"2471.5999999046","correct":true,"confidence":3},{"trial_n":25,"span":7,"encoder":"5698371","distractor":"5298371","target":"present","response":"present","rt":"2106.5999999046","correct":true,"confidence":4},{"trial_n":26,"span":8,"encoder":"68666761","distractor":"68686761","target":"absent","response":"absent","rt":"3543.2000000477","correct":true,"confidence":3},{"trial_n":27,"span":8,"encoder":"91031665","distractor":"91031615","target":"absent","response":"present","rt":"3623.4000000954","correct":false,"confidence":3},{"trial_n":28,"span":7,"encoder":"5062676","distractor":"5062636","target":"present","response":"present","rt":"2061.7999999523","correct":true,"confidence":3},{"trial_n":29,"span":7,"encoder":"8782666","distractor":"0782666","target":"absent","response":"absent","rt":"1972.9000000954","correct":true,"confidence":4},{"trial_n":30,"span":8,"encoder":"79277722","distractor":"29277722","target":"present","response":"absent","rt":"5488.3000001907","correct":false,"confidence":2},{"trial_n":31,"span":7,"encoder":"7594476","distractor":"7294476","target":"present","response":"present","rt":"1708.6000001431","correct":true,"confidence":3},{"trial_n":32,"span":7,"encoder":"6623500","distractor":"6628500","target":"present","response":"present","rt":"2373.5","correct":true,"confidence":4},{"trial_n":33,"span":8,"encoder":"75858171","distractor":"72858171","target":"present","response":"present","rt":"2302.8000001907","correct":true,"confidence":3},{"trial_n":34,"span":8,"encoder":"03115290","distractor":"03215290","target":"absent","response":"absent","rt":"2582.0999999046","correct":true,"confidence":3},{"trial_n":35,"span":9,"encoder":"852060251","distractor":"852060651","target":"absent","response":"absent","rt":"3725.7999999523","correct":true,"confidence":3},{"trial_n":36,"span":9,"encoder":"218544694","distractor":"718544694","target":"absent","response":"absent","rt":"2218.2000000477","correct":true,"confidence":4},{"trial_n":37,"span":10,"encoder":"5057044376","distractor":"5057644376","target":"present","response":"present","rt":"4340.1000001431","correct":true,"confidence":2},{"trial_n":38,"span":10,"encoder":"7434472006","distractor":"7434472076","target":"absent","response":"present","rt":"4089.2000000477","correct":false,"confidence":3},{"trial_n":39,"span":9,"encoder":"545552888","distractor":"543552888","target":"present","response":"present","rt":"3581.7999999523","correct":true,"confidence":4},{"trial_n":40,"span":9,"encoder":"879837905","distractor":"879037905","target":"present","response":"present","rt":"2594.1999998093","correct":true,"confidence":4},{"trial_n":41,"span":10,"encoder":"7906287118","distractor":"7906287198","target":"present","response":"present","rt":"3524.2000000477","correct":true,"confidence":3},{"trial_n":42,"span":10,"encoder":"7264468902","distractor":"7234468902","target":"absent","response":"present","rt":"4281.5","correct":false,"confidence":3},{"trial_n":43,"span":9,"encoder":"709756411","distractor":"709656411","target":"present","response":"present","rt":"1391.8999998569","correct":true,"confidence":3},{"trial_n":44,"span":9,"encoder":"109971694","distractor":"109571694","target":"absent","response":"present","rt":"1822.8999998569","correct":false,"confidence":3},{"trial_n":45,"span":8,"encoder":"47641248","distractor":"45641248","target":"present","response":"present","rt":"2158.2999999523","correct":true,"confidence":3},{"trial_n":46,"span":8,"encoder":"47929439","distractor":"47929939","target":"absent","response":"present","rt":"2058.0999999046","correct":false,"confidence":3},{"trial_n":47,"span":7,"encoder":"2948797","distractor":"2948697","target":"present","response":"present","rt":"2568.2000000477","correct":true,"confidence":4},{"trial_n":48,"span":7,"encoder":"7202204","distractor":"7204204","target":"absent","response":"present","rt":"2566.7000000477","correct":false,"confidence":3},{"trial_n":49,"span":6,"encoder":"370358","distractor":"379358","target":"present","response":"present","rt":"2550","correct":true,"confidence":3},{"trial_n":50,"span":6,"encoder":"530869","distractor":"730869","target":"absent","response":"absent","rt":"3093.5","correct":true,"confidence":3},{"trial_n":51,"span":7,"encoder":"7726302","distractor":"7726332","target":"absent","response":"absent","rt":"2795","correct":true,"confidence":4},{"trial_n":52,"span":7,"encoder":"0707702","distractor":"6707702","target":"absent","response":"absent","rt":"2239.7999999523","correct":true,"confidence":3},{"trial_n":53,"span":8,"encoder":"45982451","distractor":"85982451","target":"present","response":"present","rt":"2886.4000000954","correct":true,"confidence":3},{"trial_n":54,"span":8,"encoder":"91641537","distractor":"91641837","target":"present","response":"absent","rt":"3024.2000000477","correct":false,"confidence":3},{"trial_n":55,"span":7,"encoder":"9296770","distractor":"9299770","target":"present","response":"present","rt":"4696.2000000477","correct":true,"confidence":3},{"trial_n":56,"span":7,"encoder":"7504541","distractor":"7504741","target":"present","response":"present","rt":"2296.2999999523","correct":true,"confidence":3},{"trial_n":57,"span":8,"encoder":"85781694","distractor":"83781694","target":"present","response":"present","rt":"4837.2999999523","correct":true,"confidence":3},{"trial_n":58,"span":8,"encoder":"62838880","distractor":"67838880","target":"absent","response":"absent","rt":"2806.7999999523","correct":true,"confidence":3},{"trial_n":59,"span":9,"encoder":"535034643","distractor":"531034643","target":"present","response":"present","rt":"4348.5","correct":true,"confidence":3},{"trial_n":60,"span":9,"encoder":"799330897","distractor":"799331897","target":"absent","response":"absent","rt":"3178.4000000954","correct":true,"confidence":3},{"trial_n":61,"span":10,"encoder":"9131076121","distractor":"9131096121","target":"absent","response":"present","rt":"4048.7000000477","correct":false,"confidence":3},{"trial_n":62,"span":9,"encoder":"933761399","distractor":"933761099","target":"absent","response":"present","rt":"3233.6000001431","correct":false,"confidence":3},{"trial_n":63,"span":8,"encoder":"48462562","distractor":"18462562","target":"absent","response":"absent","rt":"1467","correct":true,"confidence":4},{"trial_n":64,"span":8,"encoder":"78650500","distractor":"28650500","target":"absent","response":"absent","rt":"1426.0999999046","correct":true,"confidence":3},{"trial_n":65,"span":9,"encoder":"267053655","distractor":"267053955","target":"absent","response":"present","rt":"2973.9000000954","correct":false,"confidence":4},{"trial_n":66,"span":8,"encoder":"46287586","distractor":"46287584","target":"present","response":"present","rt":"2220.4000000954","correct":true,"confidence":3},{"trial_n":67,"span":8,"encoder":"60712631","distractor":"90712631","target":"present","response":"present","rt":"2786.2000000477","correct":true,"confidence":3},{"trial_n":68,"span":9,"encoder":"173633843","distractor":"173632843","target":"present","response":"absent","rt":"2052.5999999046","correct":false,"confidence":3},{"trial_n":69,"span":8,"encoder":"30194948","distractor":"30194548","target":"absent","response":"present","rt":"1849.5","correct":false,"confidence":4},{"trial_n":70,"span":7,"encoder":"7818820","distractor":"7218820","target":"absent","response":"absent","rt":"1692.2999999523","correct":true,"confidence":4},{"trial_n":71,"span":8,"encoder":"97480304","distractor":"67480304","target":"present","response":"present","rt":"4351.7000000477","correct":true,"confidence":-1},{"trial_n":72,"span":8,"encoder":"70392866","distractor":"70322866","target":"present","response":"absent","rt":"3354.4000000954","correct":false,"confidence":-1},{"trial_n":73,"span":7,"encoder":"7949784","distractor":"7949684","target":"absent","response":"absent","rt":"3898.4000000954","correct":true,"confidence":-1},{"trial_n":74,"span":7,"encoder":"2625066","distractor":"2525066","target":"absent","response":"present","rt":"3650.8999998569","correct":false,"confidence":-1},{"trial_n":75,"span":6,"encoder":"836044","distractor":"436044","target":"present","response":"present","rt":"1894.2000000477","correct":true,"confidence":-1},{"trial_n":76,"span":6,"encoder":"419972","distractor":"419572","target":"absent","response":"absent","rt":"5226.7999999523","correct":true,"confidence":-1},{"trial_n":77,"span":7,"encoder":"9465359","distractor":"9465353","target":"present","response":"present","rt":"2748.5","correct":true,"confidence":-1},{"trial_n":78,"span":7,"encoder":"8682184","distractor":"8182184","target":"absent","response":"absent","rt":"4070.9000000954","correct":true,"confidence":-1},{"trial_n":79,"span":8,"encoder":"89553089","distractor":"89553079","target":"present","response":"absent","rt":"4926.7999999523","correct":false,"confidence":-1},{"trial_n":80,"span":7,"encoder":"3034242","distractor":"3034252","target":"absent","response":"absent","rt":"1951.7000000477","correct":true,"confidence":-1},{"trial_n":81,"span":7,"encoder":"0013422","distractor":"0013429","target":"absent","response":"absent","rt":"25245.700000048","correct":true,"confidence":-1},{"trial_n":82,"span":8,"encoder":"94611150","distractor":"94601150","target":"present","response":"present","rt":"4235.7999999523","correct":true,"confidence":-1},{"trial_n":83,"span":8,"encoder":"56824774","distractor":"56894774","target":"present","response":"absent","rt":"5084.1000001431","correct":false,"confidence":-1},{"trial_n":84,"span":7,"encoder":"9190823","distractor":"7190823","target":"present","response":"present","rt":"1830.3000001907","correct":true,"confidence":-1},{"trial_n":85,"span":7,"encoder":"4747208","distractor":"4947208","target":"absent","response":"absent","rt":"2602.5","correct":true,"confidence":-1},{"trial_n":86,"span":8,"encoder":"23666011","distractor":"23666511","target":"absent","response":"absent","rt":"5584.5","correct":true,"confidence":-1},{"trial_n":87,"span":8,"encoder":"39505631","distractor":"39705631","target":"absent","response":"absent","rt":"6732.9000000954","correct":true,"confidence":-1},{"trial_n":88,"span":9,"encoder":"922132479","distractor":"927132479","target":"present","response":"present","rt":"6000.3999998569","correct":true,"confidence":-1},{"trial_n":89,"span":9,"encoder":"256348337","distractor":"256342337","target":"present","response":"present","rt":"8707","correct":true,"confidence":-1},{"trial_n":90,"span":10,"encoder":"4289028338","distractor":"4289028318","target":"present","response":"absent","rt":"2644.5","correct":false,"confidence":-1},{"trial_n":91,"span":9,"encoder":"681968334","distractor":"681968330","target":"present","response":"present","rt":"4373.5999999046","correct":true,"confidence":3},{"trial_n":92,"span":9,"encoder":"130317141","distractor":"130317131","target":"absent","response":"absent","rt":"4877.2000000477","correct":true,"confidence":2},{"trial_n":93,"span":10,"encoder":"9134357635","distractor":"9134358635","target":"present","response":"absent","rt":"4007.7999999523","correct":false,"confidence":3},{"trial_n":94,"span":9,"encoder":"468033471","distractor":"468733471","target":"present","response":"present","rt":"3955.9000000954","correct":true,"confidence":3},{"trial_n":95,"span":9,"encoder":"180592590","distractor":"100592590","target":"absent","response":"present","rt":"2806.3999998569","correct":false,"confidence":3},{"trial_n":96,"span":8,"encoder":"68832231","distractor":"67832231","target":"present","response":"present","rt":"6122.2000000477","correct":true,"confidence":3},{"trial_n":97,"span":8,"encoder":"43334451","distractor":"43337451","target":"absent","response":"absent","rt":"3151.7999999523","correct":true,"confidence":4},{"trial_n":98,"span":9,"encoder":"264058273","distractor":"264098273","target":"absent","response":"absent","rt":"4533.3999998569","correct":true,"confidence":4},{"trial_n":99,"span":9,"encoder":"450810255","distractor":"440810255","target":"absent","response":"absent","rt":"2057.4000000954","correct":true,"confidence":3},{"trial_n":100,"span":10,"encoder":"6349720577","distractor":"6349820577","target":"absent","response":"absent","rt":"4516.4000000954","correct":true,"confidence":4},{"trial_n":101,"span":10,"encoder":"8338630360","distractor":"8338630350","target":"present","response":"present","rt":"6879.0999999046","correct":true,"confidence":3},{"trial_n":102,"span":11,"encoder":"73069863677","distractor":"73969863677","target":"absent","response":"absent","rt":"2143.7999999523","correct":true,"confidence":2},{"trial_n":103,"span":11,"encoder":"92670486654","distractor":"93670486654","target":"absent","response":"present","rt":"3462.2000000477","correct":false,"confidence":3},{"trial_n":104,"span":10,"encoder":"1351357806","distractor":"1356357806","target":"present","response":"present","rt":"4326.3999998569","correct":true,"confidence":4},{"trial_n":105,"span":10,"encoder":"7767101455","distractor":"7767101454","target":"present","response":"absent","rt":"3760.1000001431","correct":false,"confidence":3},{"trial_n":106,"span":9,"encoder":"704662630","distractor":"704662830","target":"present","response":"present","rt":"5325.5999999046","correct":true,"confidence":3},{"trial_n":107,"span":9,"encoder":"276298547","distractor":"276297547","target":"present","response":"absent","rt":"5461","correct":false,"confidence":4},{"trial_n":108,"span":8,"encoder":"77140092","distractor":"77150092","target":"absent","response":"absent","rt":"4004.2999999523","correct":true,"confidence":3},{"trial_n":109,"span":8,"encoder":"84318221","distractor":"84118221","target":"absent","response":"absent","rt":"2395.7000000477","correct":true,"confidence":4},{"trial_n":110,"span":9,"encoder":"138854955","distractor":"138854755","target":"absent","response":"absent","rt":"2998.7000000477","correct":true,"confidence":4},{"trial_n":111,"span":9,"encoder":"672525804","distractor":"679525804","target":"present","response":"present","rt":"3086.2999999523","correct":true,"confidence":3},{"trial_n":112,"span":10,"encoder":"9865657908","distractor":"9865657904","target":"absent","response":"absent","rt":"6923.3999998569","correct":true,"confidence":4},{"trial_n":113,"span":10,"encoder":"1631637070","distractor":"1631637870","target":"absent","response":"absent","rt":"3264.7999999523","correct":true,"confidence":4},{"trial_n":114,"span":11,"encoder":"30844183513","distractor":"50844183513","target":"present","response":"absent","rt":"4498.9000000954","correct":false,"confidence":4},{"trial_n":115,"span":10,"encoder":"7844353462","distractor":"7804353462","target":"present","response":"present","rt":"4978","correct":true,"confidence":4},{"trial_n":116,"span":10,"encoder":"5810985813","distractor":"5810975813","target":"absent","response":"absent","rt":"3926.8999998569","correct":true,"confidence":3},{"trial_n":117,"span":11,"encoder":"06482740451","distractor":"16482740451","target":"present","response":"present","rt":"2888.7000000477","correct":true,"confidence":4},{"trial_n":118,"span":11,"encoder":"15562630764","distractor":"15562330764","target":"absent","response":"present","rt":"6030.9000000954","correct":false,"confidence":3},{"trial_n":119,"span":10,"encoder":"4719029294","distractor":"4716029294","target":"absent","response":"absent","rt":"2252.9000000954","correct":true,"confidence":3},{"trial_n":120,"span":10,"encoder":"4537405333","distractor":"4547405333","target":"present","response":"present","rt":"4725","correct":true,"confidence":3},{"trial_n":121,"span":11,"encoder":"19213303818","distractor":"19213313818","target":"present","response":"present","rt":"5938.6000001431","correct":true,"confidence":3},{"trial_n":122,"span":11,"encoder":"66515683075","distractor":"66515283075","target":"present","response":"present","rt":"5458.6000001431","correct":true,"confidence":3},{"trial_n":123,"span":12,"encoder":"316890802800","distractor":"316890801800","target":"present","response":"present","rt":"4611.4000000954","correct":true,"confidence":3},{"trial_n":124,"span":12,"encoder":"745575815333","distractor":"745575814333","target":"absent","response":"absent","rt":"3151.3999998569","correct":true,"confidence":3},{"trial_n":125,"span":13,"encoder":"5764919377926","distractor":"5764919677926","target":"absent","response":"present","rt":"2073.7000000477","correct":false,"confidence":3},{"trial_n":126,"span":12,"encoder":"422007682488","distractor":"422007632488","target":"present","response":"absent","rt":"4640","correct":false,"confidence":3},{"trial_n":127,"span":11,"encoder":"93349032721","distractor":"03349032721","target":"present","response":"present","rt":"4083.0999999046","correct":true,"confidence":3},{"trial_n":128,"span":11,"encoder":"33432708964","distractor":"33432788964","target":"absent","response":"absent","rt":"4373.5","correct":true,"confidence":3},{"trial_n":129,"span":12,"encoder":"050978304329","distractor":"050978304129","target":"absent","response":"present","rt":"6893.2999999523","correct":false,"confidence":3},{"trial_n":130,"span":11,"encoder":"93878641084","distractor":"93878645084","target":"present","response":"present","rt":"6294.8000001907","correct":true,"confidence":3},{"trial_n":131,"span":11,"encoder":"41712119945","distractor":"41712119955","target":"absent","response":"present","rt":"6811.7999999523","correct":false,"confidence":2},{"trial_n":132,"span":10,"encoder":"2016569758","distractor":"2016969758","target":"absent","response":"present","rt":"5699.8000001907","correct":false,"confidence":3},{"trial_n":133,"span":9,"encoder":"110806638","distractor":"110808638","target":"present","response":"present","rt":"4557.5","correct":true,"confidence":3},{"trial_n":134,"span":9,"encoder":"880786597","distractor":"880786595","target":"absent","response":"absent","rt":"2648.7000000477","correct":true,"confidence":3},{"trial_n":135,"span":10,"encoder":"0159981901","distractor":"0159988901","target":"present","response":"absent","rt":"4430.7999999523","correct":false,"confidence":3},{"trial_n":136,"span":9,"encoder":"479360347","distractor":"419360347","target":"present","response":"present","rt":"4661.6000001431","correct":true,"confidence":3},{"trial_n":137,"span":9,"encoder":"047579107","distractor":"047579101","target":"absent","response":"absent","rt":"5082.8000001907","correct":true,"confidence":4},{"trial_n":138,"span":10,"encoder":"8629145976","distractor":"8629148976","target":"present","response":"present","rt":"5760.6999998093","correct":true,"confidence":3},{"trial_n":139,"span":10,"encoder":"5590440139","distractor":"5590440159","target":"present","response":"absent","rt":"5028.6999998093","correct":false,"confidence":3},{"trial_n":140,"span":9,"encoder":"399642302","distractor":"399646302","target":"absent","response":"absent","rt":"4749.4000000954","correct":true,"confidence":4}]