[{"trial_n":1,"n_dots":4.25,"target":"right","response":"left","rt":9854,"correct":false,"confidence":-1},{"trial_n":2,"n_dots":4.25,"target":"left","response":"left","rt":2482,"correct":true,"confidence":-1},{"trial_n":3,"n_dots":4.25,"target":"right","response":"right","rt":1567,"correct":true,"confidence":-1},{"trial_n":4,"n_dots":3.85,"target":"right","response":"right","rt":679,"correct":true,"confidence":-1},{"trial_n":5,"n_dots":3.85,"target":"left","response":"left","rt":790,"correct":true,"confidence":-1},{"trial_n":6,"n_dots":3.45,"target":"right","response":"right","rt":556,"correct":true,"confidence":-1},{"trial_n":7,"n_dots":3.45,"target":"right","response":"right","rt":128,"correct":true,"confidence":-1},{"trial_n":8,"n_dots":3.25,"target":"right","response":"right","rt":332,"correct":true,"confidence":-1},{"trial_n":9,"n_dots":3.25,"target":"right","response":"right","rt":140,"correct":true,"confidence":-1},{"trial_n":10,"n_dots":3.05,"target":"left","response":"left","rt":722,"correct":true,"confidence":-1},{"trial_n":11,"n_dots":3.05,"target":"left","response":"left","rt":290,"correct":true,"confidence":-1},{"trial_n":12,"n_dots":2.85,"target":"left","response":"left","rt":1532,"correct":true,"confidence":-1},{"trial_n":13,"n_dots":2.85,"target":"left","response":"left","rt":432,"correct":true,"confidence":-1},{"trial_n":14,"n_dots":2.75,"target":"left","response":"left","rt":297,"correct":true,"confidence":-1},{"trial_n":15,"n_dots":2.75,"target":"right","response":"right","rt":90,"correct":true,"confidence":-1},{"trial_n":16,"n_dots":2.65,"target":"right","response":"right","rt":327,"correct":true,"confidence":-1},{"trial_n":17,"n_dots":2.65,"target":"right","response":"right","rt":363,"correct":true,"confidence":-1},{"trial_n":18,"n_dots":2.55,"target":"right","response":"right","rt":396,"correct":true,"confidence":-1},{"trial_n":19,"n_dots":2.55,"target":"right","response":"left","rt":175,"correct":false,"confidence":-1},{"trial_n":20,"n_dots":2.65,"target":"right","response":"right","rt":166,"correct":true,"confidence":-1},{"trial_n":21,"n_dots":2.65,"target":"right","response":"right","rt":256,"correct":true,"confidence":4},{"trial_n":22,"n_dots":2.55,"target":"left","response":"left","rt":694,"correct":true,"confidence":3},{"trial_n":23,"n_dots":2.55,"target":"left","response":"left","rt":440,"correct":true,"confidence":3},{"trial_n":24,"n_dots":2.45,"target":"right","response":"left","rt":570,"correct":false,"confidence":3},{"trial_n":25,"n_dots":2.55,"target":"right","response":"left","rt":298,"correct":false,"confidence":3},{"trial_n":26,"n_dots":2.65,"target":"left","response":"left","rt":1279,"correct":true,"confidence":3},{"trial_n":27,"n_dots":2.65,"target":"left","response":"right","rt":2566,"correct":false,"confidence":2},{"trial_n":28,"n_dots":2.75,"target":"right","response":"right","rt":1942,"correct":true,"confidence":3},{"trial_n":29,"n_dots":2.75,"target":"left","response":"right","rt":1995,"correct":false,"confidence":3},{"trial_n":30,"n_dots":2.85,"target":"left","response":"left","rt":1021,"correct":true,"confidence":2},{"trial_n":31,"n_dots":2.85,"target":"right","response":"left","rt":1315,"correct":false,"confidence":1},{"trial_n":32,"n_dots":2.95,"target":"right","response":"right","rt":1461,"correct":true,"confidence":2},{"trial_n":33,"n_dots":2.95,"target":"left","response":"left","rt":1129,"correct":true,"confidence":3},{"trial_n":34,"n_dots":2.85,"target":"left","response":"left","rt":1891,"correct":true,"confidence":1},{"trial_n":35,"n_dots":2.85,"target":"right","response":"right","rt":1164,"correct":true,"confidence":3},{"trial_n":36,"n_dots":2.75,"target":"right","response":"left","rt":756,"correct":false,"confidence":1},{"trial_n":37,"n_dots":2.85,"target":"left","response":"left","rt":600,"correct":true,"confidence":3},{"trial_n":38,"n_dots":2.85,"target":"left","response":"left","rt":1012,"correct":true,"confidence":1},{"trial_n":39,"n_dots":2.75,"target":"left","response":"left","rt":936,"correct":true,"confidence":3},{"trial_n":40,"n_dots":2.75,"target":"left","response":"left","rt":2062,"correct":true,"confidence":3},{"trial_n":41,"n_dots":2.65,"target":"right","response":"right","rt":1579,"correct":true,"confidence":1},{"trial_n":42,"n_dots":2.65,"target":"left","response":"left","rt":847,"correct":true,"confidence":3},{"trial_n":43,"n_dots":2.55,"target":"left","response":"left","rt":1062,"correct":true,"confidence":3},{"trial_n":44,"n_dots":2.55,"target":"right","response":"left","rt":2365,"correct":false,"confidence":1},{"trial_n":45,"n_dots":2.65,"target":"left","response":"left","rt":947,"correct":true,"confidence":2},{"trial_n":46,"n_dots":2.65,"target":"right","response":"left","rt":1260,"correct":false,"confidence":2},{"trial_n":47,"n_dots":2.75,"target":"left","response":"left","rt":715,"correct":true,"confidence":3},{"trial_n":48,"n_dots":2.75,"target":"left","response":"left","rt":132,"correct":true,"confidence":3},{"trial_n":49,"n_dots":2.65,"target":"left","response":"left","rt":305,"correct":true,"confidence":3},{"trial_n":50,"n_dots":2.65,"target":"left","response":"right","rt":1740,"correct":false,"confidence":1},{"trial_n":51,"n_dots":2.75,"target":"right","response":"left","rt":895,"correct":false,"confidence":2},{"trial_n":52,"n_dots":2.85,"target":"left","response":"left","rt":751,"correct":true,"confidence":3},{"trial_n":53,"n_dots":2.85,"target":"left","response":"left","rt":723,"correct":true,"confidence":1},{"trial_n":54,"n_dots":2.75,"target":"left","response":"left","rt":632,"correct":true,"confidence":3},{"trial_n":55,"n_dots":2.75,"target":"right","response":"left","rt":1144,"correct":false,"confidence":2},{"trial_n":56,"n_dots":2.85,"target":"right","response":"right","rt":1503,"correct":true,"confidence":2},{"trial_n":57,"n_dots":2.85,"target":"left","response":"left","rt":936,"correct":true,"confidence":3},{"trial_n":58,"n_dots":2.75,"target":"right","response":"left","rt":575,"correct":false,"confidence":3},{"trial_n":59,"n_dots":2.85,"target":"right","response":"left","rt":1996,"correct":false,"confidence":3},{"trial_n":60,"n_dots":2.95,"target":"left","response":"left","rt":1240,"correct":true,"confidence":2},{"trial_n":61,"n_dots":2.95,"target":"right","response":"right","rt":1154,"correct":true,"confidence":3},{"trial_n":62,"n_dots":2.85,"target":"right","response":"right","rt":704,"correct":true,"confidence":2},{"trial_n":63,"n_dots":2.85,"target":"right","response":"right","rt":963,"correct":true,"confidence":2},{"trial_n":64,"n_dots":2.75,"target":"left","response":"left","rt":1022,"correct":true,"confidence":2},{"trial_n":65,"n_dots":2.75,"target":"right","response":"right","rt":1585,"correct":true,"confidence":2},{"trial_n":66,"n_dots":2.65,"target":"right","response":"left","rt":968,"correct":false,"confidence":2},{"trial_n":67,"n_dots":2.75,"target":"right","response":"left","rt":796,"correct":false,"confidence":2},{"trial_n":68,"n_dots":2.85,"target":"right","response":"left","rt":589,"correct":false,"confidence":2},{"trial_n":69,"n_dots":2.95,"target":"left","response":"left","rt":1073,"correct":true,"confidence":1},{"trial_n":70,"n_dots":2.95,"target":"right","response":"right","rt":2093,"correct":true,"confidence":1},{"trial_n":71,"n_dots":2.85,"target":"left","response":"left","rt":1304,"correct":true,"confidence":3},{"trial_n":72,"n_dots":2.85,"target":"left","response":"left","rt":989,"correct":true,"confidence":3},{"trial_n":73,"n_dots":2.75,"target":"left","response":"left","rt":907,"correct":true,"confidence":2},{"trial_n":74,"n_dots":2.75,"target":"right","response":"left","rt":1139,"correct":false,"confidence":2},{"trial_n":75,"n_dots":2.85,"target":"left","response":"left","rt":251,"correct":true,"confidence":4},{"trial_n":76,"n_dots":2.85,"target":"right","response":"right","rt":1334,"correct":true,"confidence":3},{"trial_n":77,"n_dots":2.75,"target":"left","response":"left","rt":1353,"correct":true,"confidence":2},{"trial_n":78,"n_dots":2.75,"target":"right","response":"left","rt":1233,"correct":false,"confidence":1},{"trial_n":79,"n_dots":2.85,"target":"left","response":"left","rt":891,"correct":true,"confidence":2},{"trial_n":80,"n_dots":2.85,"target":"right","response":"left","rt":879,"correct":false,"confidence":2},{"trial_n":81,"n_dots":2.95,"target":"left","response":"left","rt":1077,"correct":true,"confidence":2},{"trial_n":82,"n_dots":2.95,"target":"right","response":"left","rt":755,"correct":false,"confidence":3},{"trial_n":83,"n_dots":3.05,"target":"left","response":"left","rt":824,"correct":true,"confidence":3},{"trial_n":84,"n_dots":3.05,"target":"left","response":"left","rt":239,"correct":true,"confidence":2},{"trial_n":85,"n_dots":2.95,"target":"right","response":"right","rt":1333,"correct":true,"confidence":2},{"trial_n":86,"n_dots":2.95,"target":"left","response":"left","rt":614,"correct":true,"confidence":2},{"trial_n":87,"n_dots":2.85,"target":"right","response":"left","rt":891,"correct":false,"confidence":1},{"trial_n":88,"n_dots":2.95,"target":"right","response":"right","rt":1033,"correct":true,"confidence":4},{"trial_n":89,"n_dots":2.95,"target":"right","response":"left","rt":900,"correct":false,"confidence":2},{"trial_n":90,"n_dots":3.05,"target":"right","response":"right","rt":1104,"correct":true,"confidence":3},{"trial_n":91,"n_dots":3.05,"target":"right","response":"right","rt":1987,"correct":true,"confidence":3},{"trial_n":92,"n_dots":2.95,"target":"right","response":"left","rt":1073,"correct":false,"confidence":1},{"trial_n":93,"n_dots":3.05,"target":"left","response":"left","rt":305,"correct":true,"confidence":3},{"trial_n":94,"n_dots":3.05,"target":"right","response":"left","rt":822,"correct":false,"confidence":1},{"trial_n":95,"n_dots":3.15,"target":"right","response":"right","rt":1370,"correct":true,"confidence":3},{"trial_n":96,"n_dots":3.15,"target":"right","response":"right","rt":611,"correct":true,"confidence":4},{"trial_n":97,"n_dots":3.05,"target":"left","response":"left","rt":685,"correct":true,"confidence":4},{"trial_n":98,"n_dots":3.05,"target":"right","response":"left","rt":1486,"correct":false,"confidence":1},{"trial_n":99,"n_dots":3.15,"target":"left","response":"left","rt":218,"correct":true,"confidence":3},{"trial_n":100,"n_dots":3.15,"target":"right","response":"right","rt":1747,"correct":true,"confidence":3},{"trial_n":101,"n_dots":3.05,"target":"right","response":"right","rt":1377,"correct":true,"confidence":3},{"trial_n":102,"n_dots":3.05,"target":"left","response":"left","rt":533,"correct":true,"confidence":3},{"trial_n":103,"n_dots":2.95,"target":"right","response":"right","rt":633,"correct":true,"confidence":3},{"trial_n":104,"n_dots":2.95,"target":"left","response":"left","rt":799,"correct":true,"confidence":1},{"trial_n":105,"n_dots":2.85,"target":"right","response":"right","rt":686,"correct":true,"confidence":3},{"trial_n":106,"n_dots":2.85,"target":"left","response":"left","rt":685,"correct":true,"confidence":2},{"trial_n":107,"n_dots":2.75,"target":"right","response":"right","rt":1083,"correct":true,"confidence":3},{"trial_n":108,"n_dots":2.75,"target":"left","response":"left","rt":545,"correct":true,"confidence":4},{"trial_n":109,"n_dots":2.65,"target":"left","response":"right","rt":1106,"correct":false,"confidence":4},{"trial_n":110,"n_dots":2.75,"target":"left","response":"left","rt":1402,"correct":true,"confidence":3},{"trial_n":111,"n_dots":2.75,"target":"left","response":"left","rt":405,"correct":true,"confidence":3},{"trial_n":112,"n_dots":2.65,"target":"right","response":"left","rt":522,"correct":false,"confidence":1},{"trial_n":113,"n_dots":2.75,"target":"left","response":"right","rt":756,"correct":false,"confidence":2},{"trial_n":114,"n_dots":2.85,"target":"left","response":"right","rt":1912,"correct":false,"confidence":1},{"trial_n":115,"n_dots":2.95,"target":"left","response":"left","rt":722,"correct":true,"confidence":2},{"trial_n":116,"n_dots":2.95,"target":"right","response":"right","rt":1256,"correct":true,"confidence":3},{"trial_n":117,"n_dots":2.85,"target":"left","response":"left","rt":973,"correct":true,"confidence":2},{"trial_n":118,"n_dots":2.85,"target":"left","response":"left","rt":366,"correct":true,"confidence":3},{"trial_n":119,"n_dots":2.75,"target":"left","response":"left","rt":1010,"correct":true,"confidence":3},{"trial_n":120,"n_dots":2.75,"target":"left","response":"left","rt":1037,"correct":true,"confidence":3}]