[{"trial_n":1,"min":25,"max":230,"target":"present","response":"present","rt":6782.700000003,"correct":true,"confidence":-1},{"trial_n":2,"min":25,"max":230,"target":"present","response":"absent","rt":3073.1000000015,"correct":false,"confidence":-1},{"trial_n":3,"min":9,"max":246,"target":"absent","response":"absent","rt":844.89999999851,"correct":true,"confidence":-1},{"trial_n":4,"min":9,"max":246,"target":"absent","response":"absent","rt":596.69999999553,"correct":true,"confidence":-1},{"trial_n":5,"min":25,"max":230,"target":"present","response":"present","rt":741.39999999851,"correct":true,"confidence":-1},{"trial_n":6,"min":25,"max":230,"target":"present","response":"present","rt":349.19999999553,"correct":true,"confidence":-1},{"trial_n":7,"min":41,"max":214,"target":"absent","response":"absent","rt":1034.8999999985,"correct":true,"confidence":-1},{"trial_n":8,"min":41,"max":214,"target":"present","response":"present","rt":442,"correct":true,"confidence":-1},{"trial_n":9,"min":57,"max":198,"target":"present","response":"present","rt":807.70000000298,"correct":true,"confidence":-1},{"trial_n":10,"min":57,"max":198,"target":"absent","response":"absent","rt":537,"correct":true,"confidence":-1},{"trial_n":11,"min":65,"max":190,"target":"present","response":"present","rt":699.69999999553,"correct":true,"confidence":-1},{"trial_n":12,"min":65,"max":190,"target":"present","response":"present","rt":459,"correct":true,"confidence":-1},{"trial_n":13,"min":73,"max":182,"target":"present","response":"present","rt":454.10000000149,"correct":true,"confidence":-1},{"trial_n":14,"min":73,"max":182,"target":"absent","response":"absent","rt":529.89999999851,"correct":true,"confidence":-1},{"trial_n":15,"min":81,"max":174,"target":"present","response":"present","rt":440,"correct":true,"confidence":-1},{"trial_n":16,"min":81,"max":174,"target":"present","response":"present","rt":381.29999999702,"correct":true,"confidence":-1},{"trial_n":17,"min":89,"max":166,"target":"absent","response":"absent","rt":505.30000000447,"correct":true,"confidence":-1},{"trial_n":18,"min":89,"max":166,"target":"absent","response":"absent","rt":528.69999999553,"correct":true,"confidence":-1},{"trial_n":19,"min":97,"max":158,"target":"present","response":"present","rt":503.70000000298,"correct":true,"confidence":-1},{"trial_n":20,"min":97,"max":158,"target":"present","response":"present","rt":1227.400000006,"correct":true,"confidence":-1},{"trial_n":21,"min":101,"max":154,"target":"absent","response":"present","rt":1096,"correct":false,"confidence":3},{"trial_n":22,"min":97,"max":158,"target":"absent","response":"present","rt":1037.6999999955,"correct":false,"confidence":3},{"trial_n":23,"min":93,"max":162,"target":"present","response":"present","rt":1081.1000000015,"correct":true,"confidence":3},{"trial_n":24,"min":93,"max":162,"target":"absent","response":"present","rt":798.89999999851,"correct":false,"confidence":3},{"trial_n":25,"min":89,"max":166,"target":"present","response":"present","rt":1191.6999999955,"correct":true,"confidence":2},{"trial_n":26,"min":89,"max":166,"target":"present","response":"present","rt":1288.799999997,"correct":true,"confidence":2},{"trial_n":27,"min":93,"max":162,"target":"present","response":"absent","rt":897.60000000149,"correct":false,"confidence":3},{"trial_n":28,"min":89,"max":166,"target":"absent","response":"present","rt":2917.900000006,"correct":false,"confidence":3},{"trial_n":29,"min":85,"max":170,"target":"absent","response":"present","rt":1101.1999999955,"correct":false,"confidence":2},{"trial_n":30,"min":81,"max":174,"target":"absent","response":"absent","rt":864.60000000149,"correct":true,"confidence":2},{"trial_n":31,"min":81,"max":174,"target":"present","response":"absent","rt":1025.1000000015,"correct":false,"confidence":3},{"trial_n":32,"min":79,"max":176,"target":"present","response":"present","rt":728.89999999851,"correct":true,"confidence":4},{"trial_n":33,"min":79,"max":176,"target":"absent","response":"absent","rt":656.89999999851,"correct":true,"confidence":3},{"trial_n":34,"min":81,"max":174,"target":"present","response":"absent","rt":1071.799999997,"correct":false,"confidence":2},{"trial_n":35,"min":79,"max":176,"target":"absent","response":"absent","rt":820.79999999702,"correct":true,"confidence":2},{"trial_n":36,"min":79,"max":176,"target":"absent","response":"absent","rt":768.60000000149,"correct":true,"confidence":3},{"trial_n":37,"min":81,"max":174,"target":"present","response":"present","rt":673.60000000149,"correct":true,"confidence":4},{"trial_n":38,"min":81,"max":174,"target":"absent","response":"present","rt":1260.900000006,"correct":false,"confidence":2},{"trial_n":39,"min":79,"max":176,"target":"present","response":"present","rt":1069.299999997,"correct":true,"confidence":2},{"trial_n":40,"min":79,"max":176,"target":"present","response":"present","rt":1756.1999999955,"correct":true,"confidence":3},{"trial_n":41,"min":80,"max":175,"target":"present","response":"absent","rt":1014,"correct":false,"confidence":3},{"trial_n":42,"min":79,"max":176,"target":"absent","response":"present","rt":1071,"correct":false,"confidence":3},{"trial_n":43,"min":78,"max":177,"target":"present","response":"present","rt":732,"correct":true,"confidence":4},{"trial_n":44,"min":78,"max":177,"target":"present","response":"present","rt":745.89999999851,"correct":true,"confidence":5},{"trial_n":45,"min":79,"max":176,"target":"present","response":"present","rt":1704.8000000045,"correct":true,"confidence":2},{"trial_n":46,"min":79,"max":176,"target":"present","response":"present","rt":639.5,"correct":true,"confidence":5},{"trial_n":47,"min":80,"max":175,"target":"present","response":"present","rt":735.89999999851,"correct":true,"confidence":5},{"trial_n":48,"min":80,"max":175,"target":"absent","response":"present","rt":1276.8999999985,"correct":false,"confidence":3},{"trial_n":49,"min":79,"max":176,"target":"absent","response":"absent","rt":748.79999999702,"correct":true,"confidence":3},{"trial_n":50,"min":79,"max":176,"target":"present","response":"present","rt":591,"correct":true,"confidence":5},{"trial_n":51,"min":80,"max":175,"target":"absent","response":"absent","rt":654,"correct":true,"confidence":4},{"trial_n":52,"min":80,"max":175,"target":"present","response":"present","rt":1143.6000000015,"correct":true,"confidence":4},{"trial_n":53,"min":81,"max":174,"target":"present","response":"absent","rt":2573.099999994,"correct":false,"confidence":2},{"trial_n":54,"min":80,"max":175,"target":"absent","response":"absent","rt":2088.299999997,"correct":true,"confidence":2},{"trial_n":55,"min":80,"max":175,"target":"present","response":"present","rt":1043.1000000015,"correct":true,"confidence":4},{"trial_n":56,"min":81,"max":174,"target":"present","response":"present","rt":1010.6000000015,"correct":true,"confidence":4},{"trial_n":57,"min":81,"max":174,"target":"absent","response":"absent","rt":991.59999999404,"correct":true,"confidence":4},{"trial_n":58,"min":82,"max":173,"target":"absent","response":"present","rt":1732.799999997,"correct":false,"confidence":2},{"trial_n":59,"min":81,"max":174,"target":"absent","response":"absent","rt":855.29999999702,"correct":true,"confidence":3},{"trial_n":60,"min":81,"max":174,"target":"absent","response":"absent","rt":2362.3000000045,"correct":true,"confidence":2},{"trial_n":61,"min":82,"max":173,"target":"absent","response":"absent","rt":745.20000000298,"correct":true,"confidence":4},{"trial_n":62,"min":82,"max":173,"target":"absent","response":"present","rt":1118.1000000015,"correct":false,"confidence":5},{"trial_n":63,"min":81,"max":174,"target":"absent","response":"absent","rt":750.20000000298,"correct":true,"confidence":4},{"trial_n":64,"min":81,"max":174,"target":"present","response":"present","rt":911.79999999702,"correct":true,"confidence":3},{"trial_n":65,"min":82,"max":173,"target":"absent","response":"present","rt":1190.5,"correct":false,"confidence":2},{"trial_n":66,"min":81,"max":174,"target":"absent","response":"absent","rt":818.10000000149,"correct":true,"confidence":4},{"trial_n":67,"min":81,"max":174,"target":"absent","response":"present","rt":847.09999999404,"correct":false,"confidence":4},{"trial_n":68,"min":80,"max":175,"target":"absent","response":"absent","rt":854.70000000298,"correct":true,"confidence":4},{"trial_n":69,"min":80,"max":175,"target":"absent","response":"present","rt":1260.799999997,"correct":false,"confidence":3},{"trial_n":70,"min":79,"max":176,"target":"present","response":"absent","rt":750.5,"correct":false,"confidence":3},{"trial_n":71,"min":41,"max":214,"target":"present","response":"present","rt":2013.6999999955,"correct":true,"confidence":-1},{"trial_n":72,"min":41,"max":214,"target":"present","response":"present","rt":648.60000000149,"correct":true,"confidence":-1},{"trial_n":73,"min":57,"max":198,"target":"absent","response":"absent","rt":707.40000000596,"correct":true,"confidence":-1},{"trial_n":74,"min":57,"max":198,"target":"absent","response":"absent","rt":1065.1000000015,"correct":true,"confidence":-1},{"trial_n":75,"min":73,"max":182,"target":"present","response":"present","rt":693.90000000596,"correct":true,"confidence":-1},{"trial_n":76,"min":73,"max":182,"target":"present","response":"present","rt":665.89999999851,"correct":true,"confidence":-1},{"trial_n":77,"min":89,"max":166,"target":"absent","response":"absent","rt":900.29999999702,"correct":true,"confidence":-1},{"trial_n":78,"min":89,"max":166,"target":"absent","response":"absent","rt":725.90000000596,"correct":true,"confidence":-1},{"trial_n":79,"min":105,"max":150,"target":"present","response":"absent","rt":1692.799999997,"correct":false,"confidence":-1},{"trial_n":80,"min":89,"max":166,"target":"present","response":"present","rt":925.60000000149,"correct":true,"confidence":-1},{"trial_n":81,"min":89,"max":166,"target":"absent","response":"absent","rt":977.39999999851,"correct":true,"confidence":-1},{"trial_n":82,"min":97,"max":158,"target":"absent","response":"present","rt":1029.8999999985,"correct":false,"confidence":-1},{"trial_n":83,"min":89,"max":166,"target":"absent","response":"absent","rt":708.29999999702,"correct":true,"confidence":-1},{"trial_n":84,"min":89,"max":166,"target":"absent","response":"absent","rt":739.70000000298,"correct":true,"confidence":-1},{"trial_n":85,"min":97,"max":158,"target":"present","response":"present","rt":590.39999999851,"correct":true,"confidence":-1},{"trial_n":86,"min":97,"max":158,"target":"absent","response":"present","rt":1112.700000003,"correct":false,"confidence":-1},{"trial_n":87,"min":89,"max":166,"target":"present","response":"absent","rt":1171,"correct":false,"confidence":-1},{"trial_n":88,"min":81,"max":174,"target":"absent","response":"absent","rt":737,"correct":true,"confidence":-1},{"trial_n":89,"min":81,"max":174,"target":"present","response":"present","rt":482.69999999553,"correct":true,"confidence":-1},{"trial_n":90,"min":89,"max":166,"target":"present","response":"present","rt":706.29999999702,"correct":true,"confidence":-1},{"trial_n":91,"min":89,"max":166,"target":"present","response":"present","rt":704.39999999851,"correct":true,"confidence":3},{"trial_n":92,"min":93,"max":162,"target":"present","response":"present","rt":811.60000000149,"correct":true,"confidence":3},{"trial_n":93,"min":93,"max":162,"target":"present","response":"present","rt":885.29999999702,"correct":true,"confidence":4},{"trial_n":94,"min":97,"max":158,"target":"present","response":"present","rt":1911.6000000015,"correct":true,"confidence":1},{"trial_n":95,"min":97,"max":158,"target":"present","response":"present","rt":816.39999999851,"correct":true,"confidence":4},{"trial_n":96,"min":101,"max":154,"target":"absent","response":"present","rt":777.5,"correct":false,"confidence":3},{"trial_n":97,"min":97,"max":158,"target":"present","response":"present","rt":1071.200000003,"correct":true,"confidence":2},{"trial_n":98,"min":97,"max":158,"target":"present","response":"present","rt":807.09999999404,"correct":true,"confidence":2},{"trial_n":99,"min":101,"max":154,"target":"absent","response":"present","rt":761.40000000596,"correct":false,"confidence":3},{"trial_n":100,"min":97,"max":158,"target":"absent","response":"present","rt":688.89999999851,"correct":false,"confidence":2},{"trial_n":101,"min":95,"max":160,"target":"absent","response":"present","rt":749.5,"correct":false,"confidence":2},{"trial_n":102,"min":93,"max":162,"target":"present","response":"present","rt":680.19999999553,"correct":true,"confidence":2},{"trial_n":103,"min":93,"max":162,"target":"present","response":"present","rt":724.70000000298,"correct":true,"confidence":2},{"trial_n":104,"min":95,"max":160,"target":"present","response":"present","rt":671,"correct":true,"confidence":2},{"trial_n":105,"min":95,"max":160,"target":"absent","response":"absent","rt":741.19999999553,"correct":true,"confidence":3},{"trial_n":106,"min":97,"max":158,"target":"absent","response":"present","rt":950,"correct":false,"confidence":2},{"trial_n":107,"min":95,"max":160,"target":"absent","response":"present","rt":568.5,"correct":false,"confidence":3},{"trial_n":108,"min":93,"max":162,"target":"absent","response":"absent","rt":1710.5,"correct":true,"confidence":2},{"trial_n":109,"min":93,"max":162,"target":"absent","response":"present","rt":626.80000000447,"correct":false,"confidence":3},{"trial_n":110,"min":91,"max":164,"target":"present","response":"present","rt":569.59999999404,"correct":true,"confidence":2},{"trial_n":111,"min":91,"max":164,"target":"present","response":"present","rt":835.30000000447,"correct":true,"confidence":2},{"trial_n":112,"min":92,"max":163,"target":"absent","response":"present","rt":1297.6999999955,"correct":false,"confidence":2},{"trial_n":113,"min":91,"max":164,"target":"absent","response":"absent","rt":879.59999999404,"correct":true,"confidence":3},{"trial_n":114,"min":91,"max":164,"target":"absent","response":"absent","rt":857.79999999702,"correct":true,"confidence":3},{"trial_n":115,"min":92,"max":163,"target":"absent","response":"present","rt":845.60000000149,"correct":false,"confidence":2},{"trial_n":116,"min":91,"max":164,"target":"absent","response":"present","rt":712.19999999553,"correct":false,"confidence":3},{"trial_n":117,"min":90,"max":165,"target":"absent","response":"absent","rt":945.29999999702,"correct":true,"confidence":3},{"trial_n":118,"min":90,"max":165,"target":"absent","response":"present","rt":679.89999999851,"correct":false,"confidence":2},{"trial_n":119,"min":89,"max":166,"target":"present","response":"present","rt":913.29999999702,"correct":true,"confidence":1},{"trial_n":120,"min":89,"max":166,"target":"absent","response":"present","rt":1572.5,"correct":false,"confidence":3},{"trial_n":121,"min":88,"max":167,"target":"present","response":"present","rt":694.5,"correct":true,"confidence":2},{"trial_n":122,"min":88,"max":167,"target":"present","response":"present","rt":694.20000000298,"correct":true,"confidence":3},{"trial_n":123,"min":89,"max":166,"target":"present","response":"present","rt":767.60000000149,"correct":true,"confidence":2},{"trial_n":124,"min":89,"max":166,"target":"present","response":"present","rt":1157,"correct":true,"confidence":1},{"trial_n":125,"min":90,"max":165,"target":"absent","response":"absent","rt":962.5,"correct":true,"confidence":3},{"trial_n":126,"min":90,"max":165,"target":"present","response":"present","rt":1550.200000003,"correct":true,"confidence":2},{"trial_n":127,"min":91,"max":164,"target":"present","response":"absent","rt":1596.3999999985,"correct":false,"confidence":1},{"trial_n":128,"min":90,"max":165,"target":"absent","response":"present","rt":1833,"correct":false,"confidence":2},{"trial_n":129,"min":89,"max":166,"target":"present","response":"present","rt":796.70000000298,"correct":true,"confidence":3},{"trial_n":130,"min":89,"max":166,"target":"present","response":"present","rt":1629.6000000015,"correct":true,"confidence":1},{"trial_n":131,"min":90,"max":165,"target":"absent","response":"absent","rt":890.80000000447,"correct":true,"confidence":3},{"trial_n":132,"min":90,"max":165,"target":"absent","response":"present","rt":1291.6000000015,"correct":false,"confidence":2},{"trial_n":133,"min":89,"max":166,"target":"present","response":"present","rt":802.5,"correct":true,"confidence":1},{"trial_n":134,"min":89,"max":166,"target":"present","response":"absent","rt":1166.5,"correct":false,"confidence":2},{"trial_n":135,"min":88,"max":167,"target":"present","response":"present","rt":962.39999999851,"correct":true,"confidence":3},{"trial_n":136,"min":88,"max":167,"target":"present","response":"present","rt":1419.1999999955,"correct":true,"confidence":2},{"trial_n":137,"min":89,"max":166,"target":"present","response":"present","rt":1240.8999999985,"correct":true,"confidence":1},{"trial_n":138,"min":89,"max":166,"target":"absent","response":"absent","rt":1670.299999997,"correct":true,"confidence":2},{"trial_n":139,"min":90,"max":165,"target":"absent","response":"present","rt":1049.6000000015,"correct":false,"confidence":2},{"trial_n":140,"min":89,"max":166,"target":"absent","response":"absent","rt":727.40000000596,"correct":true,"confidence":3}]