[{"trial_n":1,"span":8,"encoder":"95667002","distractor":"95667001","target":"present","response":"present","rt":"3453","correct":true,"confidence":-1},{"trial_n":2,"span":8,"encoder":"37703507","distractor":"37708507","target":"present","response":"present","rt":"1736","correct":true,"confidence":-1},{"trial_n":3,"span":10,"encoder":"9671795627","distractor":"9691795627","target":"absent","response":"present","rt":"1848","correct":false,"confidence":-1},{"trial_n":4,"span":8,"encoder":"35257119","distractor":"35257113","target":"absent","response":"absent","rt":"3833","correct":true,"confidence":-1},{"trial_n":5,"span":8,"encoder":"00726477","distractor":"00726478","target":"present","response":"present","rt":"1863","correct":true,"confidence":-1},{"trial_n":6,"span":10,"encoder":"9640319051","distractor":"9640719051","target":"absent","response":"present","rt":"3104","correct":false,"confidence":-1},{"trial_n":7,"span":8,"encoder":"32271252","distractor":"32271352","target":"absent","response":"present","rt":"1651","correct":false,"confidence":-1},{"trial_n":8,"span":6,"encoder":"601166","distractor":"651166","target":"present","response":"present","rt":"1644","correct":true,"confidence":-1},{"trial_n":9,"span":6,"encoder":"843336","distractor":"143336","target":"absent","response":"absent","rt":"2200","correct":true,"confidence":-1},{"trial_n":10,"span":8,"encoder":"34731733","distractor":"34739733","target":"absent","response":"absent","rt":"1838","correct":true,"confidence":-1},{"trial_n":11,"span":8,"encoder":"70372750","distractor":"70372740","target":"present","response":"present","rt":"2206","correct":true,"confidence":-1},{"trial_n":12,"span":9,"encoder":"121846096","distractor":"121846396","target":"present","response":"present","rt":"2196","correct":true,"confidence":-1},{"trial_n":13,"span":9,"encoder":"807371226","distractor":"807371223","target":"absent","response":"absent","rt":"2351","correct":true,"confidence":-1},{"trial_n":14,"span":10,"encoder":"8295767602","distractor":"8245767602","target":"absent","response":"absent","rt":"2170","correct":true,"confidence":-1},{"trial_n":15,"span":10,"encoder":"0126020586","distractor":"0126020581","target":"absent","response":"absent","rt":"2125","correct":true,"confidence":-1},{"trial_n":16,"span":11,"encoder":"86631650988","distractor":"86631640988","target":"present","response":"present","rt":"2466","correct":true,"confidence":-1},{"trial_n":17,"span":11,"encoder":"64376170997","distractor":"64376170197","target":"present","response":"present","rt":"2585","correct":true,"confidence":-1},{"trial_n":18,"span":12,"encoder":"021251174240","distractor":"024251174240","target":"absent","response":"present","rt":"2780","correct":false,"confidence":-1},{"trial_n":19,"span":11,"encoder":"18556989695","distractor":"18552989695","target":"absent","response":"present","rt":"1788","correct":false,"confidence":-1},{"trial_n":20,"span":10,"encoder":"9476403303","distractor":"9476603303","target":"absent","response":"present","rt":"1492","correct":false,"confidence":-1},{"trial_n":21,"span":9,"encoder":"704643546","distractor":"704643536","target":"present","response":"present","rt":"2291","correct":true,"confidence":3},{"trial_n":22,"span":9,"encoder":"302470405","distractor":"302470305","target":"present","response":"present","rt":"2350","correct":true,"confidence":3},{"trial_n":23,"span":10,"encoder":"2296457231","distractor":"2296457731","target":"present","response":"present","rt":"3632","correct":true,"confidence":3},{"trial_n":24,"span":10,"encoder":"5994937622","distractor":"5954937622","target":"absent","response":"absent","rt":"3880","correct":true,"confidence":3},{"trial_n":25,"span":11,"encoder":"78004943466","distractor":"38004943466","target":"present","response":"present","rt":"2636","correct":true,"confidence":4},{"trial_n":26,"span":11,"encoder":"74680322686","distractor":"71680322686","target":"absent","response":"present","rt":"4446","correct":false,"confidence":3},{"trial_n":27,"span":10,"encoder":"9791046687","distractor":"9791076687","target":"present","response":"present","rt":"2049","correct":true,"confidence":4},{"trial_n":28,"span":10,"encoder":"5105824840","distractor":"5105924840","target":"present","response":"present","rt":"2987","correct":true,"confidence":3},{"trial_n":29,"span":11,"encoder":"98412732182","distractor":"98412733182","target":"present","response":"present","rt":"3809","correct":true,"confidence":2},{"trial_n":30,"span":11,"encoder":"61630898914","distractor":"61130898914","target":"absent","response":"present","rt":"2768","correct":false,"confidence":4},{"trial_n":31,"span":10,"encoder":"6341047951","distractor":"6341747951","target":"present","response":"present","rt":"2339","correct":true,"confidence":3},{"trial_n":32,"span":10,"encoder":"7236568433","distractor":"7236568473","target":"present","response":"present","rt":"4101","correct":true,"confidence":3},{"trial_n":33,"span":11,"encoder":"91539067320","distractor":"91519067320","target":"absent","response":"present","rt":"2072","correct":false,"confidence":4},{"trial_n":34,"span":10,"encoder":"5689459181","distractor":"9689459181","target":"absent","response":"present","rt":"2824","correct":false,"confidence":3},{"trial_n":35,"span":9,"encoder":"244983528","distractor":"244883528","target":"absent","response":"present","rt":"1403","correct":false,"confidence":3},{"trial_n":36,"span":8,"encoder":"13135911","distractor":"13132911","target":"present","response":"present","rt":"1884","correct":true,"confidence":4},{"trial_n":37,"span":8,"encoder":"48164617","distractor":"43164617","target":"absent","response":"present","rt":"1840","correct":false,"confidence":4},{"trial_n":38,"span":7,"encoder":"7440860","distractor":"7440260","target":"absent","response":"absent","rt":"1733","correct":true,"confidence":5},{"trial_n":39,"span":7,"encoder":"3979974","distractor":"3949974","target":"present","response":"present","rt":"1761","correct":true,"confidence":4},{"trial_n":40,"span":8,"encoder":"73584166","distractor":"73584766","target":"present","response":"present","rt":"4334","correct":true,"confidence":4},{"trial_n":41,"span":8,"encoder":"28135932","distractor":"28135832","target":"present","response":"absent","rt":"2118","correct":false,"confidence":4},{"trial_n":42,"span":7,"encoder":"0075226","distractor":"0275226","target":"present","response":"present","rt":"1440","correct":true,"confidence":4},{"trial_n":43,"span":7,"encoder":"1023474","distractor":"1023424","target":"present","response":"present","rt":"2274","correct":true,"confidence":4},{"trial_n":44,"span":8,"encoder":"68504437","distractor":"68544437","target":"absent","response":"absent","rt":"1830","correct":true,"confidence":5},{"trial_n":45,"span":8,"encoder":"96034231","distractor":"96034235","target":"absent","response":"absent","rt":"1705","correct":true,"confidence":4},{"trial_n":46,"span":9,"encoder":"871967830","distractor":"971967830","target":"present","response":"present","rt":"3101","correct":true,"confidence":3},{"trial_n":47,"span":9,"encoder":"582510586","distractor":"582010586","target":"present","response":"absent","rt":"2185","correct":false,"confidence":3},{"trial_n":48,"span":8,"encoder":"19593988","distractor":"19592988","target":"present","response":"present","rt":"2753","correct":true,"confidence":4},{"trial_n":49,"span":8,"encoder":"88701573","distractor":"84701573","target":"absent","response":"present","rt":"1776","correct":false,"confidence":4},{"trial_n":50,"span":7,"encoder":"0204397","distractor":"0209397","target":"absent","response":"absent","rt":"2455","correct":true,"confidence":4},{"trial_n":51,"span":7,"encoder":"2619057","distractor":"2619054","target":"absent","response":"absent","rt":"1641","correct":true,"confidence":4},{"trial_n":52,"span":8,"encoder":"18856746","distractor":"18856946","target":"present","response":"present","rt":"1540","correct":true,"confidence":4},{"trial_n":53,"span":8,"encoder":"64529193","distractor":"64529199","target":"absent","response":"absent","rt":"1438","correct":true,"confidence":4},{"trial_n":54,"span":9,"encoder":"778499257","distractor":"778499957","target":"absent","response":"absent","rt":"1210","correct":true,"confidence":4},{"trial_n":55,"span":9,"encoder":"479281448","distractor":"479281478","target":"absent","response":"absent","rt":"1526","correct":true,"confidence":4},{"trial_n":56,"span":10,"encoder":"5725625876","distractor":"5725625076","target":"present","response":"present","rt":"2254","correct":true,"confidence":3},{"trial_n":57,"span":10,"encoder":"8436132278","distractor":"6436132278","target":"present","response":"present","rt":"1845","correct":true,"confidence":3},{"trial_n":58,"span":11,"encoder":"56484737625","distractor":"56484717625","target":"present","response":"present","rt":"1835","correct":true,"confidence":3},{"trial_n":59,"span":11,"encoder":"39790880560","distractor":"39890880560","target":"absent","response":"absent","rt":"1957","correct":true,"confidence":4},{"trial_n":60,"span":12,"encoder":"543812613054","distractor":"546812613054","target":"absent","response":"absent","rt":"1983","correct":true,"confidence":3},{"trial_n":61,"span":12,"encoder":"363308429234","distractor":"369308429234","target":"absent","response":"present","rt":"1611","correct":false,"confidence":3},{"trial_n":62,"span":11,"encoder":"62075593643","distractor":"69075593643","target":"present","response":"present","rt":"3018","correct":true,"confidence":3},{"trial_n":63,"span":11,"encoder":"48068258612","distractor":"98068258612","target":"present","response":"present","rt":"1900","correct":true,"confidence":3},{"trial_n":64,"span":12,"encoder":"215791985708","distractor":"215790985708","target":"present","response":"present","rt":"3393","correct":true,"confidence":4},{"trial_n":65,"span":12,"encoder":"792071539960","distractor":"992071539960","target":"absent","response":"absent","rt":"3813","correct":true,"confidence":3},{"trial_n":66,"span":13,"encoder":"6489452962729","distractor":"6489462962729","target":"absent","response":"present","rt":"3956","correct":false,"confidence":2},{"trial_n":67,"span":12,"encoder":"857484734998","distractor":"557484734998","target":"present","response":"present","rt":"1457","correct":true,"confidence":3},{"trial_n":68,"span":12,"encoder":"763415971858","distractor":"763465971858","target":"absent","response":"present","rt":"1657","correct":false,"confidence":3},{"trial_n":69,"span":11,"encoder":"67095022783","distractor":"67095422783","target":"present","response":"present","rt":"2157","correct":true,"confidence":2},{"trial_n":70,"span":11,"encoder":"67387641461","distractor":"67387621461","target":"present","response":"present","rt":"1645","correct":true,"confidence":3},{"trial_n":71,"span":8,"encoder":"65940628","distractor":"65940618","target":"present","response":"present","rt":"2091","correct":true,"confidence":-1},{"trial_n":72,"span":8,"encoder":"95975440","distractor":"35975440","target":"present","response":"present","rt":"1454","correct":true,"confidence":-1},{"trial_n":73,"span":9,"encoder":"013559922","distractor":"013559927","target":"absent","response":"absent","rt":"3762","correct":true,"confidence":-1},{"trial_n":74,"span":9,"encoder":"042517943","distractor":"042517963","target":"absent","response":"absent","rt":"3044","correct":true,"confidence":-1},{"trial_n":75,"span":10,"encoder":"8897244971","distractor":"8897244171","target":"present","response":"present","rt":"2196","correct":true,"confidence":-1},{"trial_n":76,"span":10,"encoder":"9949980374","distractor":"9749980374","target":"present","response":"present","rt":"2639","correct":true,"confidence":-1},{"trial_n":77,"span":11,"encoder":"77122258417","distractor":"77122258415","target":"absent","response":"absent","rt":"2960","correct":true,"confidence":-1},{"trial_n":78,"span":11,"encoder":"97111165710","distractor":"97111165717","target":"present","response":"present","rt":"1708","correct":true,"confidence":-1},{"trial_n":79,"span":12,"encoder":"272935710238","distractor":"272935710838","target":"absent","response":"absent","rt":"2303","correct":true,"confidence":-1},{"trial_n":80,"span":12,"encoder":"395133576680","distractor":"395133576650","target":"absent","response":"absent","rt":"3393","correct":true,"confidence":-1},{"trial_n":81,"span":13,"encoder":"7420069508005","distractor":"7420069508075","target":"present","response":"present","rt":"1969","correct":true,"confidence":-1},{"trial_n":82,"span":13,"encoder":"4423806054283","distractor":"4423806056283","target":"absent","response":"absent","rt":"3516","correct":true,"confidence":-1},{"trial_n":83,"span":14,"encoder":"00922449037378","distractor":"00982449037378","target":"present","response":"present","rt":"2035","correct":true,"confidence":-1},{"trial_n":84,"span":14,"encoder":"45646894478784","distractor":"45646894478744","target":"absent","response":"absent","rt":"3766","correct":true,"confidence":-1},{"trial_n":85,"span":15,"encoder":"203167787219895","distractor":"203167787215895","target":"absent","response":"absent","rt":"8291","correct":true,"confidence":-1},{"trial_n":86,"span":15,"encoder":"164027367696062","distractor":"164027367696060","target":"present","response":"present","rt":"2973","correct":true,"confidence":-1},{"trial_n":87,"span":16,"encoder":"7564694238632356","distractor":"7764694238632356","target":"present","response":"present","rt":"8193","correct":true,"confidence":-1},{"trial_n":88,"span":16,"encoder":"0439291998707163","distractor":"0439293998707163","target":"present","response":"absent","rt":"6197","correct":false,"confidence":-1},{"trial_n":89,"span":15,"encoder":"861408936519546","distractor":"861408936515546","target":"absent","response":"absent","rt":"1353","correct":true,"confidence":-1},{"trial_n":90,"span":15,"encoder":"924205250441866","distractor":"924205253441866","target":"absent","response":"present","rt":"1775","correct":false,"confidence":-1},{"trial_n":91,"span":14,"encoder":"34741370751912","distractor":"34743370751912","target":"present","response":"present","rt":"7687","correct":true,"confidence":2},{"trial_n":92,"span":14,"encoder":"58592156498237","distractor":"78592156498237","target":"present","response":"absent","rt":"4341","correct":false,"confidence":3},{"trial_n":93,"span":13,"encoder":"1658067029271","distractor":"7658067029271","target":"absent","response":"present","rt":"549","correct":false,"confidence":2},{"trial_n":94,"span":12,"encoder":"468294828628","distractor":"468294828678","target":"absent","response":"absent","rt":"3024","correct":true,"confidence":4},{"trial_n":95,"span":12,"encoder":"713464015983","distractor":"713464015943","target":"present","response":"present","rt":"2781","correct":true,"confidence":3},{"trial_n":96,"span":13,"encoder":"1476747122000","distractor":"1476547122000","target":"absent","response":"absent","rt":"5867","correct":true,"confidence":2},{"trial_n":97,"span":13,"encoder":"2574885241846","distractor":"5574885241846","target":"absent","response":"absent","rt":"4140","correct":true,"confidence":3},{"trial_n":98,"span":14,"encoder":"96750507826856","distractor":"96750507826756","target":"present","response":"present","rt":"4709","correct":true,"confidence":2},{"trial_n":99,"span":14,"encoder":"93487729475686","distractor":"93487729476686","target":"absent","response":"present","rt":"3840","correct":false,"confidence":3},{"trial_n":100,"span":13,"encoder":"7973779133360","distractor":"7973779133350","target":"absent","response":"absent","rt":"3613","correct":true,"confidence":4},{"trial_n":101,"span":13,"encoder":"4067263532350","distractor":"4067263532390","target":"present","response":"present","rt":"2468","correct":true,"confidence":5},{"trial_n":102,"span":14,"encoder":"86591800225624","distractor":"81591800225624","target":"present","response":"absent","rt":"7436","correct":false,"confidence":3},{"trial_n":103,"span":13,"encoder":"0620462479544","distractor":"0620482479544","target":"present","response":"present","rt":"6449","correct":true,"confidence":3},{"trial_n":104,"span":13,"encoder":"9398351180682","distractor":"9318351180682","target":"present","response":"absent","rt":"8510","correct":false,"confidence":3},{"trial_n":105,"span":12,"encoder":"704700012268","distractor":"704700012265","target":"present","response":"present","rt":"3010","correct":true,"confidence":4},{"trial_n":106,"span":12,"encoder":"489462607602","distractor":"489462697602","target":"absent","response":"absent","rt":"6064","correct":true,"confidence":3},{"trial_n":107,"span":13,"encoder":"2304132790428","distractor":"2304132790429","target":"absent","response":"absent","rt":"3428","correct":true,"confidence":4},{"trial_n":108,"span":13,"encoder":"3183307686034","distractor":"3183307680034","target":"present","response":"absent","rt":"4539","correct":false,"confidence":3},{"trial_n":109,"span":12,"encoder":"447490538787","distractor":"447990538787","target":"present","response":"present","rt":"4815","correct":true,"confidence":2},{"trial_n":110,"span":12,"encoder":"019962858962","distractor":"019962838962","target":"absent","response":"absent","rt":"2708","correct":true,"confidence":4},{"trial_n":111,"span":13,"encoder":"6490589398009","distractor":"6496589398009","target":"present","response":"absent","rt":"10160","correct":false,"confidence":3},{"trial_n":112,"span":12,"encoder":"319956154165","distractor":"319926154165","target":"absent","response":"absent","rt":"5724","correct":true,"confidence":3},{"trial_n":113,"span":12,"encoder":"034630230690","distractor":"134630230690","target":"present","response":"absent","rt":"3840","correct":false,"confidence":3},{"trial_n":114,"span":11,"encoder":"32851536535","distractor":"35851536535","target":"present","response":"absent","rt":"7292","correct":false,"confidence":2},{"trial_n":115,"span":10,"encoder":"3681619699","distractor":"3681619693","target":"absent","response":"absent","rt":"3065","correct":true,"confidence":4},{"trial_n":116,"span":10,"encoder":"7881444774","distractor":"7881440774","target":"absent","response":"absent","rt":"2317","correct":true,"confidence":4},{"trial_n":117,"span":11,"encoder":"99455530091","distractor":"99435530091","target":"present","response":"present","rt":"6331","correct":true,"confidence":3},{"trial_n":118,"span":11,"encoder":"78547457906","distractor":"78547457506","target":"absent","response":"absent","rt":"5542","correct":true,"confidence":2},{"trial_n":119,"span":12,"encoder":"529778427054","distractor":"529771427054","target":"absent","response":"present","rt":"3719","correct":false,"confidence":2},{"trial_n":120,"span":11,"encoder":"99151597004","distractor":"99151597005","target":"absent","response":"absent","rt":"2301","correct":true,"confidence":5},{"trial_n":121,"span":11,"encoder":"08357418078","distractor":"03357418078","target":"present","response":"present","rt":"7190","correct":true,"confidence":2},{"trial_n":122,"span":12,"encoder":"931473458495","distractor":"931473458895","target":"absent","response":"absent","rt":"4339","correct":true,"confidence":3},{"trial_n":123,"span":12,"encoder":"830594293507","distractor":"830597293507","target":"absent","response":"absent","rt":"2958","correct":true,"confidence":1},{"trial_n":124,"span":13,"encoder":"7034975856263","distractor":"7034985856263","target":"present","response":"absent","rt":"5554","correct":false,"confidence":3},{"trial_n":125,"span":12,"encoder":"795641673618","distractor":"795641673668","target":"present","response":"absent","rt":"5134","correct":false,"confidence":1},{"trial_n":126,"span":11,"encoder":"51450188155","distractor":"51450168155","target":"absent","response":"absent","rt":"2948","correct":true,"confidence":3},{"trial_n":127,"span":11,"encoder":"24238744567","distractor":"24238744563","target":"present","response":"present","rt":"5437","correct":true,"confidence":3},{"trial_n":128,"span":12,"encoder":"897308360128","distractor":"897808360128","target":"present","response":"absent","rt":"5995","correct":false,"confidence":3},{"trial_n":129,"span":11,"encoder":"91945220628","distractor":"91645220628","target":"present","response":"present","rt":"7557","correct":true,"confidence":2},{"trial_n":130,"span":11,"encoder":"65868006068","distractor":"65868006268","target":"absent","response":"absent","rt":"2900","correct":true,"confidence":3},{"trial_n":131,"span":12,"encoder":"262389999679","distractor":"262389999678","target":"absent","response":"absent","rt":"3058","correct":true,"confidence":4},{"trial_n":132,"span":12,"encoder":"480576403329","distractor":"480572403329","target":"present","response":"absent","rt":"4891","correct":false,"confidence":3},{"trial_n":133,"span":11,"encoder":"51745799249","distractor":"31745799249","target":"absent","response":"absent","rt":"4188","correct":true,"confidence":4},{"trial_n":134,"span":11,"encoder":"96510912261","distractor":"96510912291","target":"present","response":"present","rt":"2930","correct":true,"confidence":4},{"trial_n":135,"span":12,"encoder":"283106094333","distractor":"283106014333","target":"present","response":"present","rt":"3835","correct":true,"confidence":3},{"trial_n":136,"span":12,"encoder":"120561163833","distractor":"020561163833","target":"absent","response":"absent","rt":"3588","correct":true,"confidence":5},{"trial_n":137,"span":13,"encoder":"4777337732495","distractor":"4777337792495","target":"present","response":"present","rt":"5550","correct":true,"confidence":3},{"trial_n":138,"span":13,"encoder":"3748273927837","distractor":"3748273027837","target":"present","response":"absent","rt":"4884","correct":false,"confidence":3},{"trial_n":139,"span":12,"encoder":"034261944417","distractor":"034261944427","target":"absent","response":"absent","rt":"4337","correct":true,"confidence":1},{"trial_n":140,"span":12,"encoder":"766487915050","distractor":"566487915050","target":"absent","response":"absent","rt":"3638","correct":true,"confidence":3}]