[{"trial_n":1,"n_dots":4.25,"target":"left","response":"right","rt":2020.3000000119,"correct":false,"confidence":-1},{"trial_n":2,"n_dots":4.25,"target":"right","response":"right","rt":1465.6000000238,"correct":true,"confidence":-1},{"trial_n":3,"n_dots":4.25,"target":"left","response":"left","rt":553.69999998808,"correct":true,"confidence":-1},{"trial_n":4,"n_dots":3.85,"target":"right","response":"right","rt":800.39999997616,"correct":true,"confidence":-1},{"trial_n":5,"n_dots":3.85,"target":"left","response":"left","rt":684.59999996424,"correct":true,"confidence":-1},{"trial_n":6,"n_dots":3.45,"target":"left","response":"left","rt":682.30000001192,"correct":true,"confidence":-1},{"trial_n":7,"n_dots":3.45,"target":"left","response":"left","rt":710.80000001192,"correct":true,"confidence":-1},{"trial_n":8,"n_dots":3.25,"target":"left","response":"left","rt":728,"correct":true,"confidence":-1},{"trial_n":9,"n_dots":3.25,"target":"right","response":"left","rt":600.5,"correct":false,"confidence":-1},{"trial_n":10,"n_dots":3.45,"target":"left","response":"left","rt":514.59999996424,"correct":true,"confidence":-1},{"trial_n":11,"n_dots":3.45,"target":"right","response":"left","rt":985,"correct":false,"confidence":-1},{"trial_n":12,"n_dots":3.65,"target":"right","response":"left","rt":942.89999997616,"correct":false,"confidence":-1},{"trial_n":13,"n_dots":3.75,"target":"right","response":"right","rt":628.69999998808,"correct":true,"confidence":-1},{"trial_n":14,"n_dots":3.75,"target":"left","response":"left","rt":562.89999997616,"correct":true,"confidence":-1},{"trial_n":15,"n_dots":3.65,"target":"right","response":"right","rt":641.30000001192,"correct":true,"confidence":-1},{"trial_n":16,"n_dots":3.65,"target":"left","response":"left","rt":441.5,"correct":true,"confidence":-1},{"trial_n":17,"n_dots":3.55,"target":"left","response":"right","rt":561,"correct":false,"confidence":-1},{"trial_n":18,"n_dots":3.65,"target":"left","response":"left","rt":584.39999997616,"correct":true,"confidence":-1},{"trial_n":19,"n_dots":3.65,"target":"left","response":"right","rt":777.80000001192,"correct":false,"confidence":-1},{"trial_n":20,"n_dots":3.75,"target":"right","response":"left","rt":474.69999998808,"correct":false,"confidence":-1},{"trial_n":21,"n_dots":3.85,"target":"right","response":"right","rt":774.19999998808,"correct":true,"confidence":1},{"trial_n":22,"n_dots":3.85,"target":"left","response":"left","rt":556.39999997616,"correct":true,"confidence":4},{"trial_n":23,"n_dots":3.75,"target":"left","response":"left","rt":554.90000003576,"correct":true,"confidence":3},{"trial_n":24,"n_dots":3.75,"target":"left","response":"left","rt":503,"correct":true,"confidence":4},{"trial_n":25,"n_dots":3.65,"target":"right","response":"right","rt":763,"correct":true,"confidence":3},{"trial_n":26,"n_dots":3.65,"target":"right","response":"right","rt":594.89999997616,"correct":true,"confidence":4},{"trial_n":27,"n_dots":3.55,"target":"left","response":"left","rt":554.19999998808,"correct":true,"confidence":5},{"trial_n":28,"n_dots":3.55,"target":"right","response":"right","rt":559.80000001192,"correct":true,"confidence":2},{"trial_n":29,"n_dots":3.45,"target":"left","response":"left","rt":563,"correct":true,"confidence":3},{"trial_n":30,"n_dots":3.45,"target":"right","response":"left","rt":662.59999996424,"correct":false,"confidence":4},{"trial_n":31,"n_dots":3.55,"target":"right","response":"left","rt":899,"correct":false,"confidence":2},{"trial_n":32,"n_dots":3.65,"target":"left","response":"left","rt":610.69999998808,"correct":true,"confidence":2},{"trial_n":33,"n_dots":3.65,"target":"left","response":"left","rt":552.60000002384,"correct":true,"confidence":4},{"trial_n":34,"n_dots":3.55,"target":"left","response":"left","rt":747.10000002384,"correct":true,"confidence":4},{"trial_n":35,"n_dots":3.55,"target":"right","response":"left","rt":670.90000003576,"correct":false,"confidence":1},{"trial_n":36,"n_dots":3.65,"target":"left","response":"left","rt":726.69999998808,"correct":true,"confidence":4},{"trial_n":37,"n_dots":3.65,"target":"left","response":"left","rt":622.19999998808,"correct":true,"confidence":5},{"trial_n":38,"n_dots":3.55,"target":"left","response":"left","rt":678.40000003576,"correct":true,"confidence":2},{"trial_n":39,"n_dots":3.55,"target":"left","response":"left","rt":637,"correct":true,"confidence":2},{"trial_n":40,"n_dots":3.45,"target":"right","response":"right","rt":817.19999998808,"correct":true,"confidence":3},{"trial_n":41,"n_dots":3.45,"target":"left","response":"left","rt":436.60000002384,"correct":true,"confidence":4},{"trial_n":42,"n_dots":3.35,"target":"right","response":"right","rt":638.89999997616,"correct":true,"confidence":1},{"trial_n":43,"n_dots":3.35,"target":"right","response":"left","rt":850.69999998808,"correct":false,"confidence":2},{"trial_n":44,"n_dots":3.45,"target":"left","response":"left","rt":626.10000002384,"correct":true,"confidence":3},{"trial_n":45,"n_dots":3.45,"target":"left","response":"left","rt":656,"correct":true,"confidence":4},{"trial_n":46,"n_dots":3.35,"target":"left","response":"left","rt":512.60000002384,"correct":true,"confidence":4},{"trial_n":47,"n_dots":3.35,"target":"right","response":"right","rt":606.39999997616,"correct":true,"confidence":3},{"trial_n":48,"n_dots":3.25,"target":"right","response":"left","rt":785.30000001192,"correct":false,"confidence":1},{"trial_n":49,"n_dots":3.35,"target":"right","response":"left","rt":690.5,"correct":false,"confidence":1},{"trial_n":50,"n_dots":3.45,"target":"right","response":"right","rt":550.19999998808,"correct":true,"confidence":3},{"trial_n":51,"n_dots":3.45,"target":"right","response":"left","rt":785.19999998808,"correct":false,"confidence":2},{"trial_n":52,"n_dots":3.55,"target":"left","response":"left","rt":541.10000002384,"correct":true,"confidence":3},{"trial_n":53,"n_dots":3.55,"target":"left","response":"left","rt":529.20000004768,"correct":true,"confidence":4},{"trial_n":54,"n_dots":3.45,"target":"left","response":"left","rt":537.30000001192,"correct":true,"confidence":4},{"trial_n":55,"n_dots":3.45,"target":"right","response":"right","rt":648.39999997616,"correct":true,"confidence":1},{"trial_n":56,"n_dots":3.35,"target":"right","response":"left","rt":699.39999997616,"correct":false,"confidence":2},{"trial_n":57,"n_dots":3.45,"target":"right","response":"right","rt":532.09999996424,"correct":true,"confidence":1},{"trial_n":58,"n_dots":3.45,"target":"right","response":"left","rt":562.39999997616,"correct":false,"confidence":2},{"trial_n":59,"n_dots":3.55,"target":"left","response":"left","rt":487.60000002384,"correct":true,"confidence":3},{"trial_n":60,"n_dots":3.55,"target":"right","response":"right","rt":583.20000004768,"correct":true,"confidence":3},{"trial_n":61,"n_dots":3.45,"target":"right","response":"right","rt":538.09999996424,"correct":true,"confidence":3},{"trial_n":62,"n_dots":3.45,"target":"right","response":"right","rt":538.39999997616,"correct":true,"confidence":2},{"trial_n":63,"n_dots":3.35,"target":"left","response":"left","rt":654,"correct":true,"confidence":2},{"trial_n":64,"n_dots":3.35,"target":"right","response":"right","rt":521.90000003576,"correct":true,"confidence":2},{"trial_n":65,"n_dots":3.25,"target":"left","response":"left","rt":1300.5,"correct":true,"confidence":5},{"trial_n":66,"n_dots":3.25,"target":"left","response":"left","rt":1428.3000000119,"correct":true,"confidence":2},{"trial_n":67,"n_dots":3.15,"target":"right","response":"right","rt":873,"correct":true,"confidence":2},{"trial_n":68,"n_dots":3.15,"target":"left","response":"left","rt":1137.1000000238,"correct":true,"confidence":3},{"trial_n":69,"n_dots":3.05,"target":"right","response":"right","rt":880.10000002384,"correct":true,"confidence":2},{"trial_n":70,"n_dots":3.05,"target":"left","response":"left","rt":774.79999995232,"correct":true,"confidence":2},{"trial_n":71,"n_dots":2.95,"target":"left","response":"left","rt":1656.8000000119,"correct":true,"confidence":1},{"trial_n":72,"n_dots":2.95,"target":"left","response":"left","rt":784.19999998808,"correct":true,"confidence":1},{"trial_n":73,"n_dots":2.85,"target":"right","response":"right","rt":707.80000001192,"correct":true,"confidence":1},{"trial_n":74,"n_dots":2.85,"target":"right","response":"right","rt":783.60000002384,"correct":true,"confidence":2},{"trial_n":75,"n_dots":2.75,"target":"right","response":"left","rt":813.40000003576,"correct":false,"confidence":2},{"trial_n":76,"n_dots":2.85,"target":"right","response":"right","rt":1120.9000000358,"correct":true,"confidence":1},{"trial_n":77,"n_dots":2.85,"target":"left","response":"left","rt":900.5,"correct":true,"confidence":1},{"trial_n":78,"n_dots":2.75,"target":"right","response":"right","rt":874.30000001192,"correct":true,"confidence":2},{"trial_n":79,"n_dots":2.75,"target":"left","response":"right","rt":716,"correct":false,"confidence":2},{"trial_n":80,"n_dots":2.85,"target":"right","response":"right","rt":624.59999996424,"correct":true,"confidence":2},{"trial_n":81,"n_dots":2.85,"target":"left","response":"left","rt":770.39999997616,"correct":true,"confidence":3},{"trial_n":82,"n_dots":2.75,"target":"right","response":"left","rt":609.89999997616,"correct":false,"confidence":1},{"trial_n":83,"n_dots":2.85,"target":"left","response":"left","rt":702.39999997616,"correct":true,"confidence":2},{"trial_n":84,"n_dots":2.85,"target":"left","response":"left","rt":602.89999997616,"correct":true,"confidence":3},{"trial_n":85,"n_dots":2.75,"target":"right","response":"right","rt":817.80000001192,"correct":true,"confidence":3},{"trial_n":86,"n_dots":2.75,"target":"left","response":"left","rt":1078.5,"correct":true,"confidence":2},{"trial_n":87,"n_dots":2.65,"target":"right","response":"left","rt":655.19999998808,"correct":false,"confidence":3},{"trial_n":88,"n_dots":2.75,"target":"right","response":"left","rt":647.40000003576,"correct":false,"confidence":2},{"trial_n":89,"n_dots":2.85,"target":"left","response":"left","rt":483.70000004768,"correct":true,"confidence":4},{"trial_n":90,"n_dots":2.85,"target":"right","response":"right","rt":870.5,"correct":true,"confidence":3},{"trial_n":91,"n_dots":2.75,"target":"right","response":"left","rt":730.89999997616,"correct":false,"confidence":3},{"trial_n":92,"n_dots":2.85,"target":"right","response":"right","rt":753.10000002384,"correct":true,"confidence":1},{"trial_n":93,"n_dots":2.85,"target":"left","response":"left","rt":868,"correct":true,"confidence":3},{"trial_n":94,"n_dots":2.75,"target":"right","response":"right","rt":1187.8999999762,"correct":true,"confidence":1},{"trial_n":95,"n_dots":2.75,"target":"left","response":"left","rt":1176,"correct":true,"confidence":3},{"trial_n":96,"n_dots":2.65,"target":"left","response":"left","rt":428.39999997616,"correct":true,"confidence":3},{"trial_n":97,"n_dots":2.65,"target":"left","response":"left","rt":574.19999998808,"correct":true,"confidence":3},{"trial_n":98,"n_dots":2.55,"target":"right","response":"left","rt":1011.1999999881,"correct":false,"confidence":3},{"trial_n":99,"n_dots":2.65,"target":"right","response":"left","rt":777.20000004768,"correct":false,"confidence":1},{"trial_n":100,"n_dots":2.75,"target":"left","response":"right","rt":292.79999995232,"correct":false,"confidence":2},{"trial_n":101,"n_dots":2.85,"target":"left","response":"left","rt":692.19999998808,"correct":true,"confidence":3},{"trial_n":102,"n_dots":2.85,"target":"right","response":"left","rt":675.5,"correct":false,"confidence":1},{"trial_n":103,"n_dots":2.95,"target":"left","response":"right","rt":1068.4000000358,"correct":false,"confidence":2},{"trial_n":104,"n_dots":3.05,"target":"right","response":"right","rt":638.69999998808,"correct":true,"confidence":1},{"trial_n":105,"n_dots":3.05,"target":"left","response":"left","rt":506.80000001192,"correct":true,"confidence":3},{"trial_n":106,"n_dots":2.95,"target":"right","response":"right","rt":524.89999997616,"correct":true,"confidence":1},{"trial_n":107,"n_dots":2.95,"target":"left","response":"left","rt":473,"correct":true,"confidence":2},{"trial_n":108,"n_dots":2.85,"target":"right","response":"left","rt":721.19999998808,"correct":false,"confidence":1},{"trial_n":109,"n_dots":2.95,"target":"left","response":"right","rt":482,"correct":false,"confidence":2},{"trial_n":110,"n_dots":3.05,"target":"left","response":"left","rt":476.40000003576,"correct":true,"confidence":3},{"trial_n":111,"n_dots":3.05,"target":"left","response":"left","rt":774.10000002384,"correct":true,"confidence":3},{"trial_n":112,"n_dots":2.95,"target":"right","response":"right","rt":711.29999995232,"correct":true,"confidence":4},{"trial_n":113,"n_dots":2.95,"target":"right","response":"right","rt":426.60000002384,"correct":true,"confidence":4},{"trial_n":114,"n_dots":2.85,"target":"right","response":"right","rt":608.10000002384,"correct":true,"confidence":3},{"trial_n":115,"n_dots":2.85,"target":"right","response":"right","rt":580,"correct":true,"confidence":3},{"trial_n":116,"n_dots":2.75,"target":"right","response":"right","rt":643.89999997616,"correct":true,"confidence":2},{"trial_n":117,"n_dots":2.75,"target":"left","response":"right","rt":516.90000003576,"correct":false,"confidence":2},{"trial_n":118,"n_dots":2.85,"target":"right","response":"left","rt":655.10000002384,"correct":false,"confidence":2},{"trial_n":119,"n_dots":2.95,"target":"left","response":"left","rt":441.80000001192,"correct":true,"confidence":4},{"trial_n":120,"n_dots":2.95,"target":"right","response":"right","rt":514.60000002384,"correct":true,"confidence":3}]