[{"trial_n":1,"min":25,"max":230,"target":"present","response":"present","rt":9365,"correct":true,"confidence":-1},{"trial_n":2,"min":25,"max":230,"target":"present","response":"present","rt":2157,"correct":true,"confidence":-1},{"trial_n":3,"min":41,"max":214,"target":"absent","response":"absent","rt":846,"correct":true,"confidence":-1},{"trial_n":4,"min":41,"max":214,"target":"absent","response":"absent","rt":257,"correct":true,"confidence":-1},{"trial_n":5,"min":57,"max":198,"target":"present","response":"present","rt":396,"correct":true,"confidence":-1},{"trial_n":6,"min":57,"max":198,"target":"present","response":"present","rt":337,"correct":true,"confidence":-1},{"trial_n":7,"min":73,"max":182,"target":"absent","response":"absent","rt":269,"correct":true,"confidence":-1},{"trial_n":8,"min":73,"max":182,"target":"absent","response":"absent","rt":540,"correct":true,"confidence":-1},{"trial_n":9,"min":89,"max":166,"target":"absent","response":"absent","rt":311,"correct":true,"confidence":-1},{"trial_n":10,"min":89,"max":166,"target":"present","response":"absent","rt":251,"correct":false,"confidence":-1},{"trial_n":11,"min":81,"max":174,"target":"present","response":"absent","rt":296,"correct":false,"confidence":-1},{"trial_n":12,"min":73,"max":182,"target":"absent","response":"absent","rt":143,"correct":true,"confidence":-1},{"trial_n":13,"min":73,"max":182,"target":"absent","response":"absent","rt":232,"correct":true,"confidence":-1},{"trial_n":14,"min":81,"max":174,"target":"present","response":"absent","rt":138,"correct":false,"confidence":-1},{"trial_n":15,"min":73,"max":182,"target":"present","response":"present","rt":947,"correct":true,"confidence":-1},{"trial_n":16,"min":73,"max":182,"target":"absent","response":"absent","rt":836,"correct":true,"confidence":-1},{"trial_n":17,"min":81,"max":174,"target":"present","response":"present","rt":492,"correct":true,"confidence":-1},{"trial_n":18,"min":81,"max":174,"target":"present","response":"absent","rt":980,"correct":false,"confidence":-1},{"trial_n":19,"min":73,"max":182,"target":"present","response":"present","rt":622,"correct":true,"confidence":-1},{"trial_n":20,"min":73,"max":182,"target":"absent","response":"present","rt":423,"correct":false,"confidence":-1},{"trial_n":21,"min":69,"max":186,"target":"absent","response":"present","rt":591,"correct":false,"confidence":2},{"trial_n":22,"min":65,"max":190,"target":"absent","response":"absent","rt":1154,"correct":true,"confidence":3},{"trial_n":23,"min":65,"max":190,"target":"absent","response":"present","rt":2171,"correct":false,"confidence":2},{"trial_n":24,"min":61,"max":194,"target":"absent","response":"present","rt":3068,"correct":false,"confidence":1},{"trial_n":25,"min":57,"max":198,"target":"present","response":"present","rt":1569,"correct":true,"confidence":5},{"trial_n":26,"min":57,"max":198,"target":"absent","response":"absent","rt":1667,"correct":true,"confidence":3},{"trial_n":27,"min":61,"max":194,"target":"absent","response":"absent","rt":869,"correct":true,"confidence":3},{"trial_n":28,"min":61,"max":194,"target":"present","response":"present","rt":1632,"correct":true,"confidence":3},{"trial_n":29,"min":65,"max":190,"target":"absent","response":"absent","rt":899,"correct":true,"confidence":2},{"trial_n":30,"min":65,"max":190,"target":"absent","response":"absent","rt":841,"correct":true,"confidence":4},{"trial_n":31,"min":67,"max":188,"target":"absent","response":"absent","rt":2393,"correct":true,"confidence":1},{"trial_n":32,"min":67,"max":188,"target":"present","response":"present","rt":1973,"correct":true,"confidence":3},{"trial_n":33,"min":69,"max":186,"target":"present","response":"present","rt":1621,"correct":true,"confidence":3},{"trial_n":34,"min":69,"max":186,"target":"present","response":"present","rt":1143,"correct":true,"confidence":3},{"trial_n":35,"min":71,"max":184,"target":"absent","response":"absent","rt":879,"correct":true,"confidence":3},{"trial_n":36,"min":71,"max":184,"target":"present","response":"absent","rt":686,"correct":false,"confidence":3},{"trial_n":37,"min":69,"max":186,"target":"absent","response":"absent","rt":637,"correct":true,"confidence":3},{"trial_n":38,"min":69,"max":186,"target":"present","response":"absent","rt":1288,"correct":false,"confidence":3},{"trial_n":39,"min":67,"max":188,"target":"present","response":"present","rt":2201,"correct":true,"confidence":3},{"trial_n":40,"min":67,"max":188,"target":"present","response":"present","rt":793,"correct":true,"confidence":3},{"trial_n":41,"min":68,"max":187,"target":"present","response":"present","rt":695,"correct":true,"confidence":4},{"trial_n":42,"min":68,"max":187,"target":"absent","response":"absent","rt":1163,"correct":true,"confidence":4},{"trial_n":43,"min":69,"max":186,"target":"present","response":"present","rt":807,"correct":true,"confidence":3},{"trial_n":44,"min":69,"max":186,"target":"present","response":"present","rt":800,"correct":true,"confidence":3},{"trial_n":45,"min":70,"max":185,"target":"present","response":"present","rt":758,"correct":true,"confidence":4},{"trial_n":46,"min":70,"max":185,"target":"absent","response":"absent","rt":853,"correct":true,"confidence":4},{"trial_n":47,"min":71,"max":184,"target":"absent","response":"absent","rt":881,"correct":true,"confidence":3},{"trial_n":48,"min":71,"max":184,"target":"present","response":"present","rt":1453,"correct":true,"confidence":3},{"trial_n":49,"min":72,"max":183,"target":"absent","response":"absent","rt":804,"correct":true,"confidence":3},{"trial_n":50,"min":72,"max":183,"target":"absent","response":"absent","rt":761,"correct":true,"confidence":3},{"trial_n":51,"min":73,"max":182,"target":"absent","response":"absent","rt":723,"correct":true,"confidence":3},{"trial_n":52,"min":73,"max":182,"target":"present","response":"present","rt":3165,"correct":true,"confidence":2},{"trial_n":53,"min":74,"max":181,"target":"present","response":"present","rt":1486,"correct":true,"confidence":4},{"trial_n":54,"min":74,"max":181,"target":"absent","response":"absent","rt":783,"correct":true,"confidence":4},{"trial_n":55,"min":75,"max":180,"target":"present","response":"present","rt":1128,"correct":true,"confidence":4},{"trial_n":56,"min":75,"max":180,"target":"absent","response":"absent","rt":817,"correct":true,"confidence":3},{"trial_n":57,"min":76,"max":179,"target":"present","response":"absent","rt":748,"correct":false,"confidence":3},{"trial_n":58,"min":75,"max":180,"target":"present","response":"present","rt":1340,"correct":true,"confidence":4},{"trial_n":59,"min":75,"max":180,"target":"absent","response":"absent","rt":835,"correct":true,"confidence":3},{"trial_n":60,"min":76,"max":179,"target":"absent","response":"absent","rt":2259,"correct":true,"confidence":1},{"trial_n":61,"min":76,"max":179,"target":"absent","response":"absent","rt":834,"correct":true,"confidence":3},{"trial_n":62,"min":77,"max":178,"target":"present","response":"present","rt":1112,"correct":true,"confidence":3},{"trial_n":63,"min":77,"max":178,"target":"absent","response":"absent","rt":778,"correct":true,"confidence":4},{"trial_n":64,"min":78,"max":177,"target":"present","response":"present","rt":1356,"correct":true,"confidence":1},{"trial_n":65,"min":78,"max":177,"target":"absent","response":"absent","rt":1006,"correct":true,"confidence":3},{"trial_n":66,"min":79,"max":176,"target":"absent","response":"absent","rt":1607,"correct":true,"confidence":3},{"trial_n":67,"min":79,"max":176,"target":"present","response":"present","rt":908,"correct":true,"confidence":3},{"trial_n":68,"min":80,"max":175,"target":"present","response":"absent","rt":1417,"correct":false,"confidence":1},{"trial_n":69,"min":79,"max":176,"target":"present","response":"present","rt":1163,"correct":true,"confidence":2},{"trial_n":70,"min":79,"max":176,"target":"present","response":"absent","rt":1720,"correct":false,"confidence":2},{"trial_n":71,"min":41,"max":214,"target":"present","response":"present","rt":5083,"correct":true,"confidence":-1},{"trial_n":72,"min":41,"max":214,"target":"present","response":"present","rt":764,"correct":true,"confidence":-1},{"trial_n":73,"min":57,"max":198,"target":"absent","response":"absent","rt":689,"correct":true,"confidence":-1},{"trial_n":74,"min":57,"max":198,"target":"absent","response":"absent","rt":526,"correct":true,"confidence":-1},{"trial_n":75,"min":73,"max":182,"target":"present","response":"present","rt":400,"correct":true,"confidence":-1},{"trial_n":76,"min":73,"max":182,"target":"absent","response":"absent","rt":483,"correct":true,"confidence":-1},{"trial_n":77,"min":89,"max":166,"target":"absent","response":"absent","rt":1188,"correct":true,"confidence":-1},{"trial_n":78,"min":89,"max":166,"target":"present","response":"present","rt":630,"correct":true,"confidence":-1},{"trial_n":79,"min":105,"max":150,"target":"absent","response":"absent","rt":561,"correct":true,"confidence":-1},{"trial_n":80,"min":105,"max":150,"target":"present","response":"absent","rt":1319,"correct":false,"confidence":-1},{"trial_n":81,"min":97,"max":158,"target":"absent","response":"absent","rt":656,"correct":true,"confidence":-1},{"trial_n":82,"min":97,"max":158,"target":"present","response":"present","rt":416,"correct":true,"confidence":-1},{"trial_n":83,"min":105,"max":150,"target":"absent","response":"absent","rt":528,"correct":true,"confidence":-1},{"trial_n":84,"min":105,"max":150,"target":"present","response":"present","rt":774,"correct":true,"confidence":-1},{"trial_n":85,"min":113,"max":142,"target":"absent","response":"absent","rt":564,"correct":true,"confidence":-1},{"trial_n":86,"min":113,"max":142,"target":"present","response":"absent","rt":1059,"correct":false,"confidence":-1},{"trial_n":87,"min":105,"max":150,"target":"absent","response":"absent","rt":509,"correct":true,"confidence":-1},{"trial_n":88,"min":105,"max":150,"target":"absent","response":"absent","rt":391,"correct":true,"confidence":-1},{"trial_n":89,"min":113,"max":142,"target":"present","response":"present","rt":464,"correct":true,"confidence":-1},{"trial_n":90,"min":113,"max":142,"target":"absent","response":"absent","rt":482,"correct":true,"confidence":-1},{"trial_n":91,"min":117,"max":138,"target":"present","response":"absent","rt":661,"correct":false,"confidence":1},{"trial_n":92,"min":113,"max":142,"target":"present","response":"present","rt":1366,"correct":true,"confidence":1},{"trial_n":93,"min":113,"max":142,"target":"absent","response":"present","rt":1026,"correct":false,"confidence":1},{"trial_n":94,"min":109,"max":146,"target":"absent","response":"present","rt":916,"correct":false,"confidence":1},{"trial_n":95,"min":105,"max":150,"target":"present","response":"present","rt":1857,"correct":true,"confidence":1},{"trial_n":96,"min":105,"max":150,"target":"present","response":"present","rt":770,"correct":true,"confidence":1},{"trial_n":97,"min":109,"max":146,"target":"absent","response":"absent","rt":575,"correct":true,"confidence":1},{"trial_n":98,"min":109,"max":146,"target":"absent","response":"absent","rt":578,"correct":true,"confidence":1},{"trial_n":99,"min":113,"max":142,"target":"present","response":"present","rt":599,"correct":true,"confidence":2},{"trial_n":100,"min":113,"max":142,"target":"present","response":"present","rt":876,"correct":true,"confidence":1},{"trial_n":101,"min":115,"max":140,"target":"absent","response":"present","rt":750,"correct":false,"confidence":1},{"trial_n":102,"min":113,"max":142,"target":"absent","response":"absent","rt":1134,"correct":true,"confidence":1},{"trial_n":103,"min":113,"max":142,"target":"present","response":"absent","rt":1093,"correct":false,"confidence":3},{"trial_n":104,"min":111,"max":144,"target":"absent","response":"present","rt":859,"correct":false,"confidence":1},{"trial_n":105,"min":109,"max":146,"target":"absent","response":"present","rt":1410,"correct":false,"confidence":2},{"trial_n":106,"min":107,"max":148,"target":"present","response":"absent","rt":1852,"correct":false,"confidence":1},{"trial_n":107,"min":105,"max":150,"target":"absent","response":"present","rt":976,"correct":false,"confidence":1},{"trial_n":108,"min":103,"max":152,"target":"present","response":"present","rt":1229,"correct":true,"confidence":1},{"trial_n":109,"min":103,"max":152,"target":"present","response":"absent","rt":479,"correct":false,"confidence":1},{"trial_n":110,"min":101,"max":154,"target":"absent","response":"absent","rt":640,"correct":true,"confidence":1},{"trial_n":111,"min":101,"max":154,"target":"present","response":"absent","rt":594,"correct":false,"confidence":2},{"trial_n":112,"min":100,"max":155,"target":"absent","response":"present","rt":1771,"correct":false,"confidence":2},{"trial_n":113,"min":99,"max":156,"target":"absent","response":"absent","rt":1322,"correct":true,"confidence":2},{"trial_n":114,"min":99,"max":156,"target":"present","response":"present","rt":846,"correct":true,"confidence":1},{"trial_n":115,"min":100,"max":155,"target":"absent","response":"absent","rt":1131,"correct":true,"confidence":1},{"trial_n":116,"min":100,"max":155,"target":"present","response":"absent","rt":1037,"correct":false,"confidence":1},{"trial_n":117,"min":99,"max":156,"target":"absent","response":"absent","rt":1521,"correct":true,"confidence":1},{"trial_n":118,"min":99,"max":156,"target":"present","response":"absent","rt":775,"correct":false,"confidence":1},{"trial_n":119,"min":98,"max":157,"target":"absent","response":"present","rt":1421,"correct":false,"confidence":3},{"trial_n":120,"min":97,"max":158,"target":"absent","response":"absent","rt":1568,"correct":true,"confidence":3},{"trial_n":121,"min":97,"max":158,"target":"absent","response":"present","rt":1291,"correct":false,"confidence":3},{"trial_n":122,"min":96,"max":159,"target":"absent","response":"absent","rt":1428,"correct":true,"confidence":1},{"trial_n":123,"min":96,"max":159,"target":"present","response":"present","rt":957,"correct":true,"confidence":2},{"trial_n":124,"min":97,"max":158,"target":"present","response":"present","rt":1166,"correct":true,"confidence":1},{"trial_n":125,"min":97,"max":158,"target":"present","response":"present","rt":866,"correct":true,"confidence":3},{"trial_n":126,"min":98,"max":157,"target":"absent","response":"present","rt":1066,"correct":false,"confidence":3},{"trial_n":127,"min":97,"max":158,"target":"present","response":"present","rt":938,"correct":true,"confidence":2},{"trial_n":128,"min":97,"max":158,"target":"present","response":"absent","rt":2920,"correct":false,"confidence":1},{"trial_n":129,"min":96,"max":159,"target":"present","response":"present","rt":688,"correct":true,"confidence":1},{"trial_n":130,"min":96,"max":159,"target":"absent","response":"present","rt":1092,"correct":false,"confidence":1},{"trial_n":131,"min":95,"max":160,"target":"present","response":"present","rt":724,"correct":true,"confidence":2},{"trial_n":132,"min":95,"max":160,"target":"present","response":"present","rt":1023,"correct":true,"confidence":2},{"trial_n":133,"min":96,"max":159,"target":"present","response":"present","rt":1639,"correct":true,"confidence":1},{"trial_n":134,"min":96,"max":159,"target":"present","response":"present","rt":1229,"correct":true,"confidence":3},{"trial_n":135,"min":97,"max":158,"target":"present","response":"present","rt":768,"correct":true,"confidence":1},{"trial_n":136,"min":97,"max":158,"target":"absent","response":"absent","rt":601,"correct":true,"confidence":2},{"trial_n":137,"min":98,"max":157,"target":"absent","response":"absent","rt":810,"correct":true,"confidence":2},{"trial_n":138,"min":98,"max":157,"target":"absent","response":"present","rt":1350,"correct":false,"confidence":2},{"trial_n":139,"min":97,"max":158,"target":"present","response":"present","rt":728,"correct":true,"confidence":1},{"trial_n":140,"min":97,"max":158,"target":"present","response":"absent","rt":822,"correct":false,"confidence":1}]