[{"trial_n":1,"span":8,"encoder":"14523115","distractor":"74523115","target":"present","response":"absent","rt":"7806.6000000015","correct":false,"confidence":-1},{"trial_n":2,"span":6,"encoder":"972662","distractor":"972962","target":"present","response":"present","rt":"1043.5","correct":true,"confidence":-1},{"trial_n":3,"span":6,"encoder":"707582","distractor":"707589","target":"absent","response":"absent","rt":"1261.799999997","correct":true,"confidence":-1},{"trial_n":4,"span":8,"encoder":"29951609","distractor":"99951609","target":"absent","response":"absent","rt":"1409.6000000015","correct":true,"confidence":-1},{"trial_n":5,"span":8,"encoder":"58934136","distractor":"58984136","target":"present","response":"present","rt":"1263.200000003","correct":true,"confidence":-1},{"trial_n":6,"span":10,"encoder":"7583499888","distractor":"7583499868","target":"absent","response":"absent","rt":"1130.6999999955","correct":true,"confidence":-1},{"trial_n":7,"span":10,"encoder":"0152144419","distractor":"0182144419","target":"present","response":"present","rt":"1224.3999999985","correct":true,"confidence":-1},{"trial_n":8,"span":12,"encoder":"904416664183","distractor":"904416664133","target":"absent","response":"present","rt":"1091.6999999955","correct":false,"confidence":-1},{"trial_n":9,"span":10,"encoder":"4728481842","distractor":"4728481847","target":"absent","response":"present","rt":"1041.6000000015","correct":false,"confidence":-1},{"trial_n":10,"span":8,"encoder":"53535071","distractor":"55535071","target":"present","response":"present","rt":"1106","correct":true,"confidence":-1},{"trial_n":11,"span":8,"encoder":"29121621","distractor":"29921621","target":"absent","response":"present","rt":"1786.1000000015","correct":false,"confidence":-1},{"trial_n":12,"span":7,"encoder":"4233063","distractor":"4235063","target":"absent","response":"present","rt":"1263.6999999955","correct":false,"confidence":-1},{"trial_n":13,"span":6,"encoder":"278941","distractor":"478941","target":"present","response":"present","rt":"1034","correct":true,"confidence":-1},{"trial_n":14,"span":6,"encoder":"034787","distractor":"334787","target":"present","response":"present","rt":"1036.799999997","correct":true,"confidence":-1},{"trial_n":15,"span":7,"encoder":"3215246","distractor":"3215244","target":"present","response":"present","rt":"910.80000000447","correct":true,"confidence":-1},{"trial_n":16,"span":7,"encoder":"5490016","distractor":"5480016","target":"absent","response":"absent","rt":"1202.8999999985","correct":true,"confidence":-1},{"trial_n":17,"span":8,"encoder":"04081148","distractor":"04081448","target":"absent","response":"present","rt":"1088.5","correct":false,"confidence":-1},{"trial_n":18,"span":7,"encoder":"7120629","distractor":"0120629","target":"present","response":"present","rt":"953.69999999553","correct":true,"confidence":-1},{"trial_n":19,"span":7,"encoder":"4457777","distractor":"4057777","target":"present","response":"present","rt":"1079.8999999985","correct":true,"confidence":-1},{"trial_n":20,"span":8,"encoder":"46395193","distractor":"56395193","target":"present","response":"present","rt":"971.60000000149","correct":true,"confidence":-1},{"trial_n":21,"span":8,"encoder":"00252853","distractor":"00252353","target":"present","response":"present","rt":"1178.700000003","correct":true,"confidence":3},{"trial_n":22,"span":9,"encoder":"416096683","distractor":"416596683","target":"absent","response":"present","rt":"1273.799999997","correct":false,"confidence":3},{"trial_n":23,"span":8,"encoder":"81693073","distractor":"81693077","target":"absent","response":"present","rt":"1226.3000000045","correct":false,"confidence":3},{"trial_n":24,"span":7,"encoder":"4019613","distractor":"4619613","target":"absent","response":"present","rt":"1577.200000003","correct":false,"confidence":4},{"trial_n":25,"span":6,"encoder":"632774","distractor":"692774","target":"absent","response":"present","rt":"1627.3000000045","correct":false,"confidence":3},{"trial_n":26,"span":5,"encoder":"52131","distractor":"58131","target":"absent","response":"absent","rt":"1560.3999999985","correct":true,"confidence":5},{"trial_n":27,"span":5,"encoder":"17163","distractor":"19163","target":"present","response":"absent","rt":"2748.8000000045","correct":false,"confidence":2},{"trial_n":28,"span":4,"encoder":"9870","distractor":"9876","target":"present","response":"present","rt":"1607.3999999985","correct":true,"confidence":5},{"trial_n":29,"span":4,"encoder":"8561","distractor":"3561","target":"absent","response":"absent","rt":"1436.5","correct":true,"confidence":5},{"trial_n":30,"span":5,"encoder":"74476","distractor":"74676","target":"absent","response":"absent","rt":"1626.3000000045","correct":true,"confidence":5},{"trial_n":31,"span":5,"encoder":"78306","distractor":"08306","target":"absent","response":"absent","rt":"1541.8999999985","correct":true,"confidence":5},{"trial_n":32,"span":6,"encoder":"010965","distractor":"010960","target":"absent","response":"absent","rt":"1478.5","correct":true,"confidence":5},{"trial_n":33,"span":6,"encoder":"438349","distractor":"432349","target":"absent","response":"absent","rt":"3172.1000000015","correct":true,"confidence":3},{"trial_n":34,"span":7,"encoder":"3576524","distractor":"3576824","target":"present","response":"present","rt":"3565.5","correct":true,"confidence":4},{"trial_n":35,"span":7,"encoder":"7358163","distractor":"7358183","target":"absent","response":"present","rt":"6042.1999999955","correct":false,"confidence":2},{"trial_n":36,"span":6,"encoder":"787989","distractor":"787983","target":"absent","response":"absent","rt":"1673","correct":true,"confidence":3},{"trial_n":37,"span":6,"encoder":"877943","distractor":"875943","target":"absent","response":"absent","rt":"2111.3000000045","correct":true,"confidence":4},{"trial_n":38,"span":7,"encoder":"6256641","distractor":"6556641","target":"present","response":"present","rt":"2791.8999999985","correct":true,"confidence":3},{"trial_n":39,"span":7,"encoder":"6016788","distractor":"6006788","target":"absent","response":"present","rt":"2907.299999997","correct":false,"confidence":2},{"trial_n":40,"span":6,"encoder":"869918","distractor":"769918","target":"absent","response":"absent","rt":"1599.299999997","correct":true,"confidence":5},{"trial_n":41,"span":6,"encoder":"079534","distractor":"079434","target":"present","response":"present","rt":"1617.5","correct":true,"confidence":5},{"trial_n":42,"span":7,"encoder":"8528125","distractor":"8228125","target":"absent","response":"absent","rt":"1638.3000000045","correct":true,"confidence":3},{"trial_n":43,"span":7,"encoder":"3946029","distractor":"3946089","target":"absent","response":"absent","rt":"1679.3999999985","correct":true,"confidence":4},{"trial_n":44,"span":8,"encoder":"23483929","distractor":"23483921","target":"present","response":"present","rt":"3359.3999999985","correct":true,"confidence":4},{"trial_n":45,"span":8,"encoder":"23209400","distractor":"23249400","target":"present","response":"present","rt":"2231.5","correct":true,"confidence":3},{"trial_n":46,"span":9,"encoder":"876170088","distractor":"876171088","target":"present","response":"present","rt":"1847","correct":true,"confidence":4},{"trial_n":47,"span":9,"encoder":"688373863","distractor":"687373863","target":"present","response":"absent","rt":"4475.6000000015","correct":false,"confidence":2},{"trial_n":48,"span":8,"encoder":"04633438","distractor":"04633838","target":"present","response":"present","rt":"2144.200000003","correct":true,"confidence":2},{"trial_n":49,"span":8,"encoder":"32087889","distractor":"31087889","target":"absent","response":"absent","rt":"2546.6999999955","correct":true,"confidence":3},{"trial_n":50,"span":9,"encoder":"927223341","distractor":"927223340","target":"present","response":"present","rt":"4212.8999999985","correct":true,"confidence":3},{"trial_n":51,"span":9,"encoder":"478991829","distractor":"478997829","target":"absent","response":"absent","rt":"1941.6000000015","correct":true,"confidence":4},{"trial_n":52,"span":10,"encoder":"6953950379","distractor":"6953950679","target":"absent","response":"present","rt":"2236.8999999985","correct":false,"confidence":3},{"trial_n":53,"span":9,"encoder":"416723520","distractor":"416723510","target":"present","response":"present","rt":"3397.200000003","correct":true,"confidence":2},{"trial_n":54,"span":9,"encoder":"300582626","distractor":"300582326","target":"present","response":"present","rt":"1852.599999994","correct":true,"confidence":2},{"trial_n":55,"span":10,"encoder":"7598663797","distractor":"7598363797","target":"present","response":"present","rt":"2056.700000003","correct":true,"confidence":2},{"trial_n":56,"span":10,"encoder":"1462404731","distractor":"1468404731","target":"absent","response":"present","rt":"1776.5","correct":false,"confidence":2},{"trial_n":57,"span":9,"encoder":"328647148","distractor":"328647158","target":"present","response":"present","rt":"1894.1000000015","correct":true,"confidence":3},{"trial_n":58,"span":9,"encoder":"540261572","distractor":"540281572","target":"present","response":"present","rt":"2428","correct":true,"confidence":3},{"trial_n":59,"span":10,"encoder":"2912961232","distractor":"2912981232","target":"absent","response":"present","rt":"2018.099999994","correct":false,"confidence":3},{"trial_n":60,"span":9,"encoder":"906490581","distractor":"906490588","target":"present","response":"present","rt":"2090.8000000045","correct":true,"confidence":3},{"trial_n":61,"span":9,"encoder":"274257207","distractor":"474257207","target":"present","response":"present","rt":"1615","correct":true,"confidence":2},{"trial_n":62,"span":10,"encoder":"2305236370","distractor":"2305536370","target":"present","response":"present","rt":"4232.3999999985","correct":true,"confidence":2},{"trial_n":63,"span":10,"encoder":"4154945551","distractor":"8154945551","target":"absent","response":"absent","rt":"2125.3999999985","correct":true,"confidence":2},{"trial_n":64,"span":11,"encoder":"62355574218","distractor":"60355574218","target":"present","response":"present","rt":"2042.700000003","correct":true,"confidence":3},{"trial_n":65,"span":11,"encoder":"22555285313","distractor":"22505285313","target":"present","response":"present","rt":"1852.799999997","correct":true,"confidence":3},{"trial_n":66,"span":12,"encoder":"546754350659","distractor":"546454350659","target":"present","response":"absent","rt":"4354.1000000015","correct":false,"confidence":2},{"trial_n":67,"span":11,"encoder":"22975888410","distractor":"22975886410","target":"absent","response":"absent","rt":"2588.1000000015","correct":true,"confidence":3},{"trial_n":68,"span":11,"encoder":"15300003346","distractor":"15300006346","target":"present","response":"present","rt":"2338.700000003","correct":true,"confidence":3},{"trial_n":69,"span":12,"encoder":"900881622526","distractor":"900881627526","target":"present","response":"present","rt":"2286.8999999985","correct":true,"confidence":2},{"trial_n":70,"span":12,"encoder":"131548564618","distractor":"131548564613","target":"absent","response":"absent","rt":"2167.5","correct":true,"confidence":2},{"trial_n":71,"span":8,"encoder":"30351345","distractor":"30381345","target":"present","response":"present","rt":"2439.299999997","correct":true,"confidence":-1},{"trial_n":72,"span":8,"encoder":"97590786","distractor":"97590486","target":"present","response":"present","rt":"1828.299999997","correct":true,"confidence":-1},{"trial_n":73,"span":9,"encoder":"456334418","distractor":"656334418","target":"absent","response":"absent","rt":"16332.5","correct":true,"confidence":-1},{"trial_n":74,"span":9,"encoder":"091629879","distractor":"091629873","target":"absent","response":"absent","rt":"2784.8999999985","correct":true,"confidence":-1},{"trial_n":75,"span":10,"encoder":"8973008156","distractor":"8973068156","target":"present","response":"present","rt":"2505.1000000015","correct":true,"confidence":-1},{"trial_n":76,"span":10,"encoder":"9894447077","distractor":"9994447077","target":"absent","response":"absent","rt":"3345.3999999985","correct":true,"confidence":-1},{"trial_n":77,"span":11,"encoder":"66175355780","distractor":"76175355780","target":"absent","response":"absent","rt":"2268.8999999985","correct":true,"confidence":-1},{"trial_n":78,"span":11,"encoder":"26483566358","distractor":"26483516358","target":"present","response":"present","rt":"1734.8999999985","correct":true,"confidence":-1},{"trial_n":79,"span":12,"encoder":"973328423371","distractor":"977328423371","target":"absent","response":"present","rt":"2634.5","correct":false,"confidence":-1},{"trial_n":80,"span":11,"encoder":"14927695935","distractor":"14927695995","target":"absent","response":"present","rt":"1340.099999994","correct":false,"confidence":-1},{"trial_n":81,"span":10,"encoder":"3051642401","distractor":"3055642401","target":"present","response":"present","rt":"3140.099999994","correct":true,"confidence":-1},{"trial_n":82,"span":10,"encoder":"0265899490","distractor":"0295899490","target":"absent","response":"present","rt":"1814.200000003","correct":false,"confidence":-1},{"trial_n":83,"span":9,"encoder":"318939215","distractor":"318939415","target":"absent","response":"present","rt":"1377.1000000015","correct":false,"confidence":-1},{"trial_n":84,"span":8,"encoder":"59397996","distractor":"59797996","target":"absent","response":"present","rt":"1503.099999994","correct":false,"confidence":-1},{"trial_n":85,"span":7,"encoder":"8467975","distractor":"8467075","target":"absent","response":"absent","rt":"1933.299999997","correct":true,"confidence":-1},{"trial_n":86,"span":7,"encoder":"3117369","distractor":"3117364","target":"absent","response":"absent","rt":"2007.8999999985","correct":true,"confidence":-1},{"trial_n":87,"span":8,"encoder":"29007667","distractor":"27007667","target":"present","response":"present","rt":"2311.700000003","correct":true,"confidence":-1},{"trial_n":88,"span":8,"encoder":"25888158","distractor":"25288158","target":"present","response":"present","rt":"1651.6000000015","correct":true,"confidence":-1},{"trial_n":89,"span":9,"encoder":"912611505","distractor":"912616505","target":"absent","response":"absent","rt":"1788.5","correct":true,"confidence":-1},{"trial_n":90,"span":9,"encoder":"787415110","distractor":"887415110","target":"present","response":"present","rt":"2177.299999997","correct":true,"confidence":-1},{"trial_n":91,"span":10,"encoder":"2519541321","distractor":"2519549321","target":"absent","response":"present","rt":"9687.6000000015","correct":false,"confidence":2},{"trial_n":92,"span":9,"encoder":"920102268","distractor":"920102228","target":"absent","response":"absent","rt":"3144.6000000015","correct":true,"confidence":3},{"trial_n":93,"span":9,"encoder":"189146616","distractor":"189142616","target":"absent","response":"absent","rt":"2092.700000003","correct":true,"confidence":5},{"trial_n":94,"span":10,"encoder":"0057441969","distractor":"0057441989","target":"absent","response":"present","rt":"3412.1000000015","correct":false,"confidence":3},{"trial_n":95,"span":9,"encoder":"651561310","distractor":"611561310","target":"absent","response":"absent","rt":"5010.1000000015","correct":true,"confidence":3},{"trial_n":96,"span":9,"encoder":"419213327","distractor":"419213328","target":"absent","response":"absent","rt":"2222.799999997","correct":true,"confidence":5},{"trial_n":97,"span":10,"encoder":"1911458417","distractor":"1911458411","target":"present","response":"present","rt":"2669.1000000015","correct":true,"confidence":2},{"trial_n":98,"span":10,"encoder":"9235152460","distractor":"9235132460","target":"present","response":"absent","rt":"5794.700000003","correct":false,"confidence":1},{"trial_n":99,"span":9,"encoder":"334247050","distractor":"334247000","target":"present","response":"present","rt":"2137.1000000015","correct":true,"confidence":4},{"trial_n":100,"span":9,"encoder":"553116418","distractor":"513116418","target":"absent","response":"absent","rt":"2767.5","correct":true,"confidence":3},{"trial_n":101,"span":10,"encoder":"8951576209","distractor":"1951576209","target":"present","response":"present","rt":"2505.900000006","correct":true,"confidence":4},{"trial_n":102,"span":10,"encoder":"8108282617","distractor":"8108282017","target":"present","response":"present","rt":"4766.8000000045","correct":true,"confidence":2},{"trial_n":103,"span":11,"encoder":"13405323939","distractor":"13705323939","target":"present","response":"present","rt":"2633.5","correct":true,"confidence":3},{"trial_n":104,"span":11,"encoder":"14659198180","distractor":"14651198180","target":"present","response":"present","rt":"5419.1999999955","correct":true,"confidence":1},{"trial_n":105,"span":12,"encoder":"868882703749","distractor":"868882723749","target":"present","response":"absent","rt":"4708.3000000045","correct":false,"confidence":2},{"trial_n":106,"span":11,"encoder":"29615370282","distractor":"29615320282","target":"present","response":"present","rt":"7282","correct":true,"confidence":2},{"trial_n":107,"span":11,"encoder":"58439841904","distractor":"59439841904","target":"absent","response":"absent","rt":"5098","correct":true,"confidence":2},{"trial_n":108,"span":12,"encoder":"859768848448","distractor":"859768898448","target":"present","response":"present","rt":"3209.099999994","correct":true,"confidence":2},{"trial_n":109,"span":12,"encoder":"724391080240","distractor":"774391080240","target":"present","response":"present","rt":"3496.1000000015","correct":true,"confidence":3},{"trial_n":110,"span":13,"encoder":"8501237541569","distractor":"8501231541569","target":"absent","response":"absent","rt":"4951.6000000015","correct":true,"confidence":2},{"trial_n":111,"span":13,"encoder":"5845020355616","distractor":"1845020355616","target":"present","response":"present","rt":"2833.5","correct":true,"confidence":4},{"trial_n":112,"span":14,"encoder":"90689069556324","distractor":"90689069556329","target":"absent","response":"absent","rt":"2505","correct":true,"confidence":5},{"trial_n":113,"span":14,"encoder":"97001743464852","distractor":"97001743424852","target":"absent","response":"absent","rt":"3420.3999999985","correct":true,"confidence":2},{"trial_n":114,"span":15,"encoder":"154521526754842","distractor":"154521536754842","target":"present","response":"present","rt":"5164.299999997","correct":true,"confidence":2},{"trial_n":115,"span":15,"encoder":"080228962790267","distractor":"080228962770267","target":"present","response":"present","rt":"4353","correct":true,"confidence":2},{"trial_n":116,"span":16,"encoder":"8200124746231773","distractor":"8200124746261773","target":"present","response":"present","rt":"4488.6999999955","correct":true,"confidence":1},{"trial_n":117,"span":16,"encoder":"5479682541279345","distractor":"5479612541279345","target":"present","response":"absent","rt":"4844.6000000015","correct":false,"confidence":1},{"trial_n":118,"span":15,"encoder":"494740336725172","distractor":"490740336725172","target":"present","response":"present","rt":"6315.8999999985","correct":true,"confidence":1},{"trial_n":119,"span":15,"encoder":"373070903254995","distractor":"373070901254995","target":"present","response":"present","rt":"3625.3000000045","correct":true,"confidence":2},{"trial_n":120,"span":16,"encoder":"2949644460000763","distractor":"2999644460000763","target":"absent","response":"absent","rt":"4971.900000006","correct":true,"confidence":4},{"trial_n":121,"span":16,"encoder":"2908629726591003","distractor":"2908629726691003","target":"present","response":"absent","rt":"5271.8999999985","correct":false,"confidence":3},{"trial_n":122,"span":15,"encoder":"513376430887898","distractor":"513316430887898","target":"absent","response":"absent","rt":"8022.5","correct":true,"confidence":1},{"trial_n":123,"span":15,"encoder":"990961426627136","distractor":"990961426727136","target":"absent","response":"absent","rt":"2608.6000000015","correct":true,"confidence":4},{"trial_n":124,"span":16,"encoder":"6301560841852534","distractor":"6306560841852534","target":"absent","response":"absent","rt":"7111.5","correct":true,"confidence":1},{"trial_n":125,"span":16,"encoder":"1177995038429935","distractor":"1177995038429335","target":"absent","response":"absent","rt":"3914.5","correct":true,"confidence":3},{"trial_n":126,"span":17,"encoder":"57079841017605722","distractor":"57079841013605722","target":"present","response":"present","rt":"6041.8000000045","correct":true,"confidence":3},{"trial_n":127,"span":17,"encoder":"19831218757315527","distractor":"19831018757315527","target":"absent","response":"absent","rt":"4916.8000000045","correct":true,"confidence":2},{"trial_n":128,"span":18,"encoder":"671695854577979393","distractor":"671695854577979395","target":"absent","response":"absent","rt":"1930.299999997","correct":true,"confidence":5},{"trial_n":129,"span":18,"encoder":"495651173088590956","distractor":"495651179088590956","target":"present","response":"absent","rt":"10733.199999996","correct":false,"confidence":1},{"trial_n":130,"span":17,"encoder":"40386811735832165","distractor":"40386821735832165","target":"absent","response":"present","rt":"7716.8999999985","correct":false,"confidence":1},{"trial_n":131,"span":16,"encoder":"8566318242691976","distractor":"8566318242691576","target":"present","response":"present","rt":"2090.3999999985","correct":true,"confidence":4},{"trial_n":132,"span":16,"encoder":"7195791675060045","distractor":"7195791675060041","target":"present","response":"present","rt":"2051.8000000045","correct":true,"confidence":5},{"trial_n":133,"span":17,"encoder":"20757973509660437","distractor":"20757973509660487","target":"present","response":"present","rt":"2617.6999999955","correct":true,"confidence":5},{"trial_n":134,"span":17,"encoder":"47954898256661588","distractor":"47954898256663588","target":"absent","response":"absent","rt":"6084.3999999985","correct":true,"confidence":3},{"trial_n":135,"span":18,"encoder":"003012273460448397","distractor":"003012273460448347","target":"present","response":"present","rt":"2688.3999999985","correct":true,"confidence":5},{"trial_n":136,"span":18,"encoder":"496880994982193097","distractor":"496880992982193097","target":"present","response":"present","rt":"7964","correct":true,"confidence":2},{"trial_n":137,"span":19,"encoder":"2911425460279606970","distractor":"2911425460279606570","target":"absent","response":"absent","rt":"2038.1999999955","correct":true,"confidence":5},{"trial_n":138,"span":19,"encoder":"4546069074652843701","distractor":"4546069064652843701","target":"present","response":"present","rt":"6056.900000006","correct":true,"confidence":1},{"trial_n":139,"span":20,"encoder":"20839854021753777949","distractor":"20839854021753770949","target":"present","response":"present","rt":"2014.099999994","correct":true,"confidence":4},{"trial_n":140,"span":20,"encoder":"11540648072553346779","distractor":"11540648072553446779","target":"absent","response":"present","rt":"4245.1000000015","correct":false,"confidence":3}]