[{"trial_n":1,"min":25,"max":230,"target":"present","response":"present","rt":6405.8999999762,"correct":true,"confidence":-1},{"trial_n":2,"min":25,"max":230,"target":"present","response":"present","rt":1680,"correct":true,"confidence":-1},{"trial_n":3,"min":41,"max":214,"target":"absent","response":"absent","rt":2272,"correct":true,"confidence":-1},{"trial_n":4,"min":41,"max":214,"target":"absent","response":"absent","rt":1518.5999999642,"correct":true,"confidence":-1},{"trial_n":5,"min":57,"max":198,"target":"present","response":"present","rt":1309.3999999762,"correct":true,"confidence":-1},{"trial_n":6,"min":57,"max":198,"target":"absent","response":"absent","rt":912.79999995232,"correct":true,"confidence":-1},{"trial_n":7,"min":73,"max":182,"target":"present","response":"present","rt":785.90000003576,"correct":true,"confidence":-1},{"trial_n":8,"min":73,"max":182,"target":"present","response":"present","rt":1013.8999999762,"correct":true,"confidence":-1},{"trial_n":9,"min":89,"max":166,"target":"absent","response":"absent","rt":594,"correct":true,"confidence":-1},{"trial_n":10,"min":89,"max":166,"target":"present","response":"present","rt":704.30000001192,"correct":true,"confidence":-1},{"trial_n":11,"min":97,"max":158,"target":"present","response":"absent","rt":619.5,"correct":false,"confidence":-1},{"trial_n":12,"min":89,"max":166,"target":"absent","response":"absent","rt":1302.1000000238,"correct":true,"confidence":-1},{"trial_n":13,"min":89,"max":166,"target":"absent","response":"absent","rt":999.5,"correct":true,"confidence":-1},{"trial_n":14,"min":97,"max":158,"target":"absent","response":"absent","rt":1433.3999999762,"correct":true,"confidence":-1},{"trial_n":15,"min":97,"max":158,"target":"absent","response":"absent","rt":950.80000001192,"correct":true,"confidence":-1},{"trial_n":16,"min":105,"max":150,"target":"present","response":"absent","rt":895.90000003576,"correct":false,"confidence":-1},{"trial_n":17,"min":97,"max":158,"target":"present","response":"absent","rt":836.59999996424,"correct":false,"confidence":-1},{"trial_n":18,"min":89,"max":166,"target":"absent","response":"present","rt":912.89999997616,"correct":false,"confidence":-1},{"trial_n":19,"min":81,"max":174,"target":"present","response":"present","rt":828.80000001192,"correct":true,"confidence":-1},{"trial_n":20,"min":81,"max":174,"target":"present","response":"present","rt":1046.6999999881,"correct":true,"confidence":-1},{"trial_n":21,"min":85,"max":170,"target":"absent","response":"present","rt":3408.1000000238,"correct":false,"confidence":2},{"trial_n":22,"min":81,"max":174,"target":"absent","response":"present","rt":2391.0999999642,"correct":false,"confidence":1},{"trial_n":23,"min":77,"max":178,"target":"present","response":"present","rt":807.69999998808,"correct":true,"confidence":4},{"trial_n":24,"min":77,"max":178,"target":"absent","response":"absent","rt":2404.3000000119,"correct":true,"confidence":3},{"trial_n":25,"min":81,"max":174,"target":"absent","response":"present","rt":1145.8000000119,"correct":false,"confidence":4},{"trial_n":26,"min":77,"max":178,"target":"absent","response":"absent","rt":911.19999998808,"correct":true,"confidence":4},{"trial_n":27,"min":77,"max":178,"target":"absent","response":"absent","rt":1259.4000000358,"correct":true,"confidence":2},{"trial_n":28,"min":81,"max":174,"target":"absent","response":"absent","rt":1199.1999999881,"correct":true,"confidence":3},{"trial_n":29,"min":81,"max":174,"target":"present","response":"present","rt":1098.5999999642,"correct":true,"confidence":5},{"trial_n":30,"min":85,"max":170,"target":"absent","response":"absent","rt":1266.7999999523,"correct":true,"confidence":3},{"trial_n":31,"min":85,"max":170,"target":"absent","response":"absent","rt":1650.2999999523,"correct":true,"confidence":3},{"trial_n":32,"min":87,"max":168,"target":"present","response":"present","rt":1001.8999999762,"correct":true,"confidence":5},{"trial_n":33,"min":87,"max":168,"target":"present","response":"present","rt":1054.9000000358,"correct":true,"confidence":4},{"trial_n":34,"min":89,"max":166,"target":"absent","response":"present","rt":1744.7999999523,"correct":false,"confidence":3},{"trial_n":35,"min":87,"max":168,"target":"absent","response":"present","rt":1432.3999999762,"correct":false,"confidence":2},{"trial_n":36,"min":85,"max":170,"target":"absent","response":"absent","rt":2003.8000000119,"correct":true,"confidence":3},{"trial_n":37,"min":85,"max":170,"target":"present","response":"present","rt":1013.5,"correct":true,"confidence":3},{"trial_n":38,"min":87,"max":168,"target":"present","response":"present","rt":1086.2000000477,"correct":true,"confidence":4},{"trial_n":39,"min":87,"max":168,"target":"present","response":"present","rt":1125.6000000238,"correct":true,"confidence":4},{"trial_n":40,"min":89,"max":166,"target":"absent","response":"absent","rt":1685.1000000238,"correct":true,"confidence":1},{"trial_n":41,"min":89,"max":166,"target":"absent","response":"present","rt":1135.3000000119,"correct":false,"confidence":1},{"trial_n":42,"min":88,"max":167,"target":"absent","response":"absent","rt":2542.6999999881,"correct":true,"confidence":3},{"trial_n":43,"min":88,"max":167,"target":"absent","response":"absent","rt":1545.7000000477,"correct":true,"confidence":2},{"trial_n":44,"min":89,"max":166,"target":"present","response":"present","rt":1201.1000000238,"correct":true,"confidence":1},{"trial_n":45,"min":89,"max":166,"target":"present","response":"absent","rt":2733.0999999642,"correct":false,"confidence":2},{"trial_n":46,"min":88,"max":167,"target":"present","response":"present","rt":977.69999998808,"correct":true,"confidence":2},{"trial_n":47,"min":88,"max":167,"target":"present","response":"present","rt":1030.6000000238,"correct":true,"confidence":4},{"trial_n":48,"min":89,"max":166,"target":"absent","response":"absent","rt":1165.6999999881,"correct":true,"confidence":3},{"trial_n":49,"min":89,"max":166,"target":"present","response":"present","rt":1086.9000000358,"correct":true,"confidence":4},{"trial_n":50,"min":90,"max":165,"target":"present","response":"absent","rt":1429.0999999642,"correct":false,"confidence":3},{"trial_n":51,"min":89,"max":166,"target":"present","response":"present","rt":896.89999997616,"correct":true,"confidence":4},{"trial_n":52,"min":89,"max":166,"target":"present","response":"absent","rt":1935.5,"correct":false,"confidence":3},{"trial_n":53,"min":88,"max":167,"target":"present","response":"present","rt":905.30000001192,"correct":true,"confidence":4},{"trial_n":54,"min":88,"max":167,"target":"present","response":"present","rt":1146.6999999881,"correct":true,"confidence":3},{"trial_n":55,"min":89,"max":166,"target":"absent","response":"absent","rt":1042.6000000238,"correct":true,"confidence":4},{"trial_n":56,"min":89,"max":166,"target":"present","response":"absent","rt":1050.6999999881,"correct":false,"confidence":3},{"trial_n":57,"min":88,"max":167,"target":"absent","response":"absent","rt":915.90000003576,"correct":true,"confidence":5},{"trial_n":58,"min":88,"max":167,"target":"present","response":"present","rt":1854.1999999881,"correct":true,"confidence":2},{"trial_n":59,"min":89,"max":166,"target":"present","response":"present","rt":1236.2999999523,"correct":true,"confidence":2},{"trial_n":60,"min":89,"max":166,"target":"absent","response":"absent","rt":1081.4000000358,"correct":true,"confidence":4},{"trial_n":61,"min":90,"max":165,"target":"present","response":"absent","rt":904,"correct":false,"confidence":5},{"trial_n":62,"min":89,"max":166,"target":"absent","response":"absent","rt":1123.6999999881,"correct":true,"confidence":4},{"trial_n":63,"min":89,"max":166,"target":"present","response":"present","rt":1167.5,"correct":true,"confidence":3},{"trial_n":64,"min":90,"max":165,"target":"present","response":"absent","rt":1668.6000000238,"correct":false,"confidence":4},{"trial_n":65,"min":89,"max":166,"target":"absent","response":"absent","rt":1389.1999999881,"correct":true,"confidence":3},{"trial_n":66,"min":89,"max":166,"target":"absent","response":"absent","rt":2435.9000000358,"correct":true,"confidence":4},{"trial_n":67,"min":90,"max":165,"target":"present","response":"present","rt":1024.3000000119,"correct":true,"confidence":4},{"trial_n":68,"min":90,"max":165,"target":"absent","response":"absent","rt":1490,"correct":true,"confidence":2},{"trial_n":69,"min":91,"max":164,"target":"absent","response":"absent","rt":1590.5,"correct":true,"confidence":3},{"trial_n":70,"min":91,"max":164,"target":"present","response":"present","rt":1267.6000000238,"correct":true,"confidence":1},{"trial_n":71,"min":41,"max":214,"target":"present","response":"present","rt":2726.5,"correct":true,"confidence":-1},{"trial_n":72,"min":41,"max":214,"target":"present","response":"present","rt":1301.7999999523,"correct":true,"confidence":-1},{"trial_n":73,"min":57,"max":198,"target":"absent","response":"absent","rt":966.59999996424,"correct":true,"confidence":-1},{"trial_n":74,"min":57,"max":198,"target":"absent","response":"absent","rt":1122,"correct":true,"confidence":-1},{"trial_n":75,"min":73,"max":182,"target":"present","response":"present","rt":538.80000001192,"correct":true,"confidence":-1},{"trial_n":76,"min":73,"max":182,"target":"absent","response":"present","rt":1750.3999999762,"correct":false,"confidence":-1},{"trial_n":77,"min":57,"max":198,"target":"present","response":"present","rt":754.10000002384,"correct":true,"confidence":-1},{"trial_n":78,"min":57,"max":198,"target":"present","response":"present","rt":368.5,"correct":true,"confidence":-1},{"trial_n":79,"min":73,"max":182,"target":"present","response":"present","rt":450.5,"correct":true,"confidence":-1},{"trial_n":80,"min":73,"max":182,"target":"absent","response":"absent","rt":576.90000003576,"correct":true,"confidence":-1},{"trial_n":81,"min":81,"max":174,"target":"present","response":"present","rt":666.30000001192,"correct":true,"confidence":-1},{"trial_n":82,"min":81,"max":174,"target":"present","response":"present","rt":726.5,"correct":true,"confidence":-1},{"trial_n":83,"min":89,"max":166,"target":"present","response":"absent","rt":1090.8000000119,"correct":false,"confidence":-1},{"trial_n":84,"min":81,"max":174,"target":"absent","response":"absent","rt":650.19999998808,"correct":true,"confidence":-1},{"trial_n":85,"min":81,"max":174,"target":"absent","response":"present","rt":515.69999998808,"correct":false,"confidence":-1},{"trial_n":86,"min":73,"max":182,"target":"present","response":"present","rt":673.39999997616,"correct":true,"confidence":-1},{"trial_n":87,"min":73,"max":182,"target":"present","response":"present","rt":493.89999997616,"correct":true,"confidence":-1},{"trial_n":88,"min":81,"max":174,"target":"absent","response":"absent","rt":830,"correct":true,"confidence":-1},{"trial_n":89,"min":81,"max":174,"target":"absent","response":"absent","rt":715.60000002384,"correct":true,"confidence":-1},{"trial_n":90,"min":89,"max":166,"target":"present","response":"present","rt":2078.1999999881,"correct":true,"confidence":-1},{"trial_n":91,"min":89,"max":166,"target":"absent","response":"absent","rt":1364.1999999881,"correct":true,"confidence":4},{"trial_n":92,"min":93,"max":162,"target":"present","response":"present","rt":1272.5,"correct":true,"confidence":1},{"trial_n":93,"min":93,"max":162,"target":"absent","response":"absent","rt":864.80000001192,"correct":true,"confidence":1},{"trial_n":94,"min":97,"max":158,"target":"present","response":"absent","rt":1122.3999999762,"correct":false,"confidence":2},{"trial_n":95,"min":93,"max":162,"target":"present","response":"absent","rt":688,"correct":false,"confidence":2},{"trial_n":96,"min":89,"max":166,"target":"present","response":"present","rt":627.09999996424,"correct":true,"confidence":5},{"trial_n":97,"min":89,"max":166,"target":"absent","response":"present","rt":985.39999997616,"correct":false,"confidence":3},{"trial_n":98,"min":85,"max":170,"target":"absent","response":"present","rt":819,"correct":false,"confidence":4},{"trial_n":99,"min":81,"max":174,"target":"absent","response":"absent","rt":824.80000001192,"correct":true,"confidence":4},{"trial_n":100,"min":81,"max":174,"target":"present","response":"present","rt":643.19999998808,"correct":true,"confidence":5},{"trial_n":101,"min":83,"max":172,"target":"present","response":"present","rt":553.30000001192,"correct":true,"confidence":5},{"trial_n":102,"min":83,"max":172,"target":"absent","response":"absent","rt":629.80000001192,"correct":true,"confidence":4},{"trial_n":103,"min":85,"max":170,"target":"absent","response":"present","rt":1088,"correct":false,"confidence":2},{"trial_n":104,"min":83,"max":172,"target":"absent","response":"absent","rt":844.40000003576,"correct":true,"confidence":3},{"trial_n":105,"min":83,"max":172,"target":"present","response":"present","rt":820.70000004768,"correct":true,"confidence":4},{"trial_n":106,"min":85,"max":170,"target":"present","response":"present","rt":481,"correct":true,"confidence":5},{"trial_n":107,"min":85,"max":170,"target":"present","response":"present","rt":1838.6000000238,"correct":true,"confidence":2},{"trial_n":108,"min":87,"max":168,"target":"present","response":"present","rt":439,"correct":true,"confidence":3},{"trial_n":109,"min":87,"max":168,"target":"absent","response":"present","rt":601.10000002384,"correct":false,"confidence":2},{"trial_n":110,"min":85,"max":170,"target":"absent","response":"absent","rt":1023.1999999881,"correct":true,"confidence":1},{"trial_n":111,"min":85,"max":170,"target":"present","response":"present","rt":428.10000002384,"correct":true,"confidence":3},{"trial_n":112,"min":86,"max":169,"target":"present","response":"present","rt":1547.5,"correct":true,"confidence":2},{"trial_n":113,"min":86,"max":169,"target":"present","response":"present","rt":463.5,"correct":true,"confidence":5},{"trial_n":114,"min":87,"max":168,"target":"present","response":"present","rt":1039.8000000119,"correct":true,"confidence":2},{"trial_n":115,"min":87,"max":168,"target":"present","response":"present","rt":700.60000002384,"correct":true,"confidence":4},{"trial_n":116,"min":88,"max":167,"target":"present","response":"present","rt":772.29999995232,"correct":true,"confidence":5},{"trial_n":117,"min":88,"max":167,"target":"absent","response":"present","rt":919.09999996424,"correct":false,"confidence":1},{"trial_n":118,"min":87,"max":168,"target":"absent","response":"present","rt":774.19999998808,"correct":false,"confidence":1},{"trial_n":119,"min":86,"max":169,"target":"present","response":"present","rt":625.60000002384,"correct":true,"confidence":3},{"trial_n":120,"min":86,"max":169,"target":"absent","response":"absent","rt":1074.5,"correct":true,"confidence":1},{"trial_n":121,"min":87,"max":168,"target":"absent","response":"present","rt":957.19999998808,"correct":false,"confidence":1},{"trial_n":122,"min":86,"max":169,"target":"present","response":"present","rt":659.19999998808,"correct":true,"confidence":2},{"trial_n":123,"min":86,"max":169,"target":"absent","response":"absent","rt":877.69999998808,"correct":true,"confidence":1},{"trial_n":124,"min":87,"max":168,"target":"absent","response":"present","rt":738.10000002384,"correct":false,"confidence":1},{"trial_n":125,"min":86,"max":169,"target":"absent","response":"present","rt":1236.5999999642,"correct":false,"confidence":1},{"trial_n":126,"min":85,"max":170,"target":"absent","response":"absent","rt":717.10000002384,"correct":true,"confidence":2},{"trial_n":127,"min":85,"max":170,"target":"present","response":"present","rt":909.30000001192,"correct":true,"confidence":4},{"trial_n":128,"min":86,"max":169,"target":"absent","response":"present","rt":966.80000001192,"correct":false,"confidence":1},{"trial_n":129,"min":85,"max":170,"target":"present","response":"present","rt":629.19999998808,"correct":true,"confidence":4},{"trial_n":130,"min":85,"max":170,"target":"present","response":"present","rt":623.30000001192,"correct":true,"confidence":2},{"trial_n":131,"min":86,"max":169,"target":"present","response":"present","rt":493.5,"correct":true,"confidence":4},{"trial_n":132,"min":86,"max":169,"target":"absent","response":"absent","rt":1796.1999999881,"correct":true,"confidence":1},{"trial_n":133,"min":87,"max":168,"target":"absent","response":"absent","rt":1716.5999999642,"correct":true,"confidence":2},{"trial_n":134,"min":87,"max":168,"target":"present","response":"present","rt":446.20000004768,"correct":true,"confidence":5},{"trial_n":135,"min":88,"max":167,"target":"absent","response":"present","rt":911.30000001192,"correct":false,"confidence":1},{"trial_n":136,"min":87,"max":168,"target":"absent","response":"present","rt":698.20000004768,"correct":false,"confidence":1},{"trial_n":137,"min":86,"max":169,"target":"absent","response":"absent","rt":824.5,"correct":true,"confidence":2},{"trial_n":138,"min":86,"max":169,"target":"absent","response":"present","rt":1105.1999999881,"correct":false,"confidence":1},{"trial_n":139,"min":85,"max":170,"target":"absent","response":"absent","rt":728.19999998808,"correct":true,"confidence":2},{"trial_n":140,"min":85,"max":170,"target":"present","response":"present","rt":599.5,"correct":true,"confidence":3}]