[{"trial_n":1,"n_dots":4.25,"target":"right","response":"left","rt":3875.700000003,"correct":false,"confidence":-1},{"trial_n":2,"n_dots":4.25,"target":"right","response":"left","rt":1527.1999999955,"correct":false,"confidence":-1},{"trial_n":3,"n_dots":4.65,"target":"right","response":"right","rt":514.29999999702,"correct":true,"confidence":-1},{"trial_n":4,"n_dots":4.65,"target":"left","response":"left","rt":456.70000000298,"correct":true,"confidence":-1},{"trial_n":5,"n_dots":4.25,"target":"right","response":"left","rt":655.39999999851,"correct":false,"confidence":-1},{"trial_n":6,"n_dots":4.65,"target":"right","response":"right","rt":636.20000000298,"correct":true,"confidence":-1},{"trial_n":7,"n_dots":4.65,"target":"right","response":"right","rt":533,"correct":true,"confidence":-1},{"trial_n":8,"n_dots":4.45,"target":"left","response":"left","rt":668.29999999702,"correct":true,"confidence":-1},{"trial_n":9,"n_dots":4.45,"target":"right","response":"right","rt":638.30000000447,"correct":true,"confidence":-1},{"trial_n":10,"n_dots":4.25,"target":"right","response":"left","rt":572.29999999702,"correct":false,"confidence":-1},{"trial_n":11,"n_dots":4.45,"target":"right","response":"left","rt":541.89999999851,"correct":false,"confidence":-1},{"trial_n":12,"n_dots":4.65,"target":"left","response":"left","rt":521.10000000149,"correct":true,"confidence":-1},{"trial_n":13,"n_dots":4.65,"target":"left","response":"left","rt":495.60000000149,"correct":true,"confidence":-1},{"trial_n":14,"n_dots":4.55,"target":"right","response":"right","rt":601.30000000447,"correct":true,"confidence":-1},{"trial_n":15,"n_dots":4.55,"target":"left","response":"left","rt":538.10000000149,"correct":true,"confidence":-1},{"trial_n":16,"n_dots":4.45,"target":"right","response":"left","rt":530.79999999702,"correct":false,"confidence":-1},{"trial_n":17,"n_dots":4.55,"target":"right","response":"right","rt":706.70000000298,"correct":true,"confidence":-1},{"trial_n":18,"n_dots":4.55,"target":"left","response":"left","rt":584.5,"correct":true,"confidence":-1},{"trial_n":19,"n_dots":4.45,"target":"right","response":"left","rt":483.09999999404,"correct":false,"confidence":-1},{"trial_n":20,"n_dots":4.55,"target":"left","response":"left","rt":446.10000000149,"correct":true,"confidence":-1},{"trial_n":21,"n_dots":4.55,"target":"left","response":"left","rt":719.30000000447,"correct":true,"confidence":2},{"trial_n":22,"n_dots":4.45,"target":"right","response":"left","rt":846.29999999702,"correct":false,"confidence":2},{"trial_n":23,"n_dots":4.55,"target":"left","response":"left","rt":697.89999999851,"correct":true,"confidence":3},{"trial_n":24,"n_dots":4.55,"target":"right","response":"right","rt":1849,"correct":true,"confidence":2},{"trial_n":25,"n_dots":4.45,"target":"right","response":"left","rt":2471.1000000015,"correct":false,"confidence":2},{"trial_n":26,"n_dots":4.55,"target":"right","response":"right","rt":761,"correct":true,"confidence":2},{"trial_n":27,"n_dots":4.55,"target":"left","response":"left","rt":554.5,"correct":true,"confidence":3},{"trial_n":28,"n_dots":4.45,"target":"left","response":"right","rt":1256.1000000015,"correct":false,"confidence":1},{"trial_n":29,"n_dots":4.55,"target":"left","response":"left","rt":518.30000000447,"correct":true,"confidence":3},{"trial_n":30,"n_dots":4.55,"target":"left","response":"left","rt":1163.1999999955,"correct":true,"confidence":3},{"trial_n":31,"n_dots":4.45,"target":"left","response":"right","rt":758.60000000149,"correct":false,"confidence":2},{"trial_n":32,"n_dots":4.55,"target":"right","response":"right","rt":1315.599999994,"correct":true,"confidence":2},{"trial_n":33,"n_dots":4.55,"target":"right","response":"right","rt":891.5,"correct":true,"confidence":3},{"trial_n":34,"n_dots":4.45,"target":"right","response":"right","rt":974,"correct":true,"confidence":2},{"trial_n":35,"n_dots":4.45,"target":"right","response":"right","rt":599.79999999702,"correct":true,"confidence":2},{"trial_n":36,"n_dots":4.35,"target":"right","response":"right","rt":571.39999999851,"correct":true,"confidence":3},{"trial_n":37,"n_dots":4.35,"target":"right","response":"left","rt":1060,"correct":false,"confidence":2},{"trial_n":38,"n_dots":4.45,"target":"left","response":"left","rt":863.79999999702,"correct":true,"confidence":4},{"trial_n":39,"n_dots":4.45,"target":"right","response":"right","rt":706.80000000447,"correct":true,"confidence":3},{"trial_n":40,"n_dots":4.35,"target":"left","response":"left","rt":515.29999999702,"correct":true,"confidence":3},{"trial_n":41,"n_dots":4.35,"target":"left","response":"left","rt":584.89999999851,"correct":true,"confidence":3},{"trial_n":42,"n_dots":4.25,"target":"left","response":"left","rt":604.79999999702,"correct":true,"confidence":3},{"trial_n":43,"n_dots":4.25,"target":"right","response":"right","rt":616.09999999404,"correct":true,"confidence":4},{"trial_n":44,"n_dots":4.15,"target":"right","response":"right","rt":542.20000000298,"correct":true,"confidence":5},{"trial_n":45,"n_dots":4.15,"target":"left","response":"left","rt":697.89999999851,"correct":true,"confidence":2},{"trial_n":46,"n_dots":4.05,"target":"left","response":"left","rt":425,"correct":true,"confidence":5},{"trial_n":47,"n_dots":4.05,"target":"right","response":"right","rt":526.79999999702,"correct":true,"confidence":3},{"trial_n":48,"n_dots":3.95,"target":"left","response":"left","rt":578.69999999553,"correct":true,"confidence":3},{"trial_n":49,"n_dots":3.95,"target":"left","response":"left","rt":768.60000000149,"correct":true,"confidence":2},{"trial_n":50,"n_dots":3.85,"target":"left","response":"left","rt":412.70000000298,"correct":true,"confidence":3},{"trial_n":51,"n_dots":3.85,"target":"right","response":"left","rt":590,"correct":false,"confidence":4},{"trial_n":52,"n_dots":3.95,"target":"right","response":"right","rt":486.5,"correct":true,"confidence":4},{"trial_n":53,"n_dots":3.95,"target":"left","response":"left","rt":406.10000000149,"correct":true,"confidence":4},{"trial_n":54,"n_dots":3.85,"target":"right","response":"right","rt":358.10000000149,"correct":true,"confidence":5},{"trial_n":55,"n_dots":3.85,"target":"right","response":"right","rt":577.5,"correct":true,"confidence":3},{"trial_n":56,"n_dots":3.75,"target":"left","response":"left","rt":396.40000000596,"correct":true,"confidence":4},{"trial_n":57,"n_dots":3.75,"target":"left","response":"left","rt":385.60000000149,"correct":true,"confidence":4},{"trial_n":58,"n_dots":3.65,"target":"left","response":"right","rt":464.60000000149,"correct":false,"confidence":3},{"trial_n":59,"n_dots":3.75,"target":"left","response":"left","rt":567.90000000596,"correct":true,"confidence":2},{"trial_n":60,"n_dots":3.75,"target":"left","response":"left","rt":427,"correct":true,"confidence":3},{"trial_n":61,"n_dots":3.65,"target":"left","response":"left","rt":436.69999999553,"correct":true,"confidence":3},{"trial_n":62,"n_dots":3.65,"target":"left","response":"right","rt":1212.1999999955,"correct":false,"confidence":2},{"trial_n":63,"n_dots":3.75,"target":"right","response":"right","rt":404.70000000298,"correct":true,"confidence":3},{"trial_n":64,"n_dots":3.75,"target":"right","response":"right","rt":351.20000000298,"correct":true,"confidence":4},{"trial_n":65,"n_dots":3.65,"target":"right","response":"right","rt":406.79999999702,"correct":true,"confidence":4},{"trial_n":66,"n_dots":3.65,"target":"right","response":"left","rt":1376.5,"correct":false,"confidence":2},{"trial_n":67,"n_dots":3.75,"target":"left","response":"left","rt":855.09999999404,"correct":true,"confidence":2},{"trial_n":68,"n_dots":3.75,"target":"right","response":"right","rt":1163.700000003,"correct":true,"confidence":2},{"trial_n":69,"n_dots":3.65,"target":"left","response":"right","rt":525.20000000298,"correct":false,"confidence":2},{"trial_n":70,"n_dots":3.75,"target":"right","response":"right","rt":530.70000000298,"correct":true,"confidence":3},{"trial_n":71,"n_dots":3.75,"target":"right","response":"right","rt":572.29999999702,"correct":true,"confidence":2},{"trial_n":72,"n_dots":3.65,"target":"right","response":"right","rt":682.30000000447,"correct":true,"confidence":2},{"trial_n":73,"n_dots":3.65,"target":"left","response":"left","rt":643.60000000149,"correct":true,"confidence":3},{"trial_n":74,"n_dots":3.55,"target":"left","response":"left","rt":405.5,"correct":true,"confidence":4},{"trial_n":75,"n_dots":3.55,"target":"left","response":"left","rt":502.20000000298,"correct":true,"confidence":4},{"trial_n":76,"n_dots":3.45,"target":"right","response":"left","rt":559.80000000447,"correct":false,"confidence":3},{"trial_n":77,"n_dots":3.55,"target":"left","response":"left","rt":572.60000000149,"correct":true,"confidence":2},{"trial_n":78,"n_dots":3.55,"target":"right","response":"right","rt":686.20000000298,"correct":true,"confidence":3},{"trial_n":79,"n_dots":3.45,"target":"left","response":"left","rt":1397.799999997,"correct":true,"confidence":2},{"trial_n":80,"n_dots":3.45,"target":"right","response":"right","rt":1309.200000003,"correct":true,"confidence":1},{"trial_n":81,"n_dots":3.35,"target":"right","response":"right","rt":965.89999999851,"correct":true,"confidence":2},{"trial_n":82,"n_dots":3.35,"target":"right","response":"left","rt":759,"correct":false,"confidence":2},{"trial_n":83,"n_dots":3.45,"target":"left","response":"right","rt":935.39999999851,"correct":false,"confidence":1},{"trial_n":84,"n_dots":3.55,"target":"left","response":"left","rt":500.60000000149,"correct":true,"confidence":2},{"trial_n":85,"n_dots":3.55,"target":"left","response":"left","rt":541.10000000149,"correct":true,"confidence":3},{"trial_n":86,"n_dots":3.45,"target":"right","response":"right","rt":880.20000000298,"correct":true,"confidence":3},{"trial_n":87,"n_dots":3.45,"target":"right","response":"left","rt":805.89999999851,"correct":false,"confidence":2},{"trial_n":88,"n_dots":3.55,"target":"left","response":"left","rt":612,"correct":true,"confidence":3},{"trial_n":89,"n_dots":3.55,"target":"right","response":"right","rt":578,"correct":true,"confidence":3},{"trial_n":90,"n_dots":3.45,"target":"left","response":"left","rt":633.5,"correct":true,"confidence":2},{"trial_n":91,"n_dots":3.45,"target":"left","response":"left","rt":617.60000000149,"correct":true,"confidence":3},{"trial_n":92,"n_dots":3.35,"target":"left","response":"right","rt":850.39999999851,"correct":false,"confidence":2},{"trial_n":93,"n_dots":3.45,"target":"right","response":"right","rt":639.19999999553,"correct":true,"confidence":3},{"trial_n":94,"n_dots":3.45,"target":"left","response":"right","rt":606.70000000298,"correct":false,"confidence":3},{"trial_n":95,"n_dots":3.55,"target":"left","response":"right","rt":1477.1000000015,"correct":false,"confidence":1},{"trial_n":96,"n_dots":3.65,"target":"left","response":"left","rt":468.5,"correct":true,"confidence":2},{"trial_n":97,"n_dots":3.65,"target":"right","response":"right","rt":742.39999999851,"correct":true,"confidence":2},{"trial_n":98,"n_dots":3.55,"target":"left","response":"right","rt":660.70000000298,"correct":false,"confidence":2},{"trial_n":99,"n_dots":3.65,"target":"left","response":"left","rt":661.29999999702,"correct":true,"confidence":2},{"trial_n":100,"n_dots":3.65,"target":"right","response":"right","rt":658.59999999404,"correct":true,"confidence":3},{"trial_n":101,"n_dots":3.55,"target":"right","response":"left","rt":601.10000000149,"correct":false,"confidence":2},{"trial_n":102,"n_dots":3.65,"target":"left","response":"left","rt":738.89999999851,"correct":true,"confidence":2},{"trial_n":103,"n_dots":3.65,"target":"right","response":"right","rt":614.29999999702,"correct":true,"confidence":2},{"trial_n":104,"n_dots":3.55,"target":"left","response":"left","rt":856.39999999851,"correct":true,"confidence":2},{"trial_n":105,"n_dots":3.55,"target":"left","response":"right","rt":557,"correct":false,"confidence":3},{"trial_n":106,"n_dots":3.65,"target":"left","response":"left","rt":642.5,"correct":true,"confidence":2},{"trial_n":107,"n_dots":3.65,"target":"right","response":"left","rt":2491.3000000045,"correct":false,"confidence":1},{"trial_n":108,"n_dots":3.75,"target":"right","response":"left","rt":666.89999999851,"correct":false,"confidence":2},{"trial_n":109,"n_dots":3.85,"target":"left","response":"right","rt":729.39999999851,"correct":false,"confidence":1},{"trial_n":110,"n_dots":3.95,"target":"left","response":"right","rt":515.70000000298,"correct":false,"confidence":2},{"trial_n":111,"n_dots":4.05,"target":"left","response":"left","rt":585,"correct":true,"confidence":2},{"trial_n":112,"n_dots":4.05,"target":"right","response":"right","rt":619.80000000447,"correct":true,"confidence":4},{"trial_n":113,"n_dots":3.95,"target":"right","response":"right","rt":544.70000000298,"correct":true,"confidence":3},{"trial_n":114,"n_dots":3.95,"target":"left","response":"left","rt":561.10000000149,"correct":true,"confidence":3},{"trial_n":115,"n_dots":3.85,"target":"right","response":"right","rt":643.10000000149,"correct":true,"confidence":3},{"trial_n":116,"n_dots":3.85,"target":"left","response":"right","rt":618.69999999553,"correct":false,"confidence":2},{"trial_n":117,"n_dots":3.95,"target":"left","response":"left","rt":1204,"correct":true,"confidence":1},{"trial_n":118,"n_dots":3.95,"target":"right","response":"right","rt":561.5,"correct":true,"confidence":3},{"trial_n":119,"n_dots":3.85,"target":"right","response":"right","rt":526.10000000149,"correct":true,"confidence":3},{"trial_n":120,"n_dots":3.85,"target":"right","response":"left","rt":509.60000000149,"correct":false,"confidence":3}]