[{"trial_n":1,"span":8,"encoder":"63729193","distractor":"63529193","target":"present","response":"absent","rt":"2860.3000000119","correct":false,"confidence":-1},{"trial_n":2,"span":6,"encoder":"692673","distractor":"692670","target":"present","response":"present","rt":"2395.8999999762","correct":true,"confidence":-1},{"trial_n":3,"span":6,"encoder":"651834","distractor":"651874","target":"absent","response":"absent","rt":"2469","correct":true,"confidence":-1},{"trial_n":4,"span":8,"encoder":"88075419","distractor":"88075489","target":"absent","response":"absent","rt":"1722.1999999881","correct":true,"confidence":-1},{"trial_n":5,"span":8,"encoder":"31422601","distractor":"31422801","target":"present","response":"absent","rt":"1886.7000000477","correct":false,"confidence":-1},{"trial_n":6,"span":6,"encoder":"113209","distractor":"118209","target":"present","response":"absent","rt":"1501.8000000119","correct":false,"confidence":-1},{"trial_n":7,"span":4,"encoder":"3096","distractor":"3196","target":"absent","response":"absent","rt":"1218.8000000119","correct":true,"confidence":-1},{"trial_n":8,"span":4,"encoder":"7710","distractor":"7810","target":"present","response":"present","rt":"3272","correct":true,"confidence":-1},{"trial_n":9,"span":6,"encoder":"880068","distractor":"860068","target":"present","response":"absent","rt":"2211","correct":false,"confidence":-1},{"trial_n":10,"span":4,"encoder":"0346","distractor":"0376","target":"present","response":"present","rt":"1476.1999999881","correct":true,"confidence":-1},{"trial_n":11,"span":4,"encoder":"7739","distractor":"7769","target":"present","response":"present","rt":"1498.6999999881","correct":true,"confidence":-1},{"trial_n":12,"span":5,"encoder":"25781","distractor":"25783","target":"absent","response":"absent","rt":"2029.0999999642","correct":true,"confidence":-1},{"trial_n":13,"span":5,"encoder":"99138","distractor":"99118","target":"absent","response":"absent","rt":"1978.5","correct":true,"confidence":-1},{"trial_n":14,"span":6,"encoder":"267317","distractor":"264317","target":"absent","response":"absent","rt":"2534.3000000119","correct":true,"confidence":-1},{"trial_n":15,"span":6,"encoder":"997301","distractor":"997307","target":"absent","response":"absent","rt":"1736.2000000477","correct":true,"confidence":-1},{"trial_n":16,"span":7,"encoder":"3866309","distractor":"3864309","target":"present","response":"present","rt":"3112.3000000119","correct":true,"confidence":-1},{"trial_n":17,"span":7,"encoder":"5679612","distractor":"5679614","target":"present","response":"present","rt":"2618","correct":true,"confidence":-1},{"trial_n":18,"span":8,"encoder":"45615689","distractor":"95615689","target":"present","response":"absent","rt":"1465","correct":false,"confidence":-1},{"trial_n":19,"span":7,"encoder":"7794670","distractor":"5794670","target":"present","response":"absent","rt":"1319","correct":false,"confidence":-1},{"trial_n":20,"span":6,"encoder":"236511","distractor":"836511","target":"present","response":"present","rt":"2812.3000000119","correct":true,"confidence":-1},{"trial_n":21,"span":6,"encoder":"346380","distractor":"341380","target":"absent","response":"absent","rt":"2480.8000000119","correct":true,"confidence":3},{"trial_n":22,"span":7,"encoder":"2088892","distractor":"2488892","target":"absent","response":"absent","rt":"2491.4000000358","correct":true,"confidence":4},{"trial_n":23,"span":7,"encoder":"9445738","distractor":"9435738","target":"present","response":"present","rt":"2269.9000000358","correct":true,"confidence":5},{"trial_n":24,"span":8,"encoder":"93765706","distractor":"93765506","target":"present","response":"absent","rt":"2546","correct":false,"confidence":2},{"trial_n":25,"span":7,"encoder":"1674109","distractor":"1694109","target":"absent","response":"absent","rt":"2397","correct":true,"confidence":4},{"trial_n":26,"span":7,"encoder":"1437280","distractor":"0437280","target":"absent","response":"absent","rt":"1753.8999999762","correct":true,"confidence":5},{"trial_n":27,"span":8,"encoder":"75831436","distractor":"75831431","target":"absent","response":"absent","rt":"4476","correct":true,"confidence":3},{"trial_n":28,"span":8,"encoder":"23239826","distractor":"23229826","target":"present","response":"present","rt":"3957.5","correct":true,"confidence":3},{"trial_n":29,"span":9,"encoder":"790702622","distractor":"590702622","target":"present","response":"present","rt":"5014","correct":true,"confidence":2},{"trial_n":30,"span":9,"encoder":"439098543","distractor":"432098543","target":"absent","response":"absent","rt":"1864.8999999762","correct":true,"confidence":2},{"trial_n":31,"span":10,"encoder":"3240890974","distractor":"3240899974","target":"absent","response":"absent","rt":"3423","correct":true,"confidence":3},{"trial_n":32,"span":10,"encoder":"9899004932","distractor":"9899004902","target":"present","response":"present","rt":"3627.3999999762","correct":true,"confidence":4},{"trial_n":33,"span":11,"encoder":"01146224247","distractor":"01149224247","target":"present","response":"present","rt":"4854.8999999762","correct":true,"confidence":3},{"trial_n":34,"span":11,"encoder":"30131465537","distractor":"30131415537","target":"present","response":"present","rt":"4028.0999999642","correct":true,"confidence":4},{"trial_n":35,"span":12,"encoder":"616843360958","distractor":"616843360988","target":"absent","response":"absent","rt":"1939.3999999762","correct":true,"confidence":1},{"trial_n":36,"span":12,"encoder":"241698141984","distractor":"241698141384","target":"present","response":"present","rt":"4549.1999999881","correct":true,"confidence":2},{"trial_n":37,"span":13,"encoder":"9484935763902","distractor":"9454935763902","target":"absent","response":"absent","rt":"2375.5","correct":true,"confidence":3},{"trial_n":38,"span":13,"encoder":"5885142462661","distractor":"5885142472661","target":"present","response":"present","rt":"3188.3000000119","correct":true,"confidence":1},{"trial_n":39,"span":14,"encoder":"79228767809916","distractor":"79224767809916","target":"absent","response":"present","rt":"2424.3000000119","correct":false,"confidence":3},{"trial_n":40,"span":13,"encoder":"3251610146964","distractor":"3251610146924","target":"absent","response":"absent","rt":"6097.1000000238","correct":true,"confidence":3},{"trial_n":41,"span":13,"encoder":"0997814808230","distractor":"0993814808230","target":"absent","response":"present","rt":"3698.7999999523","correct":false,"confidence":2},{"trial_n":42,"span":12,"encoder":"711533455001","distractor":"711533457001","target":"absent","response":"present","rt":"7419.5","correct":false,"confidence":1},{"trial_n":43,"span":11,"encoder":"96315541222","distractor":"96315540222","target":"present","response":"present","rt":"4844.8999999762","correct":true,"confidence":2},{"trial_n":44,"span":11,"encoder":"36651266015","distractor":"36651266019","target":"absent","response":"present","rt":"2208.3999999762","correct":false,"confidence":2},{"trial_n":45,"span":10,"encoder":"3078170938","distractor":"3078170638","target":"present","response":"absent","rt":"6455.6000000238","correct":false,"confidence":3},{"trial_n":46,"span":9,"encoder":"019396004","distractor":"019356004","target":"present","response":"present","rt":"12708.5","correct":true,"confidence":3},{"trial_n":47,"span":9,"encoder":"888698960","distractor":"888688960","target":"absent","response":"present","rt":"2282.2999999523","correct":false,"confidence":4},{"trial_n":48,"span":8,"encoder":"57778050","distractor":"17778050","target":"absent","response":"present","rt":"2608","correct":false,"confidence":4},{"trial_n":49,"span":7,"encoder":"9200633","distractor":"9200632","target":"absent","response":"absent","rt":"4951.7000000477","correct":true,"confidence":3},{"trial_n":50,"span":7,"encoder":"0936879","distractor":"0036879","target":"present","response":"absent","rt":"1902","correct":false,"confidence":4},{"trial_n":51,"span":6,"encoder":"396895","distractor":"306895","target":"present","response":"present","rt":"1910.1999999881","correct":true,"confidence":3},{"trial_n":52,"span":6,"encoder":"265291","distractor":"268291","target":"absent","response":"absent","rt":"2305.8999999762","correct":true,"confidence":5},{"trial_n":53,"span":7,"encoder":"7160729","distractor":"6160729","target":"present","response":"present","rt":"2225.0999999642","correct":true,"confidence":4},{"trial_n":54,"span":7,"encoder":"7204518","distractor":"7208518","target":"absent","response":"absent","rt":"4081.5999999642","correct":true,"confidence":3},{"trial_n":55,"span":8,"encoder":"72256556","distractor":"72156556","target":"present","response":"present","rt":"2782.6999999881","correct":true,"confidence":5},{"trial_n":56,"span":8,"encoder":"74653673","distractor":"94653673","target":"absent","response":"absent","rt":"2249","correct":true,"confidence":3},{"trial_n":57,"span":9,"encoder":"588642897","distractor":"588642697","target":"absent","response":"present","rt":"4653.4000000358","correct":false,"confidence":3},{"trial_n":58,"span":8,"encoder":"27422273","distractor":"27462273","target":"present","response":"present","rt":"3185.1999999881","correct":true,"confidence":5},{"trial_n":59,"span":8,"encoder":"68916834","distractor":"68996834","target":"absent","response":"absent","rt":"2417.8999999762","correct":true,"confidence":4},{"trial_n":60,"span":9,"encoder":"527117042","distractor":"827117042","target":"present","response":"present","rt":"4627.6999999881","correct":true,"confidence":4},{"trial_n":61,"span":9,"encoder":"071005367","distractor":"071003367","target":"present","response":"absent","rt":"4313.9000000358","correct":false,"confidence":2},{"trial_n":62,"span":8,"encoder":"41801691","distractor":"41801661","target":"present","response":"absent","rt":"4483.1000000238","correct":false,"confidence":2},{"trial_n":63,"span":7,"encoder":"4854025","distractor":"4856025","target":"absent","response":"present","rt":"4679.4000000358","correct":false,"confidence":3},{"trial_n":64,"span":6,"encoder":"023724","distractor":"323724","target":"absent","response":"absent","rt":"1929.5","correct":true,"confidence":5},{"trial_n":65,"span":6,"encoder":"030200","distractor":"033200","target":"absent","response":"absent","rt":"4469.3000000119","correct":true,"confidence":3},{"trial_n":66,"span":7,"encoder":"3039745","distractor":"2039745","target":"present","response":"present","rt":"2718.3000000119","correct":true,"confidence":5},{"trial_n":67,"span":7,"encoder":"3657789","distractor":"3357789","target":"present","response":"present","rt":"3352.3999999762","correct":true,"confidence":4},{"trial_n":68,"span":8,"encoder":"80444954","distractor":"30444954","target":"absent","response":"absent","rt":"1445.8999999762","correct":true,"confidence":3},{"trial_n":69,"span":8,"encoder":"85672806","distractor":"45672806","target":"present","response":"absent","rt":"5555","correct":false,"confidence":2},{"trial_n":70,"span":7,"encoder":"3201556","distractor":"3206556","target":"absent","response":"absent","rt":"2497.8000000119","correct":true,"confidence":4},{"trial_n":71,"span":8,"encoder":"61258697","distractor":"61958697","target":"present","response":"present","rt":"5827.9000000358","correct":true,"confidence":-1},{"trial_n":72,"span":8,"encoder":"88047692","distractor":"85047692","target":"present","response":"present","rt":"5560.3999999762","correct":true,"confidence":-1},{"trial_n":73,"span":9,"encoder":"143193225","distractor":"743193225","target":"absent","response":"absent","rt":"2595.8999999762","correct":true,"confidence":-1},{"trial_n":74,"span":9,"encoder":"469807323","distractor":"469808323","target":"absent","response":"absent","rt":"2738.1000000238","correct":true,"confidence":-1},{"trial_n":75,"span":10,"encoder":"7722289154","distractor":"7722281154","target":"present","response":"present","rt":"6332.8999999762","correct":true,"confidence":-1},{"trial_n":76,"span":10,"encoder":"6693031182","distractor":"6693031162","target":"present","response":"present","rt":"8037.5999999642","correct":true,"confidence":-1},{"trial_n":77,"span":11,"encoder":"42444499550","distractor":"42444399550","target":"present","response":"present","rt":"2346","correct":true,"confidence":-1},{"trial_n":78,"span":11,"encoder":"94715086257","distractor":"94715286257","target":"present","response":"present","rt":"1331.1999999881","correct":true,"confidence":-1},{"trial_n":79,"span":12,"encoder":"264522832872","distractor":"264542832872","target":"present","response":"present","rt":"3614.1999999881","correct":true,"confidence":-1},{"trial_n":80,"span":12,"encoder":"322940877317","distractor":"322940877397","target":"present","response":"present","rt":"2080.7000000477","correct":true,"confidence":-1},{"trial_n":81,"span":13,"encoder":"7413329422889","distractor":"7413329420889","target":"present","response":"present","rt":"3504","correct":true,"confidence":-1},{"trial_n":82,"span":13,"encoder":"5760075645046","distractor":"5760075645946","target":"present","response":"present","rt":"1886.1000000238","correct":true,"confidence":-1},{"trial_n":83,"span":14,"encoder":"62499920895946","distractor":"62499920805946","target":"present","response":"present","rt":"9201.2000000477","correct":true,"confidence":-1},{"trial_n":84,"span":14,"encoder":"57061955326392","distractor":"57061956326392","target":"present","response":"present","rt":"7239.5999999642","correct":true,"confidence":-1},{"trial_n":85,"span":15,"encoder":"955315672183936","distractor":"955315672153936","target":"present","response":"present","rt":"624","correct":true,"confidence":-1},{"trial_n":86,"span":15,"encoder":"220557827775897","distractor":"280557827775897","target":"present","response":"present","rt":"4952.6999999881","correct":true,"confidence":-1},{"trial_n":87,"span":16,"encoder":"6606451584110700","distractor":"6606453584110700","target":"absent","response":"present","rt":"3985.8999999762","correct":false,"confidence":-1},{"trial_n":88,"span":15,"encoder":"146933275460270","distractor":"146936275460270","target":"absent","response":"present","rt":"4887.8999999762","correct":false,"confidence":-1},{"trial_n":89,"span":14,"encoder":"48119947480121","distractor":"48119747480121","target":"absent","response":"present","rt":"7610.1999999881","correct":false,"confidence":-1},{"trial_n":90,"span":13,"encoder":"5544693145374","distractor":"5544693645374","target":"absent","response":"absent","rt":"3615.5999999642","correct":true,"confidence":-1},{"trial_n":91,"span":13,"encoder":"1985547237573","distractor":"1985547237593","target":"absent","response":"absent","rt":"1284.3999999762","correct":true,"confidence":1},{"trial_n":92,"span":14,"encoder":"47706727576312","distractor":"47702727576312","target":"absent","response":"absent","rt":"8618","correct":true,"confidence":3},{"trial_n":93,"span":14,"encoder":"48229691237817","distractor":"48729691237817","target":"present","response":"present","rt":"4817.5","correct":true,"confidence":3},{"trial_n":94,"span":15,"encoder":"430869519769795","distractor":"730869519769795","target":"present","response":"present","rt":"1058.1000000238","correct":true,"confidence":1},{"trial_n":95,"span":15,"encoder":"480350065858855","distractor":"410350065858855","target":"present","response":"present","rt":"5638.3999999762","correct":true,"confidence":2},{"trial_n":96,"span":16,"encoder":"6482423975469771","distractor":"6482423975469971","target":"absent","response":"absent","rt":"2448.1999999881","correct":true,"confidence":2},{"trial_n":97,"span":16,"encoder":"2168653843880031","distractor":"2163653843880031","target":"present","response":"present","rt":"4833.5","correct":true,"confidence":1},{"trial_n":98,"span":17,"encoder":"63268069441605557","distractor":"63268069441305557","target":"absent","response":"present","rt":"3042.5","correct":false,"confidence":1},{"trial_n":99,"span":16,"encoder":"5186288058463840","distractor":"5186287058463840","target":"absent","response":"absent","rt":"2744.5","correct":true,"confidence":4},{"trial_n":100,"span":16,"encoder":"5521768429810026","distractor":"5521368429810026","target":"present","response":"present","rt":"3829.1999999881","correct":true,"confidence":1},{"trial_n":101,"span":17,"encoder":"53126860551066389","distractor":"53121860551066389","target":"present","response":"absent","rt":"4833.1999999881","correct":false,"confidence":2},{"trial_n":102,"span":16,"encoder":"1838128675972264","distractor":"8838128675972264","target":"present","response":"present","rt":"2228.3000000119","correct":true,"confidence":4},{"trial_n":103,"span":16,"encoder":"4562921999823872","distractor":"4560921999823872","target":"present","response":"present","rt":"8639.4000000358","correct":true,"confidence":1},{"trial_n":104,"span":17,"encoder":"29810960315438814","distractor":"29810960715438814","target":"absent","response":"present","rt":"1547.7000000477","correct":false,"confidence":1},{"trial_n":105,"span":16,"encoder":"0663338436791927","distractor":"0663332436791927","target":"present","response":"present","rt":"4148.8000000119","correct":true,"confidence":1},{"trial_n":106,"span":16,"encoder":"3386059847260166","distractor":"3386059847260186","target":"absent","response":"absent","rt":"2265.6999999881","correct":true,"confidence":3},{"trial_n":107,"span":17,"encoder":"21142871651750589","distractor":"21142871651720589","target":"absent","response":"present","rt":"4800.6000000238","correct":false,"confidence":2},{"trial_n":108,"span":16,"encoder":"8752243585488806","distractor":"8752643585488806","target":"present","response":"present","rt":"11957.100000024","correct":true,"confidence":3},{"trial_n":109,"span":16,"encoder":"4096687034015554","distractor":"4096687034012554","target":"absent","response":"absent","rt":"3544.7000000477","correct":true,"confidence":4},{"trial_n":110,"span":17,"encoder":"20671458013616994","distractor":"20671458013616934","target":"present","response":"present","rt":"3169.8000000119","correct":true,"confidence":3},{"trial_n":111,"span":17,"encoder":"42962462858923123","distractor":"49962462858923123","target":"present","response":"absent","rt":"768.19999998808","correct":false,"confidence":1},{"trial_n":112,"span":16,"encoder":"2816678076769119","distractor":"2816578076769119","target":"absent","response":"absent","rt":"6918","correct":true,"confidence":3},{"trial_n":113,"span":16,"encoder":"9825216292591106","distractor":"9825216292598106","target":"absent","response":"absent","rt":"2072.9000000358","correct":true,"confidence":4},{"trial_n":114,"span":17,"encoder":"81711214740526587","distractor":"81711214740576587","target":"present","response":"absent","rt":"1534.4000000358","correct":false,"confidence":1},{"trial_n":115,"span":16,"encoder":"6484398026089829","distractor":"6484398326089829","target":"present","response":"present","rt":"2958.1999999881","correct":true,"confidence":1},{"trial_n":116,"span":16,"encoder":"3427234599177791","distractor":"3427235599177791","target":"absent","response":"absent","rt":"12058.300000012","correct":true,"confidence":3},{"trial_n":117,"span":17,"encoder":"31916553206301334","distractor":"31906553206301334","target":"absent","response":"present","rt":"2881.1000000238","correct":false,"confidence":1},{"trial_n":118,"span":16,"encoder":"4556675190916143","distractor":"4556675190316143","target":"present","response":"present","rt":"3357.0999999642","correct":true,"confidence":4},{"trial_n":119,"span":16,"encoder":"4900361545143846","distractor":"4900361545143646","target":"absent","response":"absent","rt":"2390.3999999762","correct":true,"confidence":4},{"trial_n":120,"span":17,"encoder":"53218335243987379","distractor":"53218335243587379","target":"present","response":"present","rt":"6840.5999999642","correct":true,"confidence":2},{"trial_n":121,"span":17,"encoder":"56555404296314490","distractor":"56555404296314493","target":"absent","response":"absent","rt":"2135.7999999523","correct":true,"confidence":4},{"trial_n":122,"span":18,"encoder":"612870554180583479","distractor":"613870554180583479","target":"absent","response":"absent","rt":"5557.8999999762","correct":true,"confidence":1},{"trial_n":123,"span":18,"encoder":"506554153075042548","distractor":"508554153075042548","target":"absent","response":"absent","rt":"5435.2000000477","correct":true,"confidence":2},{"trial_n":124,"span":19,"encoder":"2344372695665187325","distractor":"2344372695668187325","target":"absent","response":"present","rt":"5555.3000000119","correct":false,"confidence":1},{"trial_n":125,"span":18,"encoder":"677161250782823090","distractor":"677161250782823790","target":"absent","response":"absent","rt":"2388.3000000119","correct":true,"confidence":3},{"trial_n":126,"span":18,"encoder":"960681603750076865","distractor":"960681603750076465","target":"present","response":"present","rt":"4060.3000000119","correct":true,"confidence":2},{"trial_n":127,"span":19,"encoder":"2027739210136369024","distractor":"2027739210136769024","target":"present","response":"present","rt":"3543.5","correct":true,"confidence":1},{"trial_n":128,"span":19,"encoder":"2389755410814857771","distractor":"2389755410114857771","target":"present","response":"present","rt":"4939.5","correct":true,"confidence":3},{"trial_n":129,"span":20,"encoder":"22737349105342413112","distractor":"22737349105842413112","target":"absent","response":"present","rt":"1905.0999999642","correct":false,"confidence":1},{"trial_n":130,"span":19,"encoder":"5913834853291095477","distractor":"5913834853292095477","target":"present","response":"present","rt":"14874.399999976","correct":true,"confidence":4},{"trial_n":131,"span":19,"encoder":"0841585260563247331","distractor":"0841585260568247331","target":"absent","response":"present","rt":"4041.5999999642","correct":false,"confidence":2},{"trial_n":132,"span":18,"encoder":"500616161352813053","distractor":"500616161352813056","target":"present","response":"present","rt":"2180.1000000238","correct":true,"confidence":4},{"trial_n":133,"span":18,"encoder":"564612404599873959","distractor":"594612404599873959","target":"absent","response":"present","rt":"3272","correct":false,"confidence":1},{"trial_n":134,"span":17,"encoder":"94674047025761586","distractor":"94634047025761586","target":"absent","response":"present","rt":"3925.6999999881","correct":false,"confidence":1},{"trial_n":135,"span":16,"encoder":"5282158468842809","distractor":"5287158468842809","target":"absent","response":"present","rt":"8659.4000000358","correct":false,"confidence":3},{"trial_n":136,"span":15,"encoder":"872696296533340","distractor":"872696296433340","target":"absent","response":"absent","rt":"5269.3000000119","correct":true,"confidence":2},{"trial_n":137,"span":15,"encoder":"002319675705431","distractor":"032319675705431","target":"absent","response":"present","rt":"5460.3000000119","correct":false,"confidence":3},{"trial_n":138,"span":14,"encoder":"02793483171494","distractor":"02793483171394","target":"absent","response":"absent","rt":"2237.5","correct":true,"confidence":4},{"trial_n":139,"span":14,"encoder":"75959099010020","distractor":"75959099015020","target":"absent","response":"absent","rt":"5059.1999999881","correct":true,"confidence":3},{"trial_n":140,"span":15,"encoder":"220479462616710","distractor":"220479462616719","target":"present","response":"present","rt":"2283.1999999881","correct":true,"confidence":5}]