[{"trial_n":1,"span":8,"encoder":"31209787","distractor":"31207787","target":"present","response":"absent","rt":"6420.2000000477","correct":false,"confidence":-1},{"trial_n":2,"span":6,"encoder":"575566","distractor":"475566","target":"present","response":"present","rt":"4760.6000000238","correct":true,"confidence":-1},{"trial_n":3,"span":6,"encoder":"427256","distractor":"427206","target":"absent","response":"absent","rt":"3152.7000000477","correct":true,"confidence":-1},{"trial_n":4,"span":8,"encoder":"43185765","distractor":"43685765","target":"absent","response":"absent","rt":"2744.3000000715","correct":true,"confidence":-1},{"trial_n":5,"span":8,"encoder":"02867482","distractor":"02867282","target":"present","response":"present","rt":"3195.2000000477","correct":true,"confidence":-1},{"trial_n":6,"span":10,"encoder":"8126322075","distractor":"8126352075","target":"present","response":"present","rt":"3086","correct":true,"confidence":-1},{"trial_n":7,"span":10,"encoder":"7218879900","distractor":"7218379900","target":"present","response":"present","rt":"2061.6000000238","correct":true,"confidence":-1},{"trial_n":8,"span":12,"encoder":"649457164019","distractor":"849457164019","target":"present","response":"absent","rt":"3713.6999999285","correct":false,"confidence":-1},{"trial_n":9,"span":10,"encoder":"7865946169","distractor":"7865940169","target":"absent","response":"present","rt":"2567.5999999046","correct":false,"confidence":-1},{"trial_n":10,"span":8,"encoder":"87636516","distractor":"87636316","target":"present","response":"present","rt":"2041.7999999523","correct":true,"confidence":-1},{"trial_n":11,"span":8,"encoder":"84092441","distractor":"82092441","target":"present","response":"absent","rt":"2057.2999999523","correct":false,"confidence":-1},{"trial_n":12,"span":7,"encoder":"2539285","distractor":"2599285","target":"absent","response":"absent","rt":"2251.3000000715","correct":true,"confidence":-1},{"trial_n":13,"span":7,"encoder":"6399289","distractor":"6399299","target":"absent","response":"absent","rt":"2316","correct":true,"confidence":-1},{"trial_n":14,"span":8,"encoder":"51271873","distractor":"50271873","target":"present","response":"present","rt":"2350.5","correct":true,"confidence":-1},{"trial_n":15,"span":8,"encoder":"97861555","distractor":"37861555","target":"absent","response":"absent","rt":"3370.3000000715","correct":true,"confidence":-1},{"trial_n":16,"span":9,"encoder":"204697952","distractor":"204607952","target":"absent","response":"absent","rt":"3561.6000000238","correct":true,"confidence":-1},{"trial_n":17,"span":9,"encoder":"676246189","distractor":"676246489","target":"present","response":"present","rt":"3693.3999999762","correct":true,"confidence":-1},{"trial_n":18,"span":10,"encoder":"1283490701","distractor":"1283490781","target":"present","response":"present","rt":"2732","correct":true,"confidence":-1},{"trial_n":19,"span":10,"encoder":"9800162839","distractor":"9800112839","target":"present","response":"present","rt":"2574.7000000477","correct":true,"confidence":-1},{"trial_n":20,"span":11,"encoder":"40889888801","distractor":"40880888801","target":"absent","response":"absent","rt":"3343.8999999762","correct":true,"confidence":-1},{"trial_n":21,"span":11,"encoder":"79055661031","distractor":"79055666031","target":"present","response":"absent","rt":"4822.1000000238","correct":false,"confidence":2},{"trial_n":22,"span":10,"encoder":"4477527771","distractor":"4477557771","target":"absent","response":"present","rt":"2194.6000000238","correct":false,"confidence":3},{"trial_n":23,"span":9,"encoder":"768546958","distractor":"768146958","target":"absent","response":"absent","rt":"4746.2000000477","correct":true,"confidence":2},{"trial_n":24,"span":9,"encoder":"406868495","distractor":"406668495","target":"absent","response":"absent","rt":"3096.2999999523","correct":true,"confidence":3},{"trial_n":25,"span":10,"encoder":"1187516187","distractor":"1787516187","target":"absent","response":"absent","rt":"2146.1999999285","correct":true,"confidence":3},{"trial_n":26,"span":10,"encoder":"3096764928","distractor":"3096764828","target":"present","response":"present","rt":"4326","correct":true,"confidence":3},{"trial_n":27,"span":11,"encoder":"48053791183","distractor":"68053791183","target":"present","response":"present","rt":"3031.2000000477","correct":true,"confidence":3},{"trial_n":28,"span":11,"encoder":"87608783218","distractor":"87708783218","target":"present","response":"present","rt":"6521.1000000238","correct":true,"confidence":1},{"trial_n":29,"span":12,"encoder":"172111149200","distractor":"172101149200","target":"absent","response":"present","rt":"5872.1999999285","correct":false,"confidence":2},{"trial_n":30,"span":11,"encoder":"27453316800","distractor":"23453316800","target":"absent","response":"present","rt":"5766","correct":false,"confidence":2},{"trial_n":31,"span":10,"encoder":"8995955715","distractor":"8995955710","target":"present","response":"present","rt":"4384","correct":true,"confidence":2},{"trial_n":32,"span":10,"encoder":"8116073878","distractor":"8166073878","target":"present","response":"absent","rt":"5079.6000000238","correct":false,"confidence":3},{"trial_n":33,"span":9,"encoder":"966460555","distractor":"966860555","target":"present","response":"present","rt":"3607.6000000238","correct":true,"confidence":3},{"trial_n":34,"span":9,"encoder":"235178181","distractor":"235188181","target":"present","response":"present","rt":"2389.5","correct":true,"confidence":3},{"trial_n":35,"span":10,"encoder":"8296541873","distractor":"8296541833","target":"absent","response":"present","rt":"2826.1000000238","correct":false,"confidence":3},{"trial_n":36,"span":9,"encoder":"107422404","distractor":"507422404","target":"absent","response":"absent","rt":"3576.1000000238","correct":true,"confidence":2},{"trial_n":37,"span":9,"encoder":"084249145","distractor":"084249745","target":"absent","response":"present","rt":"4460.1999999285","correct":false,"confidence":3},{"trial_n":38,"span":8,"encoder":"83354225","distractor":"83374225","target":"absent","response":"absent","rt":"4473.1000000238","correct":true,"confidence":3},{"trial_n":39,"span":8,"encoder":"50088611","distractor":"50288611","target":"present","response":"present","rt":"2176.6000000238","correct":true,"confidence":3},{"trial_n":40,"span":9,"encoder":"634983108","distractor":"614983108","target":"present","response":"present","rt":"10595.699999928","correct":true,"confidence":3},{"trial_n":41,"span":9,"encoder":"483919702","distractor":"493919702","target":"present","response":"present","rt":"3172.5","correct":true,"confidence":4},{"trial_n":42,"span":10,"encoder":"4689071286","distractor":"4681071286","target":"present","response":"present","rt":"3004.8000000715","correct":true,"confidence":3},{"trial_n":43,"span":10,"encoder":"4743313797","distractor":"4740313797","target":"present","response":"present","rt":"3103.5","correct":true,"confidence":4},{"trial_n":44,"span":11,"encoder":"30009161102","distractor":"30006161102","target":"present","response":"present","rt":"4236.8999999762","correct":true,"confidence":4},{"trial_n":45,"span":11,"encoder":"15431729980","distractor":"15434729980","target":"absent","response":"present","rt":"2979.6999999285","correct":false,"confidence":4},{"trial_n":46,"span":10,"encoder":"6575436628","distractor":"6576436628","target":"present","response":"present","rt":"3316.2999999523","correct":true,"confidence":4},{"trial_n":47,"span":10,"encoder":"6398043761","distractor":"6398043731","target":"absent","response":"present","rt":"4773.1000000238","correct":false,"confidence":3},{"trial_n":48,"span":9,"encoder":"226058939","distractor":"226758939","target":"absent","response":"present","rt":"3668.2000000477","correct":false,"confidence":3},{"trial_n":49,"span":8,"encoder":"81391405","distractor":"81399405","target":"absent","response":"present","rt":"2100.5","correct":false,"confidence":3},{"trial_n":50,"span":7,"encoder":"4875908","distractor":"4870908","target":"absent","response":"absent","rt":"4065.2000000477","correct":true,"confidence":3},{"trial_n":51,"span":7,"encoder":"3554505","distractor":"3553505","target":"absent","response":"present","rt":"2846.6999999285","correct":false,"confidence":3},{"trial_n":52,"span":6,"encoder":"889388","distractor":"882388","target":"absent","response":"absent","rt":"3429.5","correct":true,"confidence":4},{"trial_n":53,"span":6,"encoder":"120230","distractor":"129230","target":"present","response":"present","rt":"1974.7000000477","correct":true,"confidence":4},{"trial_n":54,"span":7,"encoder":"2805465","distractor":"2705465","target":"absent","response":"absent","rt":"3220.3000000715","correct":true,"confidence":4},{"trial_n":55,"span":7,"encoder":"9261795","distractor":"7261795","target":"absent","response":"absent","rt":"5276.2999999523","correct":true,"confidence":4},{"trial_n":56,"span":8,"encoder":"12115455","distractor":"12113455","target":"absent","response":"absent","rt":"3940.8000000715","correct":true,"confidence":4},{"trial_n":57,"span":8,"encoder":"21159739","distractor":"21157739","target":"present","response":"present","rt":"3959","correct":true,"confidence":3},{"trial_n":58,"span":9,"encoder":"360948211","distractor":"360948281","target":"present","response":"present","rt":"2650","correct":true,"confidence":3},{"trial_n":59,"span":9,"encoder":"125226613","distractor":"825226613","target":"absent","response":"absent","rt":"3792.7000000477","correct":true,"confidence":3},{"trial_n":60,"span":10,"encoder":"0334498682","distractor":"0334448682","target":"present","response":"present","rt":"2681.8999999762","correct":true,"confidence":3},{"trial_n":61,"span":10,"encoder":"7293630961","distractor":"7593630961","target":"present","response":"present","rt":"3067.6000000238","correct":true,"confidence":3},{"trial_n":62,"span":11,"encoder":"29083835835","distractor":"29003835835","target":"present","response":"present","rt":"3543.7000000477","correct":true,"confidence":4},{"trial_n":63,"span":11,"encoder":"45918785422","distractor":"45914785422","target":"present","response":"present","rt":"2644.1999999285","correct":true,"confidence":4},{"trial_n":64,"span":12,"encoder":"816704227021","distractor":"816704228021","target":"absent","response":"present","rt":"3024.5","correct":false,"confidence":3},{"trial_n":65,"span":11,"encoder":"09462481100","distractor":"09462491100","target":"absent","response":"absent","rt":"3812.8999999762","correct":true,"confidence":3},{"trial_n":66,"span":11,"encoder":"54387278037","distractor":"54387228037","target":"present","response":"present","rt":"2681.1000000238","correct":true,"confidence":3},{"trial_n":67,"span":12,"encoder":"962756567847","distractor":"962706567847","target":"absent","response":"absent","rt":"4786.5","correct":true,"confidence":5},{"trial_n":68,"span":12,"encoder":"664279486175","distractor":"674279486175","target":"absent","response":"present","rt":"3489.8000000715","correct":false,"confidence":3},{"trial_n":69,"span":11,"encoder":"95433612594","distractor":"95463612594","target":"absent","response":"absent","rt":"7844.1000000238","correct":true,"confidence":3},{"trial_n":70,"span":11,"encoder":"55135050890","distractor":"57135050890","target":"present","response":"present","rt":"7204.6999999285","correct":true,"confidence":4},{"trial_n":71,"span":8,"encoder":"98283541","distractor":"78283541","target":"present","response":"present","rt":"2216.5","correct":true,"confidence":-1},{"trial_n":72,"span":8,"encoder":"73420725","distractor":"73420745","target":"present","response":"present","rt":"2409.5","correct":true,"confidence":-1},{"trial_n":73,"span":9,"encoder":"580313901","distractor":"590313901","target":"absent","response":"absent","rt":"2699.7999999523","correct":true,"confidence":-1},{"trial_n":74,"span":9,"encoder":"792284256","distractor":"797284256","target":"absent","response":"absent","rt":"3738.0999999046","correct":true,"confidence":-1},{"trial_n":75,"span":10,"encoder":"3977233651","distractor":"3977833651","target":"present","response":"present","rt":"8034","correct":true,"confidence":-1},{"trial_n":76,"span":10,"encoder":"9574420582","distractor":"9574470582","target":"present","response":"absent","rt":"7270.6999999285","correct":false,"confidence":-1},{"trial_n":77,"span":9,"encoder":"828141185","distractor":"828141180","target":"absent","response":"absent","rt":"7983","correct":true,"confidence":-1},{"trial_n":78,"span":9,"encoder":"610972621","distractor":"610975621","target":"absent","response":"absent","rt":"5817.5","correct":true,"confidence":-1},{"trial_n":79,"span":10,"encoder":"5458730863","distractor":"5458530863","target":"absent","response":"absent","rt":"6272.3999999762","correct":true,"confidence":-1},{"trial_n":80,"span":10,"encoder":"0896067386","distractor":"0893067386","target":"present","response":"absent","rt":"7892","correct":false,"confidence":-1},{"trial_n":81,"span":9,"encoder":"901500010","distractor":"971500010","target":"absent","response":"absent","rt":"4985.3999999762","correct":true,"confidence":-1},{"trial_n":82,"span":9,"encoder":"561175111","distractor":"561175115","target":"absent","response":"absent","rt":"1503.6000000238","correct":true,"confidence":-1},{"trial_n":83,"span":10,"encoder":"6785161822","distractor":"6785661822","target":"present","response":"present","rt":"7263.3000000715","correct":true,"confidence":-1},{"trial_n":84,"span":10,"encoder":"6286620268","distractor":"6286620261","target":"present","response":"present","rt":"2124.8999999762","correct":true,"confidence":-1},{"trial_n":85,"span":11,"encoder":"70729146099","distractor":"70729846099","target":"present","response":"present","rt":"4838.3000000715","correct":true,"confidence":-1},{"trial_n":86,"span":11,"encoder":"64979846067","distractor":"04979846067","target":"absent","response":"present","rt":"4567.8999999762","correct":false,"confidence":-1},{"trial_n":87,"span":10,"encoder":"2876315914","distractor":"2776315914","target":"present","response":"present","rt":"8084.1000000238","correct":true,"confidence":-1},{"trial_n":88,"span":10,"encoder":"8807580667","distractor":"8807580167","target":"absent","response":"absent","rt":"2285.7000000477","correct":true,"confidence":-1},{"trial_n":89,"span":11,"encoder":"72807259140","distractor":"72807249140","target":"present","response":"present","rt":"2765.8999999762","correct":true,"confidence":-1},{"trial_n":90,"span":11,"encoder":"91242627799","distractor":"91242627739","target":"absent","response":"absent","rt":"2108.6000000238","correct":true,"confidence":-1},{"trial_n":91,"span":12,"encoder":"518303261855","distractor":"218303261855","target":"present","response":"absent","rt":"6785.2000000477","correct":false,"confidence":2},{"trial_n":92,"span":11,"encoder":"20546690060","distractor":"20446690060","target":"present","response":"present","rt":"6444.6000000238","correct":true,"confidence":3},{"trial_n":93,"span":11,"encoder":"79344534388","distractor":"79344534378","target":"present","response":"present","rt":"2064.1000000238","correct":true,"confidence":4},{"trial_n":94,"span":12,"encoder":"517882223092","distractor":"517802223092","target":"present","response":"present","rt":"10799.200000048","correct":true,"confidence":3},{"trial_n":95,"span":12,"encoder":"570687981176","distractor":"530687981176","target":"absent","response":"present","rt":"4791.3000000715","correct":false,"confidence":1},{"trial_n":96,"span":11,"encoder":"54893231995","distractor":"34893231995","target":"absent","response":"absent","rt":"2755.1000000238","correct":true,"confidence":3},{"trial_n":97,"span":11,"encoder":"15954513128","distractor":"15954518128","target":"present","response":"present","rt":"2799","correct":true,"confidence":5},{"trial_n":98,"span":12,"encoder":"546206167641","distractor":"546207167641","target":"present","response":"absent","rt":"4151.7000000477","correct":false,"confidence":3},{"trial_n":99,"span":11,"encoder":"89488492882","distractor":"89488472882","target":"present","response":"present","rt":"4466","correct":true,"confidence":4},{"trial_n":100,"span":11,"encoder":"05205790275","distractor":"05205790475","target":"absent","response":"absent","rt":"5732.2000000477","correct":true,"confidence":3},{"trial_n":101,"span":12,"encoder":"582990287688","distractor":"582990280688","target":"present","response":"present","rt":"8766.7999999523","correct":true,"confidence":2},{"trial_n":102,"span":12,"encoder":"135401229294","distractor":"135401224294","target":"present","response":"present","rt":"8191.1000000238","correct":true,"confidence":3},{"trial_n":103,"span":13,"encoder":"7275580720078","distractor":"7273580720078","target":"absent","response":"absent","rt":"2847.1000000238","correct":true,"confidence":4},{"trial_n":104,"span":13,"encoder":"2768245586454","distractor":"2768245580454","target":"present","response":"present","rt":"5644.7000000477","correct":true,"confidence":4},{"trial_n":105,"span":14,"encoder":"10114592608337","distractor":"10114192608337","target":"absent","response":"present","rt":"7824.8999999762","correct":false,"confidence":3},{"trial_n":106,"span":13,"encoder":"4910844162565","distractor":"4910844162561","target":"present","response":"present","rt":"6455","correct":true,"confidence":2},{"trial_n":107,"span":13,"encoder":"7173026611128","distractor":"7173066611128","target":"absent","response":"absent","rt":"5601.2000000477","correct":true,"confidence":4},{"trial_n":108,"span":14,"encoder":"24231034968481","distractor":"24231034963481","target":"present","response":"present","rt":"9201.9000000954","correct":true,"confidence":5},{"trial_n":109,"span":14,"encoder":"05124430027285","distractor":"05124430027288","target":"present","response":"present","rt":"1942.2999999523","correct":true,"confidence":5},{"trial_n":110,"span":15,"encoder":"181593285142697","distractor":"181593285132697","target":"absent","response":"absent","rt":"4821","correct":true,"confidence":4},{"trial_n":111,"span":15,"encoder":"285718384778065","distractor":"281718384778065","target":"absent","response":"absent","rt":"7581","correct":true,"confidence":2},{"trial_n":112,"span":16,"encoder":"5340815546828561","distractor":"9340815546828561","target":"absent","response":"absent","rt":"5302.5","correct":true,"confidence":3},{"trial_n":113,"span":16,"encoder":"2712589026851396","distractor":"2712599026851396","target":"absent","response":"absent","rt":"4843","correct":true,"confidence":4},{"trial_n":114,"span":17,"encoder":"65898248446806811","distractor":"65898848446806811","target":"absent","response":"present","rt":"8250.3999999762","correct":false,"confidence":3},{"trial_n":115,"span":16,"encoder":"4133933401706675","distractor":"4133933431706675","target":"absent","response":"absent","rt":"9584.6000000238","correct":true,"confidence":3},{"trial_n":116,"span":16,"encoder":"5098782206623295","distractor":"5098882206623295","target":"present","response":"present","rt":"5951.7999999523","correct":true,"confidence":4},{"trial_n":117,"span":17,"encoder":"60035925392805123","distractor":"61035925392805123","target":"present","response":"present","rt":"1904.0999999046","correct":true,"confidence":5},{"trial_n":118,"span":17,"encoder":"36732174292306264","distractor":"36732174992306264","target":"present","response":"present","rt":"10397","correct":true,"confidence":2},{"trial_n":119,"span":18,"encoder":"782445055422253865","distractor":"782445055428253865","target":"absent","response":"present","rt":"6460.0999999046","correct":false,"confidence":4},{"trial_n":120,"span":17,"encoder":"39022738869687798","distractor":"39022738869687708","target":"absent","response":"absent","rt":"1913.1000000238","correct":true,"confidence":5},{"trial_n":121,"span":17,"encoder":"40690983824100486","distractor":"40620983824100486","target":"present","response":"absent","rt":"10866.699999928","correct":false,"confidence":1},{"trial_n":122,"span":16,"encoder":"6603003899369048","distractor":"4603003899369048","target":"present","response":"present","rt":"5496.3999999762","correct":true,"confidence":3},{"trial_n":123,"span":16,"encoder":"9510467187354526","distractor":"9510467187354521","target":"absent","response":"absent","rt":"1600.5","correct":true,"confidence":5},{"trial_n":124,"span":17,"encoder":"65272929243033141","distractor":"65272929243033147","target":"absent","response":"absent","rt":"3803","correct":true,"confidence":5},{"trial_n":125,"span":17,"encoder":"77783950126399770","distractor":"77983950126399770","target":"absent","response":"present","rt":"3005.7999999523","correct":false,"confidence":5},{"trial_n":126,"span":16,"encoder":"1549429789988863","distractor":"5549429789988863","target":"absent","response":"present","rt":"7967.6000000238","correct":false,"confidence":4},{"trial_n":127,"span":15,"encoder":"794799989528549","distractor":"794899989528549","target":"present","response":"absent","rt":"5906.2999999523","correct":false,"confidence":3},{"trial_n":128,"span":14,"encoder":"63550948198853","distractor":"63550948198253","target":"present","response":"present","rt":"2661.0999999046","correct":true,"confidence":5},{"trial_n":129,"span":14,"encoder":"81276768361125","distractor":"81270768361125","target":"absent","response":"absent","rt":"5643.5","correct":true,"confidence":3},{"trial_n":130,"span":15,"encoder":"350838703150716","distractor":"350838700150716","target":"present","response":"present","rt":"9846.6000000238","correct":true,"confidence":3},{"trial_n":131,"span":15,"encoder":"787269921473765","distractor":"787269921473365","target":"present","response":"present","rt":"8738.5","correct":true,"confidence":3},{"trial_n":132,"span":16,"encoder":"9499457335813306","distractor":"9499487335813306","target":"present","response":"present","rt":"14132.899999976","correct":true,"confidence":2},{"trial_n":133,"span":16,"encoder":"7343636831724118","distractor":"7343636831784118","target":"absent","response":"absent","rt":"3791.1999999285","correct":true,"confidence":5},{"trial_n":134,"span":17,"encoder":"34287515895997167","distractor":"64287515895997167","target":"present","response":"present","rt":"7354.1000000238","correct":true,"confidence":2},{"trial_n":135,"span":17,"encoder":"10182298201293364","distractor":"10182298201093364","target":"present","response":"present","rt":"10629.699999928","correct":true,"confidence":2},{"trial_n":136,"span":18,"encoder":"046164288790899413","distractor":"046164288792899413","target":"absent","response":"present","rt":"12533.5","correct":false,"confidence":1},{"trial_n":137,"span":17,"encoder":"87484308588436330","distractor":"86484308588436330","target":"absent","response":"absent","rt":"7119.1999999285","correct":true,"confidence":4},{"trial_n":138,"span":17,"encoder":"01273415540404895","distractor":"01273435540404895","target":"present","response":"present","rt":"6579.5","correct":true,"confidence":4},{"trial_n":139,"span":18,"encoder":"228361366437978988","distractor":"238361366437978988","target":"absent","response":"present","rt":"5863.8999999762","correct":false,"confidence":2},{"trial_n":140,"span":17,"encoder":"02240113088343747","distractor":"02240113088343743","target":"absent","response":"absent","rt":"2526.4000000954","correct":true,"confidence":5}]