[{"trial_n":1,"n_dots":4.25,"target":"left","response":"right","rt":6041.099999994,"correct":false,"confidence":-1},{"trial_n":2,"n_dots":4.25,"target":"right","response":"right","rt":1046.3999999762,"correct":true,"confidence":-1},{"trial_n":3,"n_dots":4.25,"target":"right","response":"right","rt":1560.599999994,"correct":true,"confidence":-1},{"trial_n":4,"n_dots":3.85,"target":"left","response":"left","rt":864.79999998212,"correct":true,"confidence":-1},{"trial_n":5,"n_dots":3.85,"target":"left","response":"left","rt":865.30000001192,"correct":true,"confidence":-1},{"trial_n":6,"n_dots":3.45,"target":"left","response":"left","rt":633.5,"correct":true,"confidence":-1},{"trial_n":7,"n_dots":3.45,"target":"left","response":"right","rt":1711.599999994,"correct":false,"confidence":-1},{"trial_n":8,"n_dots":3.65,"target":"left","response":"right","rt":1092.3000000119,"correct":false,"confidence":-1},{"trial_n":9,"n_dots":3.85,"target":"right","response":"right","rt":879.80000001192,"correct":true,"confidence":-1},{"trial_n":10,"n_dots":3.85,"target":"right","response":"right","rt":877.59999999404,"correct":true,"confidence":-1},{"trial_n":11,"n_dots":3.65,"target":"left","response":"left","rt":927.5,"correct":true,"confidence":-1},{"trial_n":12,"n_dots":3.65,"target":"right","response":"right","rt":757.20000001788,"correct":true,"confidence":-1},{"trial_n":13,"n_dots":3.55,"target":"right","response":"right","rt":928.90000000596,"correct":true,"confidence":-1},{"trial_n":14,"n_dots":3.55,"target":"right","response":"left","rt":1924.400000006,"correct":false,"confidence":-1},{"trial_n":15,"n_dots":3.65,"target":"left","response":"left","rt":1203.3999999762,"correct":true,"confidence":-1},{"trial_n":16,"n_dots":3.65,"target":"right","response":"right","rt":917.30000001192,"correct":true,"confidence":-1},{"trial_n":17,"n_dots":3.55,"target":"right","response":"right","rt":720.89999997616,"correct":true,"confidence":-1},{"trial_n":18,"n_dots":3.55,"target":"left","response":"left","rt":1049.599999994,"correct":true,"confidence":-1},{"trial_n":19,"n_dots":3.45,"target":"left","response":"left","rt":793.19999998808,"correct":true,"confidence":-1},{"trial_n":20,"n_dots":3.45,"target":"right","response":"right","rt":942.59999999404,"correct":true,"confidence":-1},{"trial_n":21,"n_dots":3.35,"target":"right","response":"right","rt":835,"correct":true,"confidence":4},{"trial_n":22,"n_dots":3.35,"target":"left","response":"left","rt":767.19999998808,"correct":true,"confidence":5},{"trial_n":23,"n_dots":3.25,"target":"left","response":"left","rt":1366,"correct":true,"confidence":4},{"trial_n":24,"n_dots":3.25,"target":"right","response":"right","rt":849.09999999404,"correct":true,"confidence":4},{"trial_n":25,"n_dots":3.15,"target":"right","response":"right","rt":1734.900000006,"correct":true,"confidence":3},{"trial_n":26,"n_dots":3.15,"target":"left","response":"left","rt":1001.8000000119,"correct":true,"confidence":2},{"trial_n":27,"n_dots":3.05,"target":"left","response":"left","rt":1596,"correct":true,"confidence":4},{"trial_n":28,"n_dots":3.05,"target":"left","response":"left","rt":989.80000001192,"correct":true,"confidence":4},{"trial_n":29,"n_dots":2.95,"target":"left","response":"left","rt":979.20000001788,"correct":true,"confidence":3},{"trial_n":30,"n_dots":2.95,"target":"left","response":"left","rt":852,"correct":true,"confidence":4},{"trial_n":31,"n_dots":2.85,"target":"right","response":"right","rt":1651.099999994,"correct":true,"confidence":3},{"trial_n":32,"n_dots":2.85,"target":"right","response":"right","rt":1203.3000000119,"correct":true,"confidence":4},{"trial_n":33,"n_dots":2.75,"target":"left","response":"left","rt":982.59999999404,"correct":true,"confidence":2},{"trial_n":34,"n_dots":2.75,"target":"right","response":"right","rt":878.40000000596,"correct":true,"confidence":3},{"trial_n":35,"n_dots":2.65,"target":"right","response":"right","rt":938.19999998808,"correct":true,"confidence":4},{"trial_n":36,"n_dots":2.65,"target":"left","response":"right","rt":1628.2000000179,"correct":false,"confidence":3},{"trial_n":37,"n_dots":2.75,"target":"left","response":"left","rt":778.09999999404,"correct":true,"confidence":4},{"trial_n":38,"n_dots":2.75,"target":"left","response":"left","rt":897.90000000596,"correct":true,"confidence":3},{"trial_n":39,"n_dots":2.65,"target":"right","response":"right","rt":786.90000000596,"correct":true,"confidence":5},{"trial_n":40,"n_dots":2.65,"target":"right","response":"right","rt":938.80000001192,"correct":true,"confidence":3},{"trial_n":41,"n_dots":2.55,"target":"right","response":"right","rt":1121.099999994,"correct":true,"confidence":3},{"trial_n":42,"n_dots":2.55,"target":"right","response":"right","rt":972.90000000596,"correct":true,"confidence":3},{"trial_n":43,"n_dots":2.45,"target":"left","response":"left","rt":967.5,"correct":true,"confidence":2},{"trial_n":44,"n_dots":2.45,"target":"left","response":"left","rt":1365.2999999821,"correct":true,"confidence":3},{"trial_n":45,"n_dots":2.35,"target":"right","response":"right","rt":1632,"correct":true,"confidence":2},{"trial_n":46,"n_dots":2.35,"target":"right","response":"right","rt":820,"correct":true,"confidence":4},{"trial_n":47,"n_dots":2.25,"target":"left","response":"left","rt":761.80000001192,"correct":true,"confidence":4},{"trial_n":48,"n_dots":2.25,"target":"right","response":"right","rt":1109.5,"correct":true,"confidence":2},{"trial_n":49,"n_dots":2.15,"target":"right","response":"left","rt":857.59999999404,"correct":false,"confidence":3},{"trial_n":50,"n_dots":2.25,"target":"left","response":"left","rt":759.09999999404,"correct":true,"confidence":3},{"trial_n":51,"n_dots":2.25,"target":"right","response":"right","rt":1998.7000000179,"correct":true,"confidence":2},{"trial_n":52,"n_dots":2.15,"target":"left","response":"left","rt":930.20000001788,"correct":true,"confidence":4},{"trial_n":53,"n_dots":2.15,"target":"right","response":"right","rt":1082.400000006,"correct":true,"confidence":4},{"trial_n":54,"n_dots":2.05,"target":"right","response":"left","rt":1125.400000006,"correct":false,"confidence":3},{"trial_n":55,"n_dots":2.15,"target":"right","response":"right","rt":1106.6000000238,"correct":true,"confidence":3},{"trial_n":56,"n_dots":2.15,"target":"right","response":"right","rt":1144.1999999881,"correct":true,"confidence":3},{"trial_n":57,"n_dots":2.05,"target":"right","response":"left","rt":948.19999998808,"correct":false,"confidence":3},{"trial_n":58,"n_dots":2.15,"target":"left","response":"left","rt":981.90000000596,"correct":true,"confidence":2},{"trial_n":59,"n_dots":2.15,"target":"right","response":"right","rt":1062,"correct":true,"confidence":2},{"trial_n":60,"n_dots":2.05,"target":"left","response":"left","rt":902.59999999404,"correct":true,"confidence":3},{"trial_n":61,"n_dots":2.05,"target":"right","response":"right","rt":721.40000000596,"correct":true,"confidence":4},{"trial_n":62,"n_dots":1.95,"target":"left","response":"left","rt":1131.400000006,"correct":true,"confidence":4},{"trial_n":63,"n_dots":1.95,"target":"left","response":"left","rt":990.40000000596,"correct":true,"confidence":4},{"trial_n":64,"n_dots":1.85,"target":"left","response":"right","rt":659.40000000596,"correct":false,"confidence":4},{"trial_n":65,"n_dots":1.95,"target":"left","response":"left","rt":963.80000001192,"correct":true,"confidence":3},{"trial_n":66,"n_dots":1.95,"target":"right","response":"right","rt":807.20000001788,"correct":true,"confidence":3},{"trial_n":67,"n_dots":1.85,"target":"right","response":"left","rt":933.39999997616,"correct":false,"confidence":2},{"trial_n":68,"n_dots":1.95,"target":"right","response":"right","rt":735.30000001192,"correct":true,"confidence":3},{"trial_n":69,"n_dots":1.95,"target":"left","response":"left","rt":967.80000001192,"correct":true,"confidence":4},{"trial_n":70,"n_dots":1.85,"target":"left","response":"left","rt":995.30000001192,"correct":true,"confidence":3},{"trial_n":71,"n_dots":1.85,"target":"right","response":"left","rt":1257,"correct":false,"confidence":2},{"trial_n":72,"n_dots":1.95,"target":"right","response":"right","rt":1258.099999994,"correct":true,"confidence":3},{"trial_n":73,"n_dots":1.95,"target":"left","response":"left","rt":985.5,"correct":true,"confidence":2},{"trial_n":74,"n_dots":1.85,"target":"left","response":"left","rt":2550.7999999821,"correct":true,"confidence":1},{"trial_n":75,"n_dots":1.85,"target":"left","response":"right","rt":1575.400000006,"correct":false,"confidence":2},{"trial_n":76,"n_dots":1.95,"target":"left","response":"right","rt":869.40000000596,"correct":false,"confidence":3},{"trial_n":77,"n_dots":2.05,"target":"right","response":"right","rt":810.79999998212,"correct":true,"confidence":3},{"trial_n":78,"n_dots":2.05,"target":"right","response":"right","rt":867.40000000596,"correct":true,"confidence":4},{"trial_n":79,"n_dots":1.95,"target":"left","response":"left","rt":994.5,"correct":true,"confidence":4},{"trial_n":80,"n_dots":1.95,"target":"right","response":"right","rt":1380.900000006,"correct":true,"confidence":4},{"trial_n":81,"n_dots":1.85,"target":"right","response":"right","rt":754.80000001192,"correct":true,"confidence":3},{"trial_n":82,"n_dots":1.85,"target":"left","response":"left","rt":737.90000000596,"correct":true,"confidence":3},{"trial_n":83,"n_dots":1.75,"target":"right","response":"left","rt":1004.5,"correct":false,"confidence":3},{"trial_n":84,"n_dots":1.85,"target":"right","response":"right","rt":783.80000001192,"correct":true,"confidence":3},{"trial_n":85,"n_dots":1.85,"target":"left","response":"right","rt":1496.3000000119,"correct":false,"confidence":2},{"trial_n":86,"n_dots":1.95,"target":"right","response":"right","rt":817.20000001788,"correct":true,"confidence":2},{"trial_n":87,"n_dots":1.95,"target":"right","response":"left","rt":1413.5,"correct":false,"confidence":2},{"trial_n":88,"n_dots":2.05,"target":"left","response":"right","rt":774.39999997616,"correct":false,"confidence":3},{"trial_n":89,"n_dots":2.15,"target":"right","response":"right","rt":1522.599999994,"correct":true,"confidence":3},{"trial_n":90,"n_dots":2.15,"target":"right","response":"left","rt":1459.3000000119,"correct":false,"confidence":2},{"trial_n":91,"n_dots":2.25,"target":"left","response":"left","rt":960.90000000596,"correct":true,"confidence":4},{"trial_n":92,"n_dots":2.25,"target":"right","response":"right","rt":863.40000000596,"correct":true,"confidence":4},{"trial_n":93,"n_dots":2.15,"target":"left","response":"left","rt":1179.3000000119,"correct":true,"confidence":2},{"trial_n":94,"n_dots":2.15,"target":"right","response":"left","rt":902.60000002384,"correct":false,"confidence":3},{"trial_n":95,"n_dots":2.25,"target":"left","response":"right","rt":793.09999999404,"correct":false,"confidence":3},{"trial_n":96,"n_dots":2.35,"target":"left","response":"left","rt":759.09999999404,"correct":true,"confidence":4},{"trial_n":97,"n_dots":2.35,"target":"left","response":"right","rt":753.19999998808,"correct":false,"confidence":3},{"trial_n":98,"n_dots":2.45,"target":"right","response":"right","rt":739.79999998212,"correct":true,"confidence":4},{"trial_n":99,"n_dots":2.45,"target":"left","response":"right","rt":1010.3000000119,"correct":false,"confidence":3},{"trial_n":100,"n_dots":2.55,"target":"left","response":"left","rt":1625.400000006,"correct":true,"confidence":3},{"trial_n":101,"n_dots":2.55,"target":"left","response":"left","rt":907.59999999404,"correct":true,"confidence":3},{"trial_n":102,"n_dots":2.45,"target":"left","response":"left","rt":776.20000001788,"correct":true,"confidence":4},{"trial_n":103,"n_dots":2.45,"target":"left","response":"right","rt":849,"correct":false,"confidence":3},{"trial_n":104,"n_dots":2.55,"target":"left","response":"left","rt":899.09999999404,"correct":true,"confidence":2},{"trial_n":105,"n_dots":2.55,"target":"right","response":"left","rt":1097.900000006,"correct":false,"confidence":1},{"trial_n":106,"n_dots":2.65,"target":"right","response":"right","rt":900.59999999404,"correct":true,"confidence":3},{"trial_n":107,"n_dots":2.65,"target":"left","response":"left","rt":1113.5,"correct":true,"confidence":2},{"trial_n":108,"n_dots":2.55,"target":"right","response":"right","rt":840.70000001788,"correct":true,"confidence":2},{"trial_n":109,"n_dots":2.55,"target":"right","response":"right","rt":892.89999997616,"correct":true,"confidence":3},{"trial_n":110,"n_dots":2.45,"target":"right","response":"right","rt":822.59999999404,"correct":true,"confidence":3},{"trial_n":111,"n_dots":2.45,"target":"left","response":"left","rt":819,"correct":true,"confidence":2},{"trial_n":112,"n_dots":2.35,"target":"left","response":"right","rt":738.69999998808,"correct":false,"confidence":3},{"trial_n":113,"n_dots":2.45,"target":"right","response":"right","rt":1162.7999999821,"correct":true,"confidence":3},{"trial_n":114,"n_dots":2.45,"target":"right","response":"right","rt":837,"correct":true,"confidence":2},{"trial_n":115,"n_dots":2.35,"target":"right","response":"right","rt":920.20000001788,"correct":true,"confidence":2},{"trial_n":116,"n_dots":2.35,"target":"left","response":"left","rt":937.69999998808,"correct":true,"confidence":2},{"trial_n":117,"n_dots":2.25,"target":"left","response":"left","rt":886.20000001788,"correct":true,"confidence":2},{"trial_n":118,"n_dots":2.25,"target":"left","response":"right","rt":787.70000001788,"correct":false,"confidence":3},{"trial_n":119,"n_dots":2.35,"target":"left","response":"right","rt":920.80000001192,"correct":false,"confidence":2},{"trial_n":120,"n_dots":2.45,"target":"right","response":"right","rt":605.59999999404,"correct":true,"confidence":3}]