[{"trial_n":1,"n_dots":4.25,"target":"right","response":"left","rt":2095,"correct":false,"confidence":-1},{"trial_n":2,"n_dots":4.25,"target":"right","response":"right","rt":1901,"correct":true,"confidence":-1},{"trial_n":3,"n_dots":4.25,"target":"left","response":"left","rt":743,"correct":true,"confidence":-1},{"trial_n":4,"n_dots":3.85,"target":"left","response":"right","rt":2647,"correct":false,"confidence":-1},{"trial_n":5,"n_dots":4.25,"target":"right","response":"left","rt":782,"correct":false,"confidence":-1},{"trial_n":6,"n_dots":4.65,"target":"left","response":"right","rt":5893,"correct":false,"confidence":-1},{"trial_n":7,"n_dots":5.05,"target":"right","response":"right","rt":524.00000000001,"correct":true,"confidence":-1},{"trial_n":8,"n_dots":5.05,"target":"left","response":"left","rt":121,"correct":true,"confidence":-1},{"trial_n":9,"n_dots":4.85,"target":"left","response":"left","rt":324.99999999999,"correct":true,"confidence":-1},{"trial_n":10,"n_dots":4.85,"target":"left","response":"left","rt":2540,"correct":true,"confidence":-1},{"trial_n":11,"n_dots":4.65,"target":"left","response":"left","rt":1215,"correct":true,"confidence":-1},{"trial_n":12,"n_dots":4.65,"target":"right","response":"right","rt":502,"correct":true,"confidence":-1},{"trial_n":13,"n_dots":4.55,"target":"left","response":"left","rt":732.99999999999,"correct":true,"confidence":-1},{"trial_n":14,"n_dots":4.55,"target":"right","response":"right","rt":919,"correct":true,"confidence":-1},{"trial_n":15,"n_dots":4.45,"target":"left","response":"left","rt":681,"correct":true,"confidence":-1},{"trial_n":16,"n_dots":4.45,"target":"right","response":"right","rt":386,"correct":true,"confidence":-1},{"trial_n":17,"n_dots":4.35,"target":"right","response":"right","rt":591,"correct":true,"confidence":-1},{"trial_n":18,"n_dots":4.35,"target":"left","response":"left","rt":73,"correct":true,"confidence":-1},{"trial_n":19,"n_dots":4.25,"target":"right","response":"right","rt":115,"correct":true,"confidence":-1},{"trial_n":20,"n_dots":4.25,"target":"left","response":"left","rt":1023,"correct":true,"confidence":-1},{"trial_n":21,"n_dots":4.15,"target":"left","response":"left","rt":345,"correct":true,"confidence":5},{"trial_n":22,"n_dots":4.15,"target":"left","response":"left","rt":1622,"correct":true,"confidence":4},{"trial_n":23,"n_dots":4.05,"target":"left","response":"right","rt":1434,"correct":false,"confidence":3},{"trial_n":24,"n_dots":4.15,"target":"left","response":"left","rt":4308,"correct":true,"confidence":3},{"trial_n":25,"n_dots":4.15,"target":"left","response":"right","rt":1597,"correct":false,"confidence":4},{"trial_n":26,"n_dots":4.25,"target":"left","response":"left","rt":1084,"correct":true,"confidence":4},{"trial_n":27,"n_dots":4.25,"target":"right","response":"right","rt":220,"correct":true,"confidence":5},{"trial_n":28,"n_dots":4.15,"target":"left","response":"left","rt":43,"correct":true,"confidence":5},{"trial_n":29,"n_dots":4.15,"target":"left","response":"left","rt":1223,"correct":true,"confidence":4},{"trial_n":30,"n_dots":4.05,"target":"left","response":"left","rt":903,"correct":true,"confidence":4},{"trial_n":31,"n_dots":4.05,"target":"left","response":"right","rt":210,"correct":false,"confidence":3},{"trial_n":32,"n_dots":4.15,"target":"right","response":"right","rt":1032,"correct":true,"confidence":3},{"trial_n":33,"n_dots":4.15,"target":"right","response":"right","rt":1984,"correct":true,"confidence":4},{"trial_n":34,"n_dots":4.05,"target":"left","response":"left","rt":636,"correct":true,"confidence":4},{"trial_n":35,"n_dots":4.05,"target":"left","response":"left","rt":528,"correct":true,"confidence":3},{"trial_n":36,"n_dots":3.95,"target":"right","response":"right","rt":89,"correct":true,"confidence":5},{"trial_n":37,"n_dots":3.95,"target":"left","response":"left","rt":642,"correct":true,"confidence":4},{"trial_n":38,"n_dots":3.85,"target":"right","response":"right","rt":1441,"correct":true,"confidence":5},{"trial_n":39,"n_dots":3.85,"target":"right","response":"right","rt":69,"correct":true,"confidence":4},{"trial_n":40,"n_dots":3.75,"target":"left","response":"left","rt":1185,"correct":true,"confidence":4},{"trial_n":41,"n_dots":3.75,"target":"right","response":"right","rt":176.99999999997,"correct":true,"confidence":4},{"trial_n":42,"n_dots":3.65,"target":"right","response":"right","rt":248,"correct":true,"confidence":4},{"trial_n":43,"n_dots":3.65,"target":"right","response":"right","rt":95,"correct":true,"confidence":4},{"trial_n":44,"n_dots":3.55,"target":"left","response":"left","rt":97,"correct":true,"confidence":4},{"trial_n":45,"n_dots":3.55,"target":"right","response":"right","rt":291.99999999997,"correct":true,"confidence":5},{"trial_n":46,"n_dots":3.45,"target":"left","response":"left","rt":218.99999999997,"correct":true,"confidence":4},{"trial_n":47,"n_dots":3.45,"target":"right","response":"right","rt":1399,"correct":true,"confidence":5},{"trial_n":48,"n_dots":3.35,"target":"left","response":"left","rt":1664,"correct":true,"confidence":4},{"trial_n":49,"n_dots":3.35,"target":"right","response":"right","rt":123.00000000003,"correct":true,"confidence":3},{"trial_n":50,"n_dots":3.25,"target":"right","response":"right","rt":116,"correct":true,"confidence":5},{"trial_n":51,"n_dots":3.25,"target":"left","response":"left","rt":906,"correct":true,"confidence":3},{"trial_n":52,"n_dots":3.15,"target":"right","response":"right","rt":770,"correct":true,"confidence":4},{"trial_n":53,"n_dots":3.15,"target":"right","response":"right","rt":1001,"correct":true,"confidence":4},{"trial_n":54,"n_dots":3.05,"target":"left","response":"right","rt":217.00000000003,"correct":false,"confidence":3},{"trial_n":55,"n_dots":3.15,"target":"left","response":"left","rt":376,"correct":true,"confidence":3},{"trial_n":56,"n_dots":3.15,"target":"left","response":"right","rt":397.99999999997,"correct":false,"confidence":2},{"trial_n":57,"n_dots":3.25,"target":"right","response":"right","rt":406,"correct":true,"confidence":3},{"trial_n":58,"n_dots":3.25,"target":"right","response":"right","rt":954.00000000003,"correct":true,"confidence":5},{"trial_n":59,"n_dots":3.15,"target":"right","response":"right","rt":896,"correct":true,"confidence":4},{"trial_n":60,"n_dots":3.15,"target":"right","response":"right","rt":1578,"correct":true,"confidence":4},{"trial_n":61,"n_dots":3.05,"target":"right","response":"right","rt":50.999999999971,"correct":true,"confidence":3},{"trial_n":62,"n_dots":3.05,"target":"left","response":"right","rt":504,"correct":false,"confidence":2},{"trial_n":63,"n_dots":3.15,"target":"right","response":"right","rt":325.99999999997,"correct":true,"confidence":2},{"trial_n":64,"n_dots":3.15,"target":"right","response":"right","rt":486,"correct":true,"confidence":3},{"trial_n":65,"n_dots":3.05,"target":"left","response":"right","rt":146,"correct":false,"confidence":2},{"trial_n":66,"n_dots":3.15,"target":"right","response":"right","rt":757,"correct":true,"confidence":2},{"trial_n":67,"n_dots":3.15,"target":"left","response":"right","rt":111.99999999997,"correct":false,"confidence":2},{"trial_n":68,"n_dots":3.25,"target":"right","response":"right","rt":611.99999999997,"correct":true,"confidence":5},{"trial_n":69,"n_dots":3.25,"target":"left","response":"left","rt":164,"correct":true,"confidence":2},{"trial_n":70,"n_dots":3.15,"target":"right","response":"right","rt":702,"correct":true,"confidence":5},{"trial_n":71,"n_dots":3.15,"target":"right","response":"right","rt":431,"correct":true,"confidence":3},{"trial_n":72,"n_dots":3.05,"target":"left","response":"right","rt":699.00000000006,"correct":false,"confidence":4},{"trial_n":73,"n_dots":3.15,"target":"right","response":"right","rt":252,"correct":true,"confidence":3},{"trial_n":74,"n_dots":3.15,"target":"left","response":"left","rt":500,"correct":true,"confidence":2},{"trial_n":75,"n_dots":3.05,"target":"left","response":"left","rt":451,"correct":true,"confidence":5},{"trial_n":76,"n_dots":3.05,"target":"right","response":"right","rt":322,"correct":true,"confidence":3},{"trial_n":77,"n_dots":2.95,"target":"left","response":"left","rt":118,"correct":true,"confidence":3},{"trial_n":78,"n_dots":2.95,"target":"right","response":"right","rt":1428,"correct":true,"confidence":5},{"trial_n":79,"n_dots":2.85,"target":"right","response":"right","rt":136,"correct":true,"confidence":5},{"trial_n":80,"n_dots":2.85,"target":"left","response":"left","rt":262,"correct":true,"confidence":3},{"trial_n":81,"n_dots":2.75,"target":"right","response":"right","rt":86,"correct":true,"confidence":4},{"trial_n":82,"n_dots":2.75,"target":"left","response":"left","rt":43,"correct":true,"confidence":3},{"trial_n":83,"n_dots":2.65,"target":"left","response":"right","rt":480,"correct":false,"confidence":4},{"trial_n":84,"n_dots":2.75,"target":"left","response":"left","rt":1090,"correct":true,"confidence":3},{"trial_n":85,"n_dots":2.75,"target":"left","response":"right","rt":434,"correct":false,"confidence":1},{"trial_n":86,"n_dots":2.85,"target":"right","response":"left","rt":842,"correct":false,"confidence":1},{"trial_n":87,"n_dots":2.95,"target":"left","response":"left","rt":660,"correct":true,"confidence":4},{"trial_n":88,"n_dots":2.95,"target":"right","response":"right","rt":467,"correct":true,"confidence":3},{"trial_n":89,"n_dots":2.85,"target":"left","response":"right","rt":160,"correct":false,"confidence":3},{"trial_n":90,"n_dots":2.95,"target":"left","response":"right","rt":121,"correct":false,"confidence":5},{"trial_n":91,"n_dots":3.05,"target":"right","response":"right","rt":296,"correct":true,"confidence":3},{"trial_n":92,"n_dots":3.05,"target":"right","response":"left","rt":519.99999999994,"correct":false,"confidence":3},{"trial_n":93,"n_dots":3.15,"target":"right","response":"right","rt":850.00000000006,"correct":true,"confidence":5},{"trial_n":94,"n_dots":3.15,"target":"right","response":"right","rt":184,"correct":true,"confidence":4},{"trial_n":95,"n_dots":3.05,"target":"right","response":"right","rt":250,"correct":true,"confidence":3},{"trial_n":96,"n_dots":3.05,"target":"right","response":"right","rt":64,"correct":true,"confidence":5},{"trial_n":97,"n_dots":2.95,"target":"right","response":"right","rt":1065,"correct":true,"confidence":4},{"trial_n":98,"n_dots":2.95,"target":"left","response":"left","rt":512,"correct":true,"confidence":3},{"trial_n":99,"n_dots":2.85,"target":"left","response":"left","rt":1282,"correct":true,"confidence":3},{"trial_n":100,"n_dots":2.85,"target":"right","response":"right","rt":78,"correct":true,"confidence":4},{"trial_n":101,"n_dots":2.75,"target":"right","response":"right","rt":665,"correct":true,"confidence":2},{"trial_n":102,"n_dots":2.75,"target":"right","response":"right","rt":560,"correct":true,"confidence":3},{"trial_n":103,"n_dots":2.65,"target":"right","response":"right","rt":160,"correct":true,"confidence":2},{"trial_n":104,"n_dots":2.65,"target":"right","response":"right","rt":819,"correct":true,"confidence":5},{"trial_n":105,"n_dots":2.55,"target":"right","response":"left","rt":724,"correct":false,"confidence":3},{"trial_n":106,"n_dots":2.65,"target":"left","response":"right","rt":748,"correct":false,"confidence":2},{"trial_n":107,"n_dots":2.75,"target":"right","response":"left","rt":508,"correct":false,"confidence":1},{"trial_n":108,"n_dots":2.85,"target":"left","response":"left","rt":205.00000000006,"correct":true,"confidence":5},{"trial_n":109,"n_dots":2.85,"target":"left","response":"left","rt":1192.0000000001,"correct":true,"confidence":3},{"trial_n":110,"n_dots":2.75,"target":"left","response":"left","rt":590,"correct":true,"confidence":3},{"trial_n":111,"n_dots":2.75,"target":"left","response":"left","rt":503,"correct":true,"confidence":4},{"trial_n":112,"n_dots":2.65,"target":"left","response":"left","rt":19,"correct":true,"confidence":3},{"trial_n":113,"n_dots":2.65,"target":"left","response":"left","rt":64,"correct":true,"confidence":3},{"trial_n":114,"n_dots":2.55,"target":"left","response":"right","rt":776,"correct":false,"confidence":3},{"trial_n":115,"n_dots":2.65,"target":"right","response":"right","rt":521,"correct":true,"confidence":3},{"trial_n":116,"n_dots":2.65,"target":"right","response":"left","rt":56,"correct":false,"confidence":2},{"trial_n":117,"n_dots":2.75,"target":"right","response":"right","rt":300.00000000006,"correct":true,"confidence":1},{"trial_n":118,"n_dots":2.75,"target":"left","response":"left","rt":621.99999999994,"correct":true,"confidence":1},{"trial_n":119,"n_dots":2.65,"target":"right","response":"right","rt":268.00000000006,"correct":true,"confidence":3},{"trial_n":120,"n_dots":2.65,"target":"left","response":"left","rt":86.999999999942,"correct":true,"confidence":2}]