[{"trial_n":1,"span":8,"encoder":"33311246","distractor":"30311246","target":"present","response":"present","rt":"6413.900000006","correct":true,"confidence":-1},{"trial_n":2,"span":8,"encoder":"49170960","distractor":"49160960","target":"present","response":"present","rt":"2930","correct":true,"confidence":-1},{"trial_n":3,"span":10,"encoder":"4024469378","distractor":"4024489378","target":"absent","response":"present","rt":"2317.7000000179","correct":false,"confidence":-1},{"trial_n":4,"span":8,"encoder":"35720503","distractor":"85720503","target":"absent","response":"present","rt":"2734.3000000119","correct":false,"confidence":-1},{"trial_n":5,"span":6,"encoder":"995349","distractor":"995549","target":"present","response":"present","rt":"2131.2000000179","correct":true,"confidence":-1},{"trial_n":6,"span":6,"encoder":"208107","distractor":"008107","target":"absent","response":"absent","rt":"2251.400000006","correct":true,"confidence":-1},{"trial_n":7,"span":8,"encoder":"03174039","distractor":"03874039","target":"present","response":"absent","rt":"4036.3000000119","correct":false,"confidence":-1},{"trial_n":8,"span":6,"encoder":"013773","distractor":"018773","target":"absent","response":"absent","rt":"2228.6000000238","correct":true,"confidence":-1},{"trial_n":9,"span":6,"encoder":"947526","distractor":"945526","target":"absent","response":"absent","rt":"4631.900000006","correct":true,"confidence":-1},{"trial_n":10,"span":8,"encoder":"07038961","distractor":"07338961","target":"absent","response":"absent","rt":"2895.7000000179","correct":true,"confidence":-1},{"trial_n":11,"span":8,"encoder":"00646961","distractor":"00646911","target":"present","response":"present","rt":"2055.1000000238","correct":true,"confidence":-1},{"trial_n":12,"span":9,"encoder":"239104788","distractor":"249104788","target":"absent","response":"present","rt":"3950.400000006","correct":false,"confidence":-1},{"trial_n":13,"span":8,"encoder":"84090607","distractor":"84190607","target":"absent","response":"present","rt":"1794.7999999821","correct":false,"confidence":-1},{"trial_n":14,"span":7,"encoder":"3697312","distractor":"0697312","target":"present","response":"present","rt":"1707.5","correct":true,"confidence":-1},{"trial_n":15,"span":7,"encoder":"5709066","distractor":"5729066","target":"absent","response":"present","rt":"2374.2999999821","correct":false,"confidence":-1},{"trial_n":16,"span":6,"encoder":"157839","distractor":"157849","target":"present","response":"present","rt":"2411.900000006","correct":true,"confidence":-1},{"trial_n":17,"span":6,"encoder":"008643","distractor":"008646","target":"absent","response":"absent","rt":"3129.900000006","correct":true,"confidence":-1},{"trial_n":18,"span":7,"encoder":"4768856","distractor":"4468856","target":"absent","response":"present","rt":"1808.900000006","correct":false,"confidence":-1},{"trial_n":19,"span":6,"encoder":"077114","distractor":"077116","target":"absent","response":"absent","rt":"1917.8000000119","correct":true,"confidence":-1},{"trial_n":20,"span":6,"encoder":"038040","distractor":"030040","target":"present","response":"present","rt":"2751.1000000238","correct":true,"confidence":-1},{"trial_n":21,"span":7,"encoder":"7000276","distractor":"7000246","target":"present","response":"present","rt":"2615.3000000119","correct":true,"confidence":5},{"trial_n":22,"span":7,"encoder":"2283096","distractor":"2283016","target":"absent","response":"absent","rt":"3744.099999994","correct":true,"confidence":4},{"trial_n":23,"span":8,"encoder":"66796973","distractor":"66706973","target":"present","response":"present","rt":"5398.3000000119","correct":true,"confidence":2},{"trial_n":24,"span":8,"encoder":"20040790","distractor":"20240790","target":"present","response":"present","rt":"3348.7000000179","correct":true,"confidence":3},{"trial_n":25,"span":9,"encoder":"969964809","distractor":"967964809","target":"absent","response":"absent","rt":"2570","correct":true,"confidence":5},{"trial_n":26,"span":9,"encoder":"224907175","distractor":"244907175","target":"present","response":"absent","rt":"3217.7999999821","correct":false,"confidence":3},{"trial_n":27,"span":8,"encoder":"36775808","distractor":"36715808","target":"present","response":"present","rt":"2356.6999999881","correct":true,"confidence":4},{"trial_n":28,"span":8,"encoder":"61920870","distractor":"64920870","target":"present","response":"absent","rt":"3667.2999999821","correct":false,"confidence":4},{"trial_n":29,"span":7,"encoder":"5366323","distractor":"5366623","target":"present","response":"present","rt":"3033.400000006","correct":true,"confidence":3},{"trial_n":30,"span":7,"encoder":"2431929","distractor":"2531929","target":"absent","response":"absent","rt":"3164.2000000179","correct":true,"confidence":4},{"trial_n":31,"span":8,"encoder":"98232122","distractor":"93232122","target":"absent","response":"absent","rt":"2326","correct":true,"confidence":5},{"trial_n":32,"span":8,"encoder":"04622367","distractor":"04626367","target":"present","response":"absent","rt":"3392.6999999881","correct":false,"confidence":4},{"trial_n":33,"span":7,"encoder":"7631459","distractor":"7631453","target":"present","response":"present","rt":"3726.099999994","correct":true,"confidence":5},{"trial_n":34,"span":7,"encoder":"1272640","distractor":"1272680","target":"absent","response":"absent","rt":"2890.599999994","correct":true,"confidence":5},{"trial_n":35,"span":8,"encoder":"64048453","distractor":"64018453","target":"absent","response":"absent","rt":"8354.6999999881","correct":true,"confidence":3},{"trial_n":36,"span":8,"encoder":"09613853","distractor":"09413853","target":"absent","response":"absent","rt":"3202.7999999821","correct":true,"confidence":4},{"trial_n":37,"span":9,"encoder":"399067777","distractor":"399067877","target":"absent","response":"present","rt":"6350.3999999762","correct":false,"confidence":3},{"trial_n":38,"span":8,"encoder":"83335342","distractor":"83330342","target":"absent","response":"absent","rt":"3130","correct":true,"confidence":5},{"trial_n":39,"span":8,"encoder":"80644526","distractor":"89644526","target":"present","response":"present","rt":"2907.8000000119","correct":true,"confidence":5},{"trial_n":40,"span":9,"encoder":"187868101","distractor":"187868111","target":"present","response":"present","rt":"4631.5","correct":true,"confidence":4},{"trial_n":41,"span":9,"encoder":"243795430","distractor":"243595430","target":"present","response":"present","rt":"3508.1999999881","correct":true,"confidence":4},{"trial_n":42,"span":10,"encoder":"8138096483","distractor":"8138096983","target":"absent","response":"absent","rt":"4099.7000000179","correct":true,"confidence":3},{"trial_n":43,"span":10,"encoder":"9278428183","distractor":"9278428583","target":"present","response":"present","rt":"4825","correct":true,"confidence":3},{"trial_n":44,"span":11,"encoder":"00422711291","distractor":"00422711271","target":"present","response":"present","rt":"2576.400000006","correct":true,"confidence":3},{"trial_n":45,"span":11,"encoder":"89161788264","distractor":"89161788864","target":"present","response":"absent","rt":"3852.599999994","correct":false,"confidence":3},{"trial_n":46,"span":10,"encoder":"1979999748","distractor":"1979999948","target":"present","response":"present","rt":"5441.900000006","correct":true,"confidence":3},{"trial_n":47,"span":10,"encoder":"7739747391","distractor":"7737747391","target":"absent","response":"present","rt":"3895.6000000238","correct":false,"confidence":4},{"trial_n":48,"span":9,"encoder":"277475086","distractor":"267475086","target":"absent","response":"absent","rt":"2759.900000006","correct":true,"confidence":3},{"trial_n":49,"span":9,"encoder":"727476053","distractor":"727476353","target":"present","response":"present","rt":"3899.5","correct":true,"confidence":3},{"trial_n":50,"span":10,"encoder":"3403239730","distractor":"3403239736","target":"present","response":"absent","rt":"2913","correct":false,"confidence":2},{"trial_n":51,"span":9,"encoder":"842126607","distractor":"842926607","target":"absent","response":"absent","rt":"5492.900000006","correct":true,"confidence":5},{"trial_n":52,"span":9,"encoder":"470067950","distractor":"478067950","target":"present","response":"present","rt":"3549.599999994","correct":true,"confidence":4},{"trial_n":53,"span":10,"encoder":"2152119987","distractor":"2152117987","target":"absent","response":"absent","rt":"4363.7999999821","correct":true,"confidence":4},{"trial_n":54,"span":10,"encoder":"6910795568","distractor":"0910795568","target":"absent","response":"absent","rt":"5008.599999994","correct":true,"confidence":3},{"trial_n":55,"span":11,"encoder":"97504517268","distractor":"97504514268","target":"absent","response":"absent","rt":"8941","correct":true,"confidence":3},{"trial_n":56,"span":11,"encoder":"15240103943","distractor":"75240103943","target":"absent","response":"absent","rt":"8049.3999999762","correct":true,"confidence":3},{"trial_n":57,"span":12,"encoder":"667061683913","distractor":"667961683913","target":"present","response":"present","rt":"4759.1000000238","correct":true,"confidence":3},{"trial_n":58,"span":12,"encoder":"768038678224","distractor":"760038678224","target":"present","response":"present","rt":"5400.400000006","correct":true,"confidence":3},{"trial_n":59,"span":13,"encoder":"4955947830855","distractor":"1955947830855","target":"present","response":"absent","rt":"5942.5","correct":false,"confidence":2},{"trial_n":60,"span":12,"encoder":"352497960488","distractor":"852497960488","target":"absent","response":"absent","rt":"3290.8000000119","correct":true,"confidence":3},{"trial_n":61,"span":12,"encoder":"999006299058","distractor":"999005299058","target":"present","response":"present","rt":"3571.1000000238","correct":true,"confidence":4},{"trial_n":62,"span":13,"encoder":"8385209121071","distractor":"8385209121061","target":"absent","response":"absent","rt":"7013.400000006","correct":true,"confidence":4},{"trial_n":63,"span":13,"encoder":"4240201167441","distractor":"4240206167441","target":"present","response":"present","rt":"2223.900000006","correct":true,"confidence":2},{"trial_n":64,"span":14,"encoder":"78530318481300","distractor":"78530318486300","target":"present","response":"absent","rt":"2877.6999999881","correct":false,"confidence":2},{"trial_n":65,"span":13,"encoder":"2173739823966","distractor":"2173739823965","target":"present","response":"present","rt":"2675.8000000119","correct":true,"confidence":3},{"trial_n":66,"span":13,"encoder":"1342823423590","distractor":"1342823425590","target":"absent","response":"absent","rt":"2642.400000006","correct":true,"confidence":3},{"trial_n":67,"span":14,"encoder":"44812029611053","distractor":"44812029619053","target":"present","response":"present","rt":"3039.099999994","correct":true,"confidence":3},{"trial_n":68,"span":14,"encoder":"91988755480027","distractor":"91988757480027","target":"absent","response":"present","rt":"5445.1999999881","correct":false,"confidence":2},{"trial_n":69,"span":13,"encoder":"3187528225315","distractor":"3180528225315","target":"absent","response":"present","rt":"4776.2999999821","correct":false,"confidence":2},{"trial_n":70,"span":12,"encoder":"176729533747","distractor":"176729533744","target":"present","response":"absent","rt":"2832.2000000179","correct":false,"confidence":2},{"trial_n":71,"span":8,"encoder":"55292047","distractor":"55296047","target":"present","response":"present","rt":"3666.1999999881","correct":true,"confidence":-1},{"trial_n":72,"span":8,"encoder":"08920252","distractor":"08920255","target":"present","response":"present","rt":"4860.7999999821","correct":true,"confidence":-1},{"trial_n":73,"span":9,"encoder":"042625265","distractor":"072625265","target":"absent","response":"absent","rt":"2068.099999994","correct":true,"confidence":-1},{"trial_n":74,"span":9,"encoder":"645094439","distractor":"645093439","target":"absent","response":"absent","rt":"2814.599999994","correct":true,"confidence":-1},{"trial_n":75,"span":10,"encoder":"2608945755","distractor":"2608945255","target":"present","response":"absent","rt":"3606.6999999881","correct":false,"confidence":-1},{"trial_n":76,"span":9,"encoder":"945564754","distractor":"948564754","target":"present","response":"present","rt":"5699.1999999881","correct":true,"confidence":-1},{"trial_n":77,"span":9,"encoder":"536356735","distractor":"536356775","target":"absent","response":"absent","rt":"2651.5","correct":true,"confidence":-1},{"trial_n":78,"span":10,"encoder":"7040124826","distractor":"7020124826","target":"present","response":"absent","rt":"3770.900000006","correct":false,"confidence":-1},{"trial_n":79,"span":9,"encoder":"416832887","distractor":"016832887","target":"present","response":"absent","rt":"2891.400000006","correct":false,"confidence":-1},{"trial_n":80,"span":8,"encoder":"75056625","distractor":"75056675","target":"absent","response":"absent","rt":"7424.6999999881","correct":true,"confidence":-1},{"trial_n":81,"span":8,"encoder":"47045653","distractor":"47345653","target":"absent","response":"absent","rt":"3335.3999999762","correct":true,"confidence":-1},{"trial_n":82,"span":9,"encoder":"747069839","distractor":"747069832","target":"absent","response":"absent","rt":"3893.7000000179","correct":true,"confidence":-1},{"trial_n":83,"span":9,"encoder":"833200588","distractor":"833207588","target":"absent","response":"absent","rt":"3168.8000000119","correct":true,"confidence":-1},{"trial_n":84,"span":10,"encoder":"3425727430","distractor":"3425527430","target":"present","response":"absent","rt":"5643.5","correct":false,"confidence":-1},{"trial_n":85,"span":9,"encoder":"729225104","distractor":"729225154","target":"present","response":"present","rt":"2813.6000000238","correct":true,"confidence":-1},{"trial_n":86,"span":9,"encoder":"098697894","distractor":"098197894","target":"absent","response":"absent","rt":"4689.8000000119","correct":true,"confidence":-1},{"trial_n":87,"span":10,"encoder":"5845422472","distractor":"5845452472","target":"present","response":"absent","rt":"2137.2000000179","correct":false,"confidence":-1},{"trial_n":88,"span":9,"encoder":"177110319","distractor":"177810319","target":"absent","response":"absent","rt":"2718.599999994","correct":true,"confidence":-1},{"trial_n":89,"span":9,"encoder":"558176296","distractor":"558116296","target":"present","response":"absent","rt":"4135.7999999821","correct":false,"confidence":-1},{"trial_n":90,"span":8,"encoder":"36872198","distractor":"26872198","target":"absent","response":"present","rt":"4419","correct":false,"confidence":-1},{"trial_n":91,"span":7,"encoder":"6487127","distractor":"6487117","target":"absent","response":"absent","rt":"27821","correct":true,"confidence":3},{"trial_n":92,"span":7,"encoder":"2690607","distractor":"2690707","target":"present","response":"present","rt":"3048.1000000238","correct":true,"confidence":5},{"trial_n":93,"span":8,"encoder":"45173438","distractor":"45373438","target":"present","response":"present","rt":"4698","correct":true,"confidence":4},{"trial_n":94,"span":8,"encoder":"70557815","distractor":"70553815","target":"absent","response":"absent","rt":"3884.8000000119","correct":true,"confidence":3},{"trial_n":95,"span":9,"encoder":"115682899","distractor":"115632899","target":"absent","response":"absent","rt":"5519.900000006","correct":true,"confidence":4},{"trial_n":96,"span":9,"encoder":"606309599","distractor":"606349599","target":"present","response":"present","rt":"4098.099999994","correct":true,"confidence":3},{"trial_n":97,"span":10,"encoder":"1142829388","distractor":"1142829188","target":"present","response":"present","rt":"6590.5","correct":true,"confidence":4},{"trial_n":98,"span":10,"encoder":"9453137264","distractor":"9413137264","target":"absent","response":"present","rt":"5034.900000006","correct":false,"confidence":3},{"trial_n":99,"span":9,"encoder":"190528393","distractor":"190528293","target":"absent","response":"absent","rt":"5453.599999994","correct":true,"confidence":3},{"trial_n":100,"span":9,"encoder":"496814056","distractor":"496814016","target":"absent","response":"absent","rt":"2739.400000006","correct":true,"confidence":4},{"trial_n":101,"span":10,"encoder":"9350757129","distractor":"9450757129","target":"absent","response":"absent","rt":"3016.3000000119","correct":true,"confidence":4},{"trial_n":102,"span":10,"encoder":"2544263315","distractor":"2544263415","target":"present","response":"present","rt":"4225.8999999762","correct":true,"confidence":4},{"trial_n":103,"span":11,"encoder":"77841692595","distractor":"77841692596","target":"present","response":"present","rt":"9500.7000000179","correct":true,"confidence":4},{"trial_n":104,"span":11,"encoder":"56610219692","distractor":"56610215692","target":"present","response":"present","rt":"4030.400000006","correct":true,"confidence":4},{"trial_n":105,"span":12,"encoder":"866613881770","distractor":"866613981770","target":"present","response":"present","rt":"3835.3000000119","correct":true,"confidence":5},{"trial_n":106,"span":12,"encoder":"233257199430","distractor":"233257195430","target":"present","response":"present","rt":"3993.8000000119","correct":true,"confidence":4},{"trial_n":107,"span":13,"encoder":"5386739234861","distractor":"5383739234861","target":"present","response":"present","rt":"9236","correct":true,"confidence":3},{"trial_n":108,"span":13,"encoder":"3883272587075","distractor":"3883272087075","target":"absent","response":"absent","rt":"16330.199999988","correct":true,"confidence":3},{"trial_n":109,"span":14,"encoder":"08213847499561","distractor":"08213817499561","target":"present","response":"present","rt":"8531.900000006","correct":true,"confidence":3},{"trial_n":110,"span":14,"encoder":"49967475188996","distractor":"49967775188996","target":"present","response":"present","rt":"6786.2999999821","correct":true,"confidence":2},{"trial_n":111,"span":15,"encoder":"462766727626684","distractor":"462266727626684","target":"present","response":"present","rt":"7316.3000000119","correct":true,"confidence":3},{"trial_n":112,"span":15,"encoder":"646163229243762","distractor":"546163229243762","target":"present","response":"present","rt":"8630.7000000179","correct":true,"confidence":3},{"trial_n":113,"span":16,"encoder":"6739714201295815","distractor":"6739714201291815","target":"absent","response":"absent","rt":"3946.900000006","correct":true,"confidence":3},{"trial_n":114,"span":16,"encoder":"2100205312606112","distractor":"2100205312606412","target":"absent","response":"absent","rt":"4672.900000006","correct":true,"confidence":5},{"trial_n":115,"span":17,"encoder":"28823469854262791","distractor":"28823469864262791","target":"present","response":"absent","rt":"15124.099999994","correct":false,"confidence":4},{"trial_n":116,"span":16,"encoder":"9282395482149973","distractor":"9482395482149973","target":"present","response":"present","rt":"8607.1999999881","correct":true,"confidence":2},{"trial_n":117,"span":16,"encoder":"0530649237464797","distractor":"0930649237464797","target":"absent","response":"absent","rt":"4014.6999999881","correct":true,"confidence":4},{"trial_n":118,"span":17,"encoder":"00380443891580086","distractor":"00980443891580086","target":"absent","response":"absent","rt":"5207.1999999881","correct":true,"confidence":1},{"trial_n":119,"span":17,"encoder":"53836440336773767","distractor":"33836440336773767","target":"absent","response":"present","rt":"5336.400000006","correct":false,"confidence":2},{"trial_n":120,"span":16,"encoder":"8629551149085559","distractor":"8629551145085559","target":"present","response":"present","rt":"9559.5","correct":true,"confidence":3},{"trial_n":121,"span":16,"encoder":"9824598722236851","distractor":"9824598722246851","target":"present","response":"present","rt":"4330.400000006","correct":true,"confidence":4},{"trial_n":122,"span":17,"encoder":"87014957472189547","distractor":"87014957472189577","target":"absent","response":"absent","rt":"2856.8000000119","correct":true,"confidence":5},{"trial_n":123,"span":17,"encoder":"48300327965000525","distractor":"48300327065000525","target":"present","response":"present","rt":"16447.199999988","correct":true,"confidence":2},{"trial_n":124,"span":18,"encoder":"502908310260456415","distractor":"502908310264456415","target":"absent","response":"absent","rt":"4933.6999999881","correct":true,"confidence":3},{"trial_n":125,"span":18,"encoder":"826274422440184912","distractor":"826774422440184912","target":"absent","response":"absent","rt":"7739.900000006","correct":true,"confidence":3},{"trial_n":126,"span":19,"encoder":"3620731106743046502","distractor":"3620735106743046502","target":"absent","response":"absent","rt":"4802.8000000119","correct":true,"confidence":2},{"trial_n":127,"span":19,"encoder":"7016702373734232134","distractor":"7016702374734232134","target":"present","response":"absent","rt":"8850.1000000238","correct":false,"confidence":2},{"trial_n":128,"span":18,"encoder":"632965882096862932","distractor":"682965882096862932","target":"present","response":"present","rt":"12526.899999976","correct":true,"confidence":3},{"trial_n":129,"span":18,"encoder":"827818157096685510","distractor":"827818157496685510","target":"absent","response":"present","rt":"15761.599999994","correct":false,"confidence":3},{"trial_n":130,"span":17,"encoder":"53040751446710345","distractor":"53040751446310345","target":"absent","response":"absent","rt":"8937.2000000179","correct":true,"confidence":2},{"trial_n":131,"span":17,"encoder":"57879329792084029","distractor":"47879329792084029","target":"absent","response":"absent","rt":"4691","correct":true,"confidence":5},{"trial_n":132,"span":18,"encoder":"574001595746016840","distractor":"574007595746016840","target":"absent","response":"absent","rt":"14212.699999988","correct":true,"confidence":2},{"trial_n":133,"span":18,"encoder":"891233550424807034","distractor":"891233550424807035","target":"absent","response":"absent","rt":"2618.7999999821","correct":true,"confidence":5},{"trial_n":134,"span":19,"encoder":"0448278686679021885","distractor":"0448278686669021885","target":"present","response":"present","rt":"7409.2999999821","correct":true,"confidence":4},{"trial_n":135,"span":19,"encoder":"5557044519754438660","distractor":"5557044419754438660","target":"present","response":"present","rt":"7847.6000000238","correct":true,"confidence":3},{"trial_n":136,"span":20,"encoder":"93673153771223312077","distractor":"93673153771283312077","target":"present","response":"absent","rt":"8076.2000000179","correct":false,"confidence":2},{"trial_n":137,"span":19,"encoder":"2239136034735828239","distractor":"2239106034735828239","target":"absent","response":"present","rt":"13702.300000012","correct":false,"confidence":2},{"trial_n":138,"span":18,"encoder":"992286401495069895","distractor":"992286401490069895","target":"present","response":"present","rt":"7676.2999999821","correct":true,"confidence":4},{"trial_n":139,"span":18,"encoder":"989970428506098705","distractor":"989970428406098705","target":"present","response":"present","rt":"7284.099999994","correct":true,"confidence":2},{"trial_n":140,"span":19,"encoder":"2043699214862259854","distractor":"2043699214862209854","target":"absent","response":"present","rt":"12087.199999988","correct":false,"confidence":2}]