[{"trial_n":1,"min":25,"max":230,"target":"present","response":"present","rt":2430.0999999046,"correct":true,"confidence":-1},{"trial_n":2,"min":25,"max":230,"target":"present","response":"present","rt":745.10000002384,"correct":true,"confidence":-1},{"trial_n":3,"min":41,"max":214,"target":"absent","response":"absent","rt":1309.5,"correct":true,"confidence":-1},{"trial_n":4,"min":41,"max":214,"target":"absent","response":"absent","rt":672.89999997616,"correct":true,"confidence":-1},{"trial_n":5,"min":57,"max":198,"target":"present","response":"present","rt":696.10000002384,"correct":true,"confidence":-1},{"trial_n":6,"min":57,"max":198,"target":"absent","response":"absent","rt":1065.5,"correct":true,"confidence":-1},{"trial_n":7,"min":73,"max":182,"target":"present","response":"present","rt":751.89999997616,"correct":true,"confidence":-1},{"trial_n":8,"min":73,"max":182,"target":"present","response":"present","rt":1003.8000000715,"correct":true,"confidence":-1},{"trial_n":9,"min":89,"max":166,"target":"absent","response":"absent","rt":1000.2000000477,"correct":true,"confidence":-1},{"trial_n":10,"min":89,"max":166,"target":"present","response":"absent","rt":1653.6000000238,"correct":false,"confidence":-1},{"trial_n":11,"min":81,"max":174,"target":"absent","response":"absent","rt":1051.5,"correct":true,"confidence":-1},{"trial_n":12,"min":81,"max":174,"target":"present","response":"present","rt":801.09999990463,"correct":true,"confidence":-1},{"trial_n":13,"min":89,"max":166,"target":"absent","response":"absent","rt":916.19999992847,"correct":true,"confidence":-1},{"trial_n":14,"min":89,"max":166,"target":"present","response":"present","rt":661,"correct":true,"confidence":-1},{"trial_n":15,"min":97,"max":158,"target":"absent","response":"absent","rt":807.79999995232,"correct":true,"confidence":-1},{"trial_n":16,"min":97,"max":158,"target":"absent","response":"absent","rt":1535.7000000477,"correct":true,"confidence":-1},{"trial_n":17,"min":105,"max":150,"target":"present","response":"present","rt":1499.1000000238,"correct":true,"confidence":-1},{"trial_n":18,"min":105,"max":150,"target":"absent","response":"present","rt":993.80000007153,"correct":false,"confidence":-1},{"trial_n":19,"min":97,"max":158,"target":"absent","response":"absent","rt":893.60000002384,"correct":true,"confidence":-1},{"trial_n":20,"min":97,"max":158,"target":"absent","response":"present","rt":723.60000002384,"correct":false,"confidence":-1},{"trial_n":21,"min":93,"max":162,"target":"absent","response":"present","rt":2596.5,"correct":false,"confidence":2},{"trial_n":22,"min":89,"max":166,"target":"present","response":"absent","rt":1223.6999999285,"correct":false,"confidence":2},{"trial_n":23,"min":85,"max":170,"target":"present","response":"present","rt":751.10000002384,"correct":true,"confidence":4},{"trial_n":24,"min":85,"max":170,"target":"present","response":"present","rt":2372.6000000238,"correct":true,"confidence":3},{"trial_n":25,"min":89,"max":166,"target":"absent","response":"present","rt":10098.399999976,"correct":false,"confidence":2},{"trial_n":26,"min":85,"max":170,"target":"absent","response":"absent","rt":1890,"correct":true,"confidence":3},{"trial_n":27,"min":85,"max":170,"target":"present","response":"present","rt":1038.8000000715,"correct":true,"confidence":4},{"trial_n":28,"min":89,"max":166,"target":"absent","response":"absent","rt":1695.7000000477,"correct":true,"confidence":3},{"trial_n":29,"min":89,"max":166,"target":"absent","response":"present","rt":1736.7999999523,"correct":false,"confidence":2},{"trial_n":30,"min":85,"max":170,"target":"present","response":"present","rt":1152,"correct":true,"confidence":3},{"trial_n":31,"min":85,"max":170,"target":"present","response":"present","rt":6884.1000000238,"correct":true,"confidence":3},{"trial_n":32,"min":87,"max":168,"target":"present","response":"present","rt":1103.6000000238,"correct":true,"confidence":4},{"trial_n":33,"min":87,"max":168,"target":"present","response":"present","rt":904.70000004768,"correct":true,"confidence":4},{"trial_n":34,"min":89,"max":166,"target":"absent","response":"present","rt":1052.8000000715,"correct":false,"confidence":4},{"trial_n":35,"min":87,"max":168,"target":"absent","response":"present","rt":995.79999995232,"correct":false,"confidence":4},{"trial_n":36,"min":85,"max":170,"target":"absent","response":"present","rt":1767.1000000238,"correct":false,"confidence":2},{"trial_n":37,"min":83,"max":172,"target":"present","response":"present","rt":864.5,"correct":true,"confidence":5},{"trial_n":38,"min":83,"max":172,"target":"absent","response":"absent","rt":1979.3000000715,"correct":true,"confidence":3},{"trial_n":39,"min":85,"max":170,"target":"present","response":"present","rt":1002.5,"correct":true,"confidence":3},{"trial_n":40,"min":85,"max":170,"target":"absent","response":"absent","rt":1762.7000000477,"correct":true,"confidence":3},{"trial_n":41,"min":86,"max":169,"target":"present","response":"absent","rt":1998.8999999762,"correct":false,"confidence":2},{"trial_n":42,"min":85,"max":170,"target":"absent","response":"absent","rt":1080,"correct":true,"confidence":3},{"trial_n":43,"min":85,"max":170,"target":"absent","response":"absent","rt":912,"correct":true,"confidence":4},{"trial_n":44,"min":86,"max":169,"target":"absent","response":"present","rt":2440.3000000715,"correct":false,"confidence":2},{"trial_n":45,"min":85,"max":170,"target":"present","response":"present","rt":858.5,"correct":true,"confidence":3},{"trial_n":46,"min":85,"max":170,"target":"absent","response":"absent","rt":2591.1999999285,"correct":true,"confidence":2},{"trial_n":47,"min":86,"max":169,"target":"present","response":"present","rt":938.60000002384,"correct":true,"confidence":4},{"trial_n":48,"min":86,"max":169,"target":"present","response":"present","rt":1117.2000000477,"correct":true,"confidence":4},{"trial_n":49,"min":87,"max":168,"target":"present","response":"present","rt":1105.7000000477,"correct":true,"confidence":3},{"trial_n":50,"min":87,"max":168,"target":"present","response":"present","rt":756.89999997616,"correct":true,"confidence":5},{"trial_n":51,"min":88,"max":167,"target":"present","response":"present","rt":1714.2000000477,"correct":true,"confidence":2},{"trial_n":52,"min":88,"max":167,"target":"present","response":"present","rt":2421.0999999046,"correct":true,"confidence":1},{"trial_n":53,"min":89,"max":166,"target":"present","response":"present","rt":862,"correct":true,"confidence":3},{"trial_n":54,"min":89,"max":166,"target":"absent","response":"absent","rt":1396.5999999046,"correct":true,"confidence":3},{"trial_n":55,"min":90,"max":165,"target":"present","response":"present","rt":862,"correct":true,"confidence":4},{"trial_n":56,"min":90,"max":165,"target":"absent","response":"absent","rt":1976.6999999285,"correct":true,"confidence":1},{"trial_n":57,"min":91,"max":164,"target":"absent","response":"absent","rt":2996.5,"correct":true,"confidence":1},{"trial_n":58,"min":91,"max":164,"target":"absent","response":"present","rt":1241,"correct":false,"confidence":3},{"trial_n":59,"min":90,"max":165,"target":"present","response":"absent","rt":2919.6999999285,"correct":false,"confidence":1},{"trial_n":60,"min":89,"max":166,"target":"absent","response":"absent","rt":1371.6000000238,"correct":true,"confidence":1},{"trial_n":61,"min":89,"max":166,"target":"present","response":"absent","rt":2473.7000000477,"correct":false,"confidence":1},{"trial_n":62,"min":88,"max":167,"target":"absent","response":"absent","rt":1442.1000000238,"correct":true,"confidence":1},{"trial_n":63,"min":88,"max":167,"target":"present","response":"present","rt":1256,"correct":true,"confidence":3},{"trial_n":64,"min":89,"max":166,"target":"absent","response":"present","rt":3318.5,"correct":false,"confidence":2},{"trial_n":65,"min":88,"max":167,"target":"absent","response":"absent","rt":1348.8999999762,"correct":true,"confidence":3},{"trial_n":66,"min":88,"max":167,"target":"absent","response":"absent","rt":1314.5,"correct":true,"confidence":3},{"trial_n":67,"min":89,"max":166,"target":"present","response":"present","rt":800.20000004768,"correct":true,"confidence":4},{"trial_n":68,"min":89,"max":166,"target":"present","response":"present","rt":1526.7999999523,"correct":true,"confidence":2},{"trial_n":69,"min":90,"max":165,"target":"present","response":"absent","rt":1866.6000000238,"correct":false,"confidence":2},{"trial_n":70,"min":89,"max":166,"target":"present","response":"present","rt":1177,"correct":true,"confidence":3},{"trial_n":71,"min":41,"max":214,"target":"present","response":"present","rt":1842.5,"correct":true,"confidence":-1},{"trial_n":72,"min":41,"max":214,"target":"present","response":"present","rt":2803.9000000954,"correct":true,"confidence":-1},{"trial_n":73,"min":57,"max":198,"target":"absent","response":"absent","rt":1176.2000000477,"correct":true,"confidence":-1},{"trial_n":74,"min":57,"max":198,"target":"absent","response":"absent","rt":543.5,"correct":true,"confidence":-1},{"trial_n":75,"min":73,"max":182,"target":"present","response":"present","rt":401.10000002384,"correct":true,"confidence":-1},{"trial_n":76,"min":73,"max":182,"target":"absent","response":"absent","rt":516.30000007153,"correct":true,"confidence":-1},{"trial_n":77,"min":89,"max":166,"target":"absent","response":"absent","rt":697.89999997616,"correct":true,"confidence":-1},{"trial_n":78,"min":89,"max":166,"target":"absent","response":"absent","rt":1070.7000000477,"correct":true,"confidence":-1},{"trial_n":79,"min":105,"max":150,"target":"absent","response":"absent","rt":1182.2999999523,"correct":true,"confidence":-1},{"trial_n":80,"min":105,"max":150,"target":"present","response":"present","rt":702,"correct":true,"confidence":-1},{"trial_n":81,"min":113,"max":142,"target":"absent","response":"absent","rt":1021.1999999285,"correct":true,"confidence":-1},{"trial_n":82,"min":113,"max":142,"target":"present","response":"absent","rt":708.19999992847,"correct":false,"confidence":-1},{"trial_n":83,"min":105,"max":150,"target":"present","response":"present","rt":1199.5,"correct":true,"confidence":-1},{"trial_n":84,"min":105,"max":150,"target":"present","response":"absent","rt":835.30000007153,"correct":false,"confidence":-1},{"trial_n":85,"min":97,"max":158,"target":"present","response":"absent","rt":1237.2999999523,"correct":false,"confidence":-1},{"trial_n":86,"min":89,"max":166,"target":"present","response":"absent","rt":980.69999992847,"correct":false,"confidence":-1},{"trial_n":87,"min":81,"max":174,"target":"absent","response":"absent","rt":1106.6999999285,"correct":true,"confidence":-1},{"trial_n":88,"min":81,"max":174,"target":"present","response":"absent","rt":686.5,"correct":false,"confidence":-1},{"trial_n":89,"min":73,"max":182,"target":"absent","response":"present","rt":815.79999995232,"correct":false,"confidence":-1},{"trial_n":90,"min":65,"max":190,"target":"absent","response":"absent","rt":535.39999997616,"correct":true,"confidence":-1},{"trial_n":91,"min":65,"max":190,"target":"present","response":"present","rt":1025.7000000477,"correct":true,"confidence":5},{"trial_n":92,"min":69,"max":186,"target":"absent","response":"absent","rt":669.60000002384,"correct":true,"confidence":5},{"trial_n":93,"min":69,"max":186,"target":"absent","response":"present","rt":1363.1000000238,"correct":false,"confidence":4},{"trial_n":94,"min":65,"max":190,"target":"absent","response":"absent","rt":659.59999990463,"correct":true,"confidence":4},{"trial_n":95,"min":65,"max":190,"target":"absent","response":"absent","rt":1703.6000000238,"correct":true,"confidence":4},{"trial_n":96,"min":69,"max":186,"target":"present","response":"present","rt":777.20000004768,"correct":true,"confidence":4},{"trial_n":97,"min":69,"max":186,"target":"absent","response":"absent","rt":1005.1000000238,"correct":true,"confidence":5},{"trial_n":98,"min":73,"max":182,"target":"present","response":"present","rt":660.29999995232,"correct":true,"confidence":5},{"trial_n":99,"min":73,"max":182,"target":"absent","response":"absent","rt":503.60000002384,"correct":true,"confidence":5},{"trial_n":100,"min":77,"max":178,"target":"absent","response":"absent","rt":683.89999997616,"correct":true,"confidence":5},{"trial_n":101,"min":77,"max":178,"target":"absent","response":"absent","rt":655.5,"correct":true,"confidence":5},{"trial_n":102,"min":79,"max":176,"target":"present","response":"present","rt":647.70000004768,"correct":true,"confidence":5},{"trial_n":103,"min":79,"max":176,"target":"absent","response":"absent","rt":699.39999997616,"correct":true,"confidence":5},{"trial_n":104,"min":81,"max":174,"target":"absent","response":"absent","rt":580.89999997616,"correct":true,"confidence":5},{"trial_n":105,"min":81,"max":174,"target":"present","response":"absent","rt":795.59999990463,"correct":false,"confidence":1},{"trial_n":106,"min":79,"max":176,"target":"absent","response":"present","rt":1014.5,"correct":false,"confidence":4},{"trial_n":107,"min":77,"max":178,"target":"present","response":"present","rt":821.30000007153,"correct":true,"confidence":4},{"trial_n":108,"min":77,"max":178,"target":"present","response":"present","rt":657.39999997616,"correct":true,"confidence":5},{"trial_n":109,"min":79,"max":176,"target":"present","response":"present","rt":607.10000002384,"correct":true,"confidence":5},{"trial_n":110,"min":79,"max":176,"target":"present","response":"present","rt":2397.2000000477,"correct":true,"confidence":2},{"trial_n":111,"min":80,"max":175,"target":"absent","response":"present","rt":1101.5999999046,"correct":false,"confidence":4},{"trial_n":112,"min":79,"max":176,"target":"absent","response":"present","rt":1475.8999999762,"correct":false,"confidence":4},{"trial_n":113,"min":78,"max":177,"target":"absent","response":"present","rt":837.29999995232,"correct":false,"confidence":3},{"trial_n":114,"min":77,"max":178,"target":"absent","response":"absent","rt":1056.7000000477,"correct":true,"confidence":4},{"trial_n":115,"min":77,"max":178,"target":"absent","response":"absent","rt":2262.9000000954,"correct":true,"confidence":2},{"trial_n":116,"min":78,"max":177,"target":"present","response":"present","rt":671.80000007153,"correct":true,"confidence":4},{"trial_n":117,"min":78,"max":177,"target":"present","response":"present","rt":3009.1000000238,"correct":true,"confidence":3},{"trial_n":118,"min":79,"max":176,"target":"absent","response":"present","rt":1059.8000000715,"correct":false,"confidence":2},{"trial_n":119,"min":78,"max":177,"target":"present","response":"present","rt":2282.3999999762,"correct":true,"confidence":2},{"trial_n":120,"min":78,"max":177,"target":"absent","response":"absent","rt":1157.5,"correct":true,"confidence":3},{"trial_n":121,"min":79,"max":176,"target":"present","response":"present","rt":1858,"correct":true,"confidence":2},{"trial_n":122,"min":79,"max":176,"target":"present","response":"present","rt":931.19999992847,"correct":true,"confidence":2},{"trial_n":123,"min":80,"max":175,"target":"present","response":"present","rt":1564.5,"correct":true,"confidence":3},{"trial_n":124,"min":80,"max":175,"target":"present","response":"present","rt":701.89999997616,"correct":true,"confidence":4},{"trial_n":125,"min":81,"max":174,"target":"present","response":"absent","rt":3124.5,"correct":false,"confidence":1},{"trial_n":126,"min":80,"max":175,"target":"absent","response":"absent","rt":928,"correct":true,"confidence":4},{"trial_n":127,"min":80,"max":175,"target":"present","response":"absent","rt":879.19999992847,"correct":false,"confidence":5},{"trial_n":128,"min":79,"max":176,"target":"absent","response":"absent","rt":696.19999992847,"correct":true,"confidence":5},{"trial_n":129,"min":79,"max":176,"target":"absent","response":"absent","rt":679.09999990463,"correct":true,"confidence":5},{"trial_n":130,"min":80,"max":175,"target":"present","response":"absent","rt":885.89999997616,"correct":false,"confidence":5},{"trial_n":131,"min":79,"max":176,"target":"present","response":"absent","rt":2346.3000000715,"correct":false,"confidence":2},{"trial_n":132,"min":78,"max":177,"target":"absent","response":"absent","rt":2072.5,"correct":true,"confidence":2},{"trial_n":133,"min":78,"max":177,"target":"present","response":"absent","rt":866.89999997616,"correct":false,"confidence":5},{"trial_n":134,"min":77,"max":178,"target":"absent","response":"absent","rt":3133.9000000954,"correct":true,"confidence":3},{"trial_n":135,"min":77,"max":178,"target":"absent","response":"present","rt":1761.6000000238,"correct":false,"confidence":2},{"trial_n":136,"min":76,"max":179,"target":"present","response":"absent","rt":759.69999992847,"correct":false,"confidence":1},{"trial_n":137,"min":75,"max":180,"target":"present","response":"present","rt":957.20000004768,"correct":true,"confidence":5},{"trial_n":138,"min":75,"max":180,"target":"present","response":"present","rt":1097.8999999762,"correct":true,"confidence":5},{"trial_n":139,"min":76,"max":179,"target":"present","response":"present","rt":630.19999992847,"correct":true,"confidence":5},{"trial_n":140,"min":76,"max":179,"target":"present","response":"present","rt":857.89999997616,"correct":true,"confidence":5}]