[{"trial_n":1,"span":8,"encoder":"07720558","distractor":"07720518","target":"present","response":"present","rt":"44693.3","correct":true,"confidence":-1},{"trial_n":2,"span":8,"encoder":"31434551","distractor":"31437551","target":"present","response":"absent","rt":"2077.7000000002","correct":false,"confidence":-1},{"trial_n":3,"span":6,"encoder":"318921","distractor":"418921","target":"absent","response":"present","rt":"1243.2999999998","correct":false,"confidence":-1},{"trial_n":4,"span":4,"encoder":"4720","distractor":"4722","target":"absent","response":"absent","rt":"1349","correct":true,"confidence":-1},{"trial_n":5,"span":4,"encoder":"5252","distractor":"5272","target":"present","response":"present","rt":"1433","correct":true,"confidence":-1},{"trial_n":6,"span":6,"encoder":"145738","distractor":"195738","target":"present","response":"present","rt":"1062.8000000003","correct":true,"confidence":-1},{"trial_n":7,"span":6,"encoder":"171333","distractor":"171313","target":"absent","response":"absent","rt":"1213.8999999999","correct":true,"confidence":-1},{"trial_n":8,"span":8,"encoder":"45831748","distractor":"85831748","target":"present","response":"present","rt":"956.40000000037","correct":true,"confidence":-1},{"trial_n":9,"span":8,"encoder":"10089729","distractor":"10087729","target":"present","response":"present","rt":"1028.7000000002","correct":true,"confidence":-1},{"trial_n":10,"span":10,"encoder":"1523525960","distractor":"1523525760","target":"present","response":"present","rt":"927.5","correct":true,"confidence":-1},{"trial_n":11,"span":10,"encoder":"2883890109","distractor":"2885890109","target":"present","response":"present","rt":"805.29999999981","correct":true,"confidence":-1},{"trial_n":12,"span":11,"encoder":"93798819344","distractor":"93798814344","target":"present","response":"present","rt":"778.5","correct":true,"confidence":-1},{"trial_n":13,"span":11,"encoder":"20736242024","distractor":"21736242024","target":"present","response":"present","rt":"832.29999999981","correct":true,"confidence":-1},{"trial_n":14,"span":12,"encoder":"102801640134","distractor":"102801640164","target":"absent","response":"absent","rt":"1249.5","correct":true,"confidence":-1},{"trial_n":15,"span":12,"encoder":"279891168470","distractor":"279791168470","target":"present","response":"present","rt":"1049","correct":true,"confidence":-1},{"trial_n":16,"span":13,"encoder":"2605489958704","distractor":"2608489958704","target":"absent","response":"present","rt":"911.5","correct":false,"confidence":-1},{"trial_n":17,"span":12,"encoder":"316145602580","distractor":"316145602540","target":"present","response":"present","rt":"850.90000000037","correct":true,"confidence":-1},{"trial_n":18,"span":12,"encoder":"899964693632","distractor":"899764693632","target":"present","response":"present","rt":"2690.6000000001","correct":true,"confidence":-1},{"trial_n":19,"span":13,"encoder":"3800937067487","distractor":"3800937067587","target":"present","response":"present","rt":"1008","correct":true,"confidence":-1},{"trial_n":20,"span":13,"encoder":"5522712598920","distractor":"5522712598950","target":"absent","response":"absent","rt":"30037.3","correct":true,"confidence":-1},{"trial_n":21,"span":14,"encoder":"31921611611117","distractor":"31929611611117","target":"absent","response":"present","rt":"3007.2999999998","correct":false,"confidence":5},{"trial_n":22,"span":13,"encoder":"8355486930707","distractor":"8345486930707","target":"absent","response":"present","rt":"1216.6000000001","correct":false,"confidence":4},{"trial_n":23,"span":12,"encoder":"536697036350","distractor":"536697039350","target":"present","response":"present","rt":"1584.1000000001","correct":true,"confidence":3},{"trial_n":24,"span":12,"encoder":"311920603849","distractor":"311926603849","target":"absent","response":"present","rt":"1170.2000000002","correct":false,"confidence":2},{"trial_n":25,"span":11,"encoder":"65470468169","distractor":"65460468169","target":"present","response":"present","rt":"1435.5","correct":true,"confidence":4},{"trial_n":26,"span":11,"encoder":"61887592896","distractor":"61887596896","target":"present","response":"absent","rt":"6230","correct":false,"confidence":2},{"trial_n":27,"span":10,"encoder":"0801664466","distractor":"0801664463","target":"present","response":"absent","rt":"2970.1000000001","correct":false,"confidence":3},{"trial_n":28,"span":9,"encoder":"867111155","distractor":"817111155","target":"absent","response":"present","rt":"1877.3999999999","correct":false,"confidence":5},{"trial_n":29,"span":8,"encoder":"00956525","distractor":"00556525","target":"absent","response":"absent","rt":"1639.5999999996","correct":true,"confidence":3},{"trial_n":30,"span":8,"encoder":"88974446","distractor":"68974446","target":"present","response":"present","rt":"1774.2999999998","correct":true,"confidence":4},{"trial_n":31,"span":9,"encoder":"057858340","distractor":"357858340","target":"absent","response":"present","rt":"1830.2999999998","correct":false,"confidence":3},{"trial_n":32,"span":8,"encoder":"83409749","distractor":"83909749","target":"present","response":"present","rt":"1767.2000000002","correct":true,"confidence":5},{"trial_n":33,"span":8,"encoder":"57446803","distractor":"57446103","target":"present","response":"present","rt":"1903.6999999997","correct":true,"confidence":4},{"trial_n":34,"span":9,"encoder":"459724777","distractor":"459724747","target":"absent","response":"present","rt":"2848.8999999999","correct":false,"confidence":2},{"trial_n":35,"span":8,"encoder":"39734260","distractor":"39794260","target":"absent","response":"absent","rt":"2607.7999999998","correct":true,"confidence":5},{"trial_n":36,"span":8,"encoder":"29354471","distractor":"29354451","target":"present","response":"absent","rt":"1969.6999999997","correct":false,"confidence":4},{"trial_n":37,"span":7,"encoder":"6006865","distractor":"5006865","target":"absent","response":"absent","rt":"21112.1","correct":true,"confidence":1},{"trial_n":38,"span":7,"encoder":"8610408","distractor":"4610408","target":"absent","response":"absent","rt":"1725.5","correct":true,"confidence":5},{"trial_n":39,"span":8,"encoder":"55663730","distractor":"55463730","target":"present","response":"present","rt":"1821.5","correct":true,"confidence":5},{"trial_n":40,"span":8,"encoder":"96565042","distractor":"96564042","target":"absent","response":"present","rt":"2627.1000000001","correct":false,"confidence":4},{"trial_n":41,"span":7,"encoder":"5136790","distractor":"5136290","target":"absent","response":"present","rt":"1299.7999999998","correct":false,"confidence":4},{"trial_n":42,"span":6,"encoder":"736169","distractor":"736269","target":"absent","response":"absent","rt":"2047.0999999996","correct":true,"confidence":5},{"trial_n":43,"span":6,"encoder":"537502","distractor":"536502","target":"absent","response":"absent","rt":"1687.6000000001","correct":true,"confidence":5},{"trial_n":44,"span":7,"encoder":"5387737","distractor":"5387732","target":"present","response":"present","rt":"1230.1999999997","correct":true,"confidence":4},{"trial_n":45,"span":7,"encoder":"2132373","distractor":"2132323","target":"absent","response":"present","rt":"2381.7000000002","correct":false,"confidence":4},{"trial_n":46,"span":6,"encoder":"047955","distractor":"040955","target":"present","response":"absent","rt":"2887.1999999997","correct":false,"confidence":2},{"trial_n":47,"span":5,"encoder":"72304","distractor":"72302","target":"present","response":"absent","rt":"3375.6999999997","correct":false,"confidence":4},{"trial_n":48,"span":4,"encoder":"1047","distractor":"1041","target":"absent","response":"absent","rt":"4961.5","correct":true,"confidence":1},{"trial_n":49,"span":4,"encoder":"0691","distractor":"0391","target":"present","response":"present","rt":"2010.3999999999","correct":true,"confidence":5},{"trial_n":50,"span":5,"encoder":"74338","distractor":"74398","target":"absent","response":"absent","rt":"3112.6000000001","correct":true,"confidence":4},{"trial_n":51,"span":5,"encoder":"31575","distractor":"31875","target":"absent","response":"absent","rt":"2144.1000000001","correct":true,"confidence":5},{"trial_n":52,"span":6,"encoder":"610617","distractor":"110617","target":"present","response":"present","rt":"1807.1000000001","correct":true,"confidence":4},{"trial_n":53,"span":6,"encoder":"959919","distractor":"959219","target":"absent","response":"absent","rt":"2487.3999999999","correct":true,"confidence":4},{"trial_n":54,"span":7,"encoder":"0904573","distractor":"0964573","target":"present","response":"present","rt":"1516.7999999998","correct":true,"confidence":3},{"trial_n":55,"span":7,"encoder":"7071022","distractor":"7079022","target":"absent","response":"absent","rt":"2481.1999999997","correct":true,"confidence":4},{"trial_n":56,"span":8,"encoder":"89382464","distractor":"89385464","target":"absent","response":"present","rt":"1849.3000000003","correct":false,"confidence":4},{"trial_n":57,"span":7,"encoder":"6707803","distractor":"6704803","target":"absent","response":"absent","rt":"1908.2000000002","correct":true,"confidence":3},{"trial_n":58,"span":7,"encoder":"6583795","distractor":"6183795","target":"present","response":"present","rt":"1194","correct":true,"confidence":5},{"trial_n":59,"span":8,"encoder":"91714887","distractor":"71714887","target":"absent","response":"absent","rt":"1622.5","correct":true,"confidence":5},{"trial_n":60,"span":8,"encoder":"99652619","distractor":"99656619","target":"present","response":"present","rt":"1635.0999999996","correct":true,"confidence":4},{"trial_n":61,"span":9,"encoder":"525480810","distractor":"525480817","target":"absent","response":"present","rt":"2172","correct":false,"confidence":4},{"trial_n":62,"span":8,"encoder":"16924637","distractor":"16824637","target":"absent","response":"absent","rt":"1288.5","correct":true,"confidence":5},{"trial_n":63,"span":8,"encoder":"29223190","distractor":"29227190","target":"present","response":"present","rt":"1495.1000000001","correct":true,"confidence":5},{"trial_n":64,"span":9,"encoder":"560718775","distractor":"560718275","target":"absent","response":"present","rt":"1503.3999999999","correct":false,"confidence":4},{"trial_n":65,"span":8,"encoder":"45079356","distractor":"45079306","target":"present","response":"absent","rt":"2205.8999999999","correct":false,"confidence":2},{"trial_n":66,"span":7,"encoder":"0142837","distractor":"7142837","target":"absent","response":"absent","rt":"1550.8999999999","correct":true,"confidence":5},{"trial_n":67,"span":7,"encoder":"4740209","distractor":"4742209","target":"present","response":"present","rt":"1811.5","correct":true,"confidence":4},{"trial_n":68,"span":8,"encoder":"94746553","distractor":"94726553","target":"absent","response":"absent","rt":"2475.3000000003","correct":true,"confidence":3},{"trial_n":69,"span":8,"encoder":"50909663","distractor":"50909163","target":"present","response":"present","rt":"3206.7000000002","correct":true,"confidence":4},{"trial_n":70,"span":9,"encoder":"673765037","distractor":"670765037","target":"present","response":"present","rt":"1993.0999999996","correct":true,"confidence":5},{"trial_n":71,"span":8,"encoder":"42458576","distractor":"42451576","target":"present","response":"absent","rt":"3001.3999999999","correct":false,"confidence":-1},{"trial_n":72,"span":7,"encoder":"9817062","distractor":"9812062","target":"present","response":"present","rt":"1806.3999999999","correct":true,"confidence":-1},{"trial_n":73,"span":7,"encoder":"6947304","distractor":"6947804","target":"absent","response":"absent","rt":"2577.5","correct":true,"confidence":-1},{"trial_n":74,"span":8,"encoder":"74618082","distractor":"74618582","target":"absent","response":"present","rt":"3518.1000000001","correct":false,"confidence":-1},{"trial_n":75,"span":7,"encoder":"5588745","distractor":"5588145","target":"present","response":"present","rt":"2001.3999999999","correct":true,"confidence":-1},{"trial_n":76,"span":7,"encoder":"5928029","distractor":"5924029","target":"present","response":"present","rt":"2050.6999999997","correct":true,"confidence":-1},{"trial_n":77,"span":8,"encoder":"33265806","distractor":"33465806","target":"present","response":"absent","rt":"5032.7999999998","correct":false,"confidence":-1},{"trial_n":78,"span":7,"encoder":"5100070","distractor":"5100071","target":"present","response":"absent","rt":"2733.8999999999","correct":false,"confidence":-1},{"trial_n":79,"span":6,"encoder":"906865","distractor":"906835","target":"absent","response":"absent","rt":"1765.2000000002","correct":true,"confidence":-1},{"trial_n":80,"span":6,"encoder":"260757","distractor":"260797","target":"present","response":"absent","rt":"4054","correct":false,"confidence":-1},{"trial_n":81,"span":5,"encoder":"01881","distractor":"01888","target":"present","response":"present","rt":"1681.7999999998","correct":true,"confidence":-1},{"trial_n":82,"span":5,"encoder":"64634","distractor":"64624","target":"present","response":"absent","rt":"927.29999999981","correct":false,"confidence":-1},{"trial_n":83,"span":4,"encoder":"9883","distractor":"8883","target":"present","response":"absent","rt":"1148.1000000001","correct":false,"confidence":-1},{"trial_n":84,"span":3,"encoder":"092","distractor":"090","target":"present","response":"present","rt":"703.70000000019","correct":true,"confidence":-1},{"trial_n":85,"span":3,"encoder":"930","distractor":"980","target":"present","response":"present","rt":"896.90000000037","correct":true,"confidence":-1},{"trial_n":86,"span":4,"encoder":"4379","distractor":"4376","target":"present","response":"present","rt":"1060.3999999999","correct":true,"confidence":-1},{"trial_n":87,"span":4,"encoder":"8592","distractor":"8092","target":"absent","response":"absent","rt":"1108.5","correct":true,"confidence":-1},{"trial_n":88,"span":5,"encoder":"52612","distractor":"52652","target":"absent","response":"present","rt":"1110.7000000002","correct":false,"confidence":-1},{"trial_n":89,"span":4,"encoder":"7913","distractor":"4913","target":"absent","response":"present","rt":"1033.3999999999","correct":false,"confidence":-1},{"trial_n":90,"span":3,"encoder":"033","distractor":"013","target":"present","response":"present","rt":"753.09999999963","correct":true,"confidence":-1},{"trial_n":91,"span":3,"encoder":"484","distractor":"464","target":"absent","response":"absent","rt":"943.10000000009","correct":true,"confidence":5},{"trial_n":92,"span":4,"encoder":"8820","distractor":"8120","target":"present","response":"present","rt":"987","correct":true,"confidence":5},{"trial_n":93,"span":4,"encoder":"4419","distractor":"4410","target":"absent","response":"absent","rt":"929.39999999991","correct":true,"confidence":5},{"trial_n":94,"span":5,"encoder":"36133","distractor":"36135","target":"absent","response":"absent","rt":"1091","correct":true,"confidence":5},{"trial_n":95,"span":5,"encoder":"86147","distractor":"86047","target":"present","response":"present","rt":"2418.7999999998","correct":true,"confidence":5},{"trial_n":96,"span":6,"encoder":"345783","distractor":"345383","target":"present","response":"present","rt":"3173.1000000001","correct":true,"confidence":5},{"trial_n":97,"span":6,"encoder":"741650","distractor":"741658","target":"present","response":"absent","rt":"5442.6000000001","correct":false,"confidence":4},{"trial_n":98,"span":5,"encoder":"92237","distractor":"92837","target":"absent","response":"absent","rt":"1677.6000000001","correct":true,"confidence":5},{"trial_n":99,"span":5,"encoder":"73827","distractor":"03827","target":"present","response":"present","rt":"3619","correct":true,"confidence":3},{"trial_n":100,"span":6,"encoder":"317335","distractor":"317334","target":"present","response":"present","rt":"4143.2000000002","correct":true,"confidence":3},{"trial_n":101,"span":6,"encoder":"882880","distractor":"082880","target":"absent","response":"absent","rt":"2314.2999999998","correct":true,"confidence":5},{"trial_n":102,"span":7,"encoder":"1981983","distractor":"1981903","target":"present","response":"absent","rt":"3631.6000000001","correct":false,"confidence":3},{"trial_n":103,"span":6,"encoder":"952941","distractor":"952946","target":"present","response":"absent","rt":"5208.6000000001","correct":false,"confidence":1},{"trial_n":104,"span":5,"encoder":"13729","distractor":"13429","target":"present","response":"present","rt":"2255.3999999999","correct":true,"confidence":5},{"trial_n":105,"span":5,"encoder":"28850","distractor":"29850","target":"present","response":"present","rt":"2614","correct":true,"confidence":3},{"trial_n":106,"span":6,"encoder":"271507","distractor":"278507","target":"present","response":"present","rt":"2263.1000000001","correct":true,"confidence":4},{"trial_n":107,"span":6,"encoder":"660046","distractor":"620046","target":"absent","response":"present","rt":"5933.5","correct":false,"confidence":2},{"trial_n":108,"span":5,"encoder":"82255","distractor":"72255","target":"present","response":"present","rt":"1958.5999999996","correct":true,"confidence":4},{"trial_n":109,"span":5,"encoder":"44370","distractor":"44770","target":"present","response":"present","rt":"3071.8999999999","correct":true,"confidence":5},{"trial_n":110,"span":6,"encoder":"084105","distractor":"084905","target":"absent","response":"absent","rt":"2233.5","correct":true,"confidence":4},{"trial_n":111,"span":6,"encoder":"739371","distractor":"709371","target":"absent","response":"absent","rt":"6651.1000000001","correct":true,"confidence":4},{"trial_n":112,"span":7,"encoder":"1860589","distractor":"7860589","target":"absent","response":"absent","rt":"2381.5","correct":true,"confidence":5},{"trial_n":113,"span":7,"encoder":"1996627","distractor":"1996621","target":"present","response":"absent","rt":"3921.3999999999","correct":false,"confidence":1},{"trial_n":114,"span":6,"encoder":"086447","distractor":"086427","target":"absent","response":"absent","rt":"3780.7999999998","correct":true,"confidence":1},{"trial_n":115,"span":6,"encoder":"535950","distractor":"532950","target":"present","response":"present","rt":"4213.3999999999","correct":true,"confidence":4},{"trial_n":116,"span":7,"encoder":"0148252","distractor":"0148052","target":"present","response":"present","rt":"33189.9","correct":true,"confidence":4},{"trial_n":117,"span":7,"encoder":"6229864","distractor":"7229864","target":"present","response":"present","rt":"3422.2999999998","correct":true,"confidence":1},{"trial_n":118,"span":8,"encoder":"45053800","distractor":"45063800","target":"present","response":"present","rt":"4907.7999999998","correct":true,"confidence":1},{"trial_n":119,"span":8,"encoder":"89868145","distractor":"89868185","target":"absent","response":"absent","rt":"4108.8999999994","correct":true,"confidence":1},{"trial_n":120,"span":9,"encoder":"060227381","distractor":"960227381","target":"absent","response":"absent","rt":"3633","correct":true,"confidence":5},{"trial_n":121,"span":9,"encoder":"528695466","distractor":"521695466","target":"absent","response":"absent","rt":"5522.5","correct":true,"confidence":3},{"trial_n":122,"span":10,"encoder":"1571675438","distractor":"1571677438","target":"absent","response":"absent","rt":"4070.7999999998","correct":true,"confidence":1},{"trial_n":123,"span":10,"encoder":"7464538762","distractor":"7464538766","target":"absent","response":"absent","rt":"4234.2999999998","correct":true,"confidence":3},{"trial_n":124,"span":11,"encoder":"21214351111","distractor":"21214351811","target":"absent","response":"present","rt":"4584.5999999996","correct":false,"confidence":1},{"trial_n":125,"span":10,"encoder":"0717254945","distractor":"0717214945","target":"absent","response":"absent","rt":"7798.6000000006","correct":true,"confidence":4},{"trial_n":126,"span":10,"encoder":"6582751233","distractor":"6582781233","target":"present","response":"absent","rt":"4409.6999999993","correct":false,"confidence":3},{"trial_n":127,"span":9,"encoder":"286599695","distractor":"286599495","target":"absent","response":"absent","rt":"4208.1000000006","correct":true,"confidence":5},{"trial_n":128,"span":9,"encoder":"492727188","distractor":"492327188","target":"absent","response":"absent","rt":"5370.7000000002","correct":true,"confidence":4},{"trial_n":129,"span":10,"encoder":"6427919874","distractor":"6427919878","target":"present","response":"present","rt":"2339.3000000007","correct":true,"confidence":3},{"trial_n":130,"span":10,"encoder":"1572857441","distractor":"1572857741","target":"absent","response":"present","rt":"2921.8999999994","correct":false,"confidence":3},{"trial_n":131,"span":9,"encoder":"948143252","distractor":"948143052","target":"absent","response":"absent","rt":"2832.5","correct":true,"confidence":5},{"trial_n":132,"span":9,"encoder":"488944168","distractor":"488444168","target":"absent","response":"absent","rt":"3598.3000000007","correct":true,"confidence":3},{"trial_n":133,"span":10,"encoder":"2174472283","distractor":"2174472233","target":"absent","response":"absent","rt":"4775.1999999993","correct":true,"confidence":1},{"trial_n":134,"span":10,"encoder":"8198662234","distractor":"8196662234","target":"absent","response":"absent","rt":"6831.1999999993","correct":true,"confidence":3},{"trial_n":135,"span":11,"encoder":"01199473282","distractor":"01199473382","target":"present","response":"present","rt":"5140.1000000006","correct":true,"confidence":3},{"trial_n":136,"span":11,"encoder":"29677522822","distractor":"29677525822","target":"present","response":"present","rt":"5008.7999999998","correct":true,"confidence":3},{"trial_n":137,"span":12,"encoder":"635852912874","distractor":"635852942874","target":"absent","response":"present","rt":"2715","correct":false,"confidence":3},{"trial_n":138,"span":11,"encoder":"09316422145","distractor":"59316422145","target":"absent","response":"absent","rt":"3824.0999999996","correct":true,"confidence":2},{"trial_n":139,"span":11,"encoder":"94411017084","distractor":"94411617084","target":"absent","response":"absent","rt":"4124.7999999998","correct":true,"confidence":5},{"trial_n":140,"span":12,"encoder":"334878121172","distractor":"334878021172","target":"absent","response":"absent","rt":"6079.1000000006","correct":true,"confidence":4}]