[{"trial_n":1,"n_dots":4.25,"target":"right","response":"right","rt":566.20000000019,"correct":true,"confidence":-1},{"trial_n":2,"n_dots":4.25,"target":"right","response":"right","rt":773,"correct":true,"confidence":-1},{"trial_n":3,"n_dots":3.85,"target":"left","response":"left","rt":1003.1000000006,"correct":true,"confidence":-1},{"trial_n":4,"n_dots":3.85,"target":"right","response":"right","rt":939.20000000019,"correct":true,"confidence":-1},{"trial_n":5,"n_dots":3.45,"target":"left","response":"left","rt":611.29999999981,"correct":true,"confidence":-1},{"trial_n":6,"n_dots":3.45,"target":"right","response":"right","rt":398.09999999963,"correct":true,"confidence":-1},{"trial_n":7,"n_dots":3.05,"target":"right","response":"right","rt":716.69999999925,"correct":true,"confidence":-1},{"trial_n":8,"n_dots":3.05,"target":"right","response":"right","rt":255.60000000056,"correct":true,"confidence":-1},{"trial_n":9,"n_dots":2.85,"target":"right","response":"right","rt":335.40000000037,"correct":true,"confidence":-1},{"trial_n":10,"n_dots":2.85,"target":"right","response":"right","rt":750.5,"correct":true,"confidence":-1},{"trial_n":11,"n_dots":2.65,"target":"left","response":"right","rt":365,"correct":false,"confidence":-1},{"trial_n":12,"n_dots":2.85,"target":"right","response":"right","rt":296.29999999981,"correct":true,"confidence":-1},{"trial_n":13,"n_dots":2.85,"target":"left","response":"left","rt":546.09999999963,"correct":true,"confidence":-1},{"trial_n":14,"n_dots":2.75,"target":"left","response":"left","rt":256.5,"correct":true,"confidence":-1},{"trial_n":15,"n_dots":2.75,"target":"right","response":"left","rt":240.5,"correct":false,"confidence":-1},{"trial_n":16,"n_dots":2.85,"target":"left","response":"left","rt":393.5,"correct":true,"confidence":-1},{"trial_n":17,"n_dots":2.85,"target":"left","response":"left","rt":320.20000000019,"correct":true,"confidence":-1},{"trial_n":18,"n_dots":2.75,"target":"right","response":"right","rt":287.89999999944,"correct":true,"confidence":-1},{"trial_n":19,"n_dots":2.75,"target":"right","response":"right","rt":414.20000000019,"correct":true,"confidence":-1},{"trial_n":20,"n_dots":2.65,"target":"left","response":"right","rt":288.39999999944,"correct":false,"confidence":-1},{"trial_n":21,"n_dots":2.75,"target":"right","response":"right","rt":465.59999999963,"correct":true,"confidence":4},{"trial_n":22,"n_dots":2.75,"target":"right","response":"right","rt":276.69999999925,"correct":true,"confidence":4},{"trial_n":23,"n_dots":2.65,"target":"right","response":"right","rt":338.20000000019,"correct":true,"confidence":4},{"trial_n":24,"n_dots":2.65,"target":"right","response":"left","rt":527,"correct":false,"confidence":3},{"trial_n":25,"n_dots":2.75,"target":"left","response":"right","rt":275.59999999963,"correct":false,"confidence":5},{"trial_n":26,"n_dots":2.85,"target":"right","response":"right","rt":296,"correct":true,"confidence":3},{"trial_n":27,"n_dots":2.85,"target":"left","response":"left","rt":275.29999999981,"correct":true,"confidence":5},{"trial_n":28,"n_dots":2.75,"target":"right","response":"right","rt":217.39999999944,"correct":true,"confidence":3},{"trial_n":29,"n_dots":2.75,"target":"left","response":"left","rt":298.79999999981,"correct":true,"confidence":3},{"trial_n":30,"n_dots":2.65,"target":"right","response":"left","rt":389.79999999981,"correct":false,"confidence":4},{"trial_n":31,"n_dots":2.75,"target":"left","response":"left","rt":32.299999999814,"correct":true,"confidence":5},{"trial_n":32,"n_dots":2.75,"target":"right","response":"left","rt":290.29999999981,"correct":false,"confidence":4},{"trial_n":33,"n_dots":2.85,"target":"left","response":"left","rt":293.70000000019,"correct":true,"confidence":4},{"trial_n":34,"n_dots":2.85,"target":"right","response":"left","rt":320.40000000037,"correct":false,"confidence":3},{"trial_n":35,"n_dots":2.95,"target":"right","response":"right","rt":343.70000000019,"correct":true,"confidence":4},{"trial_n":36,"n_dots":2.95,"target":"left","response":"left","rt":360,"correct":true,"confidence":5},{"trial_n":37,"n_dots":2.85,"target":"left","response":"right","rt":402.70000000019,"correct":false,"confidence":4},{"trial_n":38,"n_dots":2.95,"target":"left","response":"left","rt":367.20000000019,"correct":true,"confidence":5},{"trial_n":39,"n_dots":2.95,"target":"left","response":"left","rt":336.5,"correct":true,"confidence":4},{"trial_n":40,"n_dots":2.85,"target":"left","response":"left","rt":308.20000000019,"correct":true,"confidence":5},{"trial_n":41,"n_dots":2.85,"target":"right","response":"left","rt":354.40000000037,"correct":false,"confidence":4},{"trial_n":42,"n_dots":2.95,"target":"left","response":"left","rt":46.199999999255,"correct":true,"confidence":5},{"trial_n":43,"n_dots":2.95,"target":"left","response":"left","rt":229.79999999981,"correct":true,"confidence":5},{"trial_n":44,"n_dots":2.85,"target":"right","response":"right","rt":270.39999999944,"correct":true,"confidence":5},{"trial_n":45,"n_dots":2.85,"target":"left","response":"left","rt":279.39999999944,"correct":true,"confidence":5},{"trial_n":46,"n_dots":2.75,"target":"right","response":"right","rt":416.5,"correct":true,"confidence":3},{"trial_n":47,"n_dots":2.75,"target":"left","response":"left","rt":241.59999999963,"correct":true,"confidence":4},{"trial_n":48,"n_dots":2.65,"target":"left","response":"left","rt":270.10000000056,"correct":true,"confidence":5},{"trial_n":49,"n_dots":2.65,"target":"left","response":"left","rt":242.79999999981,"correct":true,"confidence":5},{"trial_n":50,"n_dots":2.55,"target":"left","response":"left","rt":300.5,"correct":true,"confidence":5},{"trial_n":51,"n_dots":2.55,"target":"left","response":"left","rt":494.20000000019,"correct":true,"confidence":5},{"trial_n":52,"n_dots":2.45,"target":"left","response":"left","rt":340.20000000019,"correct":true,"confidence":5},{"trial_n":53,"n_dots":2.45,"target":"right","response":"right","rt":1009.2000000002,"correct":true,"confidence":2},{"trial_n":54,"n_dots":2.35,"target":"left","response":"left","rt":266.5,"correct":true,"confidence":5},{"trial_n":55,"n_dots":2.35,"target":"right","response":"right","rt":1133.6999999993,"correct":true,"confidence":2},{"trial_n":56,"n_dots":2.25,"target":"left","response":"left","rt":357.89999999944,"correct":true,"confidence":5},{"trial_n":57,"n_dots":2.25,"target":"right","response":"left","rt":916.20000000019,"correct":false,"confidence":4},{"trial_n":58,"n_dots":2.35,"target":"right","response":"left","rt":1458.8000000007,"correct":false,"confidence":4},{"trial_n":59,"n_dots":2.45,"target":"right","response":"left","rt":2842.5999999996,"correct":false,"confidence":4},{"trial_n":60,"n_dots":2.55,"target":"right","response":"right","rt":1386.7999999998,"correct":true,"confidence":4},{"trial_n":61,"n_dots":2.55,"target":"right","response":"left","rt":1015.1000000006,"correct":false,"confidence":4},{"trial_n":62,"n_dots":2.65,"target":"right","response":"right","rt":708.59999999963,"correct":true,"confidence":3},{"trial_n":63,"n_dots":2.65,"target":"left","response":"right","rt":662.09999999963,"correct":false,"confidence":4},{"trial_n":64,"n_dots":2.75,"target":"right","response":"right","rt":376.79999999981,"correct":true,"confidence":5},{"trial_n":65,"n_dots":2.75,"target":"right","response":"left","rt":427.59999999963,"correct":false,"confidence":3},{"trial_n":66,"n_dots":2.85,"target":"right","response":"left","rt":534.79999999981,"correct":false,"confidence":5},{"trial_n":67,"n_dots":2.95,"target":"left","response":"left","rt":334.59999999963,"correct":true,"confidence":4},{"trial_n":68,"n_dots":2.95,"target":"right","response":"left","rt":347.80000000075,"correct":false,"confidence":5},{"trial_n":69,"n_dots":3.05,"target":"right","response":"left","rt":354.5,"correct":false,"confidence":3},{"trial_n":70,"n_dots":3.15,"target":"right","response":"left","rt":374.80000000075,"correct":false,"confidence":5},{"trial_n":71,"n_dots":3.25,"target":"left","response":"left","rt":547.5,"correct":true,"confidence":4},{"trial_n":72,"n_dots":3.25,"target":"left","response":"left","rt":1826,"correct":true,"confidence":2},{"trial_n":73,"n_dots":3.15,"target":"left","response":"right","rt":1395.2000000002,"correct":false,"confidence":5},{"trial_n":74,"n_dots":3.25,"target":"left","response":"left","rt":364.29999999981,"correct":true,"confidence":4},{"trial_n":75,"n_dots":3.25,"target":"right","response":"left","rt":489.70000000019,"correct":false,"confidence":5},{"trial_n":76,"n_dots":3.35,"target":"right","response":"right","rt":387.79999999981,"correct":true,"confidence":4},{"trial_n":77,"n_dots":3.35,"target":"left","response":"right","rt":341,"correct":false,"confidence":3},{"trial_n":78,"n_dots":3.45,"target":"left","response":"left","rt":349.90000000037,"correct":true,"confidence":4},{"trial_n":79,"n_dots":3.45,"target":"right","response":"right","rt":405.90000000037,"correct":true,"confidence":4},{"trial_n":80,"n_dots":3.35,"target":"right","response":"right","rt":1129.0999999996,"correct":true,"confidence":3},{"trial_n":81,"n_dots":3.35,"target":"right","response":"left","rt":425.79999999981,"correct":false,"confidence":5},{"trial_n":82,"n_dots":3.45,"target":"left","response":"left","rt":277.79999999981,"correct":true,"confidence":5},{"trial_n":83,"n_dots":3.45,"target":"left","response":"left","rt":416.70000000019,"correct":true,"confidence":5},{"trial_n":84,"n_dots":3.35,"target":"right","response":"right","rt":389.5,"correct":true,"confidence":4},{"trial_n":85,"n_dots":3.35,"target":"right","response":"right","rt":294.90000000037,"correct":true,"confidence":5},{"trial_n":86,"n_dots":3.25,"target":"left","response":"left","rt":297.90000000037,"correct":true,"confidence":3},{"trial_n":87,"n_dots":3.25,"target":"right","response":"right","rt":419.5,"correct":true,"confidence":4},{"trial_n":88,"n_dots":3.15,"target":"left","response":"right","rt":447.39999999944,"correct":false,"confidence":5},{"trial_n":89,"n_dots":3.25,"target":"left","response":"left","rt":314.90000000037,"correct":true,"confidence":3},{"trial_n":90,"n_dots":3.25,"target":"left","response":"left","rt":273.90000000037,"correct":true,"confidence":5},{"trial_n":91,"n_dots":3.15,"target":"left","response":"left","rt":267.80000000075,"correct":true,"confidence":5},{"trial_n":92,"n_dots":3.15,"target":"right","response":"right","rt":511.5,"correct":true,"confidence":4},{"trial_n":93,"n_dots":3.05,"target":"right","response":"right","rt":1667.3999999994,"correct":true,"confidence":3},{"trial_n":94,"n_dots":3.05,"target":"left","response":"left","rt":357.40000000037,"correct":true,"confidence":5},{"trial_n":95,"n_dots":2.95,"target":"left","response":"right","rt":436.70000000019,"correct":false,"confidence":5},{"trial_n":96,"n_dots":3.05,"target":"right","response":"right","rt":342.90000000037,"correct":true,"confidence":5},{"trial_n":97,"n_dots":3.05,"target":"left","response":"left","rt":346.79999999981,"correct":true,"confidence":2},{"trial_n":98,"n_dots":2.95,"target":"right","response":"right","rt":714.59999999963,"correct":true,"confidence":2},{"trial_n":99,"n_dots":2.95,"target":"left","response":"right","rt":570,"correct":false,"confidence":2},{"trial_n":100,"n_dots":3.05,"target":"left","response":"left","rt":577.90000000037,"correct":true,"confidence":3},{"trial_n":101,"n_dots":3.05,"target":"right","response":"right","rt":366,"correct":true,"confidence":4},{"trial_n":102,"n_dots":2.95,"target":"left","response":"left","rt":143.70000000019,"correct":true,"confidence":5},{"trial_n":103,"n_dots":2.95,"target":"left","response":"left","rt":276.20000000019,"correct":true,"confidence":5},{"trial_n":104,"n_dots":2.85,"target":"left","response":"left","rt":339.20000000019,"correct":true,"confidence":5},{"trial_n":105,"n_dots":2.85,"target":"left","response":"left","rt":293.89999999944,"correct":true,"confidence":5},{"trial_n":106,"n_dots":2.75,"target":"left","response":"left","rt":354.20000000019,"correct":true,"confidence":5},{"trial_n":107,"n_dots":2.75,"target":"right","response":"left","rt":408.5,"correct":false,"confidence":5},{"trial_n":108,"n_dots":2.85,"target":"right","response":"left","rt":954.10000000056,"correct":false,"confidence":2},{"trial_n":109,"n_dots":2.95,"target":"left","response":"right","rt":160.5,"correct":false,"confidence":4},{"trial_n":110,"n_dots":3.05,"target":"right","response":"right","rt":639.59999999963,"correct":true,"confidence":4},{"trial_n":111,"n_dots":3.05,"target":"left","response":"left","rt":230.40000000037,"correct":true,"confidence":5},{"trial_n":112,"n_dots":2.95,"target":"right","response":"right","rt":449.60000000056,"correct":true,"confidence":4},{"trial_n":113,"n_dots":2.95,"target":"right","response":"right","rt":390.90000000037,"correct":true,"confidence":3},{"trial_n":114,"n_dots":2.85,"target":"left","response":"left","rt":310.69999999925,"correct":true,"confidence":5},{"trial_n":115,"n_dots":2.85,"target":"left","response":"right","rt":547.59999999963,"correct":false,"confidence":4},{"trial_n":116,"n_dots":2.95,"target":"right","response":"right","rt":66.400000000373,"correct":true,"confidence":5},{"trial_n":117,"n_dots":2.95,"target":"right","response":"right","rt":341.70000000019,"correct":true,"confidence":4},{"trial_n":118,"n_dots":2.85,"target":"left","response":"left","rt":269.90000000037,"correct":true,"confidence":4},{"trial_n":119,"n_dots":2.85,"target":"right","response":"right","rt":283.5,"correct":true,"confidence":5},{"trial_n":120,"n_dots":2.75,"target":"left","response":"right","rt":269.60000000056,"correct":false,"confidence":4}]