[{"trial_n":1,"min":25,"max":230,"target":"present","response":"present","rt":8101,"correct":true,"confidence":-1},{"trial_n":2,"min":25,"max":230,"target":"present","response":"present","rt":966,"correct":true,"confidence":-1},{"trial_n":3,"min":41,"max":214,"target":"absent","response":"absent","rt":960,"correct":true,"confidence":-1},{"trial_n":4,"min":41,"max":214,"target":"absent","response":"absent","rt":1057,"correct":true,"confidence":-1},{"trial_n":5,"min":57,"max":198,"target":"present","response":"present","rt":1767,"correct":true,"confidence":-1},{"trial_n":6,"min":57,"max":198,"target":"absent","response":"absent","rt":1211,"correct":true,"confidence":-1},{"trial_n":7,"min":73,"max":182,"target":"absent","response":"absent","rt":2020,"correct":true,"confidence":-1},{"trial_n":8,"min":73,"max":182,"target":"present","response":"present","rt":560,"correct":true,"confidence":-1},{"trial_n":9,"min":89,"max":166,"target":"absent","response":"absent","rt":607,"correct":true,"confidence":-1},{"trial_n":10,"min":89,"max":166,"target":"present","response":"absent","rt":444,"correct":false,"confidence":-1},{"trial_n":11,"min":81,"max":174,"target":"present","response":"present","rt":520,"correct":true,"confidence":-1},{"trial_n":12,"min":81,"max":174,"target":"absent","response":"absent","rt":703.00000000003,"correct":true,"confidence":-1},{"trial_n":13,"min":89,"max":166,"target":"present","response":"absent","rt":489,"correct":false,"confidence":-1},{"trial_n":14,"min":81,"max":174,"target":"absent","response":"absent","rt":512,"correct":true,"confidence":-1},{"trial_n":15,"min":81,"max":174,"target":"present","response":"present","rt":620.00000000003,"correct":true,"confidence":-1},{"trial_n":16,"min":89,"max":166,"target":"present","response":"absent","rt":374,"correct":false,"confidence":-1},{"trial_n":17,"min":81,"max":174,"target":"present","response":"present","rt":495.00000000003,"correct":true,"confidence":-1},{"trial_n":18,"min":81,"max":174,"target":"present","response":"absent","rt":241,"correct":false,"confidence":-1},{"trial_n":19,"min":73,"max":182,"target":"absent","response":"absent","rt":399,"correct":true,"confidence":-1},{"trial_n":20,"min":73,"max":182,"target":"present","response":"present","rt":612,"correct":true,"confidence":-1},{"trial_n":21,"min":77,"max":178,"target":"present","response":"present","rt":368,"correct":true,"confidence":5},{"trial_n":22,"min":77,"max":178,"target":"present","response":"present","rt":1400,"correct":true,"confidence":5},{"trial_n":23,"min":81,"max":174,"target":"present","response":"present","rt":1197,"correct":true,"confidence":5},{"trial_n":24,"min":81,"max":174,"target":"absent","response":"absent","rt":1201,"correct":true,"confidence":3},{"trial_n":25,"min":85,"max":170,"target":"absent","response":"absent","rt":922.00000000003,"correct":true,"confidence":4},{"trial_n":26,"min":85,"max":170,"target":"absent","response":"present","rt":794,"correct":false,"confidence":4},{"trial_n":27,"min":81,"max":174,"target":"present","response":"present","rt":1057,"correct":true,"confidence":5},{"trial_n":28,"min":81,"max":174,"target":"present","response":"present","rt":1422,"correct":true,"confidence":3},{"trial_n":29,"min":85,"max":170,"target":"absent","response":"absent","rt":1080,"correct":true,"confidence":4},{"trial_n":30,"min":85,"max":170,"target":"absent","response":"absent","rt":5982,"correct":true,"confidence":2},{"trial_n":31,"min":87,"max":168,"target":"absent","response":"absent","rt":2472,"correct":true,"confidence":4},{"trial_n":32,"min":87,"max":168,"target":"absent","response":"present","rt":794,"correct":false,"confidence":3},{"trial_n":33,"min":85,"max":170,"target":"absent","response":"absent","rt":846,"correct":true,"confidence":5},{"trial_n":34,"min":85,"max":170,"target":"absent","response":"absent","rt":852.00000000006,"correct":true,"confidence":5},{"trial_n":35,"min":87,"max":168,"target":"absent","response":"absent","rt":1286.9999999999,"correct":true,"confidence":5},{"trial_n":36,"min":87,"max":168,"target":"absent","response":"absent","rt":790,"correct":true,"confidence":5},{"trial_n":37,"min":89,"max":166,"target":"present","response":"absent","rt":1004.0000000001,"correct":false,"confidence":5},{"trial_n":38,"min":87,"max":168,"target":"present","response":"present","rt":768,"correct":true,"confidence":4},{"trial_n":39,"min":87,"max":168,"target":"present","response":"present","rt":870,"correct":true,"confidence":1},{"trial_n":40,"min":89,"max":166,"target":"absent","response":"present","rt":1744,"correct":false,"confidence":4},{"trial_n":41,"min":88,"max":167,"target":"present","response":"present","rt":1440,"correct":true,"confidence":4},{"trial_n":42,"min":88,"max":167,"target":"present","response":"absent","rt":1824,"correct":false,"confidence":1},{"trial_n":43,"min":87,"max":168,"target":"present","response":"present","rt":676,"correct":true,"confidence":4},{"trial_n":44,"min":87,"max":168,"target":"present","response":"present","rt":842,"correct":true,"confidence":4},{"trial_n":45,"min":88,"max":167,"target":"absent","response":"absent","rt":1178,"correct":true,"confidence":2},{"trial_n":46,"min":88,"max":167,"target":"present","response":"absent","rt":911,"correct":false,"confidence":4},{"trial_n":47,"min":87,"max":168,"target":"absent","response":"absent","rt":1066.0000000001,"correct":true,"confidence":4},{"trial_n":48,"min":87,"max":168,"target":"present","response":"absent","rt":400.99999999994,"correct":false,"confidence":5},{"trial_n":49,"min":86,"max":169,"target":"absent","response":"absent","rt":840,"correct":true,"confidence":5},{"trial_n":50,"min":86,"max":169,"target":"absent","response":"absent","rt":2095,"correct":true,"confidence":5},{"trial_n":51,"min":87,"max":168,"target":"present","response":"present","rt":780,"correct":true,"confidence":3},{"trial_n":52,"min":87,"max":168,"target":"present","response":"present","rt":717,"correct":true,"confidence":4},{"trial_n":53,"min":88,"max":167,"target":"absent","response":"present","rt":841.99999999994,"correct":false,"confidence":1},{"trial_n":54,"min":87,"max":168,"target":"present","response":"present","rt":726,"correct":true,"confidence":3},{"trial_n":55,"min":87,"max":168,"target":"present","response":"present","rt":938,"correct":true,"confidence":4},{"trial_n":56,"min":88,"max":167,"target":"absent","response":"absent","rt":1570,"correct":true,"confidence":4},{"trial_n":57,"min":88,"max":167,"target":"present","response":"absent","rt":550,"correct":false,"confidence":4},{"trial_n":58,"min":87,"max":168,"target":"present","response":"present","rt":723,"correct":true,"confidence":3},{"trial_n":59,"min":87,"max":168,"target":"present","response":"present","rt":800,"correct":true,"confidence":3},{"trial_n":60,"min":88,"max":167,"target":"present","response":"present","rt":851,"correct":true,"confidence":4},{"trial_n":61,"min":88,"max":167,"target":"absent","response":"absent","rt":1174.0000000001,"correct":true,"confidence":3},{"trial_n":62,"min":89,"max":166,"target":"absent","response":"absent","rt":978.00000000006,"correct":true,"confidence":3},{"trial_n":63,"min":89,"max":166,"target":"absent","response":"present","rt":1218.0000000001,"correct":false,"confidence":4},{"trial_n":64,"min":88,"max":167,"target":"absent","response":"absent","rt":1565,"correct":true,"confidence":2},{"trial_n":65,"min":88,"max":167,"target":"absent","response":"absent","rt":644.99999999994,"correct":true,"confidence":3},{"trial_n":66,"min":89,"max":166,"target":"absent","response":"absent","rt":722,"correct":true,"confidence":3},{"trial_n":67,"min":89,"max":166,"target":"present","response":"absent","rt":325,"correct":false,"confidence":3},{"trial_n":68,"min":88,"max":167,"target":"absent","response":"absent","rt":745,"correct":true,"confidence":3},{"trial_n":69,"min":88,"max":167,"target":"absent","response":"absent","rt":339.99999999994,"correct":true,"confidence":1},{"trial_n":70,"min":89,"max":166,"target":"present","response":"absent","rt":1026,"correct":false,"confidence":1},{"trial_n":71,"min":41,"max":214,"target":"present","response":"absent","rt":6035,"correct":false,"confidence":-1},{"trial_n":72,"min":41,"max":214,"target":"present","response":"present","rt":990,"correct":true,"confidence":-1},{"trial_n":73,"min":41,"max":214,"target":"absent","response":"absent","rt":847,"correct":true,"confidence":-1},{"trial_n":74,"min":57,"max":198,"target":"absent","response":"present","rt":575,"correct":false,"confidence":-1},{"trial_n":75,"min":41,"max":214,"target":"present","response":"present","rt":466,"correct":true,"confidence":-1},{"trial_n":76,"min":41,"max":214,"target":"absent","response":"absent","rt":711,"correct":true,"confidence":-1},{"trial_n":77,"min":57,"max":198,"target":"absent","response":"present","rt":1058,"correct":false,"confidence":-1},{"trial_n":78,"min":41,"max":214,"target":"absent","response":"absent","rt":709.99999999994,"correct":true,"confidence":-1},{"trial_n":79,"min":41,"max":214,"target":"present","response":"present","rt":485,"correct":true,"confidence":-1},{"trial_n":80,"min":57,"max":198,"target":"present","response":"present","rt":5807,"correct":true,"confidence":-1},{"trial_n":81,"min":57,"max":198,"target":"absent","response":"absent","rt":485,"correct":true,"confidence":-1},{"trial_n":82,"min":65,"max":190,"target":"present","response":"present","rt":1629.9999999999,"correct":true,"confidence":-1},{"trial_n":83,"min":65,"max":190,"target":"absent","response":"present","rt":558,"correct":false,"confidence":-1},{"trial_n":84,"min":57,"max":198,"target":"present","response":"present","rt":956,"correct":true,"confidence":-1},{"trial_n":85,"min":57,"max":198,"target":"present","response":"present","rt":977,"correct":true,"confidence":-1},{"trial_n":86,"min":65,"max":190,"target":"absent","response":"absent","rt":560,"correct":true,"confidence":-1},{"trial_n":87,"min":65,"max":190,"target":"absent","response":"absent","rt":522.99999999994,"correct":true,"confidence":-1},{"trial_n":88,"min":73,"max":182,"target":"present","response":"present","rt":488,"correct":true,"confidence":-1},{"trial_n":89,"min":73,"max":182,"target":"absent","response":"present","rt":656.99999999994,"correct":false,"confidence":-1},{"trial_n":90,"min":65,"max":190,"target":"present","response":"present","rt":1536.9999999999,"correct":true,"confidence":-1},{"trial_n":91,"min":65,"max":190,"target":"present","response":"present","rt":352.00000000006,"correct":true,"confidence":5},{"trial_n":92,"min":69,"max":186,"target":"present","response":"present","rt":1481,"correct":true,"confidence":5},{"trial_n":93,"min":69,"max":186,"target":"absent","response":"absent","rt":1478,"correct":true,"confidence":5},{"trial_n":94,"min":73,"max":182,"target":"absent","response":"absent","rt":2019,"correct":true,"confidence":3},{"trial_n":95,"min":73,"max":182,"target":"absent","response":"absent","rt":970.00000000006,"correct":true,"confidence":4},{"trial_n":96,"min":77,"max":178,"target":"present","response":"present","rt":572,"correct":true,"confidence":5},{"trial_n":97,"min":77,"max":178,"target":"absent","response":"absent","rt":834,"correct":true,"confidence":5},{"trial_n":98,"min":81,"max":174,"target":"absent","response":"absent","rt":4541,"correct":true,"confidence":4},{"trial_n":99,"min":81,"max":174,"target":"present","response":"present","rt":877.00000000006,"correct":true,"confidence":5},{"trial_n":100,"min":85,"max":170,"target":"present","response":"present","rt":1614,"correct":true,"confidence":5},{"trial_n":101,"min":85,"max":170,"target":"present","response":"present","rt":817,"correct":true,"confidence":5},{"trial_n":102,"min":87,"max":168,"target":"absent","response":"present","rt":4738,"correct":false,"confidence":1},{"trial_n":103,"min":85,"max":170,"target":"present","response":"present","rt":340,"correct":true,"confidence":5},{"trial_n":104,"min":85,"max":170,"target":"present","response":"present","rt":543,"correct":true,"confidence":5},{"trial_n":105,"min":87,"max":168,"target":"absent","response":"absent","rt":874,"correct":true,"confidence":3},{"trial_n":106,"min":87,"max":168,"target":"absent","response":"present","rt":1384,"correct":false,"confidence":1},{"trial_n":107,"min":85,"max":170,"target":"present","response":"present","rt":557.00000000012,"correct":true,"confidence":1},{"trial_n":108,"min":85,"max":170,"target":"absent","response":"absent","rt":1093,"correct":true,"confidence":2},{"trial_n":109,"min":87,"max":168,"target":"absent","response":"present","rt":1059,"correct":false,"confidence":2},{"trial_n":110,"min":85,"max":170,"target":"present","response":"present","rt":732,"correct":true,"confidence":4},{"trial_n":111,"min":85,"max":170,"target":"absent","response":"absent","rt":1078,"correct":true,"confidence":3},{"trial_n":112,"min":86,"max":169,"target":"present","response":"present","rt":581.00000000012,"correct":true,"confidence":4},{"trial_n":113,"min":86,"max":169,"target":"present","response":"present","rt":2091,"correct":true,"confidence":5},{"trial_n":114,"min":87,"max":168,"target":"absent","response":"present","rt":2380,"correct":false,"confidence":5},{"trial_n":115,"min":86,"max":169,"target":"present","response":"present","rt":1081,"correct":true,"confidence":1},{"trial_n":116,"min":86,"max":169,"target":"absent","response":"absent","rt":424,"correct":true,"confidence":1},{"trial_n":117,"min":87,"max":168,"target":"present","response":"present","rt":425.00000000012,"correct":true,"confidence":4},{"trial_n":118,"min":87,"max":168,"target":"present","response":"present","rt":1479,"correct":true,"confidence":1},{"trial_n":119,"min":88,"max":167,"target":"present","response":"absent","rt":1208,"correct":false,"confidence":1},{"trial_n":120,"min":87,"max":168,"target":"present","response":"present","rt":922,"correct":true,"confidence":1},{"trial_n":121,"min":87,"max":168,"target":"absent","response":"present","rt":579,"correct":false,"confidence":1},{"trial_n":122,"min":86,"max":169,"target":"absent","response":"present","rt":410,"correct":false,"confidence":1},{"trial_n":123,"min":85,"max":170,"target":"absent","response":"present","rt":921,"correct":false,"confidence":1},{"trial_n":124,"min":84,"max":171,"target":"present","response":"present","rt":1320,"correct":true,"confidence":5},{"trial_n":125,"min":84,"max":171,"target":"absent","response":"absent","rt":1053.9999999999,"correct":true,"confidence":3},{"trial_n":126,"min":85,"max":170,"target":"absent","response":"absent","rt":3063,"correct":true,"confidence":2},{"trial_n":127,"min":85,"max":170,"target":"present","response":"present","rt":453.99999999988,"correct":true,"confidence":4},{"trial_n":128,"min":86,"max":169,"target":"absent","response":"absent","rt":734,"correct":true,"confidence":4},{"trial_n":129,"min":86,"max":169,"target":"present","response":"present","rt":533.99999999988,"correct":true,"confidence":4},{"trial_n":130,"min":87,"max":168,"target":"absent","response":"absent","rt":1812.9999999999,"correct":true,"confidence":1},{"trial_n":131,"min":87,"max":168,"target":"present","response":"absent","rt":598,"correct":false,"confidence":1},{"trial_n":132,"min":86,"max":169,"target":"absent","response":"absent","rt":870,"correct":true,"confidence":3},{"trial_n":133,"min":86,"max":169,"target":"present","response":"present","rt":889,"correct":true,"confidence":4},{"trial_n":134,"min":87,"max":168,"target":"absent","response":"present","rt":736,"correct":false,"confidence":1},{"trial_n":135,"min":86,"max":169,"target":"absent","response":"present","rt":518,"correct":false,"confidence":1},{"trial_n":136,"min":85,"max":170,"target":"absent","response":"absent","rt":213.00000000012,"correct":true,"confidence":4},{"trial_n":137,"min":85,"max":170,"target":"present","response":"absent","rt":561,"correct":false,"confidence":1},{"trial_n":138,"min":84,"max":171,"target":"present","response":"present","rt":368,"correct":true,"confidence":5},{"trial_n":139,"min":84,"max":171,"target":"present","response":"present","rt":619,"correct":true,"confidence":4},{"trial_n":140,"min":85,"max":170,"target":"present","response":"present","rt":1131,"correct":true,"confidence":3}]