[{"trial_n":1,"n_dots":4.25,"target":"right","response":"left","rt":6385.3000000715,"correct":false,"confidence":-1},{"trial_n":2,"n_dots":4.25,"target":"left","response":"left","rt":859.79999995232,"correct":true,"confidence":-1},{"trial_n":3,"n_dots":4.25,"target":"left","response":"left","rt":752.89999997616,"correct":true,"confidence":-1},{"trial_n":4,"n_dots":3.85,"target":"right","response":"right","rt":684,"correct":true,"confidence":-1},{"trial_n":5,"n_dots":3.85,"target":"right","response":"right","rt":538.30000007153,"correct":true,"confidence":-1},{"trial_n":6,"n_dots":3.45,"target":"right","response":"right","rt":637.89999997616,"correct":true,"confidence":-1},{"trial_n":7,"n_dots":3.45,"target":"left","response":"right","rt":634.5,"correct":false,"confidence":-1},{"trial_n":8,"n_dots":3.65,"target":"left","response":"left","rt":648.10000002384,"correct":true,"confidence":-1},{"trial_n":9,"n_dots":3.65,"target":"right","response":"left","rt":1384.1000000238,"correct":false,"confidence":-1},{"trial_n":10,"n_dots":3.85,"target":"right","response":"right","rt":563.60000002384,"correct":true,"confidence":-1},{"trial_n":11,"n_dots":3.85,"target":"right","response":"right","rt":599.70000004768,"correct":true,"confidence":-1},{"trial_n":12,"n_dots":3.65,"target":"left","response":"left","rt":955.89999997616,"correct":true,"confidence":-1},{"trial_n":13,"n_dots":3.65,"target":"left","response":"left","rt":629.79999995232,"correct":true,"confidence":-1},{"trial_n":14,"n_dots":3.55,"target":"left","response":"left","rt":673.5,"correct":true,"confidence":-1},{"trial_n":15,"n_dots":3.55,"target":"right","response":"right","rt":433.59999990463,"correct":true,"confidence":-1},{"trial_n":16,"n_dots":3.45,"target":"left","response":"left","rt":625.20000004768,"correct":true,"confidence":-1},{"trial_n":17,"n_dots":3.45,"target":"right","response":"right","rt":667.79999995232,"correct":true,"confidence":-1},{"trial_n":18,"n_dots":3.35,"target":"right","response":"right","rt":509.30000007153,"correct":true,"confidence":-1},{"trial_n":19,"n_dots":3.35,"target":"right","response":"right","rt":609.5,"correct":true,"confidence":-1},{"trial_n":20,"n_dots":3.25,"target":"right","response":"right","rt":1173.2999999523,"correct":true,"confidence":-1},{"trial_n":21,"n_dots":3.25,"target":"right","response":"left","rt":653.09999990463,"correct":false,"confidence":3},{"trial_n":22,"n_dots":3.35,"target":"right","response":"left","rt":769.60000002384,"correct":false,"confidence":3},{"trial_n":23,"n_dots":3.45,"target":"left","response":"left","rt":689,"correct":true,"confidence":4},{"trial_n":24,"n_dots":3.45,"target":"right","response":"right","rt":847,"correct":true,"confidence":4},{"trial_n":25,"n_dots":3.35,"target":"left","response":"left","rt":3191,"correct":true,"confidence":2},{"trial_n":26,"n_dots":3.35,"target":"left","response":"left","rt":639.30000007153,"correct":true,"confidence":4},{"trial_n":27,"n_dots":3.25,"target":"left","response":"right","rt":780.39999997616,"correct":false,"confidence":3},{"trial_n":28,"n_dots":3.35,"target":"right","response":"right","rt":578.09999990463,"correct":true,"confidence":4},{"trial_n":29,"n_dots":3.35,"target":"left","response":"left","rt":1374.8000000715,"correct":true,"confidence":2},{"trial_n":30,"n_dots":3.25,"target":"right","response":"right","rt":705,"correct":true,"confidence":4},{"trial_n":31,"n_dots":3.25,"target":"left","response":"left","rt":855.79999995232,"correct":true,"confidence":3},{"trial_n":32,"n_dots":3.15,"target":"right","response":"right","rt":531.60000002384,"correct":true,"confidence":4},{"trial_n":33,"n_dots":3.15,"target":"right","response":"right","rt":567.39999997616,"correct":true,"confidence":4},{"trial_n":34,"n_dots":3.05,"target":"left","response":"right","rt":1761.0999999046,"correct":false,"confidence":3},{"trial_n":35,"n_dots":3.15,"target":"left","response":"left","rt":779.89999997616,"correct":true,"confidence":4},{"trial_n":36,"n_dots":3.15,"target":"left","response":"right","rt":1597,"correct":false,"confidence":2},{"trial_n":37,"n_dots":3.25,"target":"left","response":"right","rt":1282,"correct":false,"confidence":3},{"trial_n":38,"n_dots":3.35,"target":"right","response":"right","rt":431.90000009537,"correct":true,"confidence":4},{"trial_n":39,"n_dots":3.35,"target":"left","response":"left","rt":511.89999997616,"correct":true,"confidence":4},{"trial_n":40,"n_dots":3.25,"target":"left","response":"right","rt":1402.9000000954,"correct":false,"confidence":2},{"trial_n":41,"n_dots":3.35,"target":"right","response":"right","rt":495.39999997616,"correct":true,"confidence":4},{"trial_n":42,"n_dots":3.35,"target":"left","response":"right","rt":761.60000002384,"correct":false,"confidence":3},{"trial_n":43,"n_dots":3.45,"target":"right","response":"right","rt":1218.1000000238,"correct":true,"confidence":3},{"trial_n":44,"n_dots":3.45,"target":"right","response":"right","rt":613.5,"correct":true,"confidence":3},{"trial_n":45,"n_dots":3.35,"target":"left","response":"left","rt":1271.9000000954,"correct":true,"confidence":2},{"trial_n":46,"n_dots":3.35,"target":"left","response":"left","rt":1346.3999999762,"correct":true,"confidence":2},{"trial_n":47,"n_dots":3.25,"target":"left","response":"left","rt":990.79999995232,"correct":true,"confidence":4},{"trial_n":48,"n_dots":3.25,"target":"right","response":"left","rt":955.5,"correct":false,"confidence":2},{"trial_n":49,"n_dots":3.35,"target":"right","response":"right","rt":668.10000002384,"correct":true,"confidence":3},{"trial_n":50,"n_dots":3.35,"target":"left","response":"left","rt":561.20000004768,"correct":true,"confidence":4},{"trial_n":51,"n_dots":3.25,"target":"right","response":"left","rt":1379.2999999523,"correct":false,"confidence":1},{"trial_n":52,"n_dots":3.35,"target":"left","response":"left","rt":499.5,"correct":true,"confidence":5},{"trial_n":53,"n_dots":3.35,"target":"right","response":"right","rt":663.60000002384,"correct":true,"confidence":5},{"trial_n":54,"n_dots":3.25,"target":"left","response":"right","rt":1359.7000000477,"correct":false,"confidence":3},{"trial_n":55,"n_dots":3.35,"target":"left","response":"left","rt":411.69999992847,"correct":true,"confidence":5},{"trial_n":56,"n_dots":3.35,"target":"left","response":"left","rt":314.70000004768,"correct":true,"confidence":5},{"trial_n":57,"n_dots":3.25,"target":"right","response":"right","rt":889.29999995232,"correct":true,"confidence":4},{"trial_n":58,"n_dots":3.25,"target":"left","response":"left","rt":801.79999995232,"correct":true,"confidence":4},{"trial_n":59,"n_dots":3.15,"target":"right","response":"right","rt":955.79999995232,"correct":true,"confidence":4},{"trial_n":60,"n_dots":3.15,"target":"left","response":"left","rt":564.19999992847,"correct":true,"confidence":5},{"trial_n":61,"n_dots":3.05,"target":"right","response":"left","rt":542,"correct":false,"confidence":4},{"trial_n":62,"n_dots":3.15,"target":"left","response":"left","rt":453.5,"correct":true,"confidence":5},{"trial_n":63,"n_dots":3.15,"target":"left","response":"right","rt":562.89999997616,"correct":false,"confidence":4},{"trial_n":64,"n_dots":3.25,"target":"right","response":"right","rt":502.79999995232,"correct":true,"confidence":5},{"trial_n":65,"n_dots":3.25,"target":"right","response":"right","rt":910.89999997616,"correct":true,"confidence":5},{"trial_n":66,"n_dots":3.15,"target":"left","response":"right","rt":873,"correct":false,"confidence":5},{"trial_n":67,"n_dots":3.25,"target":"left","response":"right","rt":716.89999997616,"correct":false,"confidence":5},{"trial_n":68,"n_dots":3.35,"target":"right","response":"right","rt":429.89999997616,"correct":true,"confidence":5},{"trial_n":69,"n_dots":3.35,"target":"left","response":"left","rt":1933.5,"correct":true,"confidence":2},{"trial_n":70,"n_dots":3.25,"target":"left","response":"right","rt":763.5,"correct":false,"confidence":4},{"trial_n":71,"n_dots":3.35,"target":"right","response":"right","rt":575.59999990463,"correct":true,"confidence":5},{"trial_n":72,"n_dots":3.35,"target":"left","response":"right","rt":2106,"correct":false,"confidence":2},{"trial_n":73,"n_dots":3.45,"target":"right","response":"right","rt":621.20000004768,"correct":true,"confidence":5},{"trial_n":74,"n_dots":3.45,"target":"left","response":"left","rt":1131.9000000954,"correct":true,"confidence":3},{"trial_n":75,"n_dots":3.35,"target":"right","response":"right","rt":539,"correct":true,"confidence":5},{"trial_n":76,"n_dots":3.35,"target":"right","response":"right","rt":2085.1999999285,"correct":true,"confidence":2},{"trial_n":77,"n_dots":3.25,"target":"left","response":"right","rt":2222,"correct":false,"confidence":2},{"trial_n":78,"n_dots":3.35,"target":"right","response":"right","rt":646.5,"correct":true,"confidence":4},{"trial_n":79,"n_dots":3.35,"target":"right","response":"right","rt":913.5,"correct":true,"confidence":2},{"trial_n":80,"n_dots":3.25,"target":"right","response":"right","rt":619.59999990463,"correct":true,"confidence":3},{"trial_n":81,"n_dots":3.25,"target":"right","response":"right","rt":550.39999997616,"correct":true,"confidence":4},{"trial_n":82,"n_dots":3.15,"target":"left","response":"right","rt":2628.7000000477,"correct":false,"confidence":2},{"trial_n":83,"n_dots":3.25,"target":"left","response":"left","rt":1034.3999999762,"correct":true,"confidence":3},{"trial_n":84,"n_dots":3.25,"target":"right","response":"right","rt":703.79999995232,"correct":true,"confidence":4},{"trial_n":85,"n_dots":3.15,"target":"left","response":"left","rt":894.60000002384,"correct":true,"confidence":3},{"trial_n":86,"n_dots":3.15,"target":"left","response":"left","rt":907.39999997616,"correct":true,"confidence":4},{"trial_n":87,"n_dots":3.05,"target":"left","response":"right","rt":1364,"correct":false,"confidence":2},{"trial_n":88,"n_dots":3.15,"target":"left","response":"left","rt":1918.5,"correct":true,"confidence":2},{"trial_n":89,"n_dots":3.15,"target":"right","response":"right","rt":581.70000004768,"correct":true,"confidence":4},{"trial_n":90,"n_dots":3.05,"target":"left","response":"left","rt":762,"correct":true,"confidence":3},{"trial_n":91,"n_dots":3.05,"target":"right","response":"right","rt":530.89999997616,"correct":true,"confidence":4},{"trial_n":92,"n_dots":2.95,"target":"right","response":"right","rt":643.20000004768,"correct":true,"confidence":4},{"trial_n":93,"n_dots":2.95,"target":"left","response":"left","rt":3458.3000000715,"correct":true,"confidence":1},{"trial_n":94,"n_dots":2.85,"target":"left","response":"left","rt":791.10000002384,"correct":true,"confidence":4},{"trial_n":95,"n_dots":2.85,"target":"left","response":"left","rt":701.60000002384,"correct":true,"confidence":4},{"trial_n":96,"n_dots":2.75,"target":"left","response":"left","rt":575.69999992847,"correct":true,"confidence":4},{"trial_n":97,"n_dots":2.75,"target":"right","response":"right","rt":573.5,"correct":true,"confidence":4},{"trial_n":98,"n_dots":2.65,"target":"left","response":"right","rt":3101.1999999285,"correct":false,"confidence":2},{"trial_n":99,"n_dots":2.75,"target":"right","response":"right","rt":605,"correct":true,"confidence":4},{"trial_n":100,"n_dots":2.75,"target":"left","response":"left","rt":739.60000002384,"correct":true,"confidence":4},{"trial_n":101,"n_dots":2.65,"target":"right","response":"right","rt":648.5,"correct":true,"confidence":4},{"trial_n":102,"n_dots":2.65,"target":"left","response":"right","rt":435.5,"correct":false,"confidence":4},{"trial_n":103,"n_dots":2.75,"target":"right","response":"right","rt":587.39999997616,"correct":true,"confidence":4},{"trial_n":104,"n_dots":2.75,"target":"right","response":"right","rt":1535.1000000238,"correct":true,"confidence":3},{"trial_n":105,"n_dots":2.65,"target":"right","response":"right","rt":603.5,"correct":true,"confidence":4},{"trial_n":106,"n_dots":2.65,"target":"right","response":"right","rt":717.79999995232,"correct":true,"confidence":3},{"trial_n":107,"n_dots":2.55,"target":"right","response":"right","rt":525.90000009537,"correct":true,"confidence":4},{"trial_n":108,"n_dots":2.55,"target":"left","response":"right","rt":2105.3999999762,"correct":false,"confidence":2},{"trial_n":109,"n_dots":2.65,"target":"right","response":"right","rt":774.10000002384,"correct":true,"confidence":3},{"trial_n":110,"n_dots":2.65,"target":"right","response":"left","rt":833.29999995232,"correct":false,"confidence":2},{"trial_n":111,"n_dots":2.75,"target":"left","response":"left","rt":604.19999992847,"correct":true,"confidence":3},{"trial_n":112,"n_dots":2.75,"target":"left","response":"left","rt":796.80000007153,"correct":true,"confidence":3},{"trial_n":113,"n_dots":2.65,"target":"left","response":"left","rt":802.10000002384,"correct":true,"confidence":3},{"trial_n":114,"n_dots":2.65,"target":"right","response":"right","rt":2123.6999999285,"correct":true,"confidence":2},{"trial_n":115,"n_dots":2.55,"target":"right","response":"right","rt":659.29999995232,"correct":true,"confidence":3},{"trial_n":116,"n_dots":2.55,"target":"right","response":"right","rt":712.10000002384,"correct":true,"confidence":4},{"trial_n":117,"n_dots":2.45,"target":"left","response":"left","rt":660.89999997616,"correct":true,"confidence":4},{"trial_n":118,"n_dots":2.45,"target":"right","response":"right","rt":628.30000007153,"correct":true,"confidence":3},{"trial_n":119,"n_dots":2.35,"target":"left","response":"right","rt":1540.1999999285,"correct":false,"confidence":3},{"trial_n":120,"n_dots":2.45,"target":"right","response":"right","rt":347.79999995232,"correct":true,"confidence":4}]