[{"trial_n":1,"span":8,"encoder":"71890093","distractor":"71890098","target":"present","response":"present","rt":"13358","correct":true,"confidence":-1},{"trial_n":2,"span":8,"encoder":"97122749","distractor":"99122749","target":"present","response":"absent","rt":"4039","correct":false,"confidence":-1},{"trial_n":3,"span":6,"encoder":"308843","distractor":"308853","target":"absent","response":"absent","rt":"1780","correct":true,"confidence":-1},{"trial_n":4,"span":6,"encoder":"133230","distractor":"133234","target":"absent","response":"absent","rt":"2362","correct":true,"confidence":-1},{"trial_n":5,"span":8,"encoder":"81918074","distractor":"81818074","target":"present","response":"present","rt":"3738","correct":true,"confidence":-1},{"trial_n":6,"span":8,"encoder":"95239012","distractor":"97239012","target":"present","response":"present","rt":"3689","correct":true,"confidence":-1},{"trial_n":7,"span":10,"encoder":"8931167023","distractor":"8937167023","target":"present","response":"absent","rt":"2882","correct":false,"confidence":-1},{"trial_n":8,"span":8,"encoder":"01862622","distractor":"01861622","target":"present","response":"absent","rt":"5322","correct":false,"confidence":-1},{"trial_n":9,"span":6,"encoder":"325525","distractor":"325225","target":"absent","response":"present","rt":"1431","correct":false,"confidence":-1},{"trial_n":10,"span":4,"encoder":"0985","distractor":"4985","target":"absent","response":"absent","rt":"3053","correct":true,"confidence":-1},{"trial_n":11,"span":4,"encoder":"0556","distractor":"0559","target":"absent","response":"absent","rt":"2104","correct":true,"confidence":-1},{"trial_n":12,"span":5,"encoder":"76996","distractor":"16996","target":"present","response":"present","rt":"1643","correct":true,"confidence":-1},{"trial_n":13,"span":5,"encoder":"41169","distractor":"46169","target":"present","response":"absent","rt":"2808","correct":false,"confidence":-1},{"trial_n":14,"span":4,"encoder":"6360","distractor":"6560","target":"present","response":"present","rt":"5071","correct":true,"confidence":-1},{"trial_n":15,"span":4,"encoder":"3946","distractor":"7946","target":"present","response":"present","rt":"3655","correct":true,"confidence":-1},{"trial_n":16,"span":5,"encoder":"10487","distractor":"10587","target":"absent","response":"absent","rt":"2658","correct":true,"confidence":-1},{"trial_n":17,"span":5,"encoder":"39153","distractor":"37153","target":"absent","response":"absent","rt":"2944","correct":true,"confidence":-1},{"trial_n":18,"span":6,"encoder":"666564","distractor":"666264","target":"present","response":"present","rt":"3612","correct":true,"confidence":-1},{"trial_n":19,"span":6,"encoder":"301973","distractor":"301933","target":"present","response":"present","rt":"4813","correct":true,"confidence":-1},{"trial_n":20,"span":7,"encoder":"1655816","distractor":"6655816","target":"present","response":"present","rt":"3283","correct":true,"confidence":-1},{"trial_n":21,"span":7,"encoder":"4627985","distractor":"4697985","target":"present","response":"present","rt":"5797","correct":true,"confidence":5},{"trial_n":22,"span":8,"encoder":"27337613","distractor":"27337713","target":"present","response":"present","rt":"5474","correct":true,"confidence":4},{"trial_n":23,"span":8,"encoder":"16129436","distractor":"16529436","target":"absent","response":"absent","rt":"7789","correct":true,"confidence":5},{"trial_n":24,"span":9,"encoder":"758353284","distractor":"758353484","target":"present","response":"present","rt":"9312","correct":true,"confidence":3},{"trial_n":25,"span":9,"encoder":"130522968","distractor":"130522964","target":"present","response":"present","rt":"2910","correct":true,"confidence":4},{"trial_n":26,"span":10,"encoder":"4981185242","distractor":"4681185242","target":"present","response":"present","rt":"5502","correct":true,"confidence":4},{"trial_n":27,"span":10,"encoder":"3558456880","distractor":"8558456880","target":"absent","response":"absent","rt":"9932","correct":true,"confidence":3},{"trial_n":28,"span":11,"encoder":"74086579119","distractor":"74046579119","target":"absent","response":"absent","rt":"1234","correct":true,"confidence":2},{"trial_n":29,"span":11,"encoder":"72763562157","distractor":"42763562157","target":"absent","response":"present","rt":"2720","correct":false,"confidence":2},{"trial_n":30,"span":10,"encoder":"4407577997","distractor":"4407577497","target":"present","response":"absent","rt":"13981","correct":false,"confidence":2},{"trial_n":31,"span":9,"encoder":"156398217","distractor":"156328217","target":"absent","response":"present","rt":"7068.9999999999","correct":false,"confidence":3},{"trial_n":32,"span":8,"encoder":"25308846","distractor":"25318846","target":"present","response":"present","rt":"4963.0000000002","correct":true,"confidence":5},{"trial_n":33,"span":8,"encoder":"33071593","distractor":"43071593","target":"absent","response":"absent","rt":"2445","correct":true,"confidence":5},{"trial_n":34,"span":9,"encoder":"973594939","distractor":"273594939","target":"absent","response":"absent","rt":"3097","correct":true,"confidence":5},{"trial_n":35,"span":9,"encoder":"624896080","distractor":"224896080","target":"absent","response":"absent","rt":"5448","correct":true,"confidence":5},{"trial_n":36,"span":10,"encoder":"6563428685","distractor":"6568428685","target":"absent","response":"absent","rt":"9771","correct":true,"confidence":5},{"trial_n":37,"span":10,"encoder":"3910515837","distractor":"3410515837","target":"absent","response":"absent","rt":"4438","correct":true,"confidence":4},{"trial_n":38,"span":11,"encoder":"87312424785","distractor":"77312424785","target":"present","response":"present","rt":"6241","correct":true,"confidence":4},{"trial_n":39,"span":11,"encoder":"13949989281","distractor":"13949989881","target":"present","response":"present","rt":"4306","correct":true,"confidence":4},{"trial_n":40,"span":12,"encoder":"673177485395","distractor":"673177785395","target":"absent","response":"absent","rt":"9718","correct":true,"confidence":3},{"trial_n":41,"span":12,"encoder":"335431884394","distractor":"335431874394","target":"present","response":"present","rt":"6478","correct":true,"confidence":4},{"trial_n":42,"span":13,"encoder":"5870376543484","distractor":"5870374543484","target":"present","response":"present","rt":"8344","correct":true,"confidence":3},{"trial_n":43,"span":13,"encoder":"8926703077894","distractor":"8936703077894","target":"present","response":"present","rt":"4416","correct":true,"confidence":2},{"trial_n":44,"span":14,"encoder":"97440812060831","distractor":"97440812070831","target":"present","response":"absent","rt":"1585.9999999998","correct":false,"confidence":1},{"trial_n":45,"span":13,"encoder":"6328774847561","distractor":"6328774847562","target":"absent","response":"present","rt":"2266","correct":false,"confidence":2},{"trial_n":46,"span":12,"encoder":"081623614589","distractor":"084623614589","target":"present","response":"present","rt":"1397","correct":true,"confidence":4},{"trial_n":47,"span":12,"encoder":"876812510856","distractor":"876812510056","target":"absent","response":"absent","rt":"4145","correct":true,"confidence":3},{"trial_n":48,"span":13,"encoder":"4392650483492","distractor":"4392650484492","target":"present","response":"present","rt":"5719","correct":true,"confidence":3},{"trial_n":49,"span":13,"encoder":"0082865766698","distractor":"0082845766698","target":"absent","response":"present","rt":"2587","correct":false,"confidence":2},{"trial_n":50,"span":12,"encoder":"757998196228","distractor":"757958196228","target":"present","response":"present","rt":"1861","correct":true,"confidence":1},{"trial_n":51,"span":12,"encoder":"207221085943","distractor":"207228085943","target":"absent","response":"present","rt":"1435.9999999998","correct":false,"confidence":4},{"trial_n":52,"span":11,"encoder":"66279111389","distractor":"66279411389","target":"present","response":"present","rt":"2743","correct":true,"confidence":5},{"trial_n":53,"span":11,"encoder":"13532837612","distractor":"13532837112","target":"present","response":"present","rt":"1724.0000000002","correct":true,"confidence":2},{"trial_n":54,"span":12,"encoder":"486296523403","distractor":"486256523403","target":"present","response":"absent","rt":"2186","correct":false,"confidence":1},{"trial_n":55,"span":11,"encoder":"66661453791","distractor":"66861453791","target":"absent","response":"absent","rt":"2653","correct":true,"confidence":2},{"trial_n":56,"span":11,"encoder":"43956887125","distractor":"47956887125","target":"absent","response":"present","rt":"2660","correct":false,"confidence":1},{"trial_n":57,"span":10,"encoder":"1299586172","distractor":"1299586152","target":"absent","response":"absent","rt":"3589","correct":true,"confidence":3},{"trial_n":58,"span":10,"encoder":"0420963886","distractor":"0440963886","target":"absent","response":"present","rt":"11855","correct":false,"confidence":1},{"trial_n":59,"span":9,"encoder":"489247439","distractor":"489847439","target":"absent","response":"present","rt":"1317","correct":false,"confidence":3},{"trial_n":60,"span":8,"encoder":"41001866","distractor":"41701866","target":"absent","response":"absent","rt":"1813","correct":true,"confidence":2},{"trial_n":61,"span":8,"encoder":"98693041","distractor":"88693041","target":"present","response":"present","rt":"2724.0000000002","correct":true,"confidence":3},{"trial_n":62,"span":9,"encoder":"860447338","distractor":"860447388","target":"absent","response":"present","rt":"1533","correct":false,"confidence":1},{"trial_n":63,"span":8,"encoder":"94537741","distractor":"94577741","target":"absent","response":"present","rt":"1729","correct":false,"confidence":3},{"trial_n":64,"span":7,"encoder":"6738271","distractor":"6735271","target":"present","response":"present","rt":"1623","correct":true,"confidence":4},{"trial_n":65,"span":7,"encoder":"0948778","distractor":"7948778","target":"absent","response":"present","rt":"1292","correct":false,"confidence":3},{"trial_n":66,"span":6,"encoder":"503769","distractor":"503669","target":"absent","response":"present","rt":"2623","correct":false,"confidence":3},{"trial_n":67,"span":5,"encoder":"67879","distractor":"61879","target":"present","response":"present","rt":"2951","correct":true,"confidence":5},{"trial_n":68,"span":5,"encoder":"56190","distractor":"56197","target":"absent","response":"present","rt":"1485","correct":false,"confidence":4},{"trial_n":69,"span":4,"encoder":"7305","distractor":"7105","target":"absent","response":"absent","rt":"2314","correct":true,"confidence":4},{"trial_n":70,"span":4,"encoder":"0177","distractor":"0175","target":"present","response":"present","rt":"1864","correct":true,"confidence":4},{"trial_n":71,"span":8,"encoder":"52772121","distractor":"52742121","target":"present","response":"present","rt":"3825","correct":true,"confidence":-1},{"trial_n":72,"span":8,"encoder":"37415239","distractor":"37415232","target":"present","response":"absent","rt":"8189","correct":false,"confidence":-1},{"trial_n":73,"span":7,"encoder":"3513992","distractor":"3513392","target":"absent","response":"absent","rt":"85227","correct":true,"confidence":-1},{"trial_n":74,"span":7,"encoder":"0650003","distractor":"0670003","target":"absent","response":"present","rt":"3291","correct":false,"confidence":-1},{"trial_n":75,"span":6,"encoder":"955199","distractor":"955119","target":"present","response":"present","rt":"3167","correct":true,"confidence":-1},{"trial_n":76,"span":6,"encoder":"972939","distractor":"072939","target":"absent","response":"absent","rt":"2191","correct":true,"confidence":-1},{"trial_n":77,"span":7,"encoder":"6100329","distractor":"6180329","target":"absent","response":"present","rt":"604","correct":false,"confidence":-1},{"trial_n":78,"span":6,"encoder":"860798","distractor":"861798","target":"absent","response":"absent","rt":"375","correct":true,"confidence":-1},{"trial_n":79,"span":6,"encoder":"923980","distractor":"823980","target":"absent","response":"present","rt":"118372","correct":false,"confidence":-1},{"trial_n":80,"span":5,"encoder":"20304","distractor":"20504","target":"absent","response":"present","rt":"772","correct":false,"confidence":-1},{"trial_n":81,"span":4,"encoder":"5272","distractor":"5292","target":"present","response":"absent","rt":"655","correct":false,"confidence":-1},{"trial_n":82,"span":3,"encoder":"700","distractor":"704","target":"present","response":"absent","rt":"587.99999999953","correct":false,"confidence":-1},{"trial_n":83,"span":2,"encoder":"40","distractor":"10","target":"absent","response":"absent","rt":"470","correct":true,"confidence":-1},{"trial_n":84,"span":2,"encoder":"07","distractor":"77","target":"absent","response":"present","rt":"429.99999999953","correct":false,"confidence":-1},{"trial_n":85,"span":2,"encoder":"45","distractor":"46","target":"present","response":"absent","rt":"676","correct":false,"confidence":-1},{"trial_n":86,"span":2,"encoder":"23","distractor":"24","target":"absent","response":"present","rt":"536.00000000047","correct":false,"confidence":-1},{"trial_n":87,"span":2,"encoder":"63","distractor":"73","target":"absent","response":"present","rt":"427.99999999953","correct":false,"confidence":-1},{"trial_n":88,"span":2,"encoder":"91","distractor":"61","target":"absent","response":"present","rt":"414","correct":false,"confidence":-1},{"trial_n":89,"span":2,"encoder":"25","distractor":"75","target":"absent","response":"absent","rt":"1894","correct":true,"confidence":-1},{"trial_n":90,"span":2,"encoder":"47","distractor":"87","target":"absent","response":"absent","rt":"630","correct":true,"confidence":-1},{"trial_n":91,"span":3,"encoder":"943","distractor":"903","target":"absent","response":"absent","rt":"886.99999999953","correct":true,"confidence":5},{"trial_n":92,"span":3,"encoder":"242","distractor":"252","target":"absent","response":"absent","rt":"1087","correct":true,"confidence":4},{"trial_n":93,"span":4,"encoder":"7343","distractor":"7348","target":"present","response":"present","rt":"2235","correct":true,"confidence":5},{"trial_n":94,"span":4,"encoder":"2098","distractor":"2068","target":"present","response":"present","rt":"1288","correct":true,"confidence":5},{"trial_n":95,"span":5,"encoder":"70988","distractor":"70908","target":"present","response":"present","rt":"5010.9999999995","correct":true,"confidence":5},{"trial_n":96,"span":5,"encoder":"40255","distractor":"40250","target":"absent","response":"absent","rt":"2487","correct":true,"confidence":5},{"trial_n":97,"span":6,"encoder":"588648","distractor":"588048","target":"present","response":"present","rt":"2139","correct":true,"confidence":5},{"trial_n":98,"span":6,"encoder":"211603","distractor":"218603","target":"present","response":"absent","rt":"3225","correct":false,"confidence":5},{"trial_n":99,"span":5,"encoder":"88717","distractor":"87717","target":"present","response":"present","rt":"6961.0000000005","correct":true,"confidence":3},{"trial_n":100,"span":5,"encoder":"82093","distractor":"82493","target":"present","response":"present","rt":"2449","correct":true,"confidence":4},{"trial_n":101,"span":6,"encoder":"585300","distractor":"585500","target":"present","response":"present","rt":"5231","correct":true,"confidence":5},{"trial_n":102,"span":6,"encoder":"699286","distractor":"695286","target":"present","response":"present","rt":"2730","correct":true,"confidence":5},{"trial_n":103,"span":7,"encoder":"8934564","distractor":"6934564","target":"absent","response":"absent","rt":"714","correct":true,"confidence":2},{"trial_n":104,"span":7,"encoder":"3998105","distractor":"3998115","target":"present","response":"present","rt":"1326","correct":true,"confidence":4},{"trial_n":105,"span":8,"encoder":"17471382","distractor":"11471382","target":"absent","response":"absent","rt":"3264","correct":true,"confidence":3},{"trial_n":106,"span":8,"encoder":"19661629","distractor":"19661621","target":"present","response":"present","rt":"8486","correct":true,"confidence":3},{"trial_n":107,"span":9,"encoder":"527021174","distractor":"527051174","target":"present","response":"absent","rt":"3083","correct":false,"confidence":1},{"trial_n":108,"span":8,"encoder":"34296560","distractor":"34296565","target":"present","response":"present","rt":"2157","correct":true,"confidence":2},{"trial_n":109,"span":8,"encoder":"86784355","distractor":"86684355","target":"present","response":"present","rt":"2062","correct":true,"confidence":3},{"trial_n":110,"span":9,"encoder":"374037291","distractor":"374037296","target":"present","response":"present","rt":"556","correct":true,"confidence":2},{"trial_n":111,"span":9,"encoder":"661094495","distractor":"661094995","target":"present","response":"present","rt":"4626","correct":true,"confidence":3},{"trial_n":112,"span":10,"encoder":"6536119371","distractor":"6536159371","target":"present","response":"present","rt":"58270","correct":true,"confidence":2},{"trial_n":113,"span":10,"encoder":"0718268620","distractor":"0718268820","target":"absent","response":"absent","rt":"249.00000000047","correct":true,"confidence":1},{"trial_n":114,"span":11,"encoder":"75999768490","distractor":"75099768490","target":"absent","response":"absent","rt":"2635","correct":true,"confidence":1},{"trial_n":115,"span":11,"encoder":"63336462883","distractor":"63336462483","target":"present","response":"absent","rt":"1935","correct":false,"confidence":1},{"trial_n":116,"span":10,"encoder":"9587645536","distractor":"9587845536","target":"present","response":"present","rt":"32164","correct":true,"confidence":2},{"trial_n":117,"span":10,"encoder":"2386263480","distractor":"2382263480","target":"absent","response":"present","rt":"2268.9999999995","correct":false,"confidence":2},{"trial_n":118,"span":9,"encoder":"793987624","distractor":"193987624","target":"absent","response":"present","rt":"18295","correct":false,"confidence":2},{"trial_n":119,"span":8,"encoder":"90554424","distractor":"70554424","target":"present","response":"present","rt":"2034","correct":true,"confidence":2},{"trial_n":120,"span":8,"encoder":"84058417","distractor":"84058411","target":"present","response":"present","rt":"2260","correct":true,"confidence":2},{"trial_n":121,"span":9,"encoder":"278534292","distractor":"278534232","target":"absent","response":"absent","rt":"3466","correct":true,"confidence":2},{"trial_n":122,"span":9,"encoder":"954235436","distractor":"954230436","target":"absent","response":"present","rt":"1769","correct":false,"confidence":2},{"trial_n":123,"span":8,"encoder":"36713910","distractor":"36717910","target":"present","response":"present","rt":"7937","correct":true,"confidence":2},{"trial_n":124,"span":8,"encoder":"20756003","distractor":"20756053","target":"absent","response":"absent","rt":"895","correct":true,"confidence":2},{"trial_n":125,"span":9,"encoder":"897355765","distractor":"857355765","target":"present","response":"absent","rt":"717","correct":false,"confidence":1},{"trial_n":126,"span":8,"encoder":"22862518","distractor":"22862519","target":"absent","response":"absent","rt":"1226.9999999995","correct":true,"confidence":2},{"trial_n":127,"span":8,"encoder":"25787982","distractor":"25787912","target":"absent","response":"present","rt":"2117.0000000005","correct":false,"confidence":1},{"trial_n":128,"span":7,"encoder":"9491056","distractor":"9490056","target":"present","response":"present","rt":"4566","correct":true,"confidence":3},{"trial_n":129,"span":7,"encoder":"3496534","distractor":"3496934","target":"present","response":"absent","rt":"2298.0000000005","correct":false,"confidence":2},{"trial_n":130,"span":6,"encoder":"543162","distractor":"343162","target":"absent","response":"present","rt":"1883","correct":false,"confidence":2},{"trial_n":131,"span":5,"encoder":"44802","distractor":"44302","target":"absent","response":"present","rt":"8159","correct":false,"confidence":3},{"trial_n":132,"span":4,"encoder":"3101","distractor":"3131","target":"absent","response":"present","rt":"1754.0000000005","correct":false,"confidence":5},{"trial_n":133,"span":3,"encoder":"918","distractor":"915","target":"present","response":"present","rt":"1500","correct":true,"confidence":5},{"trial_n":134,"span":3,"encoder":"954","distractor":"054","target":"absent","response":"absent","rt":"2189.9999999995","correct":true,"confidence":5},{"trial_n":135,"span":4,"encoder":"9583","distractor":"2583","target":"present","response":"present","rt":"1466","correct":true,"confidence":4},{"trial_n":136,"span":4,"encoder":"2950","distractor":"2952","target":"absent","response":"absent","rt":"1529","correct":true,"confidence":5},{"trial_n":137,"span":5,"encoder":"32345","distractor":"32745","target":"present","response":"present","rt":"982","correct":true,"confidence":3},{"trial_n":138,"span":5,"encoder":"37872","distractor":"37672","target":"absent","response":"absent","rt":"1577","correct":true,"confidence":5},{"trial_n":139,"span":6,"encoder":"703196","distractor":"723196","target":"present","response":"present","rt":"2446","correct":true,"confidence":5},{"trial_n":140,"span":6,"encoder":"781956","distractor":"781156","target":"present","response":"present","rt":"1766.9999999995","correct":true,"confidence":4}]