[{"trial_n":1,"min":25,"max":230,"target":"present","response":"present","rt":5182.0999999642,"correct":true,"confidence":-1},{"trial_n":2,"min":25,"max":230,"target":"present","response":"present","rt":1125.6999999881,"correct":true,"confidence":-1},{"trial_n":3,"min":41,"max":214,"target":"absent","response":"absent","rt":1169.1999999881,"correct":true,"confidence":-1},{"trial_n":4,"min":41,"max":214,"target":"absent","response":"absent","rt":1026.3000000119,"correct":true,"confidence":-1},{"trial_n":5,"min":57,"max":198,"target":"present","response":"present","rt":1417.4000000358,"correct":true,"confidence":-1},{"trial_n":6,"min":57,"max":198,"target":"absent","response":"absent","rt":979.30000001192,"correct":true,"confidence":-1},{"trial_n":7,"min":73,"max":182,"target":"present","response":"absent","rt":948.19999998808,"correct":false,"confidence":-1},{"trial_n":8,"min":57,"max":198,"target":"absent","response":"absent","rt":1487.8999999762,"correct":true,"confidence":-1},{"trial_n":9,"min":57,"max":198,"target":"absent","response":"absent","rt":1014.8000000119,"correct":true,"confidence":-1},{"trial_n":10,"min":73,"max":182,"target":"absent","response":"absent","rt":1154.8000000119,"correct":true,"confidence":-1},{"trial_n":11,"min":73,"max":182,"target":"absent","response":"absent","rt":991.30000001192,"correct":true,"confidence":-1},{"trial_n":12,"min":81,"max":174,"target":"present","response":"present","rt":994.80000001192,"correct":true,"confidence":-1},{"trial_n":13,"min":81,"max":174,"target":"present","response":"present","rt":1446.9000000358,"correct":true,"confidence":-1},{"trial_n":14,"min":89,"max":166,"target":"absent","response":"absent","rt":1539.5,"correct":true,"confidence":-1},{"trial_n":15,"min":89,"max":166,"target":"present","response":"absent","rt":880.30000001192,"correct":false,"confidence":-1},{"trial_n":16,"min":81,"max":174,"target":"absent","response":"present","rt":937.30000001192,"correct":false,"confidence":-1},{"trial_n":17,"min":73,"max":182,"target":"absent","response":"present","rt":1009.5999999642,"correct":false,"confidence":-1},{"trial_n":18,"min":65,"max":190,"target":"present","response":"present","rt":964.30000001192,"correct":true,"confidence":-1},{"trial_n":19,"min":65,"max":190,"target":"absent","response":"present","rt":969,"correct":false,"confidence":-1},{"trial_n":20,"min":57,"max":198,"target":"present","response":"present","rt":852.09999996424,"correct":true,"confidence":-1},{"trial_n":21,"min":57,"max":198,"target":"present","response":"present","rt":1364.6999999881,"correct":true,"confidence":5},{"trial_n":22,"min":61,"max":194,"target":"present","response":"present","rt":1127.6000000238,"correct":true,"confidence":4},{"trial_n":23,"min":61,"max":194,"target":"absent","response":"absent","rt":1240.2000000477,"correct":true,"confidence":3},{"trial_n":24,"min":65,"max":190,"target":"absent","response":"present","rt":5224.6999999881,"correct":false,"confidence":3},{"trial_n":25,"min":61,"max":194,"target":"absent","response":"present","rt":1624.0999999642,"correct":false,"confidence":3},{"trial_n":26,"min":57,"max":198,"target":"present","response":"present","rt":597,"correct":true,"confidence":5},{"trial_n":27,"min":57,"max":198,"target":"present","response":"present","rt":1127.6999999881,"correct":true,"confidence":5},{"trial_n":28,"min":61,"max":194,"target":"absent","response":"present","rt":3784.6000000238,"correct":false,"confidence":3},{"trial_n":29,"min":57,"max":198,"target":"absent","response":"absent","rt":1263.8000000119,"correct":true,"confidence":4},{"trial_n":30,"min":57,"max":198,"target":"absent","response":"absent","rt":1208.1000000238,"correct":true,"confidence":4},{"trial_n":31,"min":59,"max":196,"target":"present","response":"present","rt":1556.3999999762,"correct":true,"confidence":5},{"trial_n":32,"min":59,"max":196,"target":"present","response":"present","rt":1009.3999999762,"correct":true,"confidence":5},{"trial_n":33,"min":61,"max":194,"target":"absent","response":"absent","rt":4388.1999999881,"correct":true,"confidence":3},{"trial_n":34,"min":61,"max":194,"target":"present","response":"present","rt":466.80000001192,"correct":true,"confidence":5},{"trial_n":35,"min":63,"max":192,"target":"absent","response":"present","rt":3065.7999999523,"correct":false,"confidence":2},{"trial_n":36,"min":61,"max":194,"target":"absent","response":"absent","rt":5245.1999999881,"correct":true,"confidence":3},{"trial_n":37,"min":61,"max":194,"target":"present","response":"present","rt":714.69999998808,"correct":true,"confidence":5},{"trial_n":38,"min":63,"max":192,"target":"present","response":"present","rt":455.69999998808,"correct":true,"confidence":5},{"trial_n":39,"min":63,"max":192,"target":"present","response":"present","rt":476.60000002384,"correct":true,"confidence":5},{"trial_n":40,"min":65,"max":190,"target":"absent","response":"present","rt":1852.1999999881,"correct":false,"confidence":3},{"trial_n":41,"min":64,"max":191,"target":"absent","response":"present","rt":3004.5,"correct":false,"confidence":2},{"trial_n":42,"min":63,"max":192,"target":"absent","response":"absent","rt":1545.1000000238,"correct":true,"confidence":3},{"trial_n":43,"min":63,"max":192,"target":"present","response":"present","rt":525.69999998808,"correct":true,"confidence":5},{"trial_n":44,"min":64,"max":191,"target":"absent","response":"absent","rt":2212.8000000119,"correct":true,"confidence":3},{"trial_n":45,"min":64,"max":191,"target":"present","response":"present","rt":595.69999998808,"correct":true,"confidence":5},{"trial_n":46,"min":65,"max":190,"target":"present","response":"present","rt":529.30000001192,"correct":true,"confidence":5},{"trial_n":47,"min":65,"max":190,"target":"present","response":"present","rt":2213.8000000119,"correct":true,"confidence":5},{"trial_n":48,"min":66,"max":189,"target":"present","response":"present","rt":491.30000001192,"correct":true,"confidence":5},{"trial_n":49,"min":66,"max":189,"target":"absent","response":"absent","rt":2183,"correct":true,"confidence":3},{"trial_n":50,"min":67,"max":188,"target":"absent","response":"absent","rt":1371.1999999881,"correct":true,"confidence":3},{"trial_n":51,"min":67,"max":188,"target":"present","response":"present","rt":1118.8999999762,"correct":true,"confidence":4},{"trial_n":52,"min":68,"max":187,"target":"absent","response":"absent","rt":1963.3000000119,"correct":true,"confidence":3},{"trial_n":53,"min":68,"max":187,"target":"present","response":"present","rt":891.40000003576,"correct":true,"confidence":5},{"trial_n":54,"min":69,"max":186,"target":"present","response":"present","rt":1103.8999999762,"correct":true,"confidence":5},{"trial_n":55,"min":69,"max":186,"target":"present","response":"present","rt":1172.8000000119,"correct":true,"confidence":4},{"trial_n":56,"min":70,"max":185,"target":"absent","response":"absent","rt":1352,"correct":true,"confidence":4},{"trial_n":57,"min":70,"max":185,"target":"present","response":"present","rt":560.5,"correct":true,"confidence":4},{"trial_n":58,"min":71,"max":184,"target":"present","response":"present","rt":461.89999997616,"correct":true,"confidence":4},{"trial_n":59,"min":71,"max":184,"target":"absent","response":"absent","rt":1512.5,"correct":true,"confidence":3},{"trial_n":60,"min":72,"max":183,"target":"present","response":"present","rt":1477.1999999881,"correct":true,"confidence":3},{"trial_n":61,"min":72,"max":183,"target":"absent","response":"absent","rt":1572.8000000119,"correct":true,"confidence":3},{"trial_n":62,"min":73,"max":182,"target":"present","response":"present","rt":470.40000003576,"correct":true,"confidence":3},{"trial_n":63,"min":73,"max":182,"target":"absent","response":"absent","rt":2061.8000000119,"correct":true,"confidence":3},{"trial_n":64,"min":74,"max":181,"target":"absent","response":"absent","rt":1460.8999999762,"correct":true,"confidence":3},{"trial_n":65,"min":74,"max":181,"target":"present","response":"present","rt":663.80000001192,"correct":true,"confidence":4},{"trial_n":66,"min":75,"max":180,"target":"present","response":"present","rt":558.89999997616,"correct":true,"confidence":4},{"trial_n":67,"min":75,"max":180,"target":"absent","response":"absent","rt":1285.1999999881,"correct":true,"confidence":2},{"trial_n":68,"min":76,"max":179,"target":"present","response":"present","rt":810.09999996424,"correct":true,"confidence":3},{"trial_n":69,"min":76,"max":179,"target":"present","response":"present","rt":436.10000002384,"correct":true,"confidence":4},{"trial_n":70,"min":77,"max":178,"target":"absent","response":"absent","rt":1601.3999999762,"correct":true,"confidence":4},{"trial_n":71,"min":41,"max":214,"target":"present","response":"present","rt":8080.7999999523,"correct":true,"confidence":-1},{"trial_n":72,"min":41,"max":214,"target":"present","response":"present","rt":580.5,"correct":true,"confidence":-1},{"trial_n":73,"min":57,"max":198,"target":"absent","response":"absent","rt":507.30000001192,"correct":true,"confidence":-1},{"trial_n":74,"min":57,"max":198,"target":"absent","response":"absent","rt":472,"correct":true,"confidence":-1},{"trial_n":75,"min":73,"max":182,"target":"present","response":"present","rt":364.40000003576,"correct":true,"confidence":-1},{"trial_n":76,"min":73,"max":182,"target":"present","response":"present","rt":439.60000002384,"correct":true,"confidence":-1},{"trial_n":77,"min":89,"max":166,"target":"present","response":"present","rt":1557.3000000119,"correct":true,"confidence":-1},{"trial_n":78,"min":89,"max":166,"target":"present","response":"present","rt":524.80000001192,"correct":true,"confidence":-1},{"trial_n":79,"min":105,"max":150,"target":"absent","response":"present","rt":769,"correct":false,"confidence":-1},{"trial_n":80,"min":89,"max":166,"target":"absent","response":"present","rt":889.69999998808,"correct":false,"confidence":-1},{"trial_n":81,"min":81,"max":174,"target":"absent","response":"absent","rt":974.69999998808,"correct":true,"confidence":-1},{"trial_n":82,"min":81,"max":174,"target":"absent","response":"absent","rt":1441.6000000238,"correct":true,"confidence":-1},{"trial_n":83,"min":89,"max":166,"target":"present","response":"present","rt":296.39999997616,"correct":true,"confidence":-1},{"trial_n":84,"min":89,"max":166,"target":"present","response":"present","rt":959.60000002384,"correct":true,"confidence":-1},{"trial_n":85,"min":97,"max":158,"target":"absent","response":"present","rt":929.59999996424,"correct":false,"confidence":-1},{"trial_n":86,"min":89,"max":166,"target":"present","response":"present","rt":388.80000001192,"correct":true,"confidence":-1},{"trial_n":87,"min":89,"max":166,"target":"present","response":"present","rt":973.69999998808,"correct":true,"confidence":-1},{"trial_n":88,"min":97,"max":158,"target":"absent","response":"absent","rt":535.5,"correct":true,"confidence":-1},{"trial_n":89,"min":97,"max":158,"target":"absent","response":"present","rt":697.30000001192,"correct":false,"confidence":-1},{"trial_n":90,"min":89,"max":166,"target":"present","response":"present","rt":521.5,"correct":true,"confidence":-1},{"trial_n":91,"min":89,"max":166,"target":"absent","response":"absent","rt":577.30000001192,"correct":true,"confidence":4},{"trial_n":92,"min":93,"max":162,"target":"present","response":"present","rt":778.39999997616,"correct":true,"confidence":2},{"trial_n":93,"min":93,"max":162,"target":"present","response":"present","rt":1175.1999999881,"correct":true,"confidence":3},{"trial_n":94,"min":97,"max":158,"target":"absent","response":"absent","rt":1385.8000000119,"correct":true,"confidence":3},{"trial_n":95,"min":97,"max":158,"target":"present","response":"present","rt":1078.6000000238,"correct":true,"confidence":2},{"trial_n":96,"min":101,"max":154,"target":"absent","response":"present","rt":567.89999997616,"correct":false,"confidence":4},{"trial_n":97,"min":97,"max":158,"target":"absent","response":"absent","rt":2556.3999999762,"correct":true,"confidence":3},{"trial_n":98,"min":97,"max":158,"target":"present","response":"present","rt":656.60000002384,"correct":true,"confidence":3},{"trial_n":99,"min":101,"max":154,"target":"absent","response":"present","rt":684.5,"correct":false,"confidence":3},{"trial_n":100,"min":97,"max":158,"target":"present","response":"present","rt":581.5,"correct":true,"confidence":4},{"trial_n":101,"min":97,"max":158,"target":"absent","response":"present","rt":1871.1000000238,"correct":false,"confidence":3},{"trial_n":102,"min":95,"max":160,"target":"absent","response":"present","rt":597.69999998808,"correct":false,"confidence":4},{"trial_n":103,"min":93,"max":162,"target":"present","response":"absent","rt":863.80000001192,"correct":false,"confidence":3},{"trial_n":104,"min":91,"max":164,"target":"absent","response":"present","rt":774.10000002384,"correct":false,"confidence":2},{"trial_n":105,"min":89,"max":166,"target":"present","response":"present","rt":528.80000001192,"correct":true,"confidence":5},{"trial_n":106,"min":89,"max":166,"target":"present","response":"present","rt":1244.1000000238,"correct":true,"confidence":4},{"trial_n":107,"min":91,"max":164,"target":"absent","response":"present","rt":874.89999997616,"correct":false,"confidence":3},{"trial_n":108,"min":89,"max":166,"target":"absent","response":"absent","rt":677.39999997616,"correct":true,"confidence":2},{"trial_n":109,"min":89,"max":166,"target":"present","response":"present","rt":534.69999998808,"correct":true,"confidence":5},{"trial_n":110,"min":91,"max":164,"target":"present","response":"present","rt":1597,"correct":true,"confidence":3},{"trial_n":111,"min":91,"max":164,"target":"absent","response":"absent","rt":2794.4000000358,"correct":true,"confidence":2},{"trial_n":112,"min":92,"max":163,"target":"present","response":"present","rt":644,"correct":true,"confidence":3},{"trial_n":113,"min":92,"max":163,"target":"present","response":"present","rt":912.80000001192,"correct":true,"confidence":4},{"trial_n":114,"min":93,"max":162,"target":"absent","response":"absent","rt":831.09999996424,"correct":true,"confidence":2},{"trial_n":115,"min":93,"max":162,"target":"present","response":"present","rt":1135.3000000119,"correct":true,"confidence":3},{"trial_n":116,"min":94,"max":161,"target":"absent","response":"present","rt":815.79999995232,"correct":false,"confidence":4},{"trial_n":117,"min":93,"max":162,"target":"absent","response":"present","rt":1405.4000000358,"correct":false,"confidence":2},{"trial_n":118,"min":92,"max":163,"target":"absent","response":"present","rt":595.69999998808,"correct":false,"confidence":3},{"trial_n":119,"min":91,"max":164,"target":"absent","response":"absent","rt":799.80000001192,"correct":true,"confidence":4},{"trial_n":120,"min":91,"max":164,"target":"present","response":"present","rt":2032.0999999642,"correct":true,"confidence":1},{"trial_n":121,"min":92,"max":163,"target":"present","response":"present","rt":954.20000004768,"correct":true,"confidence":3},{"trial_n":122,"min":92,"max":163,"target":"present","response":"present","rt":741.29999995232,"correct":true,"confidence":3},{"trial_n":123,"min":93,"max":162,"target":"present","response":"absent","rt":921.39999997616,"correct":false,"confidence":2},{"trial_n":124,"min":92,"max":163,"target":"absent","response":"present","rt":471.19999998808,"correct":false,"confidence":2},{"trial_n":125,"min":91,"max":164,"target":"present","response":"absent","rt":1324,"correct":false,"confidence":3},{"trial_n":126,"min":90,"max":165,"target":"absent","response":"present","rt":482,"correct":false,"confidence":4},{"trial_n":127,"min":89,"max":166,"target":"present","response":"present","rt":938.90000003576,"correct":true,"confidence":3},{"trial_n":128,"min":89,"max":166,"target":"present","response":"present","rt":493.39999997616,"correct":true,"confidence":4},{"trial_n":129,"min":90,"max":165,"target":"present","response":"absent","rt":836.29999995232,"correct":false,"confidence":3},{"trial_n":130,"min":89,"max":166,"target":"absent","response":"absent","rt":1322.1999999881,"correct":true,"confidence":3},{"trial_n":131,"min":89,"max":166,"target":"absent","response":"present","rt":954.09999996424,"correct":false,"confidence":3},{"trial_n":132,"min":88,"max":167,"target":"present","response":"present","rt":1422,"correct":true,"confidence":3},{"trial_n":133,"min":88,"max":167,"target":"absent","response":"absent","rt":1277.8000000119,"correct":true,"confidence":4},{"trial_n":134,"min":89,"max":166,"target":"present","response":"present","rt":657.19999998808,"correct":true,"confidence":3},{"trial_n":135,"min":89,"max":166,"target":"absent","response":"absent","rt":923.09999996424,"correct":true,"confidence":4},{"trial_n":136,"min":90,"max":165,"target":"absent","response":"present","rt":2594.1000000238,"correct":false,"confidence":1},{"trial_n":137,"min":89,"max":166,"target":"present","response":"present","rt":712.30000001192,"correct":true,"confidence":3},{"trial_n":138,"min":89,"max":166,"target":"absent","response":"absent","rt":2261.5,"correct":true,"confidence":1},{"trial_n":139,"min":90,"max":165,"target":"absent","response":"absent","rt":1697.8000000119,"correct":true,"confidence":2},{"trial_n":140,"min":90,"max":165,"target":"present","response":"present","rt":803.79999995232,"correct":true,"confidence":3}]