[{"trial_n":1,"min":25,"max":230,"target":"present","response":"present","rt":5647.5,"correct":true,"confidence":-1},{"trial_n":2,"min":25,"max":230,"target":"present","response":"present","rt":1223.1999999993,"correct":true,"confidence":-1},{"trial_n":3,"min":41,"max":214,"target":"absent","response":"present","rt":488.80000000075,"correct":false,"confidence":-1},{"trial_n":4,"min":25,"max":230,"target":"absent","response":"absent","rt":3246.6999999993,"correct":true,"confidence":-1},{"trial_n":5,"min":25,"max":230,"target":"present","response":"present","rt":580.09999999776,"correct":true,"confidence":-1},{"trial_n":6,"min":41,"max":214,"target":"present","response":"present","rt":606,"correct":true,"confidence":-1},{"trial_n":7,"min":41,"max":214,"target":"present","response":"present","rt":374.09999999776,"correct":true,"confidence":-1},{"trial_n":8,"min":57,"max":198,"target":"present","response":"present","rt":295.70000000298,"correct":true,"confidence":-1},{"trial_n":9,"min":57,"max":198,"target":"present","response":"present","rt":300,"correct":true,"confidence":-1},{"trial_n":10,"min":73,"max":182,"target":"present","response":"present","rt":215.30000000075,"correct":true,"confidence":-1},{"trial_n":11,"min":73,"max":182,"target":"absent","response":"absent","rt":447.59999999776,"correct":true,"confidence":-1},{"trial_n":12,"min":81,"max":174,"target":"present","response":"present","rt":412.5,"correct":true,"confidence":-1},{"trial_n":13,"min":81,"max":174,"target":"absent","response":"absent","rt":565.30000000075,"correct":true,"confidence":-1},{"trial_n":14,"min":89,"max":166,"target":"absent","response":"absent","rt":538.40000000224,"correct":true,"confidence":-1},{"trial_n":15,"min":89,"max":166,"target":"absent","response":"absent","rt":493.5,"correct":true,"confidence":-1},{"trial_n":16,"min":97,"max":158,"target":"present","response":"absent","rt":754,"correct":false,"confidence":-1},{"trial_n":17,"min":89,"max":166,"target":"absent","response":"absent","rt":897.39999999851,"correct":true,"confidence":-1},{"trial_n":18,"min":89,"max":166,"target":"absent","response":"present","rt":825.69999999925,"correct":false,"confidence":-1},{"trial_n":19,"min":81,"max":174,"target":"present","response":"absent","rt":483.69999999925,"correct":false,"confidence":-1},{"trial_n":20,"min":73,"max":182,"target":"present","response":"present","rt":573.59999999776,"correct":true,"confidence":-1},{"trial_n":21,"min":73,"max":182,"target":"absent","response":"absent","rt":314.30000000075,"correct":true,"confidence":5},{"trial_n":22,"min":77,"max":178,"target":"present","response":"present","rt":308.60000000149,"correct":true,"confidence":5},{"trial_n":23,"min":77,"max":178,"target":"present","response":"absent","rt":438.60000000149,"correct":false,"confidence":4},{"trial_n":24,"min":73,"max":182,"target":"absent","response":"absent","rt":734.10000000149,"correct":true,"confidence":3},{"trial_n":25,"min":73,"max":182,"target":"absent","response":"absent","rt":1146.5,"correct":true,"confidence":3},{"trial_n":26,"min":77,"max":178,"target":"absent","response":"absent","rt":644.80000000075,"correct":true,"confidence":4},{"trial_n":27,"min":77,"max":178,"target":"present","response":"present","rt":410,"correct":true,"confidence":5},{"trial_n":28,"min":81,"max":174,"target":"absent","response":"absent","rt":1217.3000000007,"correct":true,"confidence":2},{"trial_n":29,"min":81,"max":174,"target":"present","response":"present","rt":473.30000000075,"correct":true,"confidence":4},{"trial_n":30,"min":85,"max":170,"target":"present","response":"present","rt":513.5,"correct":true,"confidence":5},{"trial_n":31,"min":85,"max":170,"target":"absent","response":"present","rt":759.39999999851,"correct":false,"confidence":3},{"trial_n":32,"min":83,"max":172,"target":"present","response":"present","rt":865.79999999702,"correct":true,"confidence":3},{"trial_n":33,"min":83,"max":172,"target":"present","response":"present","rt":1253.3000000007,"correct":true,"confidence":3},{"trial_n":34,"min":85,"max":170,"target":"present","response":"present","rt":516.39999999851,"correct":true,"confidence":5},{"trial_n":35,"min":85,"max":170,"target":"present","response":"present","rt":700.89999999851,"correct":true,"confidence":5},{"trial_n":36,"min":87,"max":168,"target":"present","response":"present","rt":507.09999999776,"correct":true,"confidence":5},{"trial_n":37,"min":87,"max":168,"target":"absent","response":"absent","rt":21339.600000001,"correct":true,"confidence":2},{"trial_n":38,"min":89,"max":166,"target":"present","response":"absent","rt":1169.6999999993,"correct":false,"confidence":4},{"trial_n":39,"min":87,"max":168,"target":"absent","response":"absent","rt":646.89999999851,"correct":true,"confidence":2},{"trial_n":40,"min":87,"max":168,"target":"present","response":"present","rt":2032.6999999993,"correct":true,"confidence":2},{"trial_n":41,"min":88,"max":167,"target":"present","response":"present","rt":709.5,"correct":true,"confidence":4},{"trial_n":42,"min":88,"max":167,"target":"absent","response":"absent","rt":795.89999999851,"correct":true,"confidence":3},{"trial_n":43,"min":89,"max":166,"target":"absent","response":"present","rt":1683.5999999978,"correct":false,"confidence":4},{"trial_n":44,"min":88,"max":167,"target":"absent","response":"absent","rt":750.5,"correct":true,"confidence":2},{"trial_n":45,"min":88,"max":167,"target":"absent","response":"absent","rt":849.40000000224,"correct":true,"confidence":3},{"trial_n":46,"min":89,"max":166,"target":"absent","response":"present","rt":1225.799999997,"correct":false,"confidence":2},{"trial_n":47,"min":88,"max":167,"target":"present","response":"absent","rt":879.79999999702,"correct":false,"confidence":2},{"trial_n":48,"min":87,"max":168,"target":"present","response":"present","rt":731.19999999925,"correct":true,"confidence":4},{"trial_n":49,"min":87,"max":168,"target":"absent","response":"absent","rt":665.89999999851,"correct":true,"confidence":2},{"trial_n":50,"min":88,"max":167,"target":"absent","response":"absent","rt":688.90000000224,"correct":true,"confidence":1},{"trial_n":51,"min":88,"max":167,"target":"present","response":"present","rt":770.19999999925,"correct":true,"confidence":4},{"trial_n":52,"min":89,"max":166,"target":"absent","response":"absent","rt":746.79999999702,"correct":true,"confidence":3},{"trial_n":53,"min":89,"max":166,"target":"present","response":"present","rt":957.5,"correct":true,"confidence":2},{"trial_n":54,"min":90,"max":165,"target":"present","response":"present","rt":612.40000000224,"correct":true,"confidence":5},{"trial_n":55,"min":90,"max":165,"target":"present","response":"absent","rt":472,"correct":false,"confidence":4},{"trial_n":56,"min":89,"max":166,"target":"absent","response":"absent","rt":1043.5999999978,"correct":true,"confidence":3},{"trial_n":57,"min":89,"max":166,"target":"absent","response":"absent","rt":1695,"correct":true,"confidence":3},{"trial_n":58,"min":90,"max":165,"target":"present","response":"present","rt":1011,"correct":true,"confidence":4},{"trial_n":59,"min":90,"max":165,"target":"absent","response":"absent","rt":482.10000000149,"correct":true,"confidence":5},{"trial_n":60,"min":91,"max":164,"target":"absent","response":"absent","rt":702.19999999925,"correct":true,"confidence":5},{"trial_n":61,"min":91,"max":164,"target":"absent","response":"absent","rt":642.10000000149,"correct":true,"confidence":3},{"trial_n":62,"min":92,"max":163,"target":"absent","response":"absent","rt":858.69999999925,"correct":true,"confidence":4},{"trial_n":63,"min":92,"max":163,"target":"absent","response":"absent","rt":612.70000000298,"correct":true,"confidence":3},{"trial_n":64,"min":93,"max":162,"target":"absent","response":"absent","rt":884.30000000075,"correct":true,"confidence":4},{"trial_n":65,"min":93,"max":162,"target":"present","response":"present","rt":550.10000000149,"correct":true,"confidence":4},{"trial_n":66,"min":94,"max":161,"target":"absent","response":"absent","rt":543.80000000075,"correct":true,"confidence":3},{"trial_n":67,"min":94,"max":161,"target":"present","response":"absent","rt":2805.8000000007,"correct":false,"confidence":2},{"trial_n":68,"min":93,"max":162,"target":"present","response":"present","rt":987.30000000075,"correct":true,"confidence":5},{"trial_n":69,"min":93,"max":162,"target":"absent","response":"absent","rt":1720.3000000007,"correct":true,"confidence":2},{"trial_n":70,"min":94,"max":161,"target":"present","response":"present","rt":1051.700000003,"correct":true,"confidence":5},{"trial_n":71,"min":41,"max":214,"target":"present","response":"present","rt":2365.5999999978,"correct":true,"confidence":-1},{"trial_n":72,"min":41,"max":214,"target":"present","response":"present","rt":2126.6999999993,"correct":true,"confidence":-1},{"trial_n":73,"min":57,"max":198,"target":"absent","response":"absent","rt":818.30000000075,"correct":true,"confidence":-1},{"trial_n":74,"min":57,"max":198,"target":"absent","response":"absent","rt":912,"correct":true,"confidence":-1},{"trial_n":75,"min":73,"max":182,"target":"present","response":"present","rt":534.70000000298,"correct":true,"confidence":-1},{"trial_n":76,"min":73,"max":182,"target":"absent","response":"absent","rt":554,"correct":true,"confidence":-1},{"trial_n":77,"min":89,"max":166,"target":"absent","response":"absent","rt":629.30000000075,"correct":true,"confidence":-1},{"trial_n":78,"min":89,"max":166,"target":"present","response":"present","rt":498,"correct":true,"confidence":-1},{"trial_n":79,"min":105,"max":150,"target":"absent","response":"absent","rt":964.69999999925,"correct":true,"confidence":-1},{"trial_n":80,"min":105,"max":150,"target":"absent","response":"present","rt":726.10000000149,"correct":false,"confidence":-1},{"trial_n":81,"min":97,"max":158,"target":"present","response":"present","rt":821.89999999851,"correct":true,"confidence":-1},{"trial_n":82,"min":97,"max":158,"target":"absent","response":"absent","rt":1069.9000000022,"correct":true,"confidence":-1},{"trial_n":83,"min":105,"max":150,"target":"present","response":"present","rt":430.09999999776,"correct":true,"confidence":-1},{"trial_n":84,"min":105,"max":150,"target":"absent","response":"present","rt":609.39999999851,"correct":false,"confidence":-1},{"trial_n":85,"min":97,"max":158,"target":"present","response":"absent","rt":1126.0999999978,"correct":false,"confidence":-1},{"trial_n":86,"min":89,"max":166,"target":"absent","response":"present","rt":599.39999999851,"correct":false,"confidence":-1},{"trial_n":87,"min":81,"max":174,"target":"present","response":"present","rt":361.30000000075,"correct":true,"confidence":-1},{"trial_n":88,"min":81,"max":174,"target":"present","response":"present","rt":547.69999999925,"correct":true,"confidence":-1},{"trial_n":89,"min":89,"max":166,"target":"present","response":"present","rt":493,"correct":true,"confidence":-1},{"trial_n":90,"min":89,"max":166,"target":"absent","response":"present","rt":469.90000000224,"correct":false,"confidence":-1},{"trial_n":91,"min":85,"max":170,"target":"present","response":"present","rt":481.30000000075,"correct":true,"confidence":5},{"trial_n":92,"min":85,"max":170,"target":"absent","response":"absent","rt":823.90000000224,"correct":true,"confidence":2},{"trial_n":93,"min":89,"max":166,"target":"absent","response":"absent","rt":829.89999999851,"correct":true,"confidence":3},{"trial_n":94,"min":89,"max":166,"target":"present","response":"present","rt":390.69999999925,"correct":true,"confidence":5},{"trial_n":95,"min":93,"max":162,"target":"present","response":"present","rt":636.30000000075,"correct":true,"confidence":4},{"trial_n":96,"min":93,"max":162,"target":"absent","response":"present","rt":675.10000000149,"correct":false,"confidence":4},{"trial_n":97,"min":89,"max":166,"target":"present","response":"present","rt":834.90000000224,"correct":true,"confidence":3},{"trial_n":98,"min":89,"max":166,"target":"absent","response":"absent","rt":618.80000000075,"correct":true,"confidence":3},{"trial_n":99,"min":93,"max":162,"target":"present","response":"present","rt":1239.4000000022,"correct":true,"confidence":2},{"trial_n":100,"min":93,"max":162,"target":"present","response":"present","rt":479.60000000149,"correct":true,"confidence":4},{"trial_n":101,"min":95,"max":160,"target":"absent","response":"present","rt":480.69999999925,"correct":false,"confidence":4},{"trial_n":102,"min":93,"max":162,"target":"present","response":"present","rt":1686.0999999978,"correct":true,"confidence":4},{"trial_n":103,"min":93,"max":162,"target":"present","response":"present","rt":599.80000000075,"correct":true,"confidence":4},{"trial_n":104,"min":95,"max":160,"target":"absent","response":"present","rt":751.70000000298,"correct":false,"confidence":5},{"trial_n":105,"min":93,"max":162,"target":"present","response":"present","rt":518.20000000298,"correct":true,"confidence":4},{"trial_n":106,"min":93,"max":162,"target":"absent","response":"present","rt":660.90000000224,"correct":false,"confidence":3},{"trial_n":107,"min":91,"max":164,"target":"present","response":"present","rt":680.80000000075,"correct":true,"confidence":5},{"trial_n":108,"min":91,"max":164,"target":"absent","response":"present","rt":648.89999999851,"correct":false,"confidence":2},{"trial_n":109,"min":89,"max":166,"target":"present","response":"present","rt":472.30000000075,"correct":true,"confidence":3},{"trial_n":110,"min":89,"max":166,"target":"present","response":"present","rt":448.10000000149,"correct":true,"confidence":4},{"trial_n":111,"min":90,"max":165,"target":"present","response":"present","rt":370.19999999925,"correct":true,"confidence":4},{"trial_n":112,"min":90,"max":165,"target":"present","response":"absent","rt":1729.799999997,"correct":false,"confidence":2},{"trial_n":113,"min":89,"max":166,"target":"absent","response":"absent","rt":1050.6000000015,"correct":true,"confidence":3},{"trial_n":114,"min":89,"max":166,"target":"absent","response":"present","rt":916.80000000075,"correct":false,"confidence":3},{"trial_n":115,"min":88,"max":167,"target":"present","response":"absent","rt":927.90000000224,"correct":false,"confidence":4},{"trial_n":116,"min":87,"max":168,"target":"absent","response":"present","rt":729.89999999851,"correct":false,"confidence":5},{"trial_n":117,"min":86,"max":169,"target":"absent","response":"present","rt":705.90000000224,"correct":false,"confidence":3},{"trial_n":118,"min":85,"max":170,"target":"present","response":"present","rt":511.89999999851,"correct":true,"confidence":4},{"trial_n":119,"min":85,"max":170,"target":"present","response":"present","rt":737.5,"correct":true,"confidence":5},{"trial_n":120,"min":86,"max":169,"target":"present","response":"present","rt":491.40000000224,"correct":true,"confidence":2},{"trial_n":121,"min":86,"max":169,"target":"absent","response":"absent","rt":1267.1000000015,"correct":true,"confidence":4},{"trial_n":122,"min":87,"max":168,"target":"present","response":"present","rt":420.29999999702,"correct":true,"confidence":5},{"trial_n":123,"min":87,"max":168,"target":"present","response":"present","rt":411.10000000149,"correct":true,"confidence":4},{"trial_n":124,"min":88,"max":167,"target":"absent","response":"absent","rt":854.5,"correct":true,"confidence":4},{"trial_n":125,"min":88,"max":167,"target":"absent","response":"absent","rt":615.69999999925,"correct":true,"confidence":4},{"trial_n":126,"min":89,"max":166,"target":"present","response":"present","rt":910.90000000224,"correct":true,"confidence":5},{"trial_n":127,"min":89,"max":166,"target":"present","response":"present","rt":891,"correct":true,"confidence":3},{"trial_n":128,"min":90,"max":165,"target":"absent","response":"present","rt":776.5,"correct":false,"confidence":5},{"trial_n":129,"min":89,"max":166,"target":"present","response":"present","rt":400.09999999776,"correct":true,"confidence":4},{"trial_n":130,"min":89,"max":166,"target":"absent","response":"present","rt":606.80000000075,"correct":false,"confidence":5},{"trial_n":131,"min":88,"max":167,"target":"absent","response":"absent","rt":769.69999999925,"correct":true,"confidence":4},{"trial_n":132,"min":88,"max":167,"target":"absent","response":"absent","rt":664.20000000298,"correct":true,"confidence":2},{"trial_n":133,"min":89,"max":166,"target":"absent","response":"absent","rt":729.39999999851,"correct":true,"confidence":4},{"trial_n":134,"min":89,"max":166,"target":"present","response":"absent","rt":394.30000000075,"correct":false,"confidence":1},{"trial_n":135,"min":88,"max":167,"target":"present","response":"present","rt":323.69999999925,"correct":true,"confidence":5},{"trial_n":136,"min":88,"max":167,"target":"absent","response":"present","rt":502.60000000149,"correct":false,"confidence":4},{"trial_n":137,"min":87,"max":168,"target":"absent","response":"present","rt":633.19999999925,"correct":false,"confidence":3},{"trial_n":138,"min":86,"max":169,"target":"absent","response":"absent","rt":676.59999999776,"correct":true,"confidence":4},{"trial_n":139,"min":86,"max":169,"target":"present","response":"present","rt":464.30000000075,"correct":true,"confidence":3},{"trial_n":140,"min":87,"max":168,"target":"absent","response":"present","rt":448.10000000149,"correct":false,"confidence":3}]