[{"trial_n":1,"span":8,"encoder":"57771129","distractor":"57671129","target":"present","response":"present","rt":"4685","correct":true,"confidence":-1},{"trial_n":2,"span":8,"encoder":"36282349","distractor":"36282399","target":"present","response":"present","rt":"1546","correct":true,"confidence":-1},{"trial_n":3,"span":10,"encoder":"6366583882","distractor":"6366584882","target":"absent","response":"present","rt":"1848","correct":false,"confidence":-1},{"trial_n":4,"span":8,"encoder":"83982440","distractor":"83982400","target":"absent","response":"present","rt":"1349","correct":false,"confidence":-1},{"trial_n":5,"span":6,"encoder":"018877","distractor":"048877","target":"present","response":"absent","rt":"1990","correct":false,"confidence":-1},{"trial_n":6,"span":4,"encoder":"4284","distractor":"4264","target":"absent","response":"present","rt":"1942","correct":false,"confidence":-1},{"trial_n":7,"span":2,"encoder":"89","distractor":"80","target":"absent","response":"absent","rt":"1554","correct":true,"confidence":-1},{"trial_n":8,"span":2,"encoder":"78","distractor":"71","target":"absent","response":"absent","rt":"1334","correct":true,"confidence":-1},{"trial_n":9,"span":4,"encoder":"7271","distractor":"7211","target":"present","response":"present","rt":"1424","correct":true,"confidence":-1},{"trial_n":10,"span":4,"encoder":"2880","distractor":"2980","target":"absent","response":"absent","rt":"1233","correct":true,"confidence":-1},{"trial_n":11,"span":6,"encoder":"393201","distractor":"393801","target":"present","response":"present","rt":"2001","correct":true,"confidence":-1},{"trial_n":12,"span":6,"encoder":"136588","distractor":"836588","target":"absent","response":"present","rt":"1507","correct":false,"confidence":-1},{"trial_n":13,"span":5,"encoder":"62723","distractor":"62729","target":"present","response":"present","rt":"1286","correct":true,"confidence":-1},{"trial_n":14,"span":5,"encoder":"68578","distractor":"48578","target":"present","response":"present","rt":"1047","correct":true,"confidence":-1},{"trial_n":15,"span":6,"encoder":"151043","distractor":"751043","target":"absent","response":"absent","rt":"2157","correct":true,"confidence":-1},{"trial_n":16,"span":6,"encoder":"686714","distractor":"686718","target":"present","response":"present","rt":"1331","correct":true,"confidence":-1},{"trial_n":17,"span":7,"encoder":"6823400","distractor":"5823400","target":"present","response":"present","rt":"2373","correct":true,"confidence":-1},{"trial_n":18,"span":7,"encoder":"1656759","distractor":"1657759","target":"present","response":"present","rt":"3663","correct":true,"confidence":-1},{"trial_n":19,"span":8,"encoder":"74473368","distractor":"74479368","target":"present","response":"present","rt":"1308","correct":true,"confidence":-1},{"trial_n":20,"span":8,"encoder":"18462471","distractor":"08462471","target":"present","response":"present","rt":"888","correct":true,"confidence":-1},{"trial_n":21,"span":9,"encoder":"852203344","distractor":"852203844","target":"absent","response":"present","rt":"2007","correct":false,"confidence":3},{"trial_n":22,"span":8,"encoder":"92024806","distractor":"92024805","target":"present","response":"present","rt":"1218","correct":true,"confidence":2},{"trial_n":23,"span":8,"encoder":"11847128","distractor":"11845128","target":"present","response":"present","rt":"1502","correct":true,"confidence":2},{"trial_n":24,"span":9,"encoder":"142945562","distractor":"142545562","target":"absent","response":"present","rt":"1232","correct":false,"confidence":1},{"trial_n":25,"span":8,"encoder":"18630363","distractor":"18630063","target":"present","response":"present","rt":"3135","correct":true,"confidence":3},{"trial_n":26,"span":8,"encoder":"40813054","distractor":"40613054","target":"present","response":"present","rt":"6653","correct":true,"confidence":2},{"trial_n":27,"span":9,"encoder":"990702352","distractor":"990752352","target":"present","response":"present","rt":"3679","correct":true,"confidence":1},{"trial_n":28,"span":9,"encoder":"608201897","distractor":"605201897","target":"absent","response":"present","rt":"1238","correct":false,"confidence":1},{"trial_n":29,"span":8,"encoder":"21397865","distractor":"21397805","target":"present","response":"present","rt":"1102","correct":true,"confidence":2},{"trial_n":30,"span":8,"encoder":"14488810","distractor":"14488814","target":"absent","response":"absent","rt":"1618","correct":true,"confidence":3},{"trial_n":31,"span":9,"encoder":"019253984","distractor":"049253984","target":"present","response":"present","rt":"3077","correct":true,"confidence":3},{"trial_n":32,"span":9,"encoder":"150046628","distractor":"150043628","target":"absent","response":"present","rt":"5342","correct":false,"confidence":2},{"trial_n":33,"span":8,"encoder":"10205052","distractor":"10245052","target":"present","response":"present","rt":"1068","correct":true,"confidence":1},{"trial_n":34,"span":8,"encoder":"59092650","distractor":"59092690","target":"absent","response":"absent","rt":"1559","correct":true,"confidence":3},{"trial_n":35,"span":9,"encoder":"671045005","distractor":"671445005","target":"present","response":"present","rt":"1782","correct":true,"confidence":2},{"trial_n":36,"span":9,"encoder":"841458516","distractor":"841458513","target":"present","response":"present","rt":"2089","correct":true,"confidence":2},{"trial_n":37,"span":10,"encoder":"2453704334","distractor":"2413704334","target":"absent","response":"absent","rt":"2295.0000000001","correct":true,"confidence":1},{"trial_n":38,"span":10,"encoder":"3707396053","distractor":"3707396073","target":"absent","response":"present","rt":"2051.9999999999","correct":false,"confidence":1},{"trial_n":39,"span":9,"encoder":"662188474","distractor":"662188473","target":"present","response":"present","rt":"1505","correct":true,"confidence":5},{"trial_n":40,"span":9,"encoder":"023397240","distractor":"093397240","target":"absent","response":"present","rt":"3697","correct":false,"confidence":1},{"trial_n":41,"span":8,"encoder":"17149363","distractor":"17849363","target":"absent","response":"present","rt":"4647","correct":false,"confidence":3},{"trial_n":42,"span":7,"encoder":"2308446","distractor":"2307446","target":"absent","response":"present","rt":"3233","correct":false,"confidence":2},{"trial_n":43,"span":6,"encoder":"109469","distractor":"129469","target":"present","response":"present","rt":"1651","correct":true,"confidence":1},{"trial_n":44,"span":6,"encoder":"427768","distractor":"427708","target":"absent","response":"present","rt":"1788","correct":false,"confidence":2},{"trial_n":45,"span":5,"encoder":"31364","distractor":"41364","target":"present","response":"present","rt":"2653","correct":true,"confidence":5},{"trial_n":46,"span":5,"encoder":"34130","distractor":"94130","target":"absent","response":"present","rt":"4757","correct":false,"confidence":3},{"trial_n":47,"span":4,"encoder":"7753","distractor":"7953","target":"present","response":"present","rt":"1078.0000000001","correct":true,"confidence":5},{"trial_n":48,"span":4,"encoder":"1853","distractor":"3853","target":"absent","response":"absent","rt":"1377","correct":true,"confidence":5},{"trial_n":49,"span":5,"encoder":"17317","distractor":"17312","target":"absent","response":"absent","rt":"4760","correct":true,"confidence":4},{"trial_n":50,"span":5,"encoder":"36807","distractor":"96807","target":"absent","response":"absent","rt":"1634","correct":true,"confidence":4},{"trial_n":51,"span":6,"encoder":"606593","distractor":"606553","target":"present","response":"absent","rt":"1634","correct":false,"confidence":1},{"trial_n":52,"span":5,"encoder":"24113","distractor":"21113","target":"absent","response":"present","rt":"2707.9999999999","correct":false,"confidence":1},{"trial_n":53,"span":4,"encoder":"7303","distractor":"7373","target":"absent","response":"present","rt":"2126.9999999999","correct":false,"confidence":1},{"trial_n":54,"span":3,"encoder":"869","distractor":"819","target":"absent","response":"absent","rt":"1991","correct":true,"confidence":4},{"trial_n":55,"span":3,"encoder":"766","distractor":"666","target":"present","response":"present","rt":"2046","correct":true,"confidence":5},{"trial_n":56,"span":4,"encoder":"6245","distractor":"6145","target":"present","response":"present","rt":"1661","correct":true,"confidence":5},{"trial_n":57,"span":4,"encoder":"8843","distractor":"8833","target":"present","response":"present","rt":"1515.0000000001","correct":true,"confidence":5},{"trial_n":58,"span":5,"encoder":"66199","distractor":"76199","target":"absent","response":"present","rt":"1195","correct":false,"confidence":1},{"trial_n":59,"span":4,"encoder":"5531","distractor":"5501","target":"present","response":"present","rt":"1518.0000000001","correct":true,"confidence":5},{"trial_n":60,"span":4,"encoder":"1745","distractor":"1735","target":"absent","response":"present","rt":"1363","correct":false,"confidence":4},{"trial_n":61,"span":3,"encoder":"764","distractor":"760","target":"present","response":"present","rt":"2433","correct":true,"confidence":5},{"trial_n":62,"span":3,"encoder":"461","distractor":"471","target":"absent","response":"absent","rt":"1267.0000000001","correct":true,"confidence":4},{"trial_n":63,"span":4,"encoder":"3673","distractor":"3973","target":"absent","response":"absent","rt":"2572","correct":true,"confidence":3},{"trial_n":64,"span":4,"encoder":"3365","distractor":"0365","target":"absent","response":"absent","rt":"1853","correct":true,"confidence":4},{"trial_n":65,"span":5,"encoder":"22011","distractor":"22061","target":"absent","response":"absent","rt":"2569","correct":true,"confidence":1},{"trial_n":66,"span":5,"encoder":"05670","distractor":"05770","target":"absent","response":"absent","rt":"2248.9999999999","correct":true,"confidence":4},{"trial_n":67,"span":6,"encoder":"733663","distractor":"773663","target":"present","response":"present","rt":"2375.9999999999","correct":true,"confidence":1},{"trial_n":68,"span":6,"encoder":"069015","distractor":"069415","target":"present","response":"present","rt":"1388","correct":true,"confidence":1},{"trial_n":69,"span":7,"encoder":"8641217","distractor":"8641247","target":"present","response":"present","rt":"731","correct":true,"confidence":1},{"trial_n":70,"span":7,"encoder":"7240930","distractor":"7240130","target":"present","response":"present","rt":"2139","correct":true,"confidence":1},{"trial_n":71,"span":8,"encoder":"92869637","distractor":"92899637","target":"present","response":"present","rt":"14044","correct":true,"confidence":-1},{"trial_n":72,"span":8,"encoder":"27269083","distractor":"23269083","target":"present","response":"present","rt":"4755","correct":true,"confidence":-1},{"trial_n":73,"span":9,"encoder":"901760674","distractor":"901760654","target":"absent","response":"absent","rt":"2170","correct":true,"confidence":-1},{"trial_n":74,"span":9,"encoder":"385424056","distractor":"985424056","target":"absent","response":"present","rt":"7707","correct":false,"confidence":-1},{"trial_n":75,"span":8,"encoder":"47615099","distractor":"47615093","target":"present","response":"absent","rt":"1100","correct":false,"confidence":-1},{"trial_n":76,"span":7,"encoder":"7591487","distractor":"7571487","target":"absent","response":"present","rt":"2243","correct":false,"confidence":-1},{"trial_n":77,"span":6,"encoder":"017769","distractor":"018769","target":"present","response":"present","rt":"2191","correct":true,"confidence":-1},{"trial_n":78,"span":6,"encoder":"531911","distractor":"531941","target":"present","response":"present","rt":"3847","correct":true,"confidence":-1},{"trial_n":79,"span":7,"encoder":"0150030","distractor":"0150130","target":"present","response":"present","rt":"42191","correct":true,"confidence":-1},{"trial_n":80,"span":7,"encoder":"6966491","distractor":"6967491","target":"absent","response":"absent","rt":"3942","correct":true,"confidence":-1},{"trial_n":81,"span":8,"encoder":"40818501","distractor":"40818561","target":"absent","response":"absent","rt":"2706","correct":true,"confidence":-1},{"trial_n":82,"span":8,"encoder":"33237039","distractor":"33235039","target":"absent","response":"absent","rt":"3214.9999999999","correct":true,"confidence":-1},{"trial_n":83,"span":9,"encoder":"266817680","distractor":"266817681","target":"present","response":"present","rt":"2341","correct":true,"confidence":-1},{"trial_n":84,"span":9,"encoder":"281283048","distractor":"281283848","target":"present","response":"present","rt":"2667","correct":true,"confidence":-1},{"trial_n":85,"span":10,"encoder":"1903116453","distractor":"6903116453","target":"absent","response":"present","rt":"4584","correct":false,"confidence":-1},{"trial_n":86,"span":9,"encoder":"044990829","distractor":"044970829","target":"absent","response":"present","rt":"17588","correct":false,"confidence":-1},{"trial_n":87,"span":8,"encoder":"54208685","distractor":"54202685","target":"absent","response":"absent","rt":"3031","correct":true,"confidence":-1},{"trial_n":88,"span":8,"encoder":"05258941","distractor":"05958941","target":"absent","response":"present","rt":"5231","correct":false,"confidence":-1},{"trial_n":89,"span":7,"encoder":"1346168","distractor":"7346168","target":"absent","response":"present","rt":"805","correct":false,"confidence":-1},{"trial_n":90,"span":6,"encoder":"407707","distractor":"457707","target":"absent","response":"present","rt":"678","correct":false,"confidence":-1},{"trial_n":91,"span":5,"encoder":"42758","distractor":"42718","target":"present","response":"present","rt":"1668","correct":true,"confidence":5},{"trial_n":92,"span":5,"encoder":"53906","distractor":"53406","target":"present","response":"present","rt":"2618.9999999999","correct":true,"confidence":5},{"trial_n":93,"span":6,"encoder":"888677","distractor":"898677","target":"absent","response":"absent","rt":"3199.9999999999","correct":true,"confidence":5},{"trial_n":94,"span":6,"encoder":"238133","distractor":"238113","target":"present","response":"present","rt":"1538.0000000001","correct":true,"confidence":5},{"trial_n":95,"span":7,"encoder":"9408256","distractor":"8408256","target":"present","response":"present","rt":"1433","correct":true,"confidence":1},{"trial_n":96,"span":7,"encoder":"6179302","distractor":"6179307","target":"absent","response":"absent","rt":"2214.9999999999","correct":true,"confidence":4},{"trial_n":97,"span":8,"encoder":"27175504","distractor":"27175004","target":"present","response":"present","rt":"2272","correct":true,"confidence":4},{"trial_n":98,"span":8,"encoder":"78239952","distractor":"75239952","target":"present","response":"present","rt":"3262","correct":true,"confidence":3},{"trial_n":99,"span":9,"encoder":"890993131","distractor":"890493131","target":"absent","response":"present","rt":"3333.0000000001","correct":false,"confidence":1},{"trial_n":100,"span":8,"encoder":"97330560","distractor":"97530560","target":"present","response":"present","rt":"104599","correct":true,"confidence":1},{"trial_n":101,"span":8,"encoder":"18704751","distractor":"18704351","target":"present","response":"present","rt":"4742","correct":true,"confidence":3},{"trial_n":102,"span":9,"encoder":"748637768","distractor":"743637768","target":"absent","response":"present","rt":"3954","correct":false,"confidence":1},{"trial_n":103,"span":8,"encoder":"02271381","distractor":"02271181","target":"present","response":"present","rt":"1180","correct":true,"confidence":1},{"trial_n":104,"span":8,"encoder":"98000408","distractor":"98007408","target":"present","response":"present","rt":"1526","correct":true,"confidence":1},{"trial_n":105,"span":9,"encoder":"018228605","distractor":"018228105","target":"present","response":"present","rt":"1815","correct":true,"confidence":4},{"trial_n":106,"span":9,"encoder":"082835517","distractor":"082235517","target":"absent","response":"absent","rt":"3544","correct":true,"confidence":3},{"trial_n":107,"span":10,"encoder":"2113145210","distractor":"2103145210","target":"present","response":"present","rt":"2385","correct":true,"confidence":1},{"trial_n":108,"span":10,"encoder":"1444675459","distractor":"1244675459","target":"present","response":"present","rt":"6060","correct":true,"confidence":1},{"trial_n":109,"span":11,"encoder":"27101814381","distractor":"27101844381","target":"absent","response":"absent","rt":"5114","correct":true,"confidence":1},{"trial_n":110,"span":11,"encoder":"77222135624","distractor":"77222135644","target":"absent","response":"absent","rt":"4135","correct":true,"confidence":3},{"trial_n":111,"span":12,"encoder":"643714403308","distractor":"643714403307","target":"present","response":"present","rt":"2643.0000000002","correct":true,"confidence":1},{"trial_n":112,"span":12,"encoder":"127002273102","distractor":"127042273102","target":"present","response":"present","rt":"6978","correct":true,"confidence":2},{"trial_n":113,"span":13,"encoder":"9123179459664","distractor":"9123079459664","target":"present","response":"present","rt":"6592","correct":true,"confidence":1},{"trial_n":114,"span":13,"encoder":"3155304868957","distractor":"3145304868957","target":"absent","response":"present","rt":"2679.9999999998","correct":false,"confidence":1},{"trial_n":115,"span":12,"encoder":"839700914678","distractor":"839730914678","target":"absent","response":"present","rt":"6427","correct":false,"confidence":1},{"trial_n":116,"span":11,"encoder":"52093128997","distractor":"52093128991","target":"absent","response":"absent","rt":"5152.9999999998","correct":true,"confidence":3},{"trial_n":117,"span":11,"encoder":"29741872445","distractor":"29941872445","target":"absent","response":"present","rt":"7452","correct":false,"confidence":1},{"trial_n":118,"span":10,"encoder":"7703469114","distractor":"7703469164","target":"present","response":"present","rt":"1800","correct":true,"confidence":5},{"trial_n":119,"span":10,"encoder":"6114334971","distractor":"6114334991","target":"absent","response":"present","rt":"2965","correct":false,"confidence":3},{"trial_n":120,"span":9,"encoder":"823798682","distractor":"823778682","target":"absent","response":"present","rt":"3611","correct":false,"confidence":1},{"trial_n":121,"span":8,"encoder":"96232617","distractor":"96232697","target":"present","response":"present","rt":"5214","correct":true,"confidence":3},{"trial_n":122,"span":8,"encoder":"07667835","distractor":"04667835","target":"absent","response":"present","rt":"2108","correct":false,"confidence":1},{"trial_n":123,"span":7,"encoder":"6800083","distractor":"6800087","target":"present","response":"present","rt":"2304","correct":true,"confidence":4},{"trial_n":124,"span":7,"encoder":"0518107","distractor":"0515107","target":"present","response":"present","rt":"3219","correct":true,"confidence":1},{"trial_n":125,"span":8,"encoder":"60009671","distractor":"50009671","target":"present","response":"present","rt":"5635","correct":true,"confidence":1},{"trial_n":126,"span":8,"encoder":"15108957","distractor":"15108959","target":"absent","response":"absent","rt":"1619","correct":true,"confidence":5},{"trial_n":127,"span":9,"encoder":"981551861","distractor":"981251861","target":"absent","response":"present","rt":"2575","correct":false,"confidence":1},{"trial_n":128,"span":8,"encoder":"99036149","distractor":"99006149","target":"absent","response":"present","rt":"1922","correct":false,"confidence":1},{"trial_n":129,"span":7,"encoder":"4770919","distractor":"4770918","target":"present","response":"present","rt":"1410","correct":true,"confidence":4},{"trial_n":130,"span":7,"encoder":"0213328","distractor":"0213368","target":"absent","response":"absent","rt":"4457","correct":true,"confidence":3},{"trial_n":131,"span":8,"encoder":"55492133","distractor":"55452133","target":"absent","response":"absent","rt":"6927","correct":true,"confidence":1},{"trial_n":132,"span":8,"encoder":"69970194","distractor":"69940194","target":"present","response":"absent","rt":"2008","correct":false,"confidence":1},{"trial_n":133,"span":7,"encoder":"5661737","distractor":"5631737","target":"present","response":"absent","rt":"1310","correct":false,"confidence":1},{"trial_n":134,"span":6,"encoder":"602998","distractor":"002998","target":"absent","response":"absent","rt":"2613","correct":true,"confidence":5},{"trial_n":135,"span":6,"encoder":"865922","distractor":"835922","target":"present","response":"present","rt":"4211","correct":true,"confidence":2},{"trial_n":136,"span":7,"encoder":"8480303","distractor":"8380303","target":"absent","response":"present","rt":"4146.9999999998","correct":false,"confidence":1},{"trial_n":137,"span":6,"encoder":"767824","distractor":"767814","target":"absent","response":"present","rt":"3866","correct":false,"confidence":1},{"trial_n":138,"span":5,"encoder":"79533","distractor":"39533","target":"present","response":"present","rt":"3717.0000000002","correct":true,"confidence":1},{"trial_n":139,"span":5,"encoder":"32772","distractor":"32372","target":"present","response":"absent","rt":"4228","correct":false,"confidence":2},{"trial_n":140,"span":4,"encoder":"4809","distractor":"4889","target":"present","response":"present","rt":"2939","correct":true,"confidence":5}]