[{"trial_n":1,"min":25,"max":230,"target":"present","response":"present","rt":3142.3000000715,"correct":true,"confidence":-1},{"trial_n":2,"min":25,"max":230,"target":"present","response":"present","rt":892.60000002384,"correct":true,"confidence":-1},{"trial_n":3,"min":41,"max":214,"target":"absent","response":"present","rt":753.10000002384,"correct":false,"confidence":-1},{"trial_n":4,"min":25,"max":230,"target":"absent","response":"present","rt":644,"correct":false,"confidence":-1},{"trial_n":5,"min":9,"max":246,"target":"present","response":"present","rt":2653.3000000715,"correct":true,"confidence":-1},{"trial_n":6,"min":9,"max":246,"target":"present","response":"present","rt":1246.3999999762,"correct":true,"confidence":-1},{"trial_n":7,"min":25,"max":230,"target":"absent","response":"absent","rt":1191.6000000238,"correct":true,"confidence":-1},{"trial_n":8,"min":25,"max":230,"target":"absent","response":"present","rt":878.29999995232,"correct":false,"confidence":-1},{"trial_n":9,"min":9,"max":246,"target":"absent","response":"absent","rt":815.60000002384,"correct":true,"confidence":-1},{"trial_n":10,"min":9,"max":246,"target":"absent","response":"absent","rt":1614.7999999523,"correct":true,"confidence":-1},{"trial_n":11,"min":17,"max":238,"target":"absent","response":"absent","rt":872.80000007153,"correct":true,"confidence":-1},{"trial_n":12,"min":17,"max":238,"target":"absent","response":"absent","rt":871.80000007153,"correct":true,"confidence":-1},{"trial_n":13,"min":25,"max":230,"target":"present","response":"present","rt":816.89999997616,"correct":true,"confidence":-1},{"trial_n":14,"min":25,"max":230,"target":"present","response":"absent","rt":1252,"correct":false,"confidence":-1},{"trial_n":15,"min":17,"max":238,"target":"present","response":"present","rt":1003.1000000238,"correct":true,"confidence":-1},{"trial_n":16,"min":17,"max":238,"target":"absent","response":"absent","rt":1042.2999999523,"correct":true,"confidence":-1},{"trial_n":17,"min":25,"max":230,"target":"present","response":"present","rt":928.09999990463,"correct":true,"confidence":-1},{"trial_n":18,"min":25,"max":230,"target":"present","response":"present","rt":1168.3000000715,"correct":true,"confidence":-1},{"trial_n":19,"min":33,"max":222,"target":"absent","response":"absent","rt":1359,"correct":true,"confidence":-1},{"trial_n":20,"min":33,"max":222,"target":"absent","response":"absent","rt":1695.6000000238,"correct":true,"confidence":-1},{"trial_n":21,"min":37,"max":218,"target":"present","response":"present","rt":1219.3000000715,"correct":true,"confidence":5},{"trial_n":22,"min":37,"max":218,"target":"present","response":"present","rt":909.10000002384,"correct":true,"confidence":4},{"trial_n":23,"min":41,"max":214,"target":"present","response":"present","rt":951.79999995232,"correct":true,"confidence":5},{"trial_n":24,"min":41,"max":214,"target":"absent","response":"present","rt":1365.1999999285,"correct":false,"confidence":4},{"trial_n":25,"min":37,"max":218,"target":"absent","response":"present","rt":992.39999997616,"correct":false,"confidence":4},{"trial_n":26,"min":33,"max":222,"target":"present","response":"present","rt":5845.3000000715,"correct":true,"confidence":3},{"trial_n":27,"min":33,"max":222,"target":"absent","response":"present","rt":1073.7999999523,"correct":false,"confidence":4},{"trial_n":28,"min":29,"max":226,"target":"present","response":"present","rt":818.29999995232,"correct":true,"confidence":5},{"trial_n":29,"min":29,"max":226,"target":"present","response":"present","rt":1351.6000000238,"correct":true,"confidence":5},{"trial_n":30,"min":33,"max":222,"target":"present","response":"present","rt":888.69999992847,"correct":true,"confidence":5},{"trial_n":31,"min":33,"max":222,"target":"present","response":"present","rt":872.79999995232,"correct":true,"confidence":5},{"trial_n":32,"min":35,"max":220,"target":"absent","response":"present","rt":977.80000007153,"correct":false,"confidence":4},{"trial_n":33,"min":33,"max":222,"target":"present","response":"present","rt":3117.3999999762,"correct":true,"confidence":3},{"trial_n":34,"min":33,"max":222,"target":"present","response":"present","rt":854.89999997616,"correct":true,"confidence":5},{"trial_n":35,"min":35,"max":220,"target":"absent","response":"present","rt":1062.6999999285,"correct":false,"confidence":4},{"trial_n":36,"min":33,"max":222,"target":"absent","response":"present","rt":956,"correct":false,"confidence":4},{"trial_n":37,"min":31,"max":224,"target":"absent","response":"present","rt":923.5,"correct":false,"confidence":4},{"trial_n":38,"min":29,"max":226,"target":"present","response":"present","rt":785.5,"correct":true,"confidence":5},{"trial_n":39,"min":29,"max":226,"target":"present","response":"present","rt":909.19999992847,"correct":true,"confidence":5},{"trial_n":40,"min":31,"max":224,"target":"present","response":"present","rt":740.10000002384,"correct":true,"confidence":5},{"trial_n":41,"min":31,"max":224,"target":"absent","response":"present","rt":1480.3999999762,"correct":false,"confidence":5},{"trial_n":42,"min":30,"max":225,"target":"absent","response":"absent","rt":1339.1000000238,"correct":true,"confidence":4},{"trial_n":43,"min":30,"max":225,"target":"absent","response":"absent","rt":889.79999995232,"correct":true,"confidence":5},{"trial_n":44,"min":31,"max":224,"target":"absent","response":"present","rt":8944,"correct":false,"confidence":4},{"trial_n":45,"min":30,"max":225,"target":"absent","response":"absent","rt":1073.8999999762,"correct":true,"confidence":4},{"trial_n":46,"min":30,"max":225,"target":"absent","response":"absent","rt":923.79999995232,"correct":true,"confidence":5},{"trial_n":47,"min":31,"max":224,"target":"absent","response":"absent","rt":796.40000009537,"correct":true,"confidence":4},{"trial_n":48,"min":31,"max":224,"target":"absent","response":"absent","rt":803,"correct":true,"confidence":4},{"trial_n":49,"min":32,"max":223,"target":"absent","response":"absent","rt":996.5,"correct":true,"confidence":4},{"trial_n":50,"min":32,"max":223,"target":"present","response":"present","rt":910.5,"correct":true,"confidence":3},{"trial_n":51,"min":33,"max":222,"target":"present","response":"present","rt":1044.3000000715,"correct":true,"confidence":4},{"trial_n":52,"min":33,"max":222,"target":"present","response":"present","rt":834.20000004768,"correct":true,"confidence":4},{"trial_n":53,"min":34,"max":221,"target":"present","response":"present","rt":841,"correct":true,"confidence":5},{"trial_n":54,"min":34,"max":221,"target":"absent","response":"absent","rt":1166.6999999285,"correct":true,"confidence":4},{"trial_n":55,"min":35,"max":220,"target":"present","response":"present","rt":783.10000002384,"correct":true,"confidence":4},{"trial_n":56,"min":35,"max":220,"target":"absent","response":"absent","rt":879.29999995232,"correct":true,"confidence":4},{"trial_n":57,"min":36,"max":219,"target":"present","response":"present","rt":878.5,"correct":true,"confidence":4},{"trial_n":58,"min":36,"max":219,"target":"present","response":"present","rt":837.89999997616,"correct":true,"confidence":5},{"trial_n":59,"min":37,"max":218,"target":"absent","response":"absent","rt":897.80000007153,"correct":true,"confidence":4},{"trial_n":60,"min":37,"max":218,"target":"present","response":"present","rt":906.5,"correct":true,"confidence":5},{"trial_n":61,"min":38,"max":217,"target":"present","response":"present","rt":907.10000002384,"correct":true,"confidence":4},{"trial_n":62,"min":38,"max":217,"target":"present","response":"present","rt":1592.6999999285,"correct":true,"confidence":5},{"trial_n":63,"min":39,"max":216,"target":"present","response":"present","rt":679.80000007153,"correct":true,"confidence":4},{"trial_n":64,"min":39,"max":216,"target":"absent","response":"absent","rt":1445.6999999285,"correct":true,"confidence":5},{"trial_n":65,"min":40,"max":215,"target":"absent","response":"absent","rt":734.80000007153,"correct":true,"confidence":5},{"trial_n":66,"min":40,"max":215,"target":"present","response":"present","rt":739.79999995232,"correct":true,"confidence":4},{"trial_n":67,"min":41,"max":214,"target":"absent","response":"absent","rt":976.70000004768,"correct":true,"confidence":5},{"trial_n":68,"min":41,"max":214,"target":"present","response":"present","rt":922.20000004768,"correct":true,"confidence":4},{"trial_n":69,"min":42,"max":213,"target":"absent","response":"absent","rt":1015.5,"correct":true,"confidence":3},{"trial_n":70,"min":42,"max":213,"target":"present","response":"present","rt":772,"correct":true,"confidence":4},{"trial_n":71,"min":41,"max":214,"target":"present","response":"present","rt":4895.1999999285,"correct":true,"confidence":-1},{"trial_n":72,"min":41,"max":214,"target":"present","response":"present","rt":898,"correct":true,"confidence":-1},{"trial_n":73,"min":57,"max":198,"target":"absent","response":"absent","rt":912.19999992847,"correct":true,"confidence":-1},{"trial_n":74,"min":57,"max":198,"target":"absent","response":"absent","rt":923.70000004768,"correct":true,"confidence":-1},{"trial_n":75,"min":73,"max":182,"target":"present","response":"absent","rt":2392.1000000238,"correct":false,"confidence":-1},{"trial_n":76,"min":57,"max":198,"target":"present","response":"present","rt":827.29999995232,"correct":true,"confidence":-1},{"trial_n":77,"min":57,"max":198,"target":"absent","response":"absent","rt":1166.3999999762,"correct":true,"confidence":-1},{"trial_n":78,"min":73,"max":182,"target":"absent","response":"absent","rt":1492.7000000477,"correct":true,"confidence":-1},{"trial_n":79,"min":73,"max":182,"target":"absent","response":"present","rt":1670.8000000715,"correct":false,"confidence":-1},{"trial_n":80,"min":57,"max":198,"target":"present","response":"present","rt":936.29999995232,"correct":true,"confidence":-1},{"trial_n":81,"min":57,"max":198,"target":"present","response":"absent","rt":946.39999997616,"correct":false,"confidence":-1},{"trial_n":82,"min":49,"max":206,"target":"present","response":"present","rt":745.80000007153,"correct":true,"confidence":-1},{"trial_n":83,"min":49,"max":206,"target":"absent","response":"absent","rt":841.5,"correct":true,"confidence":-1},{"trial_n":84,"min":57,"max":198,"target":"present","response":"present","rt":950.10000002384,"correct":true,"confidence":-1},{"trial_n":85,"min":57,"max":198,"target":"absent","response":"absent","rt":1357.5,"correct":true,"confidence":-1},{"trial_n":86,"min":65,"max":190,"target":"absent","response":"absent","rt":1004.2999999523,"correct":true,"confidence":-1},{"trial_n":87,"min":65,"max":190,"target":"present","response":"present","rt":750.70000004768,"correct":true,"confidence":-1},{"trial_n":88,"min":73,"max":182,"target":"absent","response":"absent","rt":841.80000007153,"correct":true,"confidence":-1},{"trial_n":89,"min":73,"max":182,"target":"present","response":"present","rt":1611.6999999285,"correct":true,"confidence":-1},{"trial_n":90,"min":81,"max":174,"target":"present","response":"absent","rt":907.30000007153,"correct":false,"confidence":-1},{"trial_n":91,"min":77,"max":178,"target":"absent","response":"absent","rt":915.59999990463,"correct":true,"confidence":4},{"trial_n":92,"min":77,"max":178,"target":"absent","response":"absent","rt":1159.8000000715,"correct":true,"confidence":5},{"trial_n":93,"min":81,"max":174,"target":"present","response":"present","rt":858.10000002384,"correct":true,"confidence":4},{"trial_n":94,"min":81,"max":174,"target":"absent","response":"absent","rt":819.29999995232,"correct":true,"confidence":5},{"trial_n":95,"min":85,"max":170,"target":"present","response":"present","rt":1093.7000000477,"correct":true,"confidence":4},{"trial_n":96,"min":85,"max":170,"target":"absent","response":"present","rt":1052.6000000238,"correct":false,"confidence":3},{"trial_n":97,"min":81,"max":174,"target":"absent","response":"present","rt":1133.1000000238,"correct":false,"confidence":4},{"trial_n":98,"min":77,"max":178,"target":"absent","response":"absent","rt":988.10000002384,"correct":true,"confidence":5},{"trial_n":99,"min":77,"max":178,"target":"absent","response":"present","rt":13255,"correct":false,"confidence":3},{"trial_n":100,"min":73,"max":182,"target":"present","response":"present","rt":831.20000004768,"correct":true,"confidence":3},{"trial_n":101,"min":73,"max":182,"target":"present","response":"present","rt":1192.6000000238,"correct":true,"confidence":3},{"trial_n":102,"min":75,"max":180,"target":"present","response":"present","rt":715,"correct":true,"confidence":4},{"trial_n":103,"min":75,"max":180,"target":"present","response":"present","rt":873.89999997616,"correct":true,"confidence":4},{"trial_n":104,"min":77,"max":178,"target":"absent","response":"absent","rt":991.89999997616,"correct":true,"confidence":4},{"trial_n":105,"min":77,"max":178,"target":"absent","response":"absent","rt":974.10000002384,"correct":true,"confidence":4},{"trial_n":106,"min":79,"max":176,"target":"present","response":"present","rt":788.70000004768,"correct":true,"confidence":4},{"trial_n":107,"min":79,"max":176,"target":"present","response":"present","rt":1087.1999999285,"correct":true,"confidence":4},{"trial_n":108,"min":81,"max":174,"target":"present","response":"present","rt":804.60000002384,"correct":true,"confidence":4},{"trial_n":109,"min":81,"max":174,"target":"absent","response":"present","rt":1212,"correct":false,"confidence":3},{"trial_n":110,"min":79,"max":176,"target":"absent","response":"absent","rt":966.10000002384,"correct":true,"confidence":4},{"trial_n":111,"min":79,"max":176,"target":"present","response":"absent","rt":1298.3999999762,"correct":false,"confidence":3},{"trial_n":112,"min":78,"max":177,"target":"present","response":"present","rt":2639.3999999762,"correct":true,"confidence":5},{"trial_n":113,"min":78,"max":177,"target":"present","response":"present","rt":1089.8000000715,"correct":true,"confidence":4},{"trial_n":114,"min":79,"max":176,"target":"present","response":"present","rt":937.70000004768,"correct":true,"confidence":4},{"trial_n":115,"min":79,"max":176,"target":"absent","response":"absent","rt":1119.8000000715,"correct":true,"confidence":4},{"trial_n":116,"min":80,"max":175,"target":"absent","response":"absent","rt":11058.600000024,"correct":true,"confidence":3},{"trial_n":117,"min":80,"max":175,"target":"present","response":"present","rt":4204.4000000954,"correct":true,"confidence":4},{"trial_n":118,"min":81,"max":174,"target":"absent","response":"present","rt":2879.2000000477,"correct":false,"confidence":5},{"trial_n":119,"min":80,"max":175,"target":"present","response":"present","rt":1048.7000000477,"correct":true,"confidence":5},{"trial_n":120,"min":80,"max":175,"target":"present","response":"absent","rt":1144.1000000238,"correct":false,"confidence":4},{"trial_n":121,"min":79,"max":176,"target":"absent","response":"present","rt":1738.5,"correct":false,"confidence":3},{"trial_n":122,"min":78,"max":177,"target":"present","response":"present","rt":1374.3000000715,"correct":true,"confidence":4},{"trial_n":123,"min":78,"max":177,"target":"absent","response":"absent","rt":1023.3999999762,"correct":true,"confidence":3},{"trial_n":124,"min":79,"max":176,"target":"absent","response":"present","rt":1468.1999999285,"correct":false,"confidence":3},{"trial_n":125,"min":78,"max":177,"target":"present","response":"present","rt":900.29999995232,"correct":true,"confidence":5},{"trial_n":126,"min":78,"max":177,"target":"absent","response":"present","rt":1259.8999999762,"correct":false,"confidence":5},{"trial_n":127,"min":77,"max":178,"target":"absent","response":"absent","rt":1067,"correct":true,"confidence":4},{"trial_n":128,"min":77,"max":178,"target":"present","response":"present","rt":874,"correct":true,"confidence":3},{"trial_n":129,"min":78,"max":177,"target":"present","response":"present","rt":1066.5,"correct":true,"confidence":3},{"trial_n":130,"min":78,"max":177,"target":"present","response":"present","rt":857.89999997616,"correct":true,"confidence":3},{"trial_n":131,"min":79,"max":176,"target":"present","response":"present","rt":2383.5,"correct":true,"confidence":1},{"trial_n":132,"min":79,"max":176,"target":"absent","response":"present","rt":882.10000002384,"correct":false,"confidence":1},{"trial_n":133,"min":78,"max":177,"target":"absent","response":"absent","rt":1196,"correct":true,"confidence":3},{"trial_n":134,"min":78,"max":177,"target":"absent","response":"present","rt":988.39999997616,"correct":false,"confidence":3},{"trial_n":135,"min":77,"max":178,"target":"absent","response":"present","rt":1137,"correct":false,"confidence":4},{"trial_n":136,"min":76,"max":179,"target":"absent","response":"absent","rt":1130.6000000238,"correct":true,"confidence":3},{"trial_n":137,"min":76,"max":179,"target":"present","response":"present","rt":817.80000007153,"correct":true,"confidence":3},{"trial_n":138,"min":77,"max":178,"target":"present","response":"present","rt":798.29999995232,"correct":true,"confidence":3},{"trial_n":139,"min":77,"max":178,"target":"present","response":"present","rt":1089.8999999762,"correct":true,"confidence":3},{"trial_n":140,"min":78,"max":177,"target":"absent","response":"absent","rt":830.29999995232,"correct":true,"confidence":4}]