[{"trial_n":1,"n_dots":4.25,"target":"left","response":"right","rt":11504.700000048,"correct":false,"confidence":-1},{"trial_n":2,"n_dots":4.25,"target":"right","response":"right","rt":811.60000002384,"correct":true,"confidence":-1},{"trial_n":3,"n_dots":4.25,"target":"left","response":"left","rt":908.60000002384,"correct":true,"confidence":-1},{"trial_n":4,"n_dots":3.85,"target":"left","response":"left","rt":722.80000007153,"correct":true,"confidence":-1},{"trial_n":5,"n_dots":3.85,"target":"left","response":"left","rt":416.79999995232,"correct":true,"confidence":-1},{"trial_n":6,"n_dots":3.45,"target":"left","response":"left","rt":608.80000007153,"correct":true,"confidence":-1},{"trial_n":7,"n_dots":3.45,"target":"right","response":"right","rt":753.89999997616,"correct":true,"confidence":-1},{"trial_n":8,"n_dots":3.25,"target":"right","response":"right","rt":560.39999997616,"correct":true,"confidence":-1},{"trial_n":9,"n_dots":3.25,"target":"right","response":"left","rt":709.20000004768,"correct":false,"confidence":-1},{"trial_n":10,"n_dots":3.45,"target":"left","response":"left","rt":527.60000002384,"correct":true,"confidence":-1},{"trial_n":11,"n_dots":3.45,"target":"left","response":"left","rt":586.10000002384,"correct":true,"confidence":-1},{"trial_n":12,"n_dots":3.25,"target":"left","response":"left","rt":540.79999995232,"correct":true,"confidence":-1},{"trial_n":13,"n_dots":3.25,"target":"left","response":"left","rt":476.60000002384,"correct":true,"confidence":-1},{"trial_n":14,"n_dots":3.15,"target":"left","response":"right","rt":759.79999995232,"correct":false,"confidence":-1},{"trial_n":15,"n_dots":3.25,"target":"right","response":"right","rt":481.60000002384,"correct":true,"confidence":-1},{"trial_n":16,"n_dots":3.25,"target":"right","response":"right","rt":495.69999992847,"correct":true,"confidence":-1},{"trial_n":17,"n_dots":3.15,"target":"left","response":"right","rt":537.5,"correct":false,"confidence":-1},{"trial_n":18,"n_dots":3.25,"target":"right","response":"right","rt":933.89999997616,"correct":true,"confidence":-1},{"trial_n":19,"n_dots":3.25,"target":"left","response":"left","rt":572.70000004768,"correct":true,"confidence":-1},{"trial_n":20,"n_dots":3.15,"target":"left","response":"left","rt":498.5,"correct":true,"confidence":-1},{"trial_n":21,"n_dots":3.15,"target":"right","response":"left","rt":886.59999990463,"correct":false,"confidence":2},{"trial_n":22,"n_dots":3.25,"target":"right","response":"left","rt":815.70000004768,"correct":false,"confidence":3},{"trial_n":23,"n_dots":3.35,"target":"right","response":"left","rt":771,"correct":false,"confidence":3},{"trial_n":24,"n_dots":3.45,"target":"left","response":"left","rt":793.80000007153,"correct":true,"confidence":4},{"trial_n":25,"n_dots":3.45,"target":"left","response":"left","rt":844.5,"correct":true,"confidence":4},{"trial_n":26,"n_dots":3.35,"target":"right","response":"right","rt":1365.2000000477,"correct":true,"confidence":3},{"trial_n":27,"n_dots":3.35,"target":"right","response":"left","rt":931.29999995232,"correct":false,"confidence":2},{"trial_n":28,"n_dots":3.45,"target":"left","response":"left","rt":832.5,"correct":true,"confidence":4},{"trial_n":29,"n_dots":3.45,"target":"right","response":"right","rt":858.60000002384,"correct":true,"confidence":2},{"trial_n":30,"n_dots":3.35,"target":"right","response":"right","rt":1071.7999999523,"correct":true,"confidence":4},{"trial_n":31,"n_dots":3.35,"target":"right","response":"right","rt":843,"correct":true,"confidence":2},{"trial_n":32,"n_dots":3.25,"target":"left","response":"left","rt":1024.0999999046,"correct":true,"confidence":4},{"trial_n":33,"n_dots":3.25,"target":"left","response":"right","rt":1981,"correct":false,"confidence":1},{"trial_n":34,"n_dots":3.35,"target":"right","response":"right","rt":727.5,"correct":true,"confidence":2},{"trial_n":35,"n_dots":3.35,"target":"left","response":"left","rt":715.10000002384,"correct":true,"confidence":2},{"trial_n":36,"n_dots":3.25,"target":"left","response":"left","rt":1445.2999999523,"correct":true,"confidence":4},{"trial_n":37,"n_dots":3.25,"target":"left","response":"left","rt":1371.7999999523,"correct":true,"confidence":4},{"trial_n":38,"n_dots":3.15,"target":"left","response":"left","rt":1327.2000000477,"correct":true,"confidence":4},{"trial_n":39,"n_dots":3.15,"target":"right","response":"right","rt":1284.8000000715,"correct":true,"confidence":3},{"trial_n":40,"n_dots":3.05,"target":"right","response":"left","rt":1327.8999999762,"correct":false,"confidence":3},{"trial_n":41,"n_dots":3.15,"target":"right","response":"right","rt":1581.3000000715,"correct":true,"confidence":2},{"trial_n":42,"n_dots":3.15,"target":"right","response":"right","rt":788.40000009537,"correct":true,"confidence":3},{"trial_n":43,"n_dots":3.05,"target":"left","response":"right","rt":784.69999992847,"correct":false,"confidence":2},{"trial_n":44,"n_dots":3.15,"target":"right","response":"right","rt":869,"correct":true,"confidence":3},{"trial_n":45,"n_dots":3.15,"target":"left","response":"left","rt":736.5,"correct":true,"confidence":4},{"trial_n":46,"n_dots":3.05,"target":"left","response":"left","rt":761,"correct":true,"confidence":1},{"trial_n":47,"n_dots":3.05,"target":"left","response":"left","rt":722.10000002384,"correct":true,"confidence":4},{"trial_n":48,"n_dots":2.95,"target":"left","response":"left","rt":805.89999997616,"correct":true,"confidence":3},{"trial_n":49,"n_dots":2.95,"target":"left","response":"left","rt":641.09999990463,"correct":true,"confidence":4},{"trial_n":50,"n_dots":2.85,"target":"left","response":"right","rt":711.5,"correct":false,"confidence":3},{"trial_n":51,"n_dots":2.95,"target":"left","response":"left","rt":534.29999995232,"correct":true,"confidence":4},{"trial_n":52,"n_dots":2.95,"target":"right","response":"right","rt":545.59999990463,"correct":true,"confidence":5},{"trial_n":53,"n_dots":2.85,"target":"left","response":"left","rt":646.89999997616,"correct":true,"confidence":4},{"trial_n":54,"n_dots":2.85,"target":"right","response":"right","rt":826.89999997616,"correct":true,"confidence":2},{"trial_n":55,"n_dots":2.75,"target":"right","response":"right","rt":745,"correct":true,"confidence":3},{"trial_n":56,"n_dots":2.75,"target":"left","response":"left","rt":764.80000007153,"correct":true,"confidence":4},{"trial_n":57,"n_dots":2.65,"target":"left","response":"left","rt":830,"correct":true,"confidence":3},{"trial_n":58,"n_dots":2.65,"target":"left","response":"left","rt":755.20000004768,"correct":true,"confidence":3},{"trial_n":59,"n_dots":2.55,"target":"right","response":"right","rt":664.10000002384,"correct":true,"confidence":5},{"trial_n":60,"n_dots":2.55,"target":"left","response":"left","rt":756.10000002384,"correct":true,"confidence":3},{"trial_n":61,"n_dots":2.45,"target":"left","response":"left","rt":619.10000002384,"correct":true,"confidence":3},{"trial_n":62,"n_dots":2.45,"target":"right","response":"right","rt":524.40000009537,"correct":true,"confidence":4},{"trial_n":63,"n_dots":2.35,"target":"right","response":"right","rt":596.20000004768,"correct":true,"confidence":5},{"trial_n":64,"n_dots":2.35,"target":"left","response":"left","rt":843.89999997616,"correct":true,"confidence":3},{"trial_n":65,"n_dots":2.25,"target":"right","response":"right","rt":670.10000002384,"correct":true,"confidence":2},{"trial_n":66,"n_dots":2.25,"target":"left","response":"left","rt":740.10000002384,"correct":true,"confidence":4},{"trial_n":67,"n_dots":2.15,"target":"right","response":"left","rt":700.5,"correct":false,"confidence":4},{"trial_n":68,"n_dots":2.25,"target":"left","response":"left","rt":828.89999997616,"correct":true,"confidence":5},{"trial_n":69,"n_dots":2.25,"target":"left","response":"left","rt":612.29999995232,"correct":true,"confidence":4},{"trial_n":70,"n_dots":2.15,"target":"left","response":"right","rt":751.39999997616,"correct":false,"confidence":3},{"trial_n":71,"n_dots":2.25,"target":"right","response":"right","rt":785.10000002384,"correct":true,"confidence":2},{"trial_n":72,"n_dots":2.25,"target":"right","response":"right","rt":608.10000002384,"correct":true,"confidence":3},{"trial_n":73,"n_dots":2.15,"target":"left","response":"right","rt":734,"correct":false,"confidence":2},{"trial_n":74,"n_dots":2.25,"target":"left","response":"right","rt":732.59999990463,"correct":false,"confidence":2},{"trial_n":75,"n_dots":2.35,"target":"left","response":"left","rt":734.30000007153,"correct":true,"confidence":1},{"trial_n":76,"n_dots":2.35,"target":"left","response":"left","rt":717.70000004768,"correct":true,"confidence":3},{"trial_n":77,"n_dots":2.25,"target":"right","response":"left","rt":656.79999995232,"correct":false,"confidence":2},{"trial_n":78,"n_dots":2.35,"target":"right","response":"right","rt":654.29999995232,"correct":true,"confidence":3},{"trial_n":79,"n_dots":2.35,"target":"right","response":"right","rt":723.70000004768,"correct":true,"confidence":2},{"trial_n":80,"n_dots":2.25,"target":"right","response":"right","rt":708.5,"correct":true,"confidence":4},{"trial_n":81,"n_dots":2.25,"target":"right","response":"right","rt":577.30000007153,"correct":true,"confidence":4},{"trial_n":82,"n_dots":2.15,"target":"left","response":"left","rt":721.60000002384,"correct":true,"confidence":3},{"trial_n":83,"n_dots":2.15,"target":"right","response":"right","rt":903.80000007153,"correct":true,"confidence":2},{"trial_n":84,"n_dots":2.05,"target":"left","response":"left","rt":604.29999995232,"correct":true,"confidence":3},{"trial_n":85,"n_dots":2.05,"target":"left","response":"left","rt":643.30000007153,"correct":true,"confidence":4},{"trial_n":86,"n_dots":1.95,"target":"right","response":"left","rt":700.59999990463,"correct":false,"confidence":3},{"trial_n":87,"n_dots":2.05,"target":"right","response":"left","rt":845.39999997616,"correct":false,"confidence":2},{"trial_n":88,"n_dots":2.15,"target":"right","response":"right","rt":750.5,"correct":true,"confidence":4},{"trial_n":89,"n_dots":2.15,"target":"right","response":"left","rt":767.70000004768,"correct":false,"confidence":3},{"trial_n":90,"n_dots":2.25,"target":"left","response":"right","rt":671.79999995232,"correct":false,"confidence":2},{"trial_n":91,"n_dots":2.35,"target":"left","response":"left","rt":754.20000004768,"correct":true,"confidence":2},{"trial_n":92,"n_dots":2.35,"target":"right","response":"right","rt":1792.3999999762,"correct":true,"confidence":1},{"trial_n":93,"n_dots":2.25,"target":"right","response":"right","rt":652.5,"correct":true,"confidence":2},{"trial_n":94,"n_dots":2.25,"target":"right","response":"right","rt":655.30000007153,"correct":true,"confidence":3},{"trial_n":95,"n_dots":2.15,"target":"right","response":"left","rt":593.39999997616,"correct":false,"confidence":3},{"trial_n":96,"n_dots":2.25,"target":"right","response":"right","rt":560.29999995232,"correct":true,"confidence":4},{"trial_n":97,"n_dots":2.25,"target":"right","response":"right","rt":605.10000002384,"correct":true,"confidence":4},{"trial_n":98,"n_dots":2.15,"target":"right","response":"right","rt":539.70000004768,"correct":true,"confidence":4},{"trial_n":99,"n_dots":2.15,"target":"right","response":"left","rt":671.09999990463,"correct":false,"confidence":3},{"trial_n":100,"n_dots":2.25,"target":"left","response":"left","rt":569,"correct":true,"confidence":4},{"trial_n":101,"n_dots":2.25,"target":"left","response":"right","rt":670.10000002384,"correct":false,"confidence":2},{"trial_n":102,"n_dots":2.35,"target":"left","response":"left","rt":642.29999995232,"correct":true,"confidence":3},{"trial_n":103,"n_dots":2.35,"target":"right","response":"right","rt":666.20000004768,"correct":true,"confidence":4},{"trial_n":104,"n_dots":2.25,"target":"left","response":"right","rt":902,"correct":false,"confidence":2},{"trial_n":105,"n_dots":2.35,"target":"left","response":"right","rt":674.5,"correct":false,"confidence":2},{"trial_n":106,"n_dots":2.45,"target":"right","response":"right","rt":878,"correct":true,"confidence":3},{"trial_n":107,"n_dots":2.45,"target":"right","response":"right","rt":707.10000002384,"correct":true,"confidence":2},{"trial_n":108,"n_dots":2.35,"target":"left","response":"right","rt":667.40000009537,"correct":false,"confidence":2},{"trial_n":109,"n_dots":2.45,"target":"left","response":"right","rt":646.10000002384,"correct":false,"confidence":3},{"trial_n":110,"n_dots":2.55,"target":"right","response":"left","rt":528,"correct":false,"confidence":4},{"trial_n":111,"n_dots":2.65,"target":"right","response":"right","rt":670.60000002384,"correct":true,"confidence":3},{"trial_n":112,"n_dots":2.65,"target":"right","response":"right","rt":735.89999997616,"correct":true,"confidence":3},{"trial_n":113,"n_dots":2.55,"target":"right","response":"right","rt":641.29999995232,"correct":true,"confidence":4},{"trial_n":114,"n_dots":2.55,"target":"right","response":"right","rt":579.5,"correct":true,"confidence":5},{"trial_n":115,"n_dots":2.45,"target":"right","response":"left","rt":721,"correct":false,"confidence":3},{"trial_n":116,"n_dots":2.55,"target":"left","response":"right","rt":681.20000004768,"correct":false,"confidence":4},{"trial_n":117,"n_dots":2.65,"target":"left","response":"right","rt":766.80000007153,"correct":false,"confidence":2},{"trial_n":118,"n_dots":2.75,"target":"right","response":"right","rt":1076.1999999285,"correct":true,"confidence":1},{"trial_n":119,"n_dots":2.75,"target":"right","response":"right","rt":747.5,"correct":true,"confidence":2},{"trial_n":120,"n_dots":2.65,"target":"left","response":"left","rt":656.5,"correct":true,"confidence":3}]