[{"trial_n":1,"n_dots":4.25,"target":"right","response":"left","rt":6957.3000000715,"correct":false,"confidence":-1},{"trial_n":2,"n_dots":4.25,"target":"right","response":"right","rt":865.69999992847,"correct":true,"confidence":-1},{"trial_n":3,"n_dots":4.25,"target":"left","response":"right","rt":959.10000002384,"correct":false,"confidence":-1},{"trial_n":4,"n_dots":4.65,"target":"right","response":"left","rt":465.29999995232,"correct":false,"confidence":-1},{"trial_n":5,"n_dots":5.05,"target":"left","response":"left","rt":591.79999995232,"correct":true,"confidence":-1},{"trial_n":6,"n_dots":5.05,"target":"left","response":"left","rt":681,"correct":true,"confidence":-1},{"trial_n":7,"n_dots":4.65,"target":"right","response":"right","rt":315.19999992847,"correct":true,"confidence":-1},{"trial_n":8,"n_dots":4.65,"target":"left","response":"left","rt":622.70000004768,"correct":true,"confidence":-1},{"trial_n":9,"n_dots":4.45,"target":"left","response":"left","rt":455.29999995232,"correct":true,"confidence":-1},{"trial_n":10,"n_dots":4.45,"target":"left","response":"left","rt":839.60000002384,"correct":true,"confidence":-1},{"trial_n":11,"n_dots":4.25,"target":"right","response":"right","rt":310.39999997616,"correct":true,"confidence":-1},{"trial_n":12,"n_dots":4.25,"target":"right","response":"right","rt":220,"correct":true,"confidence":-1},{"trial_n":13,"n_dots":4.15,"target":"left","response":"right","rt":1066.7999999523,"correct":false,"confidence":-1},{"trial_n":14,"n_dots":4.25,"target":"right","response":"right","rt":420.20000004768,"correct":true,"confidence":-1},{"trial_n":15,"n_dots":4.25,"target":"left","response":"left","rt":478.5,"correct":true,"confidence":-1},{"trial_n":16,"n_dots":4.15,"target":"right","response":"right","rt":202.89999997616,"correct":true,"confidence":-1},{"trial_n":17,"n_dots":4.15,"target":"left","response":"left","rt":494.19999992847,"correct":true,"confidence":-1},{"trial_n":18,"n_dots":4.05,"target":"right","response":"right","rt":233,"correct":true,"confidence":-1},{"trial_n":19,"n_dots":4.05,"target":"right","response":"right","rt":416.39999997616,"correct":true,"confidence":-1},{"trial_n":20,"n_dots":3.95,"target":"left","response":"left","rt":498.39999997616,"correct":true,"confidence":-1},{"trial_n":21,"n_dots":3.95,"target":"right","response":"right","rt":775.10000002384,"correct":true,"confidence":3},{"trial_n":22,"n_dots":3.85,"target":"right","response":"right","rt":780.29999995232,"correct":true,"confidence":3},{"trial_n":23,"n_dots":3.85,"target":"left","response":"left","rt":762.60000002384,"correct":true,"confidence":4},{"trial_n":24,"n_dots":3.75,"target":"left","response":"left","rt":725.10000002384,"correct":true,"confidence":4},{"trial_n":25,"n_dots":3.75,"target":"left","response":"right","rt":779.39999997616,"correct":false,"confidence":5},{"trial_n":26,"n_dots":3.85,"target":"right","response":"right","rt":718.60000002384,"correct":true,"confidence":3},{"trial_n":27,"n_dots":3.85,"target":"right","response":"right","rt":824.5,"correct":true,"confidence":4},{"trial_n":28,"n_dots":3.75,"target":"left","response":"left","rt":985.20000004768,"correct":true,"confidence":4},{"trial_n":29,"n_dots":3.75,"target":"right","response":"right","rt":812.39999997616,"correct":true,"confidence":3},{"trial_n":30,"n_dots":3.65,"target":"right","response":"right","rt":2642.7999999523,"correct":true,"confidence":3},{"trial_n":31,"n_dots":3.65,"target":"left","response":"right","rt":869,"correct":false,"confidence":4},{"trial_n":32,"n_dots":3.75,"target":"left","response":"left","rt":727.70000004768,"correct":true,"confidence":5},{"trial_n":33,"n_dots":3.75,"target":"left","response":"left","rt":868.30000007153,"correct":true,"confidence":5},{"trial_n":34,"n_dots":3.65,"target":"right","response":"right","rt":657.5,"correct":true,"confidence":4},{"trial_n":35,"n_dots":3.65,"target":"left","response":"right","rt":460.89999997616,"correct":false,"confidence":4},{"trial_n":36,"n_dots":3.75,"target":"right","response":"right","rt":657.10000002384,"correct":true,"confidence":5},{"trial_n":37,"n_dots":3.75,"target":"right","response":"right","rt":624.30000007153,"correct":true,"confidence":4},{"trial_n":38,"n_dots":3.65,"target":"left","response":"right","rt":588,"correct":false,"confidence":5},{"trial_n":39,"n_dots":3.75,"target":"left","response":"right","rt":282.90000009537,"correct":false,"confidence":3},{"trial_n":40,"n_dots":3.85,"target":"right","response":"left","rt":203.39999997616,"correct":false,"confidence":5},{"trial_n":41,"n_dots":3.95,"target":"left","response":"right","rt":292.79999995232,"correct":false,"confidence":5},{"trial_n":42,"n_dots":4.05,"target":"right","response":"right","rt":498.69999992847,"correct":true,"confidence":4},{"trial_n":43,"n_dots":4.05,"target":"right","response":"right","rt":403.10000002384,"correct":true,"confidence":4},{"trial_n":44,"n_dots":3.95,"target":"left","response":"left","rt":1318.2000000477,"correct":true,"confidence":5},{"trial_n":45,"n_dots":3.95,"target":"left","response":"left","rt":292.69999992847,"correct":true,"confidence":5},{"trial_n":46,"n_dots":3.85,"target":"right","response":"right","rt":525.5,"correct":true,"confidence":5},{"trial_n":47,"n_dots":3.85,"target":"right","response":"right","rt":382.39999997616,"correct":true,"confidence":4},{"trial_n":48,"n_dots":3.75,"target":"right","response":"right","rt":247.80000007153,"correct":true,"confidence":4},{"trial_n":49,"n_dots":3.75,"target":"left","response":"right","rt":2745,"correct":false,"confidence":4},{"trial_n":50,"n_dots":3.85,"target":"right","response":"right","rt":597.39999997616,"correct":true,"confidence":3},{"trial_n":51,"n_dots":3.85,"target":"left","response":"left","rt":1992.8999999762,"correct":true,"confidence":5},{"trial_n":52,"n_dots":3.75,"target":"left","response":"left","rt":1057.8999999762,"correct":true,"confidence":4},{"trial_n":53,"n_dots":3.75,"target":"right","response":"right","rt":109.39999997616,"correct":true,"confidence":5},{"trial_n":54,"n_dots":3.65,"target":"right","response":"right","rt":197.19999992847,"correct":true,"confidence":5},{"trial_n":55,"n_dots":3.65,"target":"left","response":"left","rt":624.89999997616,"correct":true,"confidence":4},{"trial_n":56,"n_dots":3.55,"target":"left","response":"left","rt":672,"correct":true,"confidence":5},{"trial_n":57,"n_dots":3.55,"target":"left","response":"left","rt":629.89999997616,"correct":true,"confidence":5},{"trial_n":58,"n_dots":3.45,"target":"left","response":"left","rt":238.29999995232,"correct":true,"confidence":5},{"trial_n":59,"n_dots":3.45,"target":"left","response":"right","rt":2226.7999999523,"correct":false,"confidence":4},{"trial_n":60,"n_dots":3.55,"target":"right","response":"right","rt":538.60000002384,"correct":true,"confidence":4},{"trial_n":61,"n_dots":3.55,"target":"left","response":"right","rt":139.20000004768,"correct":false,"confidence":4},{"trial_n":62,"n_dots":3.65,"target":"right","response":"right","rt":201.29999995232,"correct":true,"confidence":4},{"trial_n":63,"n_dots":3.65,"target":"left","response":"left","rt":483.30000007153,"correct":true,"confidence":5},{"trial_n":64,"n_dots":3.55,"target":"left","response":"left","rt":252,"correct":true,"confidence":4},{"trial_n":65,"n_dots":3.55,"target":"left","response":"right","rt":560.59999990463,"correct":false,"confidence":5},{"trial_n":66,"n_dots":3.65,"target":"right","response":"right","rt":664.60000002384,"correct":true,"confidence":4},{"trial_n":67,"n_dots":3.65,"target":"left","response":"left","rt":390.29999995232,"correct":true,"confidence":5},{"trial_n":68,"n_dots":3.55,"target":"left","response":"left","rt":425.39999997616,"correct":true,"confidence":5},{"trial_n":69,"n_dots":3.55,"target":"right","response":"left","rt":2995.2000000477,"correct":false,"confidence":4},{"trial_n":70,"n_dots":3.65,"target":"left","response":"right","rt":7990.7000000477,"correct":false,"confidence":4},{"trial_n":71,"n_dots":3.75,"target":"right","response":"left","rt":694.89999997616,"correct":false,"confidence":5},{"trial_n":72,"n_dots":3.85,"target":"left","response":"right","rt":653.69999992847,"correct":false,"confidence":5},{"trial_n":73,"n_dots":3.95,"target":"right","response":"right","rt":208.19999992847,"correct":true,"confidence":4},{"trial_n":74,"n_dots":3.95,"target":"left","response":"left","rt":575.79999995232,"correct":true,"confidence":5},{"trial_n":75,"n_dots":3.85,"target":"left","response":"left","rt":231.89999997616,"correct":true,"confidence":5},{"trial_n":76,"n_dots":3.85,"target":"left","response":"left","rt":493.60000002384,"correct":true,"confidence":4},{"trial_n":77,"n_dots":3.75,"target":"right","response":"right","rt":936.60000002384,"correct":true,"confidence":4},{"trial_n":78,"n_dots":3.75,"target":"left","response":"left","rt":310.10000002384,"correct":true,"confidence":5},{"trial_n":79,"n_dots":3.65,"target":"right","response":"right","rt":586.30000007153,"correct":true,"confidence":4},{"trial_n":80,"n_dots":3.65,"target":"left","response":"right","rt":789.59999990463,"correct":false,"confidence":5},{"trial_n":81,"n_dots":3.75,"target":"left","response":"left","rt":706.10000002384,"correct":true,"confidence":5},{"trial_n":82,"n_dots":3.75,"target":"right","response":"left","rt":871.10000002384,"correct":false,"confidence":4},{"trial_n":83,"n_dots":3.85,"target":"right","response":"right","rt":562.70000004768,"correct":true,"confidence":5},{"trial_n":84,"n_dots":3.85,"target":"left","response":"left","rt":292.5,"correct":true,"confidence":5},{"trial_n":85,"n_dots":3.75,"target":"right","response":"right","rt":985.19999992847,"correct":true,"confidence":5},{"trial_n":86,"n_dots":3.75,"target":"right","response":"right","rt":449.10000002384,"correct":true,"confidence":5},{"trial_n":87,"n_dots":3.65,"target":"right","response":"right","rt":1093.3000000715,"correct":true,"confidence":5},{"trial_n":88,"n_dots":3.65,"target":"left","response":"left","rt":265.80000007153,"correct":true,"confidence":5},{"trial_n":89,"n_dots":3.55,"target":"left","response":"right","rt":499.20000004768,"correct":false,"confidence":5},{"trial_n":90,"n_dots":3.65,"target":"left","response":"right","rt":478.69999992847,"correct":false,"confidence":4},{"trial_n":91,"n_dots":3.75,"target":"right","response":"right","rt":353.19999992847,"correct":true,"confidence":5},{"trial_n":92,"n_dots":3.75,"target":"right","response":"right","rt":463.5,"correct":true,"confidence":4},{"trial_n":93,"n_dots":3.65,"target":"left","response":"right","rt":2594,"correct":false,"confidence":5},{"trial_n":94,"n_dots":3.75,"target":"left","response":"left","rt":527.60000002384,"correct":true,"confidence":4},{"trial_n":95,"n_dots":3.75,"target":"right","response":"right","rt":324,"correct":true,"confidence":4},{"trial_n":96,"n_dots":3.65,"target":"right","response":"right","rt":971.79999995232,"correct":true,"confidence":4},{"trial_n":97,"n_dots":3.65,"target":"right","response":"right","rt":3650.8999999762,"correct":true,"confidence":4},{"trial_n":98,"n_dots":3.55,"target":"right","response":"right","rt":563.30000007153,"correct":true,"confidence":4},{"trial_n":99,"n_dots":3.55,"target":"left","response":"right","rt":1855.2000000477,"correct":false,"confidence":5},{"trial_n":100,"n_dots":3.65,"target":"left","response":"left","rt":231.30000007153,"correct":true,"confidence":4},{"trial_n":101,"n_dots":3.65,"target":"right","response":"left","rt":139,"correct":false,"confidence":4},{"trial_n":102,"n_dots":3.75,"target":"right","response":"right","rt":293.20000004768,"correct":true,"confidence":5},{"trial_n":103,"n_dots":3.75,"target":"left","response":"left","rt":1139,"correct":true,"confidence":3},{"trial_n":104,"n_dots":3.65,"target":"right","response":"right","rt":483,"correct":true,"confidence":4},{"trial_n":105,"n_dots":3.65,"target":"right","response":"right","rt":45.900000095367,"correct":true,"confidence":4},{"trial_n":106,"n_dots":3.55,"target":"left","response":"right","rt":368.5,"correct":false,"confidence":5},{"trial_n":107,"n_dots":3.65,"target":"left","response":"left","rt":401.20000004768,"correct":true,"confidence":5},{"trial_n":108,"n_dots":3.65,"target":"right","response":"left","rt":247.79999995232,"correct":false,"confidence":4},{"trial_n":109,"n_dots":3.75,"target":"right","response":"left","rt":231.70000004768,"correct":false,"confidence":5},{"trial_n":110,"n_dots":3.85,"target":"right","response":"right","rt":141.60000002384,"correct":true,"confidence":5},{"trial_n":111,"n_dots":3.85,"target":"left","response":"left","rt":0.30000007152557,"correct":true,"confidence":4},{"trial_n":112,"n_dots":3.75,"target":"right","response":"right","rt":556.89999997616,"correct":true,"confidence":3},{"trial_n":113,"n_dots":3.75,"target":"right","response":"right","rt":462.70000004768,"correct":true,"confidence":4},{"trial_n":114,"n_dots":3.65,"target":"right","response":"right","rt":373.39999997616,"correct":true,"confidence":3},{"trial_n":115,"n_dots":3.65,"target":"right","response":"right","rt":233.69999992847,"correct":true,"confidence":4},{"trial_n":116,"n_dots":3.55,"target":"left","response":"right","rt":264.60000002384,"correct":false,"confidence":4},{"trial_n":117,"n_dots":3.65,"target":"left","response":"left","rt":464.39999997616,"correct":true,"confidence":4},{"trial_n":118,"n_dots":3.65,"target":"right","response":"right","rt":384,"correct":true,"confidence":2},{"trial_n":119,"n_dots":3.55,"target":"left","response":"right","rt":480.30000007153,"correct":false,"confidence":3},{"trial_n":120,"n_dots":3.65,"target":"right","response":"right","rt":843.79999995232,"correct":true,"confidence":3}]