[{"trial_n":1,"n_dots":4.25,"target":"right","response":"left","rt":4841,"correct":false,"confidence":-1},{"trial_n":2,"n_dots":4.25,"target":"right","response":"left","rt":1158,"correct":false,"confidence":-1},{"trial_n":3,"n_dots":4.65,"target":"right","response":"right","rt":762,"correct":true,"confidence":-1},{"trial_n":4,"n_dots":4.65,"target":"left","response":"right","rt":850,"correct":false,"confidence":-1},{"trial_n":5,"n_dots":5.05,"target":"right","response":"right","rt":345,"correct":true,"confidence":-1},{"trial_n":6,"n_dots":5.05,"target":"left","response":"left","rt":377,"correct":true,"confidence":-1},{"trial_n":7,"n_dots":4.65,"target":"left","response":"left","rt":713.00000000003,"correct":true,"confidence":-1},{"trial_n":8,"n_dots":4.65,"target":"left","response":"left","rt":571,"correct":true,"confidence":-1},{"trial_n":9,"n_dots":4.45,"target":"right","response":"right","rt":397,"correct":true,"confidence":-1},{"trial_n":10,"n_dots":4.45,"target":"left","response":"left","rt":1376,"correct":true,"confidence":-1},{"trial_n":11,"n_dots":4.25,"target":"left","response":"left","rt":602,"correct":true,"confidence":-1},{"trial_n":12,"n_dots":4.25,"target":"right","response":"left","rt":7923,"correct":false,"confidence":-1},{"trial_n":13,"n_dots":4.35,"target":"right","response":"right","rt":7898,"correct":true,"confidence":-1},{"trial_n":14,"n_dots":4.35,"target":"left","response":"left","rt":582,"correct":true,"confidence":-1},{"trial_n":15,"n_dots":4.25,"target":"right","response":"right","rt":457,"correct":true,"confidence":-1},{"trial_n":16,"n_dots":4.25,"target":"right","response":"right","rt":553,"correct":true,"confidence":-1},{"trial_n":17,"n_dots":4.15,"target":"left","response":"left","rt":1292,"correct":true,"confidence":-1},{"trial_n":18,"n_dots":4.15,"target":"right","response":"left","rt":2246,"correct":false,"confidence":-1},{"trial_n":19,"n_dots":4.25,"target":"left","response":"left","rt":408.99999999997,"correct":true,"confidence":-1},{"trial_n":20,"n_dots":4.25,"target":"left","response":"left","rt":473,"correct":true,"confidence":-1},{"trial_n":21,"n_dots":4.15,"target":"right","response":"right","rt":461.00000000003,"correct":true,"confidence":3},{"trial_n":22,"n_dots":4.15,"target":"left","response":"left","rt":567,"correct":true,"confidence":3},{"trial_n":23,"n_dots":4.05,"target":"right","response":"right","rt":601,"correct":true,"confidence":1},{"trial_n":24,"n_dots":4.05,"target":"right","response":"right","rt":1490,"correct":true,"confidence":1},{"trial_n":25,"n_dots":3.95,"target":"right","response":"right","rt":522,"correct":true,"confidence":3},{"trial_n":26,"n_dots":3.95,"target":"left","response":"left","rt":743.00000000003,"correct":true,"confidence":2},{"trial_n":27,"n_dots":3.85,"target":"left","response":"left","rt":1103,"correct":true,"confidence":2},{"trial_n":28,"n_dots":3.85,"target":"right","response":"right","rt":1432,"correct":true,"confidence":1},{"trial_n":29,"n_dots":3.75,"target":"left","response":"left","rt":745.99999999997,"correct":true,"confidence":2},{"trial_n":30,"n_dots":3.75,"target":"right","response":"right","rt":501,"correct":true,"confidence":2},{"trial_n":31,"n_dots":3.65,"target":"left","response":"left","rt":727.00000000003,"correct":true,"confidence":1},{"trial_n":32,"n_dots":3.65,"target":"right","response":"right","rt":718,"correct":true,"confidence":3},{"trial_n":33,"n_dots":3.55,"target":"right","response":"right","rt":827,"correct":true,"confidence":1},{"trial_n":34,"n_dots":3.55,"target":"left","response":"right","rt":922,"correct":false,"confidence":1},{"trial_n":35,"n_dots":3.65,"target":"left","response":"right","rt":1200,"correct":false,"confidence":1},{"trial_n":36,"n_dots":3.75,"target":"right","response":"right","rt":700,"correct":true,"confidence":3},{"trial_n":37,"n_dots":3.75,"target":"right","response":"right","rt":689,"correct":true,"confidence":3},{"trial_n":38,"n_dots":3.65,"target":"right","response":"right","rt":640,"correct":true,"confidence":2},{"trial_n":39,"n_dots":3.65,"target":"right","response":"right","rt":843,"correct":true,"confidence":1},{"trial_n":40,"n_dots":3.55,"target":"left","response":"left","rt":736,"correct":true,"confidence":1},{"trial_n":41,"n_dots":3.55,"target":"right","response":"right","rt":1206.0000000075,"correct":true,"confidence":1},{"trial_n":42,"n_dots":3.45,"target":"right","response":"right","rt":964,"correct":true,"confidence":1},{"trial_n":43,"n_dots":3.45,"target":"left","response":"left","rt":738.00000000745,"correct":true,"confidence":2},{"trial_n":44,"n_dots":3.35,"target":"right","response":"right","rt":1266,"correct":true,"confidence":3},{"trial_n":45,"n_dots":3.35,"target":"left","response":"left","rt":1042,"correct":true,"confidence":3},{"trial_n":46,"n_dots":3.25,"target":"left","response":"left","rt":646,"correct":true,"confidence":3},{"trial_n":47,"n_dots":3.25,"target":"left","response":"left","rt":883.99999999255,"correct":true,"confidence":1},{"trial_n":48,"n_dots":3.15,"target":"right","response":"left","rt":683,"correct":false,"confidence":2},{"trial_n":49,"n_dots":3.25,"target":"right","response":"right","rt":964,"correct":true,"confidence":2},{"trial_n":50,"n_dots":3.25,"target":"right","response":"right","rt":1557,"correct":true,"confidence":2},{"trial_n":51,"n_dots":3.15,"target":"left","response":"left","rt":822,"correct":true,"confidence":1},{"trial_n":52,"n_dots":3.15,"target":"right","response":"right","rt":868,"correct":true,"confidence":1},{"trial_n":53,"n_dots":3.05,"target":"right","response":"right","rt":785,"correct":true,"confidence":1},{"trial_n":54,"n_dots":3.05,"target":"left","response":"left","rt":704,"correct":true,"confidence":3},{"trial_n":55,"n_dots":2.95,"target":"left","response":"left","rt":970,"correct":true,"confidence":2},{"trial_n":56,"n_dots":2.95,"target":"right","response":"left","rt":886.00000000745,"correct":false,"confidence":2},{"trial_n":57,"n_dots":3.05,"target":"right","response":"right","rt":714,"correct":true,"confidence":3},{"trial_n":58,"n_dots":3.05,"target":"left","response":"right","rt":817.99999999255,"correct":false,"confidence":1},{"trial_n":59,"n_dots":3.15,"target":"right","response":"right","rt":681.99999999255,"correct":true,"confidence":2},{"trial_n":60,"n_dots":3.15,"target":"right","response":"right","rt":1062,"correct":true,"confidence":1},{"trial_n":61,"n_dots":3.05,"target":"left","response":"left","rt":820,"correct":true,"confidence":3},{"trial_n":62,"n_dots":3.05,"target":"left","response":"left","rt":778,"correct":true,"confidence":2},{"trial_n":63,"n_dots":2.95,"target":"left","response":"left","rt":710,"correct":true,"confidence":1},{"trial_n":64,"n_dots":2.95,"target":"right","response":"left","rt":737,"correct":false,"confidence":2},{"trial_n":65,"n_dots":3.05,"target":"left","response":"left","rt":994,"correct":true,"confidence":3},{"trial_n":66,"n_dots":3.05,"target":"left","response":"left","rt":451,"correct":true,"confidence":4},{"trial_n":67,"n_dots":2.95,"target":"left","response":"left","rt":616.00000000745,"correct":true,"confidence":3},{"trial_n":68,"n_dots":2.95,"target":"right","response":"left","rt":1662.9999999925,"correct":false,"confidence":1},{"trial_n":69,"n_dots":3.05,"target":"left","response":"left","rt":689,"correct":true,"confidence":1},{"trial_n":70,"n_dots":3.05,"target":"right","response":"left","rt":1005,"correct":false,"confidence":1},{"trial_n":71,"n_dots":3.15,"target":"left","response":"left","rt":746.99999999255,"correct":true,"confidence":3},{"trial_n":72,"n_dots":3.15,"target":"right","response":"left","rt":766,"correct":false,"confidence":1},{"trial_n":73,"n_dots":3.25,"target":"right","response":"right","rt":811,"correct":true,"confidence":2},{"trial_n":74,"n_dots":3.25,"target":"left","response":"left","rt":937,"correct":true,"confidence":1},{"trial_n":75,"n_dots":3.15,"target":"right","response":"right","rt":770,"correct":true,"confidence":3},{"trial_n":76,"n_dots":3.15,"target":"right","response":"right","rt":730,"correct":true,"confidence":3},{"trial_n":77,"n_dots":3.05,"target":"left","response":"left","rt":553,"correct":true,"confidence":3},{"trial_n":78,"n_dots":3.05,"target":"left","response":"left","rt":815,"correct":true,"confidence":3},{"trial_n":79,"n_dots":2.95,"target":"right","response":"left","rt":546,"correct":false,"confidence":3},{"trial_n":80,"n_dots":3.05,"target":"right","response":"left","rt":655,"correct":false,"confidence":3},{"trial_n":81,"n_dots":3.15,"target":"left","response":"left","rt":634,"correct":true,"confidence":2},{"trial_n":82,"n_dots":3.15,"target":"right","response":"left","rt":737,"correct":false,"confidence":1},{"trial_n":83,"n_dots":3.25,"target":"left","response":"left","rt":886,"correct":true,"confidence":1},{"trial_n":84,"n_dots":3.25,"target":"right","response":"right","rt":1769,"correct":true,"confidence":4},{"trial_n":85,"n_dots":3.15,"target":"left","response":"left","rt":511,"correct":true,"confidence":4},{"trial_n":86,"n_dots":3.15,"target":"left","response":"left","rt":549,"correct":true,"confidence":4},{"trial_n":87,"n_dots":3.05,"target":"left","response":"left","rt":753.00000000745,"correct":true,"confidence":4},{"trial_n":88,"n_dots":3.05,"target":"left","response":"left","rt":1078,"correct":true,"confidence":1},{"trial_n":89,"n_dots":2.95,"target":"right","response":"left","rt":780,"correct":false,"confidence":3},{"trial_n":90,"n_dots":3.05,"target":"right","response":"left","rt":662.00000000745,"correct":false,"confidence":1},{"trial_n":91,"n_dots":3.15,"target":"right","response":"right","rt":927,"correct":true,"confidence":1},{"trial_n":92,"n_dots":3.15,"target":"left","response":"left","rt":936,"correct":true,"confidence":1},{"trial_n":93,"n_dots":3.05,"target":"right","response":"left","rt":549,"correct":false,"confidence":1},{"trial_n":94,"n_dots":3.15,"target":"right","response":"left","rt":496,"correct":false,"confidence":3},{"trial_n":95,"n_dots":3.25,"target":"right","response":"left","rt":572,"correct":false,"confidence":1},{"trial_n":96,"n_dots":3.35,"target":"left","response":"left","rt":706.00000000745,"correct":true,"confidence":1},{"trial_n":97,"n_dots":3.35,"target":"left","response":"left","rt":746,"correct":true,"confidence":1},{"trial_n":98,"n_dots":3.25,"target":"right","response":"left","rt":703,"correct":false,"confidence":1},{"trial_n":99,"n_dots":3.35,"target":"right","response":"right","rt":606,"correct":true,"confidence":3},{"trial_n":100,"n_dots":3.35,"target":"right","response":"right","rt":923,"correct":true,"confidence":3},{"trial_n":101,"n_dots":3.25,"target":"left","response":"left","rt":397,"correct":true,"confidence":4},{"trial_n":102,"n_dots":3.25,"target":"left","response":"left","rt":551.99999999255,"correct":true,"confidence":4},{"trial_n":103,"n_dots":3.15,"target":"left","response":"left","rt":681.00000000745,"correct":true,"confidence":3},{"trial_n":104,"n_dots":3.15,"target":"right","response":"left","rt":466,"correct":false,"confidence":3},{"trial_n":105,"n_dots":3.25,"target":"left","response":"left","rt":736.99999999255,"correct":true,"confidence":2},{"trial_n":106,"n_dots":3.25,"target":"right","response":"right","rt":638.99999999255,"correct":true,"confidence":3},{"trial_n":107,"n_dots":3.15,"target":"left","response":"left","rt":777,"correct":true,"confidence":1},{"trial_n":108,"n_dots":3.15,"target":"left","response":"left","rt":813,"correct":true,"confidence":3},{"trial_n":109,"n_dots":3.05,"target":"left","response":"left","rt":810,"correct":true,"confidence":1},{"trial_n":110,"n_dots":3.05,"target":"left","response":"right","rt":713,"correct":false,"confidence":3},{"trial_n":111,"n_dots":3.15,"target":"right","response":"left","rt":925,"correct":false,"confidence":1},{"trial_n":112,"n_dots":3.25,"target":"left","response":"left","rt":1325,"correct":true,"confidence":2},{"trial_n":113,"n_dots":3.25,"target":"right","response":"left","rt":1354,"correct":false,"confidence":3},{"trial_n":114,"n_dots":3.35,"target":"left","response":"left","rt":525.99999999255,"correct":true,"confidence":4},{"trial_n":115,"n_dots":3.35,"target":"right","response":"right","rt":494,"correct":true,"confidence":4},{"trial_n":116,"n_dots":3.25,"target":"left","response":"left","rt":454,"correct":true,"confidence":4},{"trial_n":117,"n_dots":3.25,"target":"left","response":"left","rt":371.99999999255,"correct":true,"confidence":4},{"trial_n":118,"n_dots":3.15,"target":"left","response":"left","rt":526.00000000745,"correct":true,"confidence":4},{"trial_n":119,"n_dots":3.15,"target":"left","response":"left","rt":620,"correct":true,"confidence":1},{"trial_n":120,"n_dots":3.05,"target":"right","response":"left","rt":918,"correct":false,"confidence":1}]