[{"trial_n":1,"span":8,"encoder":"38877158","distractor":"38877152","target":"present","response":"absent","rt":"4867.7000000477","correct":false,"confidence":-1},{"trial_n":2,"span":6,"encoder":"385090","distractor":"685090","target":"present","response":"present","rt":"3132.2999999523","correct":true,"confidence":-1},{"trial_n":3,"span":6,"encoder":"514113","distractor":"514413","target":"absent","response":"present","rt":"3514.3999999762","correct":false,"confidence":-1},{"trial_n":4,"span":4,"encoder":"8834","distractor":"8844","target":"absent","response":"absent","rt":"1981.8000000715","correct":true,"confidence":-1},{"trial_n":5,"span":4,"encoder":"2884","distractor":"2886","target":"present","response":"present","rt":"1421.6000000238","correct":true,"confidence":-1},{"trial_n":6,"span":6,"encoder":"040526","distractor":"040546","target":"present","response":"present","rt":"2571.2999999523","correct":true,"confidence":-1},{"trial_n":7,"span":6,"encoder":"995497","distractor":"995487","target":"absent","response":"absent","rt":"2377.1999999285","correct":true,"confidence":-1},{"trial_n":8,"span":8,"encoder":"61267189","distractor":"61267689","target":"present","response":"absent","rt":"3276.7999999523","correct":false,"confidence":-1},{"trial_n":9,"span":6,"encoder":"707556","distractor":"787556","target":"present","response":"present","rt":"3835.7999999523","correct":true,"confidence":-1},{"trial_n":10,"span":6,"encoder":"361986","distractor":"361686","target":"present","response":"present","rt":"1926.8999999762","correct":true,"confidence":-1},{"trial_n":11,"span":8,"encoder":"70021137","distractor":"70028137","target":"absent","response":"absent","rt":"2470.6000000238","correct":true,"confidence":-1},{"trial_n":12,"span":8,"encoder":"39849076","distractor":"29849076","target":"absent","response":"present","rt":"4596.5","correct":false,"confidence":-1},{"trial_n":13,"span":7,"encoder":"8014322","distractor":"8011322","target":"absent","response":"present","rt":"3983.8000000715","correct":false,"confidence":-1},{"trial_n":14,"span":6,"encoder":"623189","distractor":"623489","target":"present","response":"absent","rt":"2259.1999999285","correct":false,"confidence":-1},{"trial_n":15,"span":5,"encoder":"67456","distractor":"17456","target":"absent","response":"absent","rt":"2583.8000000715","correct":true,"confidence":-1},{"trial_n":16,"span":5,"encoder":"89912","distractor":"83912","target":"absent","response":"absent","rt":"2626.3999999762","correct":true,"confidence":-1},{"trial_n":17,"span":6,"encoder":"415977","distractor":"415577","target":"present","response":"present","rt":"2897","correct":true,"confidence":-1},{"trial_n":18,"span":6,"encoder":"144503","distractor":"114503","target":"present","response":"present","rt":"1513.6000000238","correct":true,"confidence":-1},{"trial_n":19,"span":7,"encoder":"1305065","distractor":"1305062","target":"absent","response":"present","rt":"1756.2999999523","correct":false,"confidence":-1},{"trial_n":20,"span":6,"encoder":"766607","distractor":"766697","target":"absent","response":"absent","rt":"2130.8000000715","correct":true,"confidence":-1},{"trial_n":21,"span":6,"encoder":"107744","distractor":"107742","target":"present","response":"absent","rt":"5423.8999999762","correct":false,"confidence":3},{"trial_n":22,"span":5,"encoder":"57807","distractor":"57800","target":"absent","response":"absent","rt":"4267.2000000477","correct":true,"confidence":4},{"trial_n":23,"span":5,"encoder":"40836","distractor":"40896","target":"present","response":"present","rt":"2052.1999999285","correct":true,"confidence":5},{"trial_n":24,"span":6,"encoder":"698171","distractor":"698871","target":"present","response":"present","rt":"2010.7999999523","correct":true,"confidence":3},{"trial_n":25,"span":6,"encoder":"761485","distractor":"781485","target":"present","response":"present","rt":"1948.1000000238","correct":true,"confidence":4},{"trial_n":26,"span":7,"encoder":"6643788","distractor":"6647788","target":"present","response":"present","rt":"3559.7000000477","correct":true,"confidence":3},{"trial_n":27,"span":7,"encoder":"6129525","distractor":"6629525","target":"absent","response":"absent","rt":"2259.2999999523","correct":true,"confidence":3},{"trial_n":28,"span":8,"encoder":"62160662","distractor":"62160692","target":"present","response":"present","rt":"4277.3000000715","correct":true,"confidence":3},{"trial_n":29,"span":8,"encoder":"11503826","distractor":"11543826","target":"present","response":"absent","rt":"2510.2999999523","correct":false,"confidence":2},{"trial_n":30,"span":7,"encoder":"2263052","distractor":"2243052","target":"present","response":"absent","rt":"4918.3000000715","correct":false,"confidence":2},{"trial_n":31,"span":6,"encoder":"635613","distractor":"632613","target":"present","response":"present","rt":"3609.6999999285","correct":true,"confidence":2},{"trial_n":32,"span":6,"encoder":"569472","distractor":"569172","target":"present","response":"absent","rt":"7127","correct":false,"confidence":1},{"trial_n":33,"span":5,"encoder":"70906","distractor":"70908","target":"absent","response":"absent","rt":"2113.5999999046","correct":true,"confidence":5},{"trial_n":34,"span":5,"encoder":"10289","distractor":"10219","target":"absent","response":"absent","rt":"3209.1000000238","correct":true,"confidence":5},{"trial_n":35,"span":6,"encoder":"657756","distractor":"607756","target":"absent","response":"absent","rt":"1947.8000000715","correct":true,"confidence":5},{"trial_n":36,"span":6,"encoder":"483412","distractor":"483419","target":"absent","response":"absent","rt":"3725.1000000238","correct":true,"confidence":4},{"trial_n":37,"span":7,"encoder":"7079038","distractor":"7079338","target":"absent","response":"absent","rt":"3848.3999999762","correct":true,"confidence":4},{"trial_n":38,"span":7,"encoder":"5237797","distractor":"5237791","target":"absent","response":"absent","rt":"2015.3999999762","correct":true,"confidence":4},{"trial_n":39,"span":8,"encoder":"40852696","distractor":"40852606","target":"absent","response":"absent","rt":"5848.1000000238","correct":true,"confidence":3},{"trial_n":40,"span":8,"encoder":"77089549","distractor":"77189549","target":"present","response":"absent","rt":"4927.4000000954","correct":false,"confidence":3},{"trial_n":41,"span":7,"encoder":"2185166","distractor":"2485166","target":"absent","response":"present","rt":"3994.6000000238","correct":false,"confidence":3},{"trial_n":42,"span":6,"encoder":"638111","distractor":"638161","target":"present","response":"absent","rt":"3468.5","correct":false,"confidence":3},{"trial_n":43,"span":5,"encoder":"35189","distractor":"35199","target":"present","response":"present","rt":"3293.1000000238","correct":true,"confidence":5},{"trial_n":44,"span":5,"encoder":"57589","distractor":"50589","target":"absent","response":"absent","rt":"1979.8000000715","correct":true,"confidence":5},{"trial_n":45,"span":6,"encoder":"318573","distractor":"308573","target":"present","response":"present","rt":"2682.7999999523","correct":true,"confidence":5},{"trial_n":46,"span":6,"encoder":"304962","distractor":"304967","target":"present","response":"absent","rt":"3752.6000000238","correct":false,"confidence":3},{"trial_n":47,"span":5,"encoder":"87494","distractor":"87434","target":"present","response":"present","rt":"3062.3000000715","correct":true,"confidence":4},{"trial_n":48,"span":5,"encoder":"20887","distractor":"20885","target":"present","response":"present","rt":"1722.6999999285","correct":true,"confidence":5},{"trial_n":49,"span":6,"encoder":"102702","distractor":"106702","target":"absent","response":"absent","rt":"5349.5","correct":true,"confidence":5},{"trial_n":50,"span":6,"encoder":"782314","distractor":"784314","target":"present","response":"present","rt":"3451.5","correct":true,"confidence":3},{"trial_n":51,"span":7,"encoder":"4606093","distractor":"4636093","target":"absent","response":"absent","rt":"5904.6000000238","correct":true,"confidence":2},{"trial_n":52,"span":7,"encoder":"0616863","distractor":"0636863","target":"present","response":"present","rt":"3321.1000000238","correct":true,"confidence":2},{"trial_n":53,"span":8,"encoder":"12952694","distractor":"12952693","target":"absent","response":"absent","rt":"2827.3000000715","correct":true,"confidence":5},{"trial_n":54,"span":8,"encoder":"29604103","distractor":"28604103","target":"absent","response":"present","rt":"4942.2999999523","correct":false,"confidence":1},{"trial_n":55,"span":7,"encoder":"5295282","distractor":"5295284","target":"absent","response":"absent","rt":"4260.3000000715","correct":true,"confidence":5},{"trial_n":56,"span":7,"encoder":"4056926","distractor":"4056925","target":"absent","response":"absent","rt":"3018.7000000477","correct":true,"confidence":5},{"trial_n":57,"span":8,"encoder":"55111925","distractor":"55141925","target":"absent","response":"absent","rt":"2810","correct":true,"confidence":4},{"trial_n":58,"span":8,"encoder":"09506355","distractor":"05506355","target":"absent","response":"present","rt":"4518","correct":false,"confidence":1},{"trial_n":59,"span":7,"encoder":"3763817","distractor":"3760817","target":"absent","response":"absent","rt":"3818","correct":true,"confidence":3},{"trial_n":60,"span":7,"encoder":"1978628","distractor":"1378628","target":"present","response":"present","rt":"4539.2999999523","correct":true,"confidence":2},{"trial_n":61,"span":8,"encoder":"78979548","distractor":"74979548","target":"absent","response":"absent","rt":"2356.2000000477","correct":true,"confidence":5},{"trial_n":62,"span":8,"encoder":"37509924","distractor":"37509624","target":"present","response":"absent","rt":"4710.8999999762","correct":false,"confidence":1},{"trial_n":63,"span":7,"encoder":"4530537","distractor":"4538537","target":"present","response":"present","rt":"3445.5999999046","correct":true,"confidence":3},{"trial_n":64,"span":7,"encoder":"3737840","distractor":"3737540","target":"present","response":"present","rt":"2452.4000000954","correct":true,"confidence":5},{"trial_n":65,"span":8,"encoder":"98139774","distractor":"98131774","target":"absent","response":"absent","rt":"5723.2000000477","correct":true,"confidence":1},{"trial_n":66,"span":8,"encoder":"47967668","distractor":"43967668","target":"absent","response":"present","rt":"5384.8999999762","correct":false,"confidence":2},{"trial_n":67,"span":7,"encoder":"5558998","distractor":"5558928","target":"present","response":"present","rt":"2619.3999999762","correct":true,"confidence":3},{"trial_n":68,"span":7,"encoder":"0807103","distractor":"0807003","target":"absent","response":"absent","rt":"2413.1000000238","correct":true,"confidence":5},{"trial_n":69,"span":8,"encoder":"89152635","distractor":"89152636","target":"present","response":"absent","rt":"3591.3000000715","correct":false,"confidence":2},{"trial_n":70,"span":7,"encoder":"0363447","distractor":"0363647","target":"present","response":"present","rt":"3245.6000000238","correct":true,"confidence":3},{"trial_n":71,"span":8,"encoder":"09196593","distractor":"09996593","target":"present","response":"present","rt":"5198.2999999523","correct":true,"confidence":-1},{"trial_n":72,"span":8,"encoder":"56902363","distractor":"56902383","target":"present","response":"present","rt":"3516","correct":true,"confidence":-1},{"trial_n":73,"span":9,"encoder":"477016651","distractor":"477015651","target":"absent","response":"absent","rt":"2396.5","correct":true,"confidence":-1},{"trial_n":74,"span":9,"encoder":"035496567","distractor":"035446567","target":"absent","response":"absent","rt":"5745.1999999285","correct":true,"confidence":-1},{"trial_n":75,"span":10,"encoder":"4389326654","distractor":"4389326652","target":"present","response":"present","rt":"2469.6000000238","correct":true,"confidence":-1},{"trial_n":76,"span":10,"encoder":"9021391709","distractor":"4021391709","target":"present","response":"present","rt":"5930.8999999762","correct":true,"confidence":-1},{"trial_n":77,"span":11,"encoder":"51914313267","distractor":"51014313267","target":"present","response":"absent","rt":"11443.899999976","correct":false,"confidence":-1},{"trial_n":78,"span":10,"encoder":"7444765959","distractor":"7444065959","target":"absent","response":"present","rt":"6951.7000000477","correct":false,"confidence":-1},{"trial_n":79,"span":9,"encoder":"085593791","distractor":"005593791","target":"present","response":"absent","rt":"5916.8999999762","correct":false,"confidence":-1},{"trial_n":80,"span":8,"encoder":"27595997","distractor":"25595997","target":"present","response":"absent","rt":"4971.4000000954","correct":false,"confidence":-1},{"trial_n":81,"span":7,"encoder":"1992745","distractor":"2992745","target":"present","response":"present","rt":"1536.3000000715","correct":true,"confidence":-1},{"trial_n":82,"span":7,"encoder":"9010652","distractor":"0010652","target":"absent","response":"absent","rt":"2051.9000000954","correct":true,"confidence":-1},{"trial_n":83,"span":8,"encoder":"63052562","distractor":"63051562","target":"present","response":"present","rt":"3382.1000000238","correct":true,"confidence":-1},{"trial_n":84,"span":8,"encoder":"52440665","distractor":"52410665","target":"absent","response":"absent","rt":"3922.3999999762","correct":true,"confidence":-1},{"trial_n":85,"span":9,"encoder":"315444513","distractor":"315944513","target":"present","response":"absent","rt":"4433.5","correct":false,"confidence":-1},{"trial_n":86,"span":8,"encoder":"31706231","distractor":"41706231","target":"present","response":"present","rt":"6427.3000000715","correct":true,"confidence":-1},{"trial_n":87,"span":8,"encoder":"25727507","distractor":"25757507","target":"absent","response":"absent","rt":"2354","correct":true,"confidence":-1},{"trial_n":88,"span":9,"encoder":"900711730","distractor":"900721730","target":"present","response":"absent","rt":"5299.3000000715","correct":false,"confidence":-1},{"trial_n":89,"span":8,"encoder":"23055074","distractor":"23855074","target":"absent","response":"absent","rt":"2512.2999999523","correct":true,"confidence":-1},{"trial_n":90,"span":8,"encoder":"24138239","distractor":"24138289","target":"absent","response":"absent","rt":"2255.1999999285","correct":true,"confidence":-1},{"trial_n":91,"span":9,"encoder":"689656816","distractor":"686656816","target":"present","response":"absent","rt":"4535.2999999523","correct":false,"confidence":1},{"trial_n":92,"span":8,"encoder":"14955028","distractor":"14555028","target":"absent","response":"absent","rt":"3881.0999999046","correct":true,"confidence":2},{"trial_n":93,"span":8,"encoder":"61138884","distractor":"91138884","target":"present","response":"present","rt":"3849.8999999762","correct":true,"confidence":4},{"trial_n":94,"span":9,"encoder":"571748550","distractor":"571748850","target":"present","response":"present","rt":"8286","correct":true,"confidence":1},{"trial_n":95,"span":9,"encoder":"454245214","distractor":"474245214","target":"absent","response":"absent","rt":"1879.6000000238","correct":true,"confidence":3},{"trial_n":96,"span":10,"encoder":"2957758886","distractor":"2957758486","target":"present","response":"present","rt":"13061.899999976","correct":true,"confidence":1},{"trial_n":97,"span":10,"encoder":"9480870392","distractor":"9480830392","target":"present","response":"present","rt":"9156.9000000954","correct":true,"confidence":1},{"trial_n":98,"span":11,"encoder":"60998750155","distractor":"60998700155","target":"absent","response":"absent","rt":"7326","correct":true,"confidence":1},{"trial_n":99,"span":11,"encoder":"07331952511","distractor":"37331952511","target":"present","response":"present","rt":"7171.7000000477","correct":true,"confidence":2},{"trial_n":100,"span":12,"encoder":"580850002050","distractor":"580850002070","target":"present","response":"present","rt":"1841.2000000477","correct":true,"confidence":5},{"trial_n":101,"span":12,"encoder":"343010298645","distractor":"243010298645","target":"present","response":"absent","rt":"8742.3999999762","correct":false,"confidence":1},{"trial_n":102,"span":11,"encoder":"98626883215","distractor":"98626887215","target":"absent","response":"absent","rt":"3639.5","correct":true,"confidence":5},{"trial_n":103,"span":11,"encoder":"80952545635","distractor":"80952345635","target":"absent","response":"absent","rt":"16754.899999976","correct":true,"confidence":1},{"trial_n":104,"span":12,"encoder":"414994364786","distractor":"414996364786","target":"absent","response":"absent","rt":"5144.3999999762","correct":true,"confidence":1},{"trial_n":105,"span":12,"encoder":"829943992905","distractor":"829943992900","target":"absent","response":"absent","rt":"4158.5","correct":true,"confidence":4},{"trial_n":106,"span":13,"encoder":"2566958322389","distractor":"2566988322389","target":"present","response":"present","rt":"6705.8999999762","correct":true,"confidence":2},{"trial_n":107,"span":13,"encoder":"6288935678903","distractor":"6218935678903","target":"present","response":"present","rt":"6837.2000000477","correct":true,"confidence":3},{"trial_n":108,"span":14,"encoder":"67218906940232","distractor":"67218906940732","target":"absent","response":"present","rt":"11571","correct":false,"confidence":1},{"trial_n":109,"span":13,"encoder":"1361119962970","distractor":"1361119962370","target":"present","response":"present","rt":"7766","correct":true,"confidence":4},{"trial_n":110,"span":13,"encoder":"5528457596274","distractor":"5528417596274","target":"absent","response":"absent","rt":"9101","correct":true,"confidence":1},{"trial_n":111,"span":14,"encoder":"09627823770091","distractor":"89627823770091","target":"absent","response":"absent","rt":"5655.5","correct":true,"confidence":3},{"trial_n":112,"span":14,"encoder":"41184828042779","distractor":"41684828042779","target":"present","response":"absent","rt":"8284.6999999285","correct":false,"confidence":1},{"trial_n":113,"span":13,"encoder":"1646038018697","distractor":"1636038018697","target":"absent","response":"absent","rt":"2288.1999999285","correct":true,"confidence":5},{"trial_n":114,"span":13,"encoder":"8807537937902","distractor":"8507537937902","target":"absent","response":"absent","rt":"5438.1000000238","correct":true,"confidence":2},{"trial_n":115,"span":14,"encoder":"81973846677869","distractor":"81973846675869","target":"present","response":"present","rt":"4255.6999999285","correct":true,"confidence":4},{"trial_n":116,"span":14,"encoder":"76753207012853","distractor":"74753207012853","target":"absent","response":"absent","rt":"4940.7000000477","correct":true,"confidence":3},{"trial_n":117,"span":15,"encoder":"501739600025778","distractor":"501739604025778","target":"present","response":"present","rt":"5064.2999999523","correct":true,"confidence":5},{"trial_n":118,"span":15,"encoder":"277508128769015","distractor":"277508128769045","target":"absent","response":"absent","rt":"2695.6000000238","correct":true,"confidence":5},{"trial_n":119,"span":16,"encoder":"6680344281532333","distractor":"7680344281532333","target":"present","response":"present","rt":"4570.6000000238","correct":true,"confidence":3},{"trial_n":120,"span":16,"encoder":"7475790838073176","distractor":"7475790836073176","target":"absent","response":"present","rt":"17943.100000024","correct":false,"confidence":1},{"trial_n":121,"span":15,"encoder":"170336124991621","distractor":"170336124191621","target":"absent","response":"absent","rt":"9139.9000000954","correct":true,"confidence":1},{"trial_n":122,"span":15,"encoder":"130437386940779","distractor":"130437586940779","target":"absent","response":"absent","rt":"21480.700000048","correct":true,"confidence":1},{"trial_n":123,"span":16,"encoder":"3333233189409999","distractor":"3333233489409999","target":"present","response":"present","rt":"14391.600000024","correct":true,"confidence":1},{"trial_n":124,"span":16,"encoder":"7515968861510367","distractor":"7515968861510397","target":"absent","response":"absent","rt":"2801.8000000715","correct":true,"confidence":5},{"trial_n":125,"span":17,"encoder":"74668543573194536","distractor":"74665543573194536","target":"present","response":"absent","rt":"38707.200000048","correct":false,"confidence":1},{"trial_n":126,"span":16,"encoder":"6870526042622760","distractor":"4870526042622760","target":"present","response":"present","rt":"6996.5999999046","correct":true,"confidence":1},{"trial_n":127,"span":16,"encoder":"7038883737986177","distractor":"7038483737986177","target":"absent","response":"absent","rt":"9188.1000000238","correct":true,"confidence":1},{"trial_n":128,"span":17,"encoder":"68244589741360272","distractor":"68244589741360222","target":"absent","response":"absent","rt":"1782.2999999523","correct":true,"confidence":5},{"trial_n":129,"span":17,"encoder":"31123407605346472","distractor":"31123407665346472","target":"present","response":"absent","rt":"6686.8000000715","correct":false,"confidence":1},{"trial_n":130,"span":16,"encoder":"3094157646199534","distractor":"3094157646179534","target":"present","response":"present","rt":"5203.6000000238","correct":true,"confidence":5},{"trial_n":131,"span":16,"encoder":"8090201244914050","distractor":"8090201244914060","target":"present","response":"present","rt":"10422.599999905","correct":true,"confidence":2},{"trial_n":132,"span":17,"encoder":"68756043593899007","distractor":"68726043593899007","target":"absent","response":"absent","rt":"7222.3999999762","correct":true,"confidence":3},{"trial_n":133,"span":17,"encoder":"13676462999087067","distractor":"13676462999087065","target":"absent","response":"absent","rt":"1739.1999999285","correct":true,"confidence":5},{"trial_n":134,"span":18,"encoder":"989677374462154927","distractor":"989677374162154927","target":"absent","response":"absent","rt":"14965.100000024","correct":true,"confidence":1},{"trial_n":135,"span":18,"encoder":"747831776472832606","distractor":"447831776472832606","target":"present","response":"absent","rt":"7117.7000000477","correct":false,"confidence":1},{"trial_n":136,"span":17,"encoder":"07377286191031099","distractor":"07377283191031099","target":"absent","response":"present","rt":"8551.1999999285","correct":false,"confidence":1},{"trial_n":137,"span":16,"encoder":"5416690267585034","distractor":"5411690267585034","target":"absent","response":"present","rt":"3061.2999999523","correct":false,"confidence":1},{"trial_n":138,"span":15,"encoder":"382499258331619","distractor":"382499758331619","target":"present","response":"absent","rt":"9564.8999999762","correct":false,"confidence":1},{"trial_n":139,"span":14,"encoder":"75590319578731","distractor":"85590319578731","target":"present","response":"present","rt":"9562","correct":true,"confidence":1},{"trial_n":140,"span":14,"encoder":"21627462428717","distractor":"21627432428717","target":"absent","response":"absent","rt":"7564.7999999523","correct":true,"confidence":1}]