[{"trial_n":1,"span":8,"encoder":"01979028","distractor":"02979028","target":"present","response":"present","rt":"6754.6000000238","correct":true,"confidence":-1},{"trial_n":2,"span":8,"encoder":"32410247","distractor":"37410247","target":"present","response":"present","rt":"1631.1000000238","correct":true,"confidence":-1},{"trial_n":3,"span":10,"encoder":"1195792124","distractor":"1197792124","target":"absent","response":"present","rt":"1541.2000000477","correct":false,"confidence":-1},{"trial_n":4,"span":8,"encoder":"33476153","distractor":"33416153","target":"absent","response":"absent","rt":"12946.800000072","correct":true,"confidence":-1},{"trial_n":5,"span":8,"encoder":"44723711","distractor":"44743711","target":"present","response":"present","rt":"1959.2999999523","correct":true,"confidence":-1},{"trial_n":6,"span":10,"encoder":"2195916818","distractor":"2195116818","target":"absent","response":"present","rt":"1339.3999999762","correct":false,"confidence":-1},{"trial_n":7,"span":8,"encoder":"75305630","distractor":"75305631","target":"present","response":"present","rt":"3098.1000000238","correct":true,"confidence":-1},{"trial_n":8,"span":8,"encoder":"69246905","distractor":"89246905","target":"absent","response":"present","rt":"1306.8999999762","correct":false,"confidence":-1},{"trial_n":9,"span":6,"encoder":"077240","distractor":"074240","target":"present","response":"absent","rt":"9311.2000000477","correct":false,"confidence":-1},{"trial_n":10,"span":4,"encoder":"4633","distractor":"4623","target":"absent","response":"absent","rt":"1771.1999999285","correct":true,"confidence":-1},{"trial_n":11,"span":4,"encoder":"4176","distractor":"4776","target":"absent","response":"absent","rt":"1212.6000000238","correct":true,"confidence":-1},{"trial_n":12,"span":5,"encoder":"87458","distractor":"87858","target":"present","response":"present","rt":"5079.6999999285","correct":true,"confidence":-1},{"trial_n":13,"span":5,"encoder":"73838","distractor":"73830","target":"present","response":"present","rt":"1127.1000000238","correct":true,"confidence":-1},{"trial_n":14,"span":6,"encoder":"587498","distractor":"587598","target":"absent","response":"present","rt":"1060.6000000238","correct":false,"confidence":-1},{"trial_n":15,"span":5,"encoder":"92694","distractor":"95694","target":"absent","response":"absent","rt":"1215.3000000715","correct":true,"confidence":-1},{"trial_n":16,"span":5,"encoder":"68142","distractor":"68242","target":"present","response":"present","rt":"2305.2000000477","correct":true,"confidence":-1},{"trial_n":17,"span":6,"encoder":"146257","distractor":"146227","target":"absent","response":"absent","rt":"2161","correct":true,"confidence":-1},{"trial_n":18,"span":6,"encoder":"302779","distractor":"309779","target":"absent","response":"present","rt":"1430.6000000238","correct":false,"confidence":-1},{"trial_n":19,"span":5,"encoder":"41389","distractor":"41359","target":"absent","response":"absent","rt":"5335.5","correct":true,"confidence":-1},{"trial_n":20,"span":5,"encoder":"92190","distractor":"90190","target":"present","response":"present","rt":"1659.2000000477","correct":true,"confidence":-1},{"trial_n":21,"span":6,"encoder":"381316","distractor":"382316","target":"present","response":"present","rt":"1360.8999999762","correct":true,"confidence":3},{"trial_n":22,"span":6,"encoder":"326867","distractor":"826867","target":"present","response":"present","rt":"2219.7999999523","correct":true,"confidence":4},{"trial_n":23,"span":7,"encoder":"6424465","distractor":"6424965","target":"present","response":"absent","rt":"7095.1999999285","correct":false,"confidence":2},{"trial_n":24,"span":6,"encoder":"988663","distractor":"988664","target":"absent","response":"present","rt":"1497.3999999762","correct":false,"confidence":3},{"trial_n":25,"span":5,"encoder":"70252","distractor":"70258","target":"present","response":"present","rt":"1210.2999999523","correct":true,"confidence":4},{"trial_n":26,"span":5,"encoder":"88924","distractor":"88724","target":"absent","response":"absent","rt":"2087.8999999762","correct":true,"confidence":3},{"trial_n":27,"span":6,"encoder":"385761","distractor":"383761","target":"absent","response":"present","rt":"1202.7000000477","correct":false,"confidence":4},{"trial_n":28,"span":5,"encoder":"03017","distractor":"03014","target":"absent","response":"absent","rt":"1533.8999999762","correct":true,"confidence":5},{"trial_n":29,"span":5,"encoder":"59230","distractor":"59210","target":"present","response":"present","rt":"3508.3000000715","correct":true,"confidence":3},{"trial_n":30,"span":6,"encoder":"014195","distractor":"015195","target":"present","response":"present","rt":"1601.3999999762","correct":true,"confidence":3},{"trial_n":31,"span":6,"encoder":"395434","distractor":"195434","target":"absent","response":"absent","rt":"4374.7000000477","correct":true,"confidence":3},{"trial_n":32,"span":7,"encoder":"6361592","distractor":"6364592","target":"absent","response":"present","rt":"4941","correct":false,"confidence":2},{"trial_n":33,"span":6,"encoder":"942478","distractor":"922478","target":"absent","response":"present","rt":"1405","correct":false,"confidence":4},{"trial_n":34,"span":5,"encoder":"91435","distractor":"91405","target":"present","response":"present","rt":"1067.9000000954","correct":true,"confidence":4},{"trial_n":35,"span":5,"encoder":"82306","distractor":"85306","target":"present","response":"present","rt":"1410","correct":true,"confidence":3},{"trial_n":36,"span":6,"encoder":"514234","distractor":"512234","target":"absent","response":"absent","rt":"2134.5","correct":true,"confidence":4},{"trial_n":37,"span":6,"encoder":"976195","distractor":"376195","target":"present","response":"present","rt":"1166.7000000477","correct":true,"confidence":4},{"trial_n":38,"span":7,"encoder":"0858539","distractor":"0878539","target":"present","response":"present","rt":"1098.2000000477","correct":true,"confidence":4},{"trial_n":39,"span":7,"encoder":"4612806","distractor":"4618806","target":"present","response":"present","rt":"1067.2000000477","correct":true,"confidence":5},{"trial_n":40,"span":8,"encoder":"90992870","distractor":"90995870","target":"present","response":"present","rt":"1543.2000000477","correct":true,"confidence":4},{"trial_n":41,"span":8,"encoder":"75755709","distractor":"75755779","target":"absent","response":"absent","rt":"2937.7000000477","correct":true,"confidence":4},{"trial_n":42,"span":9,"encoder":"907495188","distractor":"927495188","target":"absent","response":"present","rt":"1447.3999999762","correct":false,"confidence":4},{"trial_n":43,"span":8,"encoder":"21397594","distractor":"21377594","target":"present","response":"present","rt":"1231.8999999762","correct":true,"confidence":3},{"trial_n":44,"span":8,"encoder":"58877513","distractor":"58872513","target":"absent","response":"present","rt":"968.89999997616","correct":false,"confidence":4},{"trial_n":45,"span":7,"encoder":"8510866","distractor":"8510846","target":"present","response":"present","rt":"1030.5","correct":true,"confidence":4},{"trial_n":46,"span":7,"encoder":"6234682","distractor":"6231682","target":"absent","response":"present","rt":"1006.2000000477","correct":false,"confidence":5},{"trial_n":47,"span":6,"encoder":"448307","distractor":"418307","target":"present","response":"present","rt":"1083.8000000715","correct":true,"confidence":5},{"trial_n":48,"span":6,"encoder":"314221","distractor":"334221","target":"absent","response":"present","rt":"900.20000004768","correct":false,"confidence":5},{"trial_n":49,"span":5,"encoder":"10329","distractor":"10321","target":"present","response":"present","rt":"1394.4000000954","correct":true,"confidence":5},{"trial_n":50,"span":5,"encoder":"47965","distractor":"46965","target":"absent","response":"present","rt":"2586.7999999523","correct":false,"confidence":3},{"trial_n":51,"span":4,"encoder":"9517","distractor":"9527","target":"present","response":"present","rt":"1183.1000000238","correct":true,"confidence":4},{"trial_n":52,"span":4,"encoder":"3523","distractor":"3522","target":"present","response":"present","rt":"995.20000004768","correct":true,"confidence":5},{"trial_n":53,"span":5,"encoder":"63307","distractor":"63367","target":"present","response":"present","rt":"1085.8999999762","correct":true,"confidence":5},{"trial_n":54,"span":5,"encoder":"23573","distractor":"26573","target":"present","response":"present","rt":"1267.6999999285","correct":true,"confidence":5},{"trial_n":55,"span":6,"encoder":"235368","distractor":"285368","target":"absent","response":"present","rt":"2943","correct":false,"confidence":4},{"trial_n":56,"span":5,"encoder":"71644","distractor":"71664","target":"present","response":"present","rt":"1423.2999999523","correct":true,"confidence":5},{"trial_n":57,"span":5,"encoder":"53937","distractor":"53917","target":"present","response":"present","rt":"1028.5","correct":true,"confidence":5},{"trial_n":58,"span":6,"encoder":"936853","distractor":"936883","target":"absent","response":"present","rt":"5603.3000000715","correct":false,"confidence":3},{"trial_n":59,"span":5,"encoder":"83944","distractor":"13944","target":"present","response":"present","rt":"1556.5","correct":true,"confidence":5},{"trial_n":60,"span":5,"encoder":"41414","distractor":"41415","target":"absent","response":"present","rt":"1238.2999999523","correct":false,"confidence":5},{"trial_n":61,"span":4,"encoder":"9286","distractor":"3286","target":"absent","response":"absent","rt":"1794.3999999762","correct":true,"confidence":4},{"trial_n":62,"span":4,"encoder":"6156","distractor":"6956","target":"absent","response":"absent","rt":"2297.1000000238","correct":true,"confidence":4},{"trial_n":63,"span":5,"encoder":"25279","distractor":"25272","target":"absent","response":"present","rt":"3421.3999999762","correct":false,"confidence":2},{"trial_n":64,"span":4,"encoder":"6972","distractor":"6952","target":"present","response":"present","rt":"1414.7999999523","correct":true,"confidence":5},{"trial_n":65,"span":4,"encoder":"0499","distractor":"0419","target":"absent","response":"absent","rt":"3577.7999999523","correct":true,"confidence":4},{"trial_n":66,"span":5,"encoder":"24197","distractor":"24497","target":"absent","response":"present","rt":"2091.7000000477","correct":false,"confidence":4},{"trial_n":67,"span":4,"encoder":"4751","distractor":"4721","target":"present","response":"present","rt":"1204.6000000238","correct":true,"confidence":4},{"trial_n":68,"span":4,"encoder":"2886","distractor":"2286","target":"absent","response":"present","rt":"1013.7000000477","correct":false,"confidence":4},{"trial_n":69,"span":3,"encoder":"454","distractor":"754","target":"present","response":"present","rt":"2429.1000000238","correct":true,"confidence":4},{"trial_n":70,"span":3,"encoder":"871","distractor":"851","target":"present","response":"present","rt":"1287.8999999762","correct":true,"confidence":4},{"trial_n":71,"span":8,"encoder":"09602540","distractor":"39602540","target":"present","response":"present","rt":"3476.7999999523","correct":true,"confidence":-1},{"trial_n":72,"span":8,"encoder":"33272245","distractor":"33272275","target":"present","response":"present","rt":"2042.9000000954","correct":true,"confidence":-1},{"trial_n":73,"span":9,"encoder":"987613261","distractor":"987613260","target":"absent","response":"absent","rt":"2250.7000000477","correct":true,"confidence":-1},{"trial_n":74,"span":9,"encoder":"855735969","distractor":"855735960","target":"absent","response":"absent","rt":"1482.6999999285","correct":true,"confidence":-1},{"trial_n":75,"span":10,"encoder":"1015799430","distractor":"1115799430","target":"present","response":"present","rt":"1848.8000000715","correct":true,"confidence":-1},{"trial_n":76,"span":10,"encoder":"7106623585","distractor":"7306623585","target":"present","response":"present","rt":"1886.6000000238","correct":true,"confidence":-1},{"trial_n":77,"span":11,"encoder":"46604462960","distractor":"43604462960","target":"absent","response":"present","rt":"1353.2000000477","correct":false,"confidence":-1},{"trial_n":78,"span":10,"encoder":"3840606526","distractor":"3640606526","target":"absent","response":"present","rt":"1437","correct":false,"confidence":-1},{"trial_n":79,"span":9,"encoder":"992573099","distractor":"992574099","target":"present","response":"absent","rt":"1066.9000000954","correct":false,"confidence":-1},{"trial_n":80,"span":8,"encoder":"10317064","distractor":"10317364","target":"absent","response":"present","rt":"2560.1000000238","correct":false,"confidence":-1},{"trial_n":81,"span":7,"encoder":"7143519","distractor":"7343519","target":"absent","response":"absent","rt":"1860.8999999762","correct":true,"confidence":-1},{"trial_n":82,"span":7,"encoder":"1894542","distractor":"1894547","target":"present","response":"present","rt":"21289","correct":true,"confidence":-1},{"trial_n":83,"span":8,"encoder":"41917492","distractor":"61917492","target":"absent","response":"absent","rt":"2137.4000000954","correct":true,"confidence":-1},{"trial_n":84,"span":8,"encoder":"16646504","distractor":"16646508","target":"present","response":"present","rt":"1400.6000000238","correct":true,"confidence":-1},{"trial_n":85,"span":9,"encoder":"716834108","distractor":"711834108","target":"absent","response":"present","rt":"1278.5999999046","correct":false,"confidence":-1},{"trial_n":86,"span":8,"encoder":"33369055","distractor":"32369055","target":"absent","response":"absent","rt":"1359.8999999762","correct":true,"confidence":-1},{"trial_n":87,"span":8,"encoder":"33570689","distractor":"33571689","target":"absent","response":"absent","rt":"983.60000002384","correct":true,"confidence":-1},{"trial_n":88,"span":9,"encoder":"975322380","distractor":"975362380","target":"absent","response":"present","rt":"29711.5","correct":false,"confidence":-1},{"trial_n":89,"span":8,"encoder":"57136116","distractor":"57156116","target":"present","response":"absent","rt":"7008","correct":false,"confidence":-1},{"trial_n":90,"span":7,"encoder":"5978047","distractor":"5478047","target":"present","response":"present","rt":"938.59999990463","correct":true,"confidence":-1},{"trial_n":91,"span":7,"encoder":"8049427","distractor":"0049427","target":"present","response":"present","rt":"3811.6000000238","correct":true,"confidence":5},{"trial_n":92,"span":8,"encoder":"27525710","distractor":"27525716","target":"present","response":"present","rt":"1450.6000000238","correct":true,"confidence":5},{"trial_n":93,"span":8,"encoder":"40151301","distractor":"40151001","target":"absent","response":"absent","rt":"4183.8999999762","correct":true,"confidence":4},{"trial_n":94,"span":9,"encoder":"276148651","distractor":"278148651","target":"present","response":"present","rt":"4935.3000000715","correct":true,"confidence":4},{"trial_n":95,"span":9,"encoder":"175425010","distractor":"175425110","target":"present","response":"present","rt":"1546.2000000477","correct":true,"confidence":4},{"trial_n":96,"span":10,"encoder":"2886513617","distractor":"2886513612","target":"present","response":"present","rt":"3724.2000000477","correct":true,"confidence":5},{"trial_n":97,"span":10,"encoder":"0039280393","distractor":"0939280393","target":"present","response":"present","rt":"2264.6000000238","correct":true,"confidence":5},{"trial_n":98,"span":11,"encoder":"04888753260","distractor":"04588753260","target":"absent","response":"present","rt":"4393.6000000238","correct":false,"confidence":4},{"trial_n":99,"span":10,"encoder":"5302957478","distractor":"5302057478","target":"present","response":"absent","rt":"970.69999992847","correct":false,"confidence":4},{"trial_n":100,"span":9,"encoder":"741051541","distractor":"741051561","target":"absent","response":"absent","rt":"2043.9000000954","correct":true,"confidence":5},{"trial_n":101,"span":9,"encoder":"079352563","distractor":"079332563","target":"absent","response":"absent","rt":"2593.5","correct":true,"confidence":2},{"trial_n":102,"span":10,"encoder":"1974701700","distractor":"1984701700","target":"absent","response":"absent","rt":"4726.8999999762","correct":true,"confidence":3},{"trial_n":103,"span":10,"encoder":"3756894691","distractor":"3756894694","target":"present","response":"present","rt":"1256.8999999762","correct":true,"confidence":5},{"trial_n":104,"span":11,"encoder":"54347661119","distractor":"54347661114","target":"absent","response":"absent","rt":"2578.1000000238","correct":true,"confidence":5},{"trial_n":105,"span":11,"encoder":"41888058837","distractor":"41588058837","target":"absent","response":"absent","rt":"2105.8000000715","correct":true,"confidence":3},{"trial_n":106,"span":12,"encoder":"299748136862","distractor":"299741136862","target":"absent","response":"absent","rt":"1970.5","correct":true,"confidence":4},{"trial_n":107,"span":12,"encoder":"623225579312","distractor":"623225979312","target":"absent","response":"present","rt":"1598.2999999523","correct":false,"confidence":4},{"trial_n":108,"span":11,"encoder":"44087846367","distractor":"44084846367","target":"absent","response":"present","rt":"1543.1000000238","correct":false,"confidence":3},{"trial_n":109,"span":10,"encoder":"4863500297","distractor":"4863500291","target":"absent","response":"absent","rt":"2550.3999999762","correct":true,"confidence":3},{"trial_n":110,"span":10,"encoder":"1537766111","distractor":"3537766111","target":"absent","response":"absent","rt":"1221.5999999046","correct":true,"confidence":4},{"trial_n":111,"span":11,"encoder":"41086311745","distractor":"41086611745","target":"present","response":"present","rt":"1315.3999999762","correct":true,"confidence":3},{"trial_n":112,"span":11,"encoder":"24803955973","distractor":"28803955973","target":"absent","response":"present","rt":"1216.1999999285","correct":false,"confidence":3},{"trial_n":113,"span":10,"encoder":"7462567803","distractor":"7462537803","target":"present","response":"present","rt":"1151.3000000715","correct":true,"confidence":3},{"trial_n":114,"span":10,"encoder":"7223702062","distractor":"7223702012","target":"present","response":"present","rt":"1348.5","correct":true,"confidence":5},{"trial_n":115,"span":11,"encoder":"94745907989","distractor":"94745967989","target":"absent","response":"present","rt":"1211.7999999523","correct":false,"confidence":4},{"trial_n":116,"span":10,"encoder":"3722541230","distractor":"3722549230","target":"present","response":"absent","rt":"1567.2000000477","correct":false,"confidence":3},{"trial_n":117,"span":9,"encoder":"000589303","distractor":"000585303","target":"present","response":"present","rt":"2666.1999999285","correct":true,"confidence":4},{"trial_n":118,"span":9,"encoder":"232498587","distractor":"232438587","target":"present","response":"present","rt":"1439.3999999762","correct":true,"confidence":3},{"trial_n":119,"span":10,"encoder":"2273761251","distractor":"2273661251","target":"absent","response":"absent","rt":"2232.7000000477","correct":true,"confidence":4},{"trial_n":120,"span":10,"encoder":"8421771059","distractor":"8421771050","target":"present","response":"present","rt":"3502.8999999762","correct":true,"confidence":3},{"trial_n":121,"span":11,"encoder":"95787532838","distractor":"95787532138","target":"present","response":"absent","rt":"1581","correct":false,"confidence":3},{"trial_n":122,"span":10,"encoder":"4759906374","distractor":"4759906372","target":"absent","response":"present","rt":"1803.3999999762","correct":false,"confidence":3},{"trial_n":123,"span":9,"encoder":"605149745","distractor":"605149245","target":"present","response":"present","rt":"1175.8999999762","correct":true,"confidence":4},{"trial_n":124,"span":9,"encoder":"675599073","distractor":"675599071","target":"absent","response":"absent","rt":"1705.2999999523","correct":true,"confidence":5},{"trial_n":125,"span":10,"encoder":"6594667127","distractor":"6594667126","target":"present","response":"present","rt":"1425.1000000238","correct":true,"confidence":4},{"trial_n":126,"span":10,"encoder":"8798771462","distractor":"7798771462","target":"present","response":"present","rt":"1239.7999999523","correct":true,"confidence":3},{"trial_n":127,"span":11,"encoder":"86164246875","distractor":"86164246475","target":"present","response":"present","rt":"1082.1000000238","correct":true,"confidence":3},{"trial_n":128,"span":11,"encoder":"77494511683","distractor":"77494511783","target":"present","response":"present","rt":"1667","correct":true,"confidence":4},{"trial_n":129,"span":12,"encoder":"685522972653","distractor":"485522972653","target":"absent","response":"present","rt":"1460.4000000954","correct":false,"confidence":2},{"trial_n":130,"span":11,"encoder":"92137743445","distractor":"92137743045","target":"absent","response":"absent","rt":"1507.2000000477","correct":true,"confidence":4},{"trial_n":131,"span":11,"encoder":"57777823830","distractor":"57773823830","target":"absent","response":"absent","rt":"2555.7999999523","correct":true,"confidence":4},{"trial_n":132,"span":12,"encoder":"512445070045","distractor":"512445080045","target":"present","response":"absent","rt":"2047","correct":false,"confidence":3},{"trial_n":133,"span":11,"encoder":"72919853556","distractor":"22919853556","target":"present","response":"present","rt":"1135.9000000954","correct":true,"confidence":3},{"trial_n":134,"span":11,"encoder":"04544640364","distractor":"04544740364","target":"present","response":"present","rt":"1192.4000000954","correct":true,"confidence":4},{"trial_n":135,"span":12,"encoder":"385214706660","distractor":"385214706960","target":"present","response":"present","rt":"2158.8000000715","correct":true,"confidence":4},{"trial_n":136,"span":12,"encoder":"108732661815","distractor":"108732661615","target":"present","response":"present","rt":"1527","correct":true,"confidence":4},{"trial_n":137,"span":13,"encoder":"4438659050452","distractor":"4638659050452","target":"absent","response":"present","rt":"2935.2999999523","correct":false,"confidence":3},{"trial_n":138,"span":12,"encoder":"604878327107","distractor":"604878127107","target":"present","response":"present","rt":"1261.7000000477","correct":true,"confidence":2},{"trial_n":139,"span":12,"encoder":"915087876218","distractor":"915087876418","target":"absent","response":"absent","rt":"1519.3000000715","correct":true,"confidence":5},{"trial_n":140,"span":13,"encoder":"8073070319080","distractor":"8073070619080","target":"absent","response":"absent","rt":"1183.9000000954","correct":true,"confidence":4}]