[{"trial_n":1,"min":25,"max":230,"target":"present","response":"present","rt":3344,"correct":true,"confidence":-1},{"trial_n":2,"min":25,"max":230,"target":"present","response":"present","rt":1538,"correct":true,"confidence":-1},{"trial_n":3,"min":41,"max":214,"target":"absent","response":"present","rt":839,"correct":false,"confidence":-1},{"trial_n":4,"min":25,"max":230,"target":"absent","response":"present","rt":1904,"correct":false,"confidence":-1},{"trial_n":5,"min":9,"max":246,"target":"present","response":"present","rt":2605,"correct":true,"confidence":-1},{"trial_n":6,"min":9,"max":246,"target":"present","response":"present","rt":657,"correct":true,"confidence":-1},{"trial_n":7,"min":25,"max":230,"target":"present","response":"present","rt":705.99999999999,"correct":true,"confidence":-1},{"trial_n":8,"min":25,"max":230,"target":"absent","response":"absent","rt":907.99999999999,"correct":true,"confidence":-1},{"trial_n":9,"min":41,"max":214,"target":"present","response":"present","rt":573,"correct":true,"confidence":-1},{"trial_n":10,"min":41,"max":214,"target":"present","response":"present","rt":639,"correct":true,"confidence":-1},{"trial_n":11,"min":49,"max":206,"target":"present","response":"present","rt":533,"correct":true,"confidence":-1},{"trial_n":12,"min":49,"max":206,"target":"absent","response":"absent","rt":607.99999999999,"correct":true,"confidence":-1},{"trial_n":13,"min":57,"max":198,"target":"absent","response":"absent","rt":611.00000000001,"correct":true,"confidence":-1},{"trial_n":14,"min":57,"max":198,"target":"present","response":"present","rt":572,"correct":true,"confidence":-1},{"trial_n":15,"min":65,"max":190,"target":"present","response":"present","rt":606,"correct":true,"confidence":-1},{"trial_n":16,"min":65,"max":190,"target":"present","response":"present","rt":739,"correct":true,"confidence":-1},{"trial_n":17,"min":73,"max":182,"target":"absent","response":"absent","rt":592,"correct":true,"confidence":-1},{"trial_n":18,"min":73,"max":182,"target":"present","response":"absent","rt":773.00000000001,"correct":false,"confidence":-1},{"trial_n":19,"min":65,"max":190,"target":"absent","response":"absent","rt":565,"correct":true,"confidence":-1},{"trial_n":20,"min":65,"max":190,"target":"absent","response":"absent","rt":724,"correct":true,"confidence":-1},{"trial_n":21,"min":69,"max":186,"target":"present","response":"absent","rt":880,"correct":false,"confidence":3},{"trial_n":22,"min":65,"max":190,"target":"absent","response":"absent","rt":793,"correct":true,"confidence":3},{"trial_n":23,"min":65,"max":190,"target":"absent","response":"absent","rt":543,"correct":true,"confidence":3},{"trial_n":24,"min":69,"max":186,"target":"present","response":"present","rt":586.99999999999,"correct":true,"confidence":4},{"trial_n":25,"min":69,"max":186,"target":"absent","response":"absent","rt":701,"correct":true,"confidence":3},{"trial_n":26,"min":73,"max":182,"target":"absent","response":"absent","rt":738,"correct":true,"confidence":3},{"trial_n":27,"min":73,"max":182,"target":"absent","response":"absent","rt":813,"correct":true,"confidence":3},{"trial_n":28,"min":77,"max":178,"target":"absent","response":"absent","rt":639,"correct":true,"confidence":3},{"trial_n":29,"min":77,"max":178,"target":"present","response":"present","rt":709,"correct":true,"confidence":4},{"trial_n":30,"min":81,"max":174,"target":"present","response":"present","rt":679,"correct":true,"confidence":4},{"trial_n":31,"min":81,"max":174,"target":"absent","response":"absent","rt":823,"correct":true,"confidence":2},{"trial_n":32,"min":83,"max":172,"target":"present","response":"present","rt":778,"correct":true,"confidence":2},{"trial_n":33,"min":83,"max":172,"target":"absent","response":"present","rt":1142,"correct":false,"confidence":2},{"trial_n":34,"min":81,"max":174,"target":"absent","response":"absent","rt":864,"correct":true,"confidence":2},{"trial_n":35,"min":81,"max":174,"target":"present","response":"absent","rt":740,"correct":false,"confidence":2},{"trial_n":36,"min":79,"max":176,"target":"present","response":"present","rt":669,"correct":true,"confidence":2},{"trial_n":37,"min":79,"max":176,"target":"present","response":"present","rt":773,"correct":true,"confidence":2},{"trial_n":38,"min":81,"max":174,"target":"present","response":"absent","rt":4116,"correct":false,"confidence":1},{"trial_n":39,"min":79,"max":176,"target":"absent","response":"absent","rt":744,"correct":true,"confidence":2},{"trial_n":40,"min":79,"max":176,"target":"absent","response":"absent","rt":771,"correct":true,"confidence":2},{"trial_n":41,"min":80,"max":175,"target":"present","response":"present","rt":1589,"correct":true,"confidence":3},{"trial_n":42,"min":80,"max":175,"target":"absent","response":"absent","rt":667,"correct":true,"confidence":2},{"trial_n":43,"min":81,"max":174,"target":"present","response":"present","rt":677.00000000003,"correct":true,"confidence":3},{"trial_n":44,"min":81,"max":174,"target":"absent","response":"present","rt":713,"correct":false,"confidence":3},{"trial_n":45,"min":80,"max":175,"target":"absent","response":"absent","rt":1052,"correct":true,"confidence":1},{"trial_n":46,"min":80,"max":175,"target":"present","response":"present","rt":580,"correct":true,"confidence":3},{"trial_n":47,"min":81,"max":174,"target":"absent","response":"absent","rt":678.99999999997,"correct":true,"confidence":1},{"trial_n":48,"min":81,"max":174,"target":"present","response":"present","rt":597,"correct":true,"confidence":3},{"trial_n":49,"min":82,"max":173,"target":"absent","response":"absent","rt":527,"correct":true,"confidence":1},{"trial_n":50,"min":82,"max":173,"target":"absent","response":"absent","rt":643,"correct":true,"confidence":1},{"trial_n":51,"min":83,"max":172,"target":"absent","response":"absent","rt":670,"correct":true,"confidence":1},{"trial_n":52,"min":83,"max":172,"target":"present","response":"present","rt":928,"correct":true,"confidence":3},{"trial_n":53,"min":84,"max":171,"target":"present","response":"absent","rt":587,"correct":false,"confidence":1},{"trial_n":54,"min":83,"max":172,"target":"absent","response":"absent","rt":560.99999999997,"correct":true,"confidence":1},{"trial_n":55,"min":83,"max":172,"target":"absent","response":"absent","rt":466.00000000003,"correct":true,"confidence":1},{"trial_n":56,"min":84,"max":171,"target":"present","response":"absent","rt":519.99999999997,"correct":false,"confidence":1},{"trial_n":57,"min":83,"max":172,"target":"present","response":"present","rt":774,"correct":true,"confidence":3},{"trial_n":58,"min":83,"max":172,"target":"present","response":"present","rt":772,"correct":true,"confidence":3},{"trial_n":59,"min":84,"max":171,"target":"present","response":"present","rt":1006,"correct":true,"confidence":3},{"trial_n":60,"min":84,"max":171,"target":"absent","response":"present","rt":657,"correct":false,"confidence":3},{"trial_n":61,"min":83,"max":172,"target":"present","response":"present","rt":1836,"correct":true,"confidence":3},{"trial_n":62,"min":83,"max":172,"target":"present","response":"absent","rt":1147,"correct":false,"confidence":1},{"trial_n":63,"min":82,"max":173,"target":"present","response":"present","rt":632.99999999997,"correct":true,"confidence":4},{"trial_n":64,"min":82,"max":173,"target":"absent","response":"absent","rt":525,"correct":true,"confidence":1},{"trial_n":65,"min":83,"max":172,"target":"absent","response":"absent","rt":1422,"correct":true,"confidence":1},{"trial_n":66,"min":83,"max":172,"target":"absent","response":"absent","rt":540,"correct":true,"confidence":1},{"trial_n":67,"min":84,"max":171,"target":"absent","response":"absent","rt":813.99999999997,"correct":true,"confidence":1},{"trial_n":68,"min":84,"max":171,"target":"absent","response":"absent","rt":699,"correct":true,"confidence":1},{"trial_n":69,"min":85,"max":170,"target":"present","response":"absent","rt":494,"correct":false,"confidence":1},{"trial_n":70,"min":84,"max":171,"target":"present","response":"absent","rt":527.00000000003,"correct":false,"confidence":1},{"trial_n":71,"min":41,"max":214,"target":"present","response":"present","rt":1647,"correct":true,"confidence":-1},{"trial_n":72,"min":41,"max":214,"target":"present","response":"present","rt":1090,"correct":true,"confidence":-1},{"trial_n":73,"min":57,"max":198,"target":"absent","response":"absent","rt":858,"correct":true,"confidence":-1},{"trial_n":74,"min":57,"max":198,"target":"absent","response":"absent","rt":1105,"correct":true,"confidence":-1},{"trial_n":75,"min":73,"max":182,"target":"present","response":"absent","rt":716,"correct":false,"confidence":-1},{"trial_n":76,"min":57,"max":198,"target":"absent","response":"present","rt":968,"correct":false,"confidence":-1},{"trial_n":77,"min":41,"max":214,"target":"present","response":"present","rt":928.99999999997,"correct":true,"confidence":-1},{"trial_n":78,"min":41,"max":214,"target":"present","response":"present","rt":816,"correct":true,"confidence":-1},{"trial_n":79,"min":57,"max":198,"target":"present","response":"present","rt":613,"correct":true,"confidence":-1},{"trial_n":80,"min":57,"max":198,"target":"present","response":"present","rt":615,"correct":true,"confidence":-1},{"trial_n":81,"min":65,"max":190,"target":"absent","response":"absent","rt":733,"correct":true,"confidence":-1},{"trial_n":82,"min":65,"max":190,"target":"absent","response":"absent","rt":1121,"correct":true,"confidence":-1},{"trial_n":83,"min":73,"max":182,"target":"present","response":"absent","rt":764.00000000003,"correct":false,"confidence":-1},{"trial_n":84,"min":65,"max":190,"target":"present","response":"present","rt":678,"correct":true,"confidence":-1},{"trial_n":85,"min":65,"max":190,"target":"present","response":"present","rt":1020,"correct":true,"confidence":-1},{"trial_n":86,"min":73,"max":182,"target":"absent","response":"present","rt":788,"correct":false,"confidence":-1},{"trial_n":87,"min":65,"max":190,"target":"present","response":"present","rt":793.00000000003,"correct":true,"confidence":-1},{"trial_n":88,"min":65,"max":190,"target":"absent","response":"absent","rt":626.00000000003,"correct":true,"confidence":-1},{"trial_n":89,"min":73,"max":182,"target":"absent","response":"absent","rt":1446,"correct":true,"confidence":-1},{"trial_n":90,"min":73,"max":182,"target":"present","response":"present","rt":424.00000000003,"correct":true,"confidence":-1},{"trial_n":91,"min":77,"max":178,"target":"present","response":"present","rt":693,"correct":true,"confidence":5},{"trial_n":92,"min":77,"max":178,"target":"absent","response":"absent","rt":1016,"correct":true,"confidence":3},{"trial_n":93,"min":81,"max":174,"target":"present","response":"present","rt":1176,"correct":true,"confidence":3},{"trial_n":94,"min":81,"max":174,"target":"present","response":"present","rt":681,"correct":true,"confidence":3},{"trial_n":95,"min":85,"max":170,"target":"absent","response":"present","rt":2294,"correct":false,"confidence":1},{"trial_n":96,"min":81,"max":174,"target":"absent","response":"present","rt":745,"correct":false,"confidence":1},{"trial_n":97,"min":77,"max":178,"target":"present","response":"present","rt":705,"correct":true,"confidence":2},{"trial_n":98,"min":77,"max":178,"target":"present","response":"present","rt":899,"correct":true,"confidence":1},{"trial_n":99,"min":81,"max":174,"target":"present","response":"present","rt":812,"correct":true,"confidence":2},{"trial_n":100,"min":81,"max":174,"target":"absent","response":"present","rt":663,"correct":false,"confidence":1},{"trial_n":101,"min":79,"max":176,"target":"absent","response":"present","rt":1137,"correct":false,"confidence":1},{"trial_n":102,"min":77,"max":178,"target":"absent","response":"absent","rt":656,"correct":true,"confidence":1},{"trial_n":103,"min":77,"max":178,"target":"present","response":"present","rt":894,"correct":true,"confidence":1},{"trial_n":104,"min":79,"max":176,"target":"absent","response":"present","rt":2309,"correct":false,"confidence":1},{"trial_n":105,"min":77,"max":178,"target":"present","response":"present","rt":533.00000000006,"correct":true,"confidence":5},{"trial_n":106,"min":77,"max":178,"target":"absent","response":"absent","rt":1225.0000000001,"correct":true,"confidence":1},{"trial_n":107,"min":79,"max":176,"target":"absent","response":"absent","rt":678,"correct":true,"confidence":1},{"trial_n":108,"min":79,"max":176,"target":"absent","response":"absent","rt":667,"correct":true,"confidence":1},{"trial_n":109,"min":81,"max":174,"target":"absent","response":"present","rt":916,"correct":false,"confidence":1},{"trial_n":110,"min":79,"max":176,"target":"absent","response":"present","rt":725,"correct":false,"confidence":1},{"trial_n":111,"min":78,"max":177,"target":"present","response":"present","rt":644,"correct":true,"confidence":5},{"trial_n":112,"min":78,"max":177,"target":"present","response":"present","rt":1620,"correct":true,"confidence":1},{"trial_n":113,"min":79,"max":176,"target":"absent","response":"present","rt":623,"correct":false,"confidence":3},{"trial_n":114,"min":78,"max":177,"target":"present","response":"present","rt":651,"correct":true,"confidence":3},{"trial_n":115,"min":78,"max":177,"target":"present","response":"present","rt":801,"correct":true,"confidence":3},{"trial_n":116,"min":79,"max":176,"target":"present","response":"present","rt":607,"correct":true,"confidence":3},{"trial_n":117,"min":79,"max":176,"target":"present","response":"present","rt":714,"correct":true,"confidence":5},{"trial_n":118,"min":80,"max":175,"target":"absent","response":"present","rt":884,"correct":false,"confidence":1},{"trial_n":119,"min":79,"max":176,"target":"present","response":"present","rt":679,"correct":true,"confidence":5},{"trial_n":120,"min":79,"max":176,"target":"absent","response":"present","rt":880,"correct":false,"confidence":1},{"trial_n":121,"min":78,"max":177,"target":"absent","response":"present","rt":1408,"correct":false,"confidence":1},{"trial_n":122,"min":77,"max":178,"target":"present","response":"present","rt":524,"correct":true,"confidence":5},{"trial_n":123,"min":77,"max":178,"target":"present","response":"present","rt":686.00000000006,"correct":true,"confidence":5},{"trial_n":124,"min":78,"max":177,"target":"absent","response":"present","rt":626,"correct":false,"confidence":5},{"trial_n":125,"min":77,"max":178,"target":"absent","response":"present","rt":1604,"correct":false,"confidence":1},{"trial_n":126,"min":76,"max":179,"target":"absent","response":"absent","rt":670,"correct":true,"confidence":5},{"trial_n":127,"min":76,"max":179,"target":"absent","response":"present","rt":849,"correct":false,"confidence":1},{"trial_n":128,"min":75,"max":180,"target":"present","response":"present","rt":204332,"correct":true,"confidence":1},{"trial_n":129,"min":75,"max":180,"target":"absent","response":"present","rt":883,"correct":false,"confidence":1},{"trial_n":130,"min":74,"max":181,"target":"present","response":"present","rt":857,"correct":true,"confidence":5},{"trial_n":131,"min":74,"max":181,"target":"present","response":"present","rt":685.99999999988,"correct":true,"confidence":4},{"trial_n":132,"min":75,"max":180,"target":"absent","response":"absent","rt":739,"correct":true,"confidence":4},{"trial_n":133,"min":75,"max":180,"target":"absent","response":"present","rt":772,"correct":false,"confidence":1},{"trial_n":134,"min":74,"max":181,"target":"present","response":"present","rt":675,"correct":true,"confidence":1},{"trial_n":135,"min":74,"max":181,"target":"present","response":"present","rt":1167,"correct":true,"confidence":5},{"trial_n":136,"min":75,"max":180,"target":"absent","response":"present","rt":1846,"correct":false,"confidence":1},{"trial_n":137,"min":74,"max":181,"target":"present","response":"present","rt":660,"correct":true,"confidence":3},{"trial_n":138,"min":74,"max":181,"target":"absent","response":"absent","rt":837.00000000012,"correct":true,"confidence":3},{"trial_n":139,"min":75,"max":180,"target":"absent","response":"present","rt":19811,"correct":false,"confidence":1},{"trial_n":140,"min":74,"max":181,"target":"present","response":"present","rt":1219,"correct":true,"confidence":1}]