[{"trial_n":1,"min":25,"max":230,"target":"present","response":"present","rt":6248.1000000238,"correct":true,"confidence":-1},{"trial_n":2,"min":25,"max":230,"target":"present","response":"present","rt":1065.7999999523,"correct":true,"confidence":-1},{"trial_n":3,"min":41,"max":214,"target":"absent","response":"absent","rt":1093.7999999523,"correct":true,"confidence":-1},{"trial_n":4,"min":41,"max":214,"target":"absent","response":"absent","rt":796.39999997616,"correct":true,"confidence":-1},{"trial_n":5,"min":57,"max":198,"target":"present","response":"present","rt":914.69999992847,"correct":true,"confidence":-1},{"trial_n":6,"min":57,"max":198,"target":"absent","response":"absent","rt":852,"correct":true,"confidence":-1},{"trial_n":7,"min":73,"max":182,"target":"present","response":"present","rt":955,"correct":true,"confidence":-1},{"trial_n":8,"min":73,"max":182,"target":"present","response":"present","rt":918.69999992847,"correct":true,"confidence":-1},{"trial_n":9,"min":89,"max":166,"target":"absent","response":"absent","rt":1047.2000000477,"correct":true,"confidence":-1},{"trial_n":10,"min":89,"max":166,"target":"absent","response":"absent","rt":820.29999995232,"correct":true,"confidence":-1},{"trial_n":11,"min":97,"max":158,"target":"present","response":"absent","rt":846.79999995232,"correct":false,"confidence":-1},{"trial_n":12,"min":89,"max":166,"target":"absent","response":"present","rt":865.10000002384,"correct":false,"confidence":-1},{"trial_n":13,"min":81,"max":174,"target":"absent","response":"absent","rt":908.5,"correct":true,"confidence":-1},{"trial_n":14,"min":81,"max":174,"target":"absent","response":"absent","rt":861,"correct":true,"confidence":-1},{"trial_n":15,"min":89,"max":166,"target":"present","response":"present","rt":1069.6000000238,"correct":true,"confidence":-1},{"trial_n":16,"min":89,"max":166,"target":"present","response":"absent","rt":1521.5,"correct":false,"confidence":-1},{"trial_n":17,"min":81,"max":174,"target":"present","response":"present","rt":1457.4000000954,"correct":true,"confidence":-1},{"trial_n":18,"min":81,"max":174,"target":"present","response":"absent","rt":1029.3999999762,"correct":false,"confidence":-1},{"trial_n":19,"min":73,"max":182,"target":"absent","response":"absent","rt":482.70000004768,"correct":true,"confidence":-1},{"trial_n":20,"min":73,"max":182,"target":"absent","response":"absent","rt":485.89999997616,"correct":true,"confidence":-1},{"trial_n":21,"min":77,"max":178,"target":"present","response":"present","rt":856.40000009537,"correct":true,"confidence":3},{"trial_n":22,"min":77,"max":178,"target":"present","response":"present","rt":918.60000002384,"correct":true,"confidence":4},{"trial_n":23,"min":81,"max":174,"target":"absent","response":"absent","rt":693.5,"correct":true,"confidence":2},{"trial_n":24,"min":81,"max":174,"target":"present","response":"present","rt":810.60000002384,"correct":true,"confidence":4},{"trial_n":25,"min":85,"max":170,"target":"present","response":"present","rt":775.69999992847,"correct":true,"confidence":5},{"trial_n":26,"min":85,"max":170,"target":"absent","response":"absent","rt":842,"correct":true,"confidence":3},{"trial_n":27,"min":89,"max":166,"target":"absent","response":"absent","rt":1108.8000000715,"correct":true,"confidence":1},{"trial_n":28,"min":89,"max":166,"target":"present","response":"absent","rt":808.10000002384,"correct":false,"confidence":2},{"trial_n":29,"min":85,"max":170,"target":"absent","response":"absent","rt":1174.1000000238,"correct":true,"confidence":1},{"trial_n":30,"min":85,"max":170,"target":"absent","response":"present","rt":955.80000007153,"correct":false,"confidence":2},{"trial_n":31,"min":83,"max":172,"target":"absent","response":"absent","rt":1681.6000000238,"correct":true,"confidence":1},{"trial_n":32,"min":83,"max":172,"target":"present","response":"absent","rt":927.89999997616,"correct":false,"confidence":1},{"trial_n":33,"min":81,"max":174,"target":"absent","response":"absent","rt":3669.1999999285,"correct":true,"confidence":2},{"trial_n":34,"min":81,"max":174,"target":"present","response":"present","rt":809.60000002384,"correct":true,"confidence":2},{"trial_n":35,"min":83,"max":172,"target":"present","response":"present","rt":888.70000004768,"correct":true,"confidence":3},{"trial_n":36,"min":83,"max":172,"target":"present","response":"absent","rt":916.59999990463,"correct":false,"confidence":2},{"trial_n":37,"min":81,"max":174,"target":"present","response":"absent","rt":1068.7000000477,"correct":false,"confidence":1},{"trial_n":38,"min":79,"max":176,"target":"present","response":"present","rt":827.60000002384,"correct":true,"confidence":3},{"trial_n":39,"min":79,"max":176,"target":"absent","response":"absent","rt":1769.3999999762,"correct":true,"confidence":1},{"trial_n":40,"min":81,"max":174,"target":"absent","response":"absent","rt":1002.7000000477,"correct":true,"confidence":2},{"trial_n":41,"min":81,"max":174,"target":"present","response":"present","rt":740.69999992847,"correct":true,"confidence":5},{"trial_n":42,"min":82,"max":173,"target":"present","response":"absent","rt":1316.7999999523,"correct":false,"confidence":2},{"trial_n":43,"min":81,"max":174,"target":"present","response":"present","rt":1417.3999999762,"correct":true,"confidence":1},{"trial_n":44,"min":81,"max":174,"target":"present","response":"present","rt":995.89999997616,"correct":true,"confidence":4},{"trial_n":45,"min":82,"max":173,"target":"absent","response":"present","rt":3393.1999999285,"correct":false,"confidence":1},{"trial_n":46,"min":81,"max":174,"target":"absent","response":"absent","rt":1130.5,"correct":true,"confidence":2},{"trial_n":47,"min":81,"max":174,"target":"absent","response":"absent","rt":1271.5999999046,"correct":true,"confidence":2},{"trial_n":48,"min":82,"max":173,"target":"absent","response":"absent","rt":844.89999997616,"correct":true,"confidence":2},{"trial_n":49,"min":82,"max":173,"target":"present","response":"absent","rt":818.19999992847,"correct":false,"confidence":1},{"trial_n":50,"min":81,"max":174,"target":"present","response":"present","rt":940.80000007153,"correct":true,"confidence":3},{"trial_n":51,"min":81,"max":174,"target":"present","response":"present","rt":722.60000002384,"correct":true,"confidence":4},{"trial_n":52,"min":82,"max":173,"target":"absent","response":"absent","rt":1795.8999999762,"correct":true,"confidence":1},{"trial_n":53,"min":82,"max":173,"target":"present","response":"present","rt":1064.1000000238,"correct":true,"confidence":4},{"trial_n":54,"min":83,"max":172,"target":"present","response":"present","rt":779,"correct":true,"confidence":4},{"trial_n":55,"min":83,"max":172,"target":"present","response":"present","rt":1222.5999999046,"correct":true,"confidence":2},{"trial_n":56,"min":84,"max":171,"target":"present","response":"absent","rt":845.10000002384,"correct":false,"confidence":3},{"trial_n":57,"min":83,"max":172,"target":"absent","response":"absent","rt":882.19999992847,"correct":true,"confidence":2},{"trial_n":58,"min":83,"max":172,"target":"absent","response":"present","rt":922.20000004768,"correct":false,"confidence":2},{"trial_n":59,"min":82,"max":173,"target":"present","response":"absent","rt":1658.2999999523,"correct":false,"confidence":1},{"trial_n":60,"min":81,"max":174,"target":"present","response":"present","rt":1065,"correct":true,"confidence":2},{"trial_n":61,"min":81,"max":174,"target":"absent","response":"absent","rt":1129.3999999762,"correct":true,"confidence":1},{"trial_n":62,"min":82,"max":173,"target":"absent","response":"absent","rt":934.89999997616,"correct":true,"confidence":2},{"trial_n":63,"min":82,"max":173,"target":"absent","response":"absent","rt":747.29999995232,"correct":true,"confidence":1},{"trial_n":64,"min":83,"max":172,"target":"present","response":"absent","rt":701.29999995232,"correct":false,"confidence":1},{"trial_n":65,"min":82,"max":173,"target":"absent","response":"present","rt":1246,"correct":false,"confidence":2},{"trial_n":66,"min":81,"max":174,"target":"absent","response":"absent","rt":825.70000004768,"correct":true,"confidence":2},{"trial_n":67,"min":81,"max":174,"target":"present","response":"absent","rt":968.10000002384,"correct":false,"confidence":2},{"trial_n":68,"min":80,"max":175,"target":"absent","response":"present","rt":669.70000004768,"correct":false,"confidence":2},{"trial_n":69,"min":79,"max":176,"target":"absent","response":"absent","rt":978.29999995232,"correct":true,"confidence":1},{"trial_n":70,"min":79,"max":176,"target":"absent","response":"absent","rt":1368.2000000477,"correct":true,"confidence":1},{"trial_n":71,"min":41,"max":214,"target":"present","response":"present","rt":3846.6000000238,"correct":true,"confidence":-1},{"trial_n":72,"min":41,"max":214,"target":"present","response":"present","rt":1801.1999999285,"correct":true,"confidence":-1},{"trial_n":73,"min":57,"max":198,"target":"absent","response":"absent","rt":941.60000002384,"correct":true,"confidence":-1},{"trial_n":74,"min":57,"max":198,"target":"absent","response":"absent","rt":1443.7999999523,"correct":true,"confidence":-1},{"trial_n":75,"min":73,"max":182,"target":"present","response":"present","rt":733.5,"correct":true,"confidence":-1},{"trial_n":76,"min":73,"max":182,"target":"present","response":"present","rt":1086.8000000715,"correct":true,"confidence":-1},{"trial_n":77,"min":89,"max":166,"target":"present","response":"absent","rt":1025.1000000238,"correct":false,"confidence":-1},{"trial_n":78,"min":73,"max":182,"target":"absent","response":"present","rt":951.5,"correct":false,"confidence":-1},{"trial_n":79,"min":57,"max":198,"target":"present","response":"absent","rt":805.79999995232,"correct":false,"confidence":-1},{"trial_n":80,"min":41,"max":214,"target":"absent","response":"present","rt":871.19999992847,"correct":false,"confidence":-1},{"trial_n":81,"min":33,"max":222,"target":"present","response":"present","rt":679.10000002384,"correct":true,"confidence":-1},{"trial_n":82,"min":33,"max":222,"target":"present","response":"present","rt":814,"correct":true,"confidence":-1},{"trial_n":83,"min":41,"max":214,"target":"absent","response":"absent","rt":754.5,"correct":true,"confidence":-1},{"trial_n":84,"min":41,"max":214,"target":"absent","response":"absent","rt":1194.7000000477,"correct":true,"confidence":-1},{"trial_n":85,"min":49,"max":206,"target":"absent","response":"absent","rt":984.39999997616,"correct":true,"confidence":-1},{"trial_n":86,"min":49,"max":206,"target":"absent","response":"absent","rt":715.60000002384,"correct":true,"confidence":-1},{"trial_n":87,"min":57,"max":198,"target":"absent","response":"absent","rt":767.39999997616,"correct":true,"confidence":-1},{"trial_n":88,"min":57,"max":198,"target":"absent","response":"absent","rt":812.30000007153,"correct":true,"confidence":-1},{"trial_n":89,"min":65,"max":190,"target":"absent","response":"absent","rt":2176.6999999285,"correct":true,"confidence":-1},{"trial_n":90,"min":65,"max":190,"target":"present","response":"present","rt":601.70000004768,"correct":true,"confidence":-1},{"trial_n":91,"min":69,"max":186,"target":"absent","response":"absent","rt":880.40000009537,"correct":true,"confidence":5},{"trial_n":92,"min":69,"max":186,"target":"present","response":"present","rt":817.69999992847,"correct":true,"confidence":5},{"trial_n":93,"min":73,"max":182,"target":"present","response":"present","rt":866,"correct":true,"confidence":4},{"trial_n":94,"min":73,"max":182,"target":"present","response":"present","rt":978.10000002384,"correct":true,"confidence":3},{"trial_n":95,"min":77,"max":178,"target":"present","response":"present","rt":864.5,"correct":true,"confidence":3},{"trial_n":96,"min":77,"max":178,"target":"present","response":"present","rt":818.19999992847,"correct":true,"confidence":3},{"trial_n":97,"min":81,"max":174,"target":"absent","response":"present","rt":3224.1000000238,"correct":false,"confidence":1},{"trial_n":98,"min":77,"max":178,"target":"absent","response":"absent","rt":1044.5,"correct":true,"confidence":3},{"trial_n":99,"min":77,"max":178,"target":"absent","response":"absent","rt":1592.6999999285,"correct":true,"confidence":2},{"trial_n":100,"min":81,"max":174,"target":"present","response":"present","rt":727.59999990463,"correct":true,"confidence":3},{"trial_n":101,"min":81,"max":174,"target":"present","response":"present","rt":841.89999997616,"correct":true,"confidence":4},{"trial_n":102,"min":83,"max":172,"target":"absent","response":"present","rt":1988.8999999762,"correct":false,"confidence":2},{"trial_n":103,"min":81,"max":174,"target":"absent","response":"absent","rt":1018.7000000477,"correct":true,"confidence":3},{"trial_n":104,"min":81,"max":174,"target":"present","response":"present","rt":940.79999995232,"correct":true,"confidence":3},{"trial_n":105,"min":83,"max":172,"target":"absent","response":"absent","rt":1182.6999999285,"correct":true,"confidence":1},{"trial_n":106,"min":83,"max":172,"target":"absent","response":"absent","rt":1080.7999999523,"correct":true,"confidence":2},{"trial_n":107,"min":85,"max":170,"target":"present","response":"absent","rt":1032.3999999762,"correct":false,"confidence":3},{"trial_n":108,"min":83,"max":172,"target":"present","response":"present","rt":751.60000002384,"correct":true,"confidence":4},{"trial_n":109,"min":83,"max":172,"target":"present","response":"present","rt":696.10000002384,"correct":true,"confidence":4},{"trial_n":110,"min":85,"max":170,"target":"absent","response":"present","rt":1109.8999999762,"correct":false,"confidence":2},{"trial_n":111,"min":84,"max":171,"target":"absent","response":"present","rt":1027.0999999046,"correct":false,"confidence":2},{"trial_n":112,"min":83,"max":172,"target":"absent","response":"absent","rt":1000,"correct":true,"confidence":2},{"trial_n":113,"min":83,"max":172,"target":"absent","response":"present","rt":2744.2999999523,"correct":false,"confidence":1},{"trial_n":114,"min":82,"max":173,"target":"present","response":"present","rt":909.79999995232,"correct":true,"confidence":3},{"trial_n":115,"min":82,"max":173,"target":"present","response":"present","rt":983.70000004768,"correct":true,"confidence":3},{"trial_n":116,"min":83,"max":172,"target":"present","response":"present","rt":913.70000004768,"correct":true,"confidence":2},{"trial_n":117,"min":83,"max":172,"target":"present","response":"present","rt":929.10000002384,"correct":true,"confidence":3},{"trial_n":118,"min":84,"max":171,"target":"absent","response":"present","rt":953.20000004768,"correct":false,"confidence":2},{"trial_n":119,"min":83,"max":172,"target":"absent","response":"absent","rt":1353.5999999046,"correct":true,"confidence":1},{"trial_n":120,"min":83,"max":172,"target":"present","response":"present","rt":1563.2999999523,"correct":true,"confidence":3},{"trial_n":121,"min":84,"max":171,"target":"present","response":"present","rt":1308.7000000477,"correct":true,"confidence":3},{"trial_n":122,"min":84,"max":171,"target":"present","response":"present","rt":883.5,"correct":true,"confidence":3},{"trial_n":123,"min":85,"max":170,"target":"present","response":"present","rt":870.39999997616,"correct":true,"confidence":3},{"trial_n":124,"min":85,"max":170,"target":"present","response":"present","rt":863.30000007153,"correct":true,"confidence":3},{"trial_n":125,"min":86,"max":169,"target":"absent","response":"absent","rt":957,"correct":true,"confidence":3},{"trial_n":126,"min":86,"max":169,"target":"present","response":"present","rt":876.20000004768,"correct":true,"confidence":2},{"trial_n":127,"min":87,"max":168,"target":"absent","response":"present","rt":947.70000004768,"correct":false,"confidence":1},{"trial_n":128,"min":86,"max":169,"target":"absent","response":"absent","rt":1386,"correct":true,"confidence":1},{"trial_n":129,"min":86,"max":169,"target":"absent","response":"present","rt":2949.5,"correct":false,"confidence":1},{"trial_n":130,"min":85,"max":170,"target":"absent","response":"absent","rt":1367.8999999762,"correct":true,"confidence":2},{"trial_n":131,"min":85,"max":170,"target":"absent","response":"absent","rt":1198.0999999046,"correct":true,"confidence":2},{"trial_n":132,"min":86,"max":169,"target":"absent","response":"present","rt":1470,"correct":false,"confidence":1},{"trial_n":133,"min":85,"max":170,"target":"absent","response":"absent","rt":1321.5,"correct":true,"confidence":2},{"trial_n":134,"min":85,"max":170,"target":"present","response":"present","rt":936.89999997616,"correct":true,"confidence":3},{"trial_n":135,"min":86,"max":169,"target":"present","response":"absent","rt":1783.7999999523,"correct":false,"confidence":2},{"trial_n":136,"min":85,"max":170,"target":"absent","response":"absent","rt":1168.7000000477,"correct":true,"confidence":2},{"trial_n":137,"min":85,"max":170,"target":"present","response":"absent","rt":1041.2999999523,"correct":false,"confidence":3},{"trial_n":138,"min":84,"max":171,"target":"present","response":"present","rt":742.90000009537,"correct":true,"confidence":4},{"trial_n":139,"min":84,"max":171,"target":"present","response":"present","rt":812.60000002384,"correct":true,"confidence":5},{"trial_n":140,"min":85,"max":170,"target":"present","response":"present","rt":1225,"correct":true,"confidence":5}]