[{"trial_n":1,"span":8,"encoder":"94546510","distractor":"94596510","target":"present","response":"present","rt":"3537","correct":true,"confidence":-1},{"trial_n":2,"span":8,"encoder":"13870163","distractor":"13890163","target":"present","response":"present","rt":"1742","correct":true,"confidence":-1},{"trial_n":3,"span":10,"encoder":"5491399744","distractor":"5491399743","target":"absent","response":"absent","rt":"4038","correct":true,"confidence":-1},{"trial_n":4,"span":10,"encoder":"7121869203","distractor":"7121869253","target":"absent","response":"absent","rt":"1415","correct":true,"confidence":-1},{"trial_n":5,"span":12,"encoder":"333156101071","distractor":"033156101071","target":"present","response":"present","rt":"2126","correct":true,"confidence":-1},{"trial_n":6,"span":12,"encoder":"249240725720","distractor":"249240785720","target":"present","response":"present","rt":"982","correct":true,"confidence":-1},{"trial_n":7,"span":14,"encoder":"31150969111399","distractor":"31150969112399","target":"absent","response":"absent","rt":"2504","correct":true,"confidence":-1},{"trial_n":8,"span":14,"encoder":"52779955282415","distractor":"82779955282415","target":"present","response":"present","rt":"2925","correct":true,"confidence":-1},{"trial_n":9,"span":16,"encoder":"4190243506393383","distractor":"4197243506393383","target":"absent","response":"absent","rt":"1692","correct":true,"confidence":-1},{"trial_n":10,"span":16,"encoder":"7832897485291549","distractor":"7832897485291539","target":"absent","response":"absent","rt":"1149","correct":true,"confidence":-1},{"trial_n":11,"span":18,"encoder":"942626496835837047","distractor":"942622496835837047","target":"absent","response":"absent","rt":"1083","correct":true,"confidence":-1},{"trial_n":12,"span":18,"encoder":"555568273062197373","distractor":"055568273062197373","target":"present","response":"present","rt":"1560","correct":true,"confidence":-1},{"trial_n":13,"span":19,"encoder":"6425431014391710025","distractor":"6425431014391710075","target":"present","response":"absent","rt":"3523","correct":false,"confidence":-1},{"trial_n":14,"span":18,"encoder":"956009880632330386","distractor":"956009880632330186","target":"absent","response":"present","rt":"1642","correct":false,"confidence":-1},{"trial_n":15,"span":17,"encoder":"78240210087233056","distractor":"78040210087233056","target":"present","response":"present","rt":"2048","correct":true,"confidence":-1},{"trial_n":16,"span":17,"encoder":"02919417279845419","distractor":"02915417279845419","target":"absent","response":"present","rt":"840.99999999997","correct":false,"confidence":-1},{"trial_n":17,"span":16,"encoder":"6132605670145464","distractor":"6132605670143464","target":"present","response":"present","rt":"2249","correct":true,"confidence":-1},{"trial_n":18,"span":16,"encoder":"0614819831868338","distractor":"0614919831868338","target":"absent","response":"present","rt":"1631","correct":false,"confidence":-1},{"trial_n":19,"span":15,"encoder":"030902004539142","distractor":"030902004589142","target":"present","response":"present","rt":"1070","correct":true,"confidence":-1},{"trial_n":20,"span":15,"encoder":"268839397972868","distractor":"268839397972468","target":"present","response":"present","rt":"1210","correct":true,"confidence":-1},{"trial_n":21,"span":16,"encoder":"2747768976263573","distractor":"2744768976263573","target":"absent","response":"present","rt":"2152.9999999999","correct":false,"confidence":2},{"trial_n":22,"span":15,"encoder":"304533378815154","distractor":"304533378815134","target":"absent","response":"absent","rt":"7388","correct":true,"confidence":3},{"trial_n":23,"span":15,"encoder":"164233496989446","distractor":"164233496989448","target":"present","response":"present","rt":"7164.0000000001","correct":true,"confidence":1},{"trial_n":24,"span":16,"encoder":"5540843066660224","distractor":"5540843066660254","target":"absent","response":"absent","rt":"3097","correct":true,"confidence":1},{"trial_n":25,"span":16,"encoder":"9155141672804501","distractor":"9157141672804501","target":"present","response":"absent","rt":"1980","correct":false,"confidence":1},{"trial_n":26,"span":15,"encoder":"602862889985518","distractor":"602862889985598","target":"present","response":"present","rt":"3942","correct":true,"confidence":1},{"trial_n":27,"span":15,"encoder":"313142055237353","distractor":"313142055238353","target":"absent","response":"present","rt":"3260","correct":false,"confidence":2},{"trial_n":28,"span":14,"encoder":"08859818548045","distractor":"08859818548645","target":"absent","response":"absent","rt":"2284.9999999999","correct":true,"confidence":1},{"trial_n":29,"span":14,"encoder":"76964453291514","distractor":"76964353291514","target":"absent","response":"present","rt":"2187","correct":false,"confidence":1},{"trial_n":30,"span":13,"encoder":"2160529689527","distractor":"2960529689527","target":"present","response":"present","rt":"2204","correct":true,"confidence":2},{"trial_n":31,"span":13,"encoder":"9591387272212","distractor":"9591357272212","target":"present","response":"absent","rt":"17031","correct":false,"confidence":2},{"trial_n":32,"span":12,"encoder":"029211801767","distractor":"029211881767","target":"present","response":"present","rt":"32832","correct":true,"confidence":1},{"trial_n":33,"span":12,"encoder":"913158319465","distractor":"913153319465","target":"present","response":"present","rt":"1945","correct":true,"confidence":3},{"trial_n":34,"span":13,"encoder":"9649822915676","distractor":"9649822913676","target":"absent","response":"present","rt":"1460","correct":false,"confidence":1},{"trial_n":35,"span":12,"encoder":"966497428852","distractor":"966397428852","target":"present","response":"present","rt":"1686","correct":true,"confidence":3},{"trial_n":36,"span":12,"encoder":"572296008742","distractor":"572296008842","target":"absent","response":"present","rt":"4024.9999999998","correct":false,"confidence":1},{"trial_n":37,"span":11,"encoder":"73527003620","distractor":"78527003620","target":"absent","response":"present","rt":"1878","correct":false,"confidence":1},{"trial_n":38,"span":10,"encoder":"7939668142","distractor":"7939667142","target":"absent","response":"present","rt":"2016","correct":false,"confidence":3},{"trial_n":39,"span":9,"encoder":"497017215","distractor":"498017215","target":"present","response":"present","rt":"1093","correct":true,"confidence":1},{"trial_n":40,"span":9,"encoder":"379683345","distractor":"329683345","target":"present","response":"present","rt":"1232","correct":true,"confidence":3},{"trial_n":41,"span":10,"encoder":"9054200880","distractor":"9054700880","target":"present","response":"present","rt":"1495","correct":true,"confidence":3},{"trial_n":42,"span":10,"encoder":"2065382379","distractor":"2067382379","target":"present","response":"present","rt":"53030","correct":true,"confidence":1},{"trial_n":43,"span":11,"encoder":"29836351022","distractor":"29836951022","target":"present","response":"absent","rt":"2256","correct":false,"confidence":2},{"trial_n":44,"span":10,"encoder":"1057529442","distractor":"1057529492","target":"absent","response":"present","rt":"1675","correct":false,"confidence":1},{"trial_n":45,"span":9,"encoder":"619556316","distractor":"619156316","target":"absent","response":"present","rt":"1588","correct":false,"confidence":1},{"trial_n":46,"span":8,"encoder":"06929745","distractor":"08929745","target":"absent","response":"present","rt":"2145.9999999998","correct":false,"confidence":1},{"trial_n":47,"span":7,"encoder":"6217063","distractor":"7217063","target":"present","response":"present","rt":"973","correct":true,"confidence":1},{"trial_n":48,"span":7,"encoder":"6765027","distractor":"5765027","target":"present","response":"present","rt":"2090","correct":true,"confidence":3},{"trial_n":49,"span":8,"encoder":"83416732","distractor":"83416702","target":"absent","response":"absent","rt":"2051","correct":true,"confidence":4},{"trial_n":50,"span":8,"encoder":"33646240","distractor":"33606240","target":"present","response":"present","rt":"2046","correct":true,"confidence":2},{"trial_n":51,"span":9,"encoder":"475559737","distractor":"175559737","target":"absent","response":"absent","rt":"2031","correct":true,"confidence":1},{"trial_n":52,"span":9,"encoder":"854600025","distractor":"854600325","target":"absent","response":"present","rt":"2353.0000000002","correct":false,"confidence":2},{"trial_n":53,"span":8,"encoder":"71669214","distractor":"71669284","target":"absent","response":"present","rt":"1010","correct":false,"confidence":1},{"trial_n":54,"span":7,"encoder":"5976871","distractor":"5976831","target":"present","response":"present","rt":"1025","correct":true,"confidence":1},{"trial_n":55,"span":7,"encoder":"6773234","distractor":"6773434","target":"absent","response":"present","rt":"925","correct":false,"confidence":1},{"trial_n":56,"span":6,"encoder":"893546","distractor":"893548","target":"present","response":"present","rt":"975","correct":true,"confidence":3},{"trial_n":57,"span":6,"encoder":"354376","distractor":"554376","target":"present","response":"present","rt":"1668","correct":true,"confidence":2},{"trial_n":58,"span":7,"encoder":"7870533","distractor":"7870593","target":"present","response":"present","rt":"2160","correct":true,"confidence":3},{"trial_n":59,"span":7,"encoder":"9652207","distractor":"9612207","target":"absent","response":"absent","rt":"4672.0000000002","correct":true,"confidence":3},{"trial_n":60,"span":8,"encoder":"01477822","distractor":"01477826","target":"absent","response":"absent","rt":"2260","correct":true,"confidence":1},{"trial_n":61,"span":8,"encoder":"81127982","distractor":"21127982","target":"absent","response":"present","rt":"3111","correct":false,"confidence":1},{"trial_n":62,"span":7,"encoder":"4468115","distractor":"4418115","target":"present","response":"present","rt":"2891","correct":true,"confidence":1},{"trial_n":63,"span":7,"encoder":"8588152","distractor":"8568152","target":"present","response":"present","rt":"814","correct":true,"confidence":1},{"trial_n":64,"span":8,"encoder":"37310513","distractor":"37311513","target":"present","response":"present","rt":"1120","correct":true,"confidence":3},{"trial_n":65,"span":8,"encoder":"75618360","distractor":"75118360","target":"absent","response":"present","rt":"1291","correct":false,"confidence":3},{"trial_n":66,"span":7,"encoder":"8638997","distractor":"8632997","target":"absent","response":"present","rt":"1614","correct":false,"confidence":3},{"trial_n":67,"span":6,"encoder":"978650","distractor":"778650","target":"present","response":"present","rt":"1343.9999999998","correct":true,"confidence":4},{"trial_n":68,"span":6,"encoder":"469502","distractor":"469702","target":"absent","response":"present","rt":"1785","correct":false,"confidence":3},{"trial_n":69,"span":5,"encoder":"82165","distractor":"82185","target":"absent","response":"present","rt":"1437","correct":false,"confidence":3},{"trial_n":70,"span":4,"encoder":"4580","distractor":"4500","target":"present","response":"present","rt":"1139","correct":true,"confidence":5},{"trial_n":71,"span":8,"encoder":"40771831","distractor":"40778831","target":"present","response":"present","rt":"2948","correct":true,"confidence":-1},{"trial_n":72,"span":8,"encoder":"28729523","distractor":"28728523","target":"present","response":"present","rt":"1015","correct":true,"confidence":-1},{"trial_n":73,"span":9,"encoder":"844671503","distractor":"844651503","target":"absent","response":"present","rt":"1247","correct":false,"confidence":-1},{"trial_n":74,"span":8,"encoder":"35386772","distractor":"35386872","target":"absent","response":"absent","rt":"1336","correct":true,"confidence":-1},{"trial_n":75,"span":8,"encoder":"34025185","distractor":"34055185","target":"present","response":"present","rt":"1316","correct":true,"confidence":-1},{"trial_n":76,"span":9,"encoder":"616549755","distractor":"612549755","target":"present","response":"present","rt":"3699","correct":true,"confidence":-1},{"trial_n":77,"span":9,"encoder":"289047640","distractor":"289087640","target":"absent","response":"present","rt":"979","correct":false,"confidence":-1},{"trial_n":78,"span":8,"encoder":"77126434","distractor":"77196434","target":"present","response":"present","rt":"2662","correct":true,"confidence":-1},{"trial_n":79,"span":8,"encoder":"72983470","distractor":"72984470","target":"absent","response":"present","rt":"961","correct":false,"confidence":-1},{"trial_n":80,"span":7,"encoder":"8541243","distractor":"8541242","target":"present","response":"present","rt":"971","correct":true,"confidence":-1},{"trial_n":81,"span":7,"encoder":"3154132","distractor":"3154832","target":"absent","response":"present","rt":"891","correct":false,"confidence":-1},{"trial_n":82,"span":6,"encoder":"640871","distractor":"640811","target":"absent","response":"absent","rt":"1539.9999999998","correct":true,"confidence":-1},{"trial_n":83,"span":6,"encoder":"152333","distractor":"152383","target":"present","response":"present","rt":"1781.9999999998","correct":true,"confidence":-1},{"trial_n":84,"span":7,"encoder":"2103679","distractor":"2803679","target":"absent","response":"present","rt":"4285.9999999998","correct":false,"confidence":-1},{"trial_n":85,"span":6,"encoder":"195101","distractor":"195901","target":"present","response":"present","rt":"1866","correct":true,"confidence":-1},{"trial_n":86,"span":6,"encoder":"758326","distractor":"758321","target":"present","response":"present","rt":"1693","correct":true,"confidence":-1},{"trial_n":87,"span":7,"encoder":"4598422","distractor":"4598429","target":"present","response":"present","rt":"891.00000000023","correct":true,"confidence":-1},{"trial_n":88,"span":7,"encoder":"7875240","distractor":"7875840","target":"absent","response":"present","rt":"794","correct":false,"confidence":-1},{"trial_n":89,"span":6,"encoder":"571102","distractor":"521102","target":"present","response":"present","rt":"2065","correct":true,"confidence":-1},{"trial_n":90,"span":6,"encoder":"963131","distractor":"963121","target":"absent","response":"absent","rt":"1240","correct":true,"confidence":-1},{"trial_n":91,"span":7,"encoder":"2069361","distractor":"2009361","target":"absent","response":"absent","rt":"4235","correct":true,"confidence":2},{"trial_n":92,"span":7,"encoder":"8901709","distractor":"8501709","target":"absent","response":"absent","rt":"1877","correct":true,"confidence":4},{"trial_n":93,"span":8,"encoder":"15799492","distractor":"15799462","target":"absent","response":"absent","rt":"3391","correct":true,"confidence":5},{"trial_n":94,"span":8,"encoder":"04485960","distractor":"04485950","target":"absent","response":"absent","rt":"3753","correct":true,"confidence":4},{"trial_n":95,"span":9,"encoder":"070270346","distractor":"070070346","target":"absent","response":"absent","rt":"2753.9999999998","correct":true,"confidence":3},{"trial_n":96,"span":9,"encoder":"203302245","distractor":"103302245","target":"absent","response":"absent","rt":"2499","correct":true,"confidence":4},{"trial_n":97,"span":10,"encoder":"5171860719","distractor":"5173860719","target":"absent","response":"absent","rt":"2834","correct":true,"confidence":3},{"trial_n":98,"span":10,"encoder":"2002279902","distractor":"2002271902","target":"present","response":"present","rt":"5821","correct":true,"confidence":3},{"trial_n":99,"span":11,"encoder":"53362884649","distractor":"53364884649","target":"present","response":"absent","rt":"4867","correct":false,"confidence":1},{"trial_n":100,"span":10,"encoder":"9179040847","distractor":"9179040897","target":"present","response":"present","rt":"3925","correct":true,"confidence":3},{"trial_n":101,"span":10,"encoder":"4682550179","distractor":"7682550179","target":"present","response":"present","rt":"3268","correct":true,"confidence":3},{"trial_n":102,"span":11,"encoder":"21683982669","distractor":"21683987669","target":"absent","response":"present","rt":"3403","correct":false,"confidence":3},{"trial_n":103,"span":10,"encoder":"1330260370","distractor":"1330960370","target":"present","response":"present","rt":"4717","correct":true,"confidence":3},{"trial_n":104,"span":10,"encoder":"5204822056","distractor":"5204822058","target":"present","response":"present","rt":"3846","correct":true,"confidence":3},{"trial_n":105,"span":11,"encoder":"45070285452","distractor":"45070785452","target":"absent","response":"absent","rt":"4067","correct":true,"confidence":1},{"trial_n":106,"span":11,"encoder":"62723926155","distractor":"62723926755","target":"absent","response":"absent","rt":"4181","correct":true,"confidence":1},{"trial_n":107,"span":12,"encoder":"321805416643","distractor":"321895416643","target":"present","response":"absent","rt":"3175","correct":false,"confidence":2},{"trial_n":108,"span":11,"encoder":"52992702895","distractor":"52992502895","target":"present","response":"present","rt":"5272","correct":true,"confidence":3},{"trial_n":109,"span":11,"encoder":"78221732480","distractor":"78221732580","target":"absent","response":"present","rt":"2996","correct":false,"confidence":3},{"trial_n":110,"span":10,"encoder":"4751244250","distractor":"4752244250","target":"present","response":"present","rt":"1034","correct":true,"confidence":1},{"trial_n":111,"span":10,"encoder":"7290454882","distractor":"7290454888","target":"present","response":"present","rt":"2877","correct":true,"confidence":4},{"trial_n":112,"span":11,"encoder":"70873022084","distractor":"70875022084","target":"absent","response":"absent","rt":"7593.0000000005","correct":true,"confidence":3},{"trial_n":113,"span":11,"encoder":"64501265337","distractor":"64501285337","target":"present","response":"present","rt":"4237","correct":true,"confidence":3},{"trial_n":114,"span":12,"encoder":"063545849086","distractor":"063545849986","target":"present","response":"present","rt":"4822","correct":true,"confidence":3},{"trial_n":115,"span":12,"encoder":"301634717801","distractor":"301634117801","target":"present","response":"present","rt":"3956.0000000005","correct":true,"confidence":1},{"trial_n":116,"span":13,"encoder":"6435582207628","distractor":"6437582207628","target":"absent","response":"present","rt":"3461","correct":false,"confidence":3},{"trial_n":117,"span":12,"encoder":"268345906799","distractor":"248345906799","target":"present","response":"present","rt":"4488","correct":true,"confidence":1},{"trial_n":118,"span":12,"encoder":"779696815279","distractor":"719696815279","target":"present","response":"absent","rt":"3812.9999999995","correct":false,"confidence":1},{"trial_n":119,"span":11,"encoder":"71669213308","distractor":"41669213308","target":"present","response":"present","rt":"3031","correct":true,"confidence":2},{"trial_n":120,"span":11,"encoder":"92246375322","distractor":"92246375922","target":"absent","response":"absent","rt":"2741","correct":true,"confidence":2},{"trial_n":121,"span":12,"encoder":"668519927986","distractor":"668599927986","target":"present","response":"present","rt":"7222","correct":true,"confidence":1},{"trial_n":122,"span":12,"encoder":"582689767702","distractor":"522689767702","target":"absent","response":"absent","rt":"2804","correct":true,"confidence":3},{"trial_n":123,"span":13,"encoder":"5875461438339","distractor":"5875411438339","target":"present","response":"absent","rt":"4858","correct":false,"confidence":1},{"trial_n":124,"span":12,"encoder":"325503240989","distractor":"345503240989","target":"absent","response":"present","rt":"4845","correct":false,"confidence":1},{"trial_n":125,"span":11,"encoder":"46650639922","distractor":"46650639522","target":"absent","response":"absent","rt":"5410","correct":true,"confidence":3},{"trial_n":126,"span":11,"encoder":"47655842753","distractor":"47655812753","target":"absent","response":"absent","rt":"3109","correct":true,"confidence":3},{"trial_n":127,"span":12,"encoder":"269012957765","distractor":"269012977765","target":"present","response":"present","rt":"3627","correct":true,"confidence":2},{"trial_n":128,"span":12,"encoder":"370456566592","distractor":"370456596592","target":"absent","response":"present","rt":"1852.9999999995","correct":false,"confidence":2},{"trial_n":129,"span":11,"encoder":"30867716037","distractor":"33867716037","target":"present","response":"present","rt":"3472","correct":true,"confidence":3},{"trial_n":130,"span":11,"encoder":"09124070532","distractor":"69124070532","target":"present","response":"absent","rt":"6410","correct":false,"confidence":2},{"trial_n":131,"span":10,"encoder":"7907838010","distractor":"7907848010","target":"present","response":"present","rt":"3905","correct":true,"confidence":2},{"trial_n":132,"span":10,"encoder":"3151374468","distractor":"3153374468","target":"absent","response":"absent","rt":"4573.9999999995","correct":true,"confidence":3},{"trial_n":133,"span":11,"encoder":"50416661031","distractor":"50416671031","target":"absent","response":"present","rt":"3381","correct":false,"confidence":3},{"trial_n":134,"span":10,"encoder":"2537665737","distractor":"2537465737","target":"absent","response":"present","rt":"2200","correct":false,"confidence":2},{"trial_n":135,"span":9,"encoder":"008878221","distractor":"008828221","target":"present","response":"present","rt":"2460.0000000005","correct":true,"confidence":2},{"trial_n":136,"span":9,"encoder":"500443484","distractor":"500443414","target":"present","response":"present","rt":"2128.9999999995","correct":true,"confidence":2},{"trial_n":137,"span":10,"encoder":"7284790119","distractor":"7684790119","target":"present","response":"present","rt":"5363","correct":true,"confidence":3},{"trial_n":138,"span":10,"encoder":"2205674339","distractor":"2205674331","target":"absent","response":"absent","rt":"2080","correct":true,"confidence":4},{"trial_n":139,"span":11,"encoder":"42120273894","distractor":"42130273894","target":"absent","response":"present","rt":"4975","correct":false,"confidence":3},{"trial_n":140,"span":10,"encoder":"2300961831","distractor":"2300961851","target":"absent","response":"absent","rt":"1944","correct":true,"confidence":2}]