[{"trial_n":1,"n_dots":4.25,"target":"left","response":"left","rt":2868,"correct":true,"confidence":-1},{"trial_n":2,"n_dots":4.25,"target":"left","response":"left","rt":2889.8000000119,"correct":true,"confidence":-1},{"trial_n":3,"n_dots":3.85,"target":"left","response":"right","rt":623.10000002384,"correct":false,"confidence":-1},{"trial_n":4,"n_dots":4.25,"target":"right","response":"right","rt":464.80000001192,"correct":true,"confidence":-1},{"trial_n":5,"n_dots":4.25,"target":"left","response":"left","rt":2293.1999999881,"correct":true,"confidence":-1},{"trial_n":6,"n_dots":3.85,"target":"right","response":"right","rt":488.90000000596,"correct":true,"confidence":-1},{"trial_n":7,"n_dots":3.85,"target":"right","response":"right","rt":436.70000001788,"correct":true,"confidence":-1},{"trial_n":8,"n_dots":3.65,"target":"right","response":"right","rt":1148.099999994,"correct":true,"confidence":-1},{"trial_n":9,"n_dots":3.65,"target":"right","response":"right","rt":500.90000000596,"correct":true,"confidence":-1},{"trial_n":10,"n_dots":3.45,"target":"right","response":"right","rt":405.5,"correct":true,"confidence":-1},{"trial_n":11,"n_dots":3.45,"target":"right","response":"right","rt":310.19999998808,"correct":true,"confidence":-1},{"trial_n":12,"n_dots":3.25,"target":"left","response":"left","rt":505.09999999404,"correct":true,"confidence":-1},{"trial_n":13,"n_dots":3.25,"target":"left","response":"left","rt":654.09999999404,"correct":true,"confidence":-1},{"trial_n":14,"n_dots":3.15,"target":"left","response":"left","rt":1055.3000000119,"correct":true,"confidence":-1},{"trial_n":15,"n_dots":3.15,"target":"right","response":"right","rt":545.59999999404,"correct":true,"confidence":-1},{"trial_n":16,"n_dots":3.05,"target":"left","response":"left","rt":653.40000000596,"correct":true,"confidence":-1},{"trial_n":17,"n_dots":3.05,"target":"right","response":"right","rt":435.60000002384,"correct":true,"confidence":-1},{"trial_n":18,"n_dots":2.95,"target":"right","response":"right","rt":536.59999999404,"correct":true,"confidence":-1},{"trial_n":19,"n_dots":2.95,"target":"left","response":"left","rt":553.5,"correct":true,"confidence":-1},{"trial_n":20,"n_dots":2.85,"target":"right","response":"left","rt":493.59999999404,"correct":false,"confidence":-1},{"trial_n":21,"n_dots":2.95,"target":"left","response":"left","rt":455.80000001192,"correct":true,"confidence":3},{"trial_n":22,"n_dots":2.95,"target":"right","response":"right","rt":428.09999999404,"correct":true,"confidence":4},{"trial_n":23,"n_dots":2.85,"target":"left","response":"left","rt":544.90000000596,"correct":true,"confidence":2},{"trial_n":24,"n_dots":2.85,"target":"left","response":"left","rt":568.19999998808,"correct":true,"confidence":4},{"trial_n":25,"n_dots":2.75,"target":"right","response":"left","rt":1535.6999999881,"correct":false,"confidence":2},{"trial_n":26,"n_dots":2.85,"target":"left","response":"left","rt":373.5,"correct":true,"confidence":3},{"trial_n":27,"n_dots":2.85,"target":"left","response":"left","rt":417.09999999404,"correct":true,"confidence":4},{"trial_n":28,"n_dots":2.75,"target":"right","response":"right","rt":833,"correct":true,"confidence":2},{"trial_n":29,"n_dots":2.75,"target":"right","response":"left","rt":503.80000001192,"correct":false,"confidence":3},{"trial_n":30,"n_dots":2.85,"target":"right","response":"right","rt":468.30000001192,"correct":true,"confidence":4},{"trial_n":31,"n_dots":2.85,"target":"right","response":"right","rt":892.70000001788,"correct":true,"confidence":2},{"trial_n":32,"n_dots":2.75,"target":"left","response":"left","rt":436.40000000596,"correct":true,"confidence":3},{"trial_n":33,"n_dots":2.75,"target":"left","response":"left","rt":335.30000001192,"correct":true,"confidence":5},{"trial_n":34,"n_dots":2.65,"target":"right","response":"right","rt":703.5,"correct":true,"confidence":3},{"trial_n":35,"n_dots":2.65,"target":"right","response":"left","rt":532.29999998212,"correct":false,"confidence":2},{"trial_n":36,"n_dots":2.75,"target":"right","response":"right","rt":496.09999999404,"correct":true,"confidence":4},{"trial_n":37,"n_dots":2.75,"target":"right","response":"left","rt":1297.6999999881,"correct":false,"confidence":2},{"trial_n":38,"n_dots":2.85,"target":"right","response":"left","rt":630.59999999404,"correct":false,"confidence":2},{"trial_n":39,"n_dots":2.95,"target":"right","response":"left","rt":684,"correct":false,"confidence":4},{"trial_n":40,"n_dots":3.05,"target":"right","response":"left","rt":1856.6000000238,"correct":false,"confidence":2},{"trial_n":41,"n_dots":3.15,"target":"left","response":"right","rt":372.70000001788,"correct":false,"confidence":5},{"trial_n":42,"n_dots":3.25,"target":"left","response":"left","rt":415.69999998808,"correct":true,"confidence":3},{"trial_n":43,"n_dots":3.25,"target":"left","response":"left","rt":780.5,"correct":true,"confidence":3},{"trial_n":44,"n_dots":3.15,"target":"left","response":"left","rt":475,"correct":true,"confidence":2},{"trial_n":45,"n_dots":3.15,"target":"left","response":"left","rt":401.59999999404,"correct":true,"confidence":2},{"trial_n":46,"n_dots":3.05,"target":"left","response":"left","rt":430.19999998808,"correct":true,"confidence":3},{"trial_n":47,"n_dots":3.05,"target":"right","response":"right","rt":354,"correct":true,"confidence":2},{"trial_n":48,"n_dots":2.95,"target":"left","response":"right","rt":437.40000000596,"correct":false,"confidence":4},{"trial_n":49,"n_dots":3.05,"target":"left","response":"left","rt":401.19999998808,"correct":true,"confidence":4},{"trial_n":50,"n_dots":3.05,"target":"left","response":"left","rt":390.5,"correct":true,"confidence":3},{"trial_n":51,"n_dots":2.95,"target":"right","response":"right","rt":331.19999998808,"correct":true,"confidence":5},{"trial_n":52,"n_dots":2.95,"target":"left","response":"left","rt":573.80000001192,"correct":true,"confidence":3},{"trial_n":53,"n_dots":2.85,"target":"right","response":"right","rt":269.20000001788,"correct":true,"confidence":3},{"trial_n":54,"n_dots":2.85,"target":"left","response":"left","rt":325.29999998212,"correct":true,"confidence":3},{"trial_n":55,"n_dots":2.75,"target":"right","response":"left","rt":437.5,"correct":false,"confidence":3},{"trial_n":56,"n_dots":2.85,"target":"right","response":"left","rt":482.30000001192,"correct":false,"confidence":2},{"trial_n":57,"n_dots":2.95,"target":"left","response":"left","rt":364.39999997616,"correct":true,"confidence":4},{"trial_n":58,"n_dots":2.95,"target":"right","response":"right","rt":357.79999998212,"correct":true,"confidence":3},{"trial_n":59,"n_dots":2.85,"target":"left","response":"left","rt":568.5,"correct":true,"confidence":3},{"trial_n":60,"n_dots":2.85,"target":"right","response":"right","rt":474.40000000596,"correct":true,"confidence":2},{"trial_n":61,"n_dots":2.75,"target":"right","response":"right","rt":532,"correct":true,"confidence":4},{"trial_n":62,"n_dots":2.75,"target":"right","response":"left","rt":774.09999999404,"correct":false,"confidence":2},{"trial_n":63,"n_dots":2.85,"target":"right","response":"left","rt":1918.5,"correct":false,"confidence":1},{"trial_n":64,"n_dots":2.95,"target":"right","response":"left","rt":316,"correct":false,"confidence":3},{"trial_n":65,"n_dots":3.05,"target":"right","response":"right","rt":628.59999999404,"correct":true,"confidence":3},{"trial_n":66,"n_dots":3.05,"target":"left","response":"left","rt":263.5,"correct":true,"confidence":4},{"trial_n":67,"n_dots":2.95,"target":"left","response":"left","rt":479.90000000596,"correct":true,"confidence":3},{"trial_n":68,"n_dots":2.95,"target":"right","response":"right","rt":441.5,"correct":true,"confidence":3},{"trial_n":69,"n_dots":2.85,"target":"right","response":"right","rt":498.09999999404,"correct":true,"confidence":3},{"trial_n":70,"n_dots":2.85,"target":"right","response":"right","rt":328.59999999404,"correct":true,"confidence":4},{"trial_n":71,"n_dots":2.75,"target":"left","response":"left","rt":447.19999998808,"correct":true,"confidence":4},{"trial_n":72,"n_dots":2.75,"target":"left","response":"left","rt":399,"correct":true,"confidence":2},{"trial_n":73,"n_dots":2.65,"target":"right","response":"right","rt":259.5,"correct":true,"confidence":4},{"trial_n":74,"n_dots":2.65,"target":"left","response":"right","rt":437.79999998212,"correct":false,"confidence":3},{"trial_n":75,"n_dots":2.75,"target":"right","response":"left","rt":299,"correct":false,"confidence":4},{"trial_n":76,"n_dots":2.85,"target":"right","response":"right","rt":317.19999998808,"correct":true,"confidence":3},{"trial_n":77,"n_dots":2.85,"target":"right","response":"right","rt":272.90000000596,"correct":true,"confidence":5},{"trial_n":78,"n_dots":2.75,"target":"right","response":"left","rt":428.19999998808,"correct":false,"confidence":3},{"trial_n":79,"n_dots":2.85,"target":"left","response":"left","rt":1810,"correct":true,"confidence":1},{"trial_n":80,"n_dots":2.85,"target":"left","response":"right","rt":680.09999999404,"correct":false,"confidence":2},{"trial_n":81,"n_dots":2.95,"target":"right","response":"right","rt":292.90000000596,"correct":true,"confidence":5},{"trial_n":82,"n_dots":2.95,"target":"left","response":"right","rt":259.5,"correct":false,"confidence":4},{"trial_n":83,"n_dots":3.05,"target":"left","response":"right","rt":306,"correct":false,"confidence":4},{"trial_n":84,"n_dots":3.15,"target":"right","response":"right","rt":144.19999998808,"correct":true,"confidence":3},{"trial_n":85,"n_dots":3.15,"target":"right","response":"left","rt":408.40000000596,"correct":false,"confidence":3},{"trial_n":86,"n_dots":3.25,"target":"left","response":"left","rt":384,"correct":true,"confidence":4},{"trial_n":87,"n_dots":3.25,"target":"left","response":"left","rt":357.30000001192,"correct":true,"confidence":2},{"trial_n":88,"n_dots":3.15,"target":"left","response":"left","rt":372.29999998212,"correct":true,"confidence":4},{"trial_n":89,"n_dots":3.15,"target":"left","response":"left","rt":387.19999998808,"correct":true,"confidence":4},{"trial_n":90,"n_dots":3.05,"target":"left","response":"right","rt":331,"correct":false,"confidence":4},{"trial_n":91,"n_dots":3.15,"target":"right","response":"right","rt":378.5,"correct":true,"confidence":3},{"trial_n":92,"n_dots":3.15,"target":"left","response":"left","rt":280.40000000596,"correct":true,"confidence":4},{"trial_n":93,"n_dots":3.05,"target":"right","response":"right","rt":441.30000001192,"correct":true,"confidence":3},{"trial_n":94,"n_dots":3.05,"target":"left","response":"right","rt":1073.599999994,"correct":false,"confidence":1},{"trial_n":95,"n_dots":3.15,"target":"left","response":"left","rt":333.29999998212,"correct":true,"confidence":4},{"trial_n":96,"n_dots":3.15,"target":"left","response":"left","rt":441,"correct":true,"confidence":2},{"trial_n":97,"n_dots":3.05,"target":"left","response":"left","rt":200.09999999404,"correct":true,"confidence":3},{"trial_n":98,"n_dots":3.05,"target":"left","response":"left","rt":512.90000000596,"correct":true,"confidence":2},{"trial_n":99,"n_dots":2.95,"target":"left","response":"left","rt":281.90000000596,"correct":true,"confidence":4},{"trial_n":100,"n_dots":2.95,"target":"right","response":"left","rt":369.5,"correct":false,"confidence":3},{"trial_n":101,"n_dots":3.05,"target":"left","response":"left","rt":412.30000001192,"correct":true,"confidence":2},{"trial_n":102,"n_dots":3.05,"target":"right","response":"right","rt":326.79999998212,"correct":true,"confidence":3},{"trial_n":103,"n_dots":2.95,"target":"left","response":"left","rt":577.69999998808,"correct":true,"confidence":3},{"trial_n":104,"n_dots":2.95,"target":"left","response":"left","rt":375.10000002384,"correct":true,"confidence":4},{"trial_n":105,"n_dots":2.85,"target":"right","response":"right","rt":362.29999998212,"correct":true,"confidence":3},{"trial_n":106,"n_dots":2.85,"target":"left","response":"left","rt":389.79999998212,"correct":true,"confidence":4},{"trial_n":107,"n_dots":2.75,"target":"right","response":"left","rt":780.40000000596,"correct":false,"confidence":4},{"trial_n":108,"n_dots":2.85,"target":"right","response":"right","rt":173.5,"correct":true,"confidence":3},{"trial_n":109,"n_dots":2.85,"target":"left","response":"left","rt":682.09999999404,"correct":true,"confidence":2},{"trial_n":110,"n_dots":2.75,"target":"left","response":"left","rt":394.19999998808,"correct":true,"confidence":3},{"trial_n":111,"n_dots":2.75,"target":"right","response":"right","rt":417.20000001788,"correct":true,"confidence":3},{"trial_n":112,"n_dots":2.65,"target":"left","response":"left","rt":145.20000001788,"correct":true,"confidence":4},{"trial_n":113,"n_dots":2.65,"target":"right","response":"left","rt":348.29999998212,"correct":false,"confidence":3},{"trial_n":114,"n_dots":2.75,"target":"left","response":"left","rt":360.70000001788,"correct":true,"confidence":4},{"trial_n":115,"n_dots":2.75,"target":"right","response":"right","rt":565.59999999404,"correct":true,"confidence":2},{"trial_n":116,"n_dots":2.65,"target":"right","response":"right","rt":331.79999998212,"correct":true,"confidence":3},{"trial_n":117,"n_dots":2.65,"target":"left","response":"left","rt":310.90000000596,"correct":true,"confidence":4},{"trial_n":118,"n_dots":2.55,"target":"left","response":"left","rt":414.09999999404,"correct":true,"confidence":2},{"trial_n":119,"n_dots":2.55,"target":"right","response":"right","rt":340,"correct":true,"confidence":3},{"trial_n":120,"n_dots":2.45,"target":"right","response":"left","rt":430.5,"correct":false,"confidence":3}]