[{"trial_n":1,"min":25,"max":230,"target":"present","response":"absent","rt":11982,"correct":false,"confidence":-1},{"trial_n":2,"min":25,"max":230,"target":"present","response":"present","rt":1454,"correct":true,"confidence":-1},{"trial_n":3,"min":25,"max":230,"target":"absent","response":"absent","rt":1580,"correct":true,"confidence":-1},{"trial_n":4,"min":41,"max":214,"target":"absent","response":"absent","rt":1504,"correct":true,"confidence":-1},{"trial_n":5,"min":41,"max":214,"target":"present","response":"present","rt":2185,"correct":true,"confidence":-1},{"trial_n":6,"min":57,"max":198,"target":"present","response":"present","rt":1139,"correct":true,"confidence":-1},{"trial_n":7,"min":57,"max":198,"target":"present","response":"present","rt":804,"correct":true,"confidence":-1},{"trial_n":8,"min":73,"max":182,"target":"present","response":"absent","rt":467,"correct":false,"confidence":-1},{"trial_n":9,"min":57,"max":198,"target":"absent","response":"absent","rt":670,"correct":true,"confidence":-1},{"trial_n":10,"min":57,"max":198,"target":"absent","response":"present","rt":3644,"correct":false,"confidence":-1},{"trial_n":11,"min":49,"max":206,"target":"present","response":"present","rt":609,"correct":true,"confidence":-1},{"trial_n":12,"min":49,"max":206,"target":"present","response":"present","rt":505,"correct":true,"confidence":-1},{"trial_n":13,"min":57,"max":198,"target":"present","response":"present","rt":542,"correct":true,"confidence":-1},{"trial_n":14,"min":57,"max":198,"target":"present","response":"present","rt":490,"correct":true,"confidence":-1},{"trial_n":15,"min":65,"max":190,"target":"absent","response":"absent","rt":1051,"correct":true,"confidence":-1},{"trial_n":16,"min":65,"max":190,"target":"present","response":"present","rt":1101,"correct":true,"confidence":-1},{"trial_n":17,"min":73,"max":182,"target":"absent","response":"absent","rt":27925,"correct":true,"confidence":-1},{"trial_n":18,"min":73,"max":182,"target":"absent","response":"absent","rt":1508,"correct":true,"confidence":-1},{"trial_n":19,"min":81,"max":174,"target":"present","response":"present","rt":322,"correct":true,"confidence":-1},{"trial_n":20,"min":81,"max":174,"target":"present","response":"absent","rt":235.99999999997,"correct":false,"confidence":-1},{"trial_n":21,"min":77,"max":178,"target":"absent","response":"absent","rt":627.00000000003,"correct":true,"confidence":4},{"trial_n":22,"min":77,"max":178,"target":"present","response":"absent","rt":806,"correct":false,"confidence":4},{"trial_n":23,"min":73,"max":182,"target":"absent","response":"absent","rt":2079,"correct":true,"confidence":3},{"trial_n":24,"min":73,"max":182,"target":"absent","response":"absent","rt":1522,"correct":true,"confidence":2},{"trial_n":25,"min":77,"max":178,"target":"present","response":"present","rt":596,"correct":true,"confidence":3},{"trial_n":26,"min":77,"max":178,"target":"absent","response":"absent","rt":2318,"correct":true,"confidence":3},{"trial_n":27,"min":81,"max":174,"target":"absent","response":"absent","rt":769,"correct":true,"confidence":4},{"trial_n":28,"min":81,"max":174,"target":"absent","response":"present","rt":1910,"correct":false,"confidence":3},{"trial_n":29,"min":77,"max":178,"target":"present","response":"absent","rt":1420.9999999999,"correct":false,"confidence":3},{"trial_n":30,"min":73,"max":182,"target":"present","response":"present","rt":1166,"correct":true,"confidence":4},{"trial_n":31,"min":73,"max":182,"target":"absent","response":"absent","rt":2305,"correct":true,"confidence":1},{"trial_n":32,"min":75,"max":180,"target":"absent","response":"absent","rt":945.00000000006,"correct":true,"confidence":2},{"trial_n":33,"min":75,"max":180,"target":"present","response":"present","rt":743,"correct":true,"confidence":3},{"trial_n":34,"min":77,"max":178,"target":"present","response":"present","rt":719,"correct":true,"confidence":3},{"trial_n":35,"min":77,"max":178,"target":"absent","response":"absent","rt":955,"correct":true,"confidence":3},{"trial_n":36,"min":79,"max":176,"target":"present","response":"present","rt":1588,"correct":true,"confidence":2},{"trial_n":37,"min":79,"max":176,"target":"absent","response":"absent","rt":966,"correct":true,"confidence":1},{"trial_n":38,"min":81,"max":174,"target":"present","response":"present","rt":2401,"correct":true,"confidence":3},{"trial_n":39,"min":81,"max":174,"target":"present","response":"present","rt":1370,"correct":true,"confidence":3},{"trial_n":40,"min":83,"max":172,"target":"present","response":"present","rt":982,"correct":true,"confidence":4},{"trial_n":41,"min":83,"max":172,"target":"absent","response":"absent","rt":1580,"correct":true,"confidence":3},{"trial_n":42,"min":84,"max":171,"target":"absent","response":"present","rt":1806,"correct":false,"confidence":3},{"trial_n":43,"min":83,"max":172,"target":"absent","response":"absent","rt":2189,"correct":true,"confidence":4},{"trial_n":44,"min":83,"max":172,"target":"absent","response":"absent","rt":3391.0000000001,"correct":true,"confidence":1},{"trial_n":45,"min":84,"max":171,"target":"present","response":"present","rt":1617,"correct":true,"confidence":2},{"trial_n":46,"min":84,"max":171,"target":"present","response":"present","rt":1218,"correct":true,"confidence":3},{"trial_n":47,"min":85,"max":170,"target":"absent","response":"absent","rt":1541,"correct":true,"confidence":3},{"trial_n":48,"min":85,"max":170,"target":"present","response":"present","rt":849,"correct":true,"confidence":3},{"trial_n":49,"min":86,"max":169,"target":"present","response":"present","rt":918,"correct":true,"confidence":3},{"trial_n":50,"min":86,"max":169,"target":"absent","response":"absent","rt":810,"correct":true,"confidence":4},{"trial_n":51,"min":87,"max":168,"target":"present","response":"present","rt":1209.9999999999,"correct":true,"confidence":3},{"trial_n":52,"min":87,"max":168,"target":"present","response":"present","rt":1202,"correct":true,"confidence":3},{"trial_n":53,"min":88,"max":167,"target":"absent","response":"absent","rt":927,"correct":true,"confidence":4},{"trial_n":54,"min":88,"max":167,"target":"present","response":"present","rt":1120,"correct":true,"confidence":4},{"trial_n":55,"min":89,"max":166,"target":"absent","response":"absent","rt":1259.9999999999,"correct":true,"confidence":4},{"trial_n":56,"min":89,"max":166,"target":"present","response":"absent","rt":1536,"correct":false,"confidence":3},{"trial_n":57,"min":88,"max":167,"target":"absent","response":"absent","rt":1360,"correct":true,"confidence":3},{"trial_n":58,"min":88,"max":167,"target":"absent","response":"absent","rt":2478,"correct":true,"confidence":3},{"trial_n":59,"min":89,"max":166,"target":"present","response":"absent","rt":987.00000000006,"correct":false,"confidence":2},{"trial_n":60,"min":88,"max":167,"target":"absent","response":"present","rt":1077,"correct":false,"confidence":3},{"trial_n":61,"min":87,"max":168,"target":"absent","response":"absent","rt":839,"correct":true,"confidence":2},{"trial_n":62,"min":87,"max":168,"target":"absent","response":"absent","rt":1015,"correct":true,"confidence":3},{"trial_n":63,"min":88,"max":167,"target":"absent","response":"absent","rt":1416,"correct":true,"confidence":3},{"trial_n":64,"min":88,"max":167,"target":"present","response":"absent","rt":1741,"correct":false,"confidence":2},{"trial_n":65,"min":87,"max":168,"target":"present","response":"present","rt":1026,"correct":true,"confidence":3},{"trial_n":66,"min":87,"max":168,"target":"absent","response":"present","rt":1083,"correct":false,"confidence":3},{"trial_n":67,"min":86,"max":169,"target":"absent","response":"absent","rt":2966,"correct":true,"confidence":3},{"trial_n":68,"min":86,"max":169,"target":"present","response":"absent","rt":941,"correct":false,"confidence":1},{"trial_n":69,"min":85,"max":170,"target":"present","response":"absent","rt":1576,"correct":false,"confidence":1},{"trial_n":70,"min":84,"max":171,"target":"absent","response":"present","rt":1032,"correct":false,"confidence":3},{"trial_n":71,"min":41,"max":214,"target":"present","response":"present","rt":1215,"correct":true,"confidence":-1},{"trial_n":72,"min":41,"max":214,"target":"present","response":"present","rt":688,"correct":true,"confidence":-1},{"trial_n":73,"min":57,"max":198,"target":"absent","response":"absent","rt":1607,"correct":true,"confidence":-1},{"trial_n":74,"min":57,"max":198,"target":"absent","response":"absent","rt":906.00000000012,"correct":true,"confidence":-1},{"trial_n":75,"min":73,"max":182,"target":"present","response":"present","rt":807,"correct":true,"confidence":-1},{"trial_n":76,"min":73,"max":182,"target":"absent","response":"absent","rt":1090.0000000001,"correct":true,"confidence":-1},{"trial_n":77,"min":89,"max":166,"target":"absent","response":"absent","rt":1071,"correct":true,"confidence":-1},{"trial_n":78,"min":89,"max":166,"target":"absent","response":"present","rt":1390,"correct":false,"confidence":-1},{"trial_n":79,"min":73,"max":182,"target":"absent","response":"absent","rt":792,"correct":true,"confidence":-1},{"trial_n":80,"min":73,"max":182,"target":"absent","response":"absent","rt":657,"correct":true,"confidence":-1},{"trial_n":81,"min":81,"max":174,"target":"present","response":"present","rt":958,"correct":true,"confidence":-1},{"trial_n":82,"min":81,"max":174,"target":"absent","response":"absent","rt":942,"correct":true,"confidence":-1},{"trial_n":83,"min":89,"max":166,"target":"absent","response":"present","rt":907,"correct":false,"confidence":-1},{"trial_n":84,"min":81,"max":174,"target":"present","response":"present","rt":2008,"correct":true,"confidence":-1},{"trial_n":85,"min":81,"max":174,"target":"present","response":"absent","rt":1260,"correct":false,"confidence":-1},{"trial_n":86,"min":73,"max":182,"target":"present","response":"present","rt":742,"correct":true,"confidence":-1},{"trial_n":87,"min":73,"max":182,"target":"present","response":"present","rt":675,"correct":true,"confidence":-1},{"trial_n":88,"min":81,"max":174,"target":"present","response":"present","rt":957,"correct":true,"confidence":-1},{"trial_n":89,"min":81,"max":174,"target":"absent","response":"absent","rt":857,"correct":true,"confidence":-1},{"trial_n":90,"min":89,"max":166,"target":"absent","response":"absent","rt":1043.0000000001,"correct":true,"confidence":-1},{"trial_n":91,"min":89,"max":166,"target":"present","response":"present","rt":910,"correct":true,"confidence":3},{"trial_n":92,"min":93,"max":162,"target":"absent","response":"absent","rt":794,"correct":true,"confidence":2},{"trial_n":93,"min":93,"max":162,"target":"present","response":"present","rt":828,"correct":true,"confidence":3},{"trial_n":94,"min":97,"max":158,"target":"present","response":"absent","rt":895,"correct":false,"confidence":3},{"trial_n":95,"min":93,"max":162,"target":"present","response":"absent","rt":1540.0000000001,"correct":false,"confidence":1},{"trial_n":96,"min":89,"max":166,"target":"absent","response":"present","rt":1162,"correct":false,"confidence":3},{"trial_n":97,"min":85,"max":170,"target":"present","response":"absent","rt":995,"correct":false,"confidence":1},{"trial_n":98,"min":81,"max":174,"target":"absent","response":"absent","rt":1161,"correct":true,"confidence":4},{"trial_n":99,"min":81,"max":174,"target":"present","response":"present","rt":911.99999999988,"correct":true,"confidence":5},{"trial_n":100,"min":85,"max":170,"target":"absent","response":"absent","rt":995.99999999988,"correct":true,"confidence":3},{"trial_n":101,"min":85,"max":170,"target":"absent","response":"absent","rt":910,"correct":true,"confidence":2},{"trial_n":102,"min":87,"max":168,"target":"absent","response":"absent","rt":1717,"correct":true,"confidence":3},{"trial_n":103,"min":87,"max":168,"target":"absent","response":"absent","rt":1264,"correct":true,"confidence":5},{"trial_n":104,"min":89,"max":166,"target":"absent","response":"present","rt":980.00000000012,"correct":false,"confidence":1},{"trial_n":105,"min":87,"max":168,"target":"present","response":"present","rt":900,"correct":true,"confidence":4},{"trial_n":106,"min":87,"max":168,"target":"absent","response":"absent","rt":949,"correct":true,"confidence":5},{"trial_n":107,"min":89,"max":166,"target":"absent","response":"present","rt":967,"correct":false,"confidence":1},{"trial_n":108,"min":87,"max":168,"target":"absent","response":"present","rt":1114,"correct":false,"confidence":1},{"trial_n":109,"min":85,"max":170,"target":"absent","response":"absent","rt":899,"correct":true,"confidence":4},{"trial_n":110,"min":85,"max":170,"target":"absent","response":"absent","rt":1950,"correct":true,"confidence":3},{"trial_n":111,"min":86,"max":169,"target":"present","response":"present","rt":1115,"correct":true,"confidence":4},{"trial_n":112,"min":86,"max":169,"target":"present","response":"absent","rt":985.00000000012,"correct":false,"confidence":3},{"trial_n":113,"min":85,"max":170,"target":"absent","response":"absent","rt":1203.0000000001,"correct":true,"confidence":5},{"trial_n":114,"min":85,"max":170,"target":"absent","response":"absent","rt":1134,"correct":true,"confidence":5},{"trial_n":115,"min":86,"max":169,"target":"absent","response":"absent","rt":1639,"correct":true,"confidence":2},{"trial_n":116,"min":86,"max":169,"target":"present","response":"present","rt":2251,"correct":true,"confidence":3},{"trial_n":117,"min":87,"max":168,"target":"absent","response":"absent","rt":851,"correct":true,"confidence":4},{"trial_n":118,"min":87,"max":168,"target":"present","response":"absent","rt":2485,"correct":false,"confidence":2},{"trial_n":119,"min":86,"max":169,"target":"absent","response":"present","rt":987,"correct":false,"confidence":3},{"trial_n":120,"min":85,"max":170,"target":"present","response":"present","rt":3587,"correct":true,"confidence":3},{"trial_n":121,"min":85,"max":170,"target":"present","response":"present","rt":787,"correct":true,"confidence":5},{"trial_n":122,"min":86,"max":169,"target":"absent","response":"absent","rt":855,"correct":true,"confidence":4},{"trial_n":123,"min":86,"max":169,"target":"present","response":"present","rt":1789,"correct":true,"confidence":3},{"trial_n":124,"min":87,"max":168,"target":"absent","response":"absent","rt":1138.0000000002,"correct":true,"confidence":3},{"trial_n":125,"min":87,"max":168,"target":"present","response":"present","rt":873,"correct":true,"confidence":4},{"trial_n":126,"min":88,"max":167,"target":"absent","response":"absent","rt":1291,"correct":true,"confidence":2},{"trial_n":127,"min":88,"max":167,"target":"present","response":"present","rt":1656.9999999998,"correct":true,"confidence":3},{"trial_n":128,"min":89,"max":166,"target":"present","response":"present","rt":1006,"correct":true,"confidence":3},{"trial_n":129,"min":89,"max":166,"target":"present","response":"present","rt":1206.0000000002,"correct":true,"confidence":1},{"trial_n":130,"min":90,"max":165,"target":"present","response":"absent","rt":1560,"correct":false,"confidence":2},{"trial_n":131,"min":89,"max":166,"target":"present","response":"absent","rt":1627,"correct":false,"confidence":2},{"trial_n":132,"min":88,"max":167,"target":"present","response":"absent","rt":1055,"correct":false,"confidence":3},{"trial_n":133,"min":87,"max":168,"target":"present","response":"absent","rt":956,"correct":false,"confidence":2},{"trial_n":134,"min":86,"max":169,"target":"present","response":"present","rt":1439,"correct":true,"confidence":3},{"trial_n":135,"min":86,"max":169,"target":"present","response":"present","rt":1521,"correct":true,"confidence":3},{"trial_n":136,"min":87,"max":168,"target":"absent","response":"absent","rt":1192,"correct":true,"confidence":3},{"trial_n":137,"min":87,"max":168,"target":"present","response":"present","rt":822,"correct":true,"confidence":3},{"trial_n":138,"min":88,"max":167,"target":"present","response":"present","rt":1090,"correct":true,"confidence":2},{"trial_n":139,"min":88,"max":167,"target":"present","response":"present","rt":1324,"correct":true,"confidence":2},{"trial_n":140,"min":89,"max":166,"target":"absent","response":"absent","rt":841,"correct":true,"confidence":4}]