[{"trial_n":1,"n_dots":4.25,"target":"left","response":"left","rt":3308.6000000238,"correct":true,"confidence":-1},{"trial_n":2,"n_dots":4.25,"target":"right","response":"right","rt":1160.6000000238,"correct":true,"confidence":-1},{"trial_n":3,"n_dots":3.85,"target":"right","response":"right","rt":702.79999995232,"correct":true,"confidence":-1},{"trial_n":4,"n_dots":3.85,"target":"left","response":"left","rt":719,"correct":true,"confidence":-1},{"trial_n":5,"n_dots":3.45,"target":"left","response":"left","rt":831.39999997616,"correct":true,"confidence":-1},{"trial_n":6,"n_dots":3.45,"target":"left","response":"left","rt":1222,"correct":true,"confidence":-1},{"trial_n":7,"n_dots":3.05,"target":"right","response":"right","rt":1660.7000000477,"correct":true,"confidence":-1},{"trial_n":8,"n_dots":3.05,"target":"right","response":"left","rt":832.20000004768,"correct":false,"confidence":-1},{"trial_n":9,"n_dots":3.25,"target":"left","response":"right","rt":761.60000002384,"correct":false,"confidence":-1},{"trial_n":10,"n_dots":3.45,"target":"left","response":"left","rt":747.70000004768,"correct":true,"confidence":-1},{"trial_n":11,"n_dots":3.45,"target":"right","response":"left","rt":684.79999995232,"correct":false,"confidence":-1},{"trial_n":12,"n_dots":3.65,"target":"left","response":"left","rt":496.5,"correct":true,"confidence":-1},{"trial_n":13,"n_dots":3.65,"target":"right","response":"left","rt":558.10000002384,"correct":false,"confidence":-1},{"trial_n":14,"n_dots":3.75,"target":"left","response":"left","rt":561.70000004768,"correct":true,"confidence":-1},{"trial_n":15,"n_dots":3.75,"target":"left","response":"left","rt":638,"correct":true,"confidence":-1},{"trial_n":16,"n_dots":3.65,"target":"right","response":"right","rt":549.60000002384,"correct":true,"confidence":-1},{"trial_n":17,"n_dots":3.65,"target":"right","response":"right","rt":588.5,"correct":true,"confidence":-1},{"trial_n":18,"n_dots":3.55,"target":"left","response":"left","rt":472.5,"correct":true,"confidence":-1},{"trial_n":19,"n_dots":3.55,"target":"right","response":"right","rt":565.70000004768,"correct":true,"confidence":-1},{"trial_n":20,"n_dots":3.45,"target":"right","response":"right","rt":446.89999997616,"correct":true,"confidence":-1},{"trial_n":21,"n_dots":3.45,"target":"left","response":"left","rt":520.89999997616,"correct":true,"confidence":4},{"trial_n":22,"n_dots":3.35,"target":"left","response":"left","rt":567.70000004768,"correct":true,"confidence":4},{"trial_n":23,"n_dots":3.35,"target":"right","response":"left","rt":683.29999995232,"correct":false,"confidence":3},{"trial_n":24,"n_dots":3.45,"target":"right","response":"right","rt":637.89999997616,"correct":true,"confidence":2},{"trial_n":25,"n_dots":3.45,"target":"left","response":"left","rt":694.70000004768,"correct":true,"confidence":4},{"trial_n":26,"n_dots":3.35,"target":"right","response":"right","rt":686.5,"correct":true,"confidence":4},{"trial_n":27,"n_dots":3.35,"target":"right","response":"right","rt":968.20000004768,"correct":true,"confidence":5},{"trial_n":28,"n_dots":3.25,"target":"right","response":"right","rt":782.89999997616,"correct":true,"confidence":4},{"trial_n":29,"n_dots":3.25,"target":"right","response":"right","rt":577.89999997616,"correct":true,"confidence":4},{"trial_n":30,"n_dots":3.15,"target":"left","response":"left","rt":606.20000004768,"correct":true,"confidence":3},{"trial_n":31,"n_dots":3.15,"target":"right","response":"right","rt":633,"correct":true,"confidence":4},{"trial_n":32,"n_dots":3.05,"target":"left","response":"left","rt":800.39999997616,"correct":true,"confidence":2},{"trial_n":33,"n_dots":3.05,"target":"right","response":"left","rt":866.20000004768,"correct":false,"confidence":2},{"trial_n":34,"n_dots":3.15,"target":"left","response":"left","rt":739.89999997616,"correct":true,"confidence":4},{"trial_n":35,"n_dots":3.15,"target":"right","response":"left","rt":722,"correct":false,"confidence":4},{"trial_n":36,"n_dots":3.25,"target":"left","response":"left","rt":538.20000004768,"correct":true,"confidence":4},{"trial_n":37,"n_dots":3.25,"target":"left","response":"left","rt":524.10000002384,"correct":true,"confidence":4},{"trial_n":38,"n_dots":3.15,"target":"right","response":"left","rt":506.20000004768,"correct":false,"confidence":3},{"trial_n":39,"n_dots":3.25,"target":"right","response":"right","rt":700.20000004768,"correct":true,"confidence":2},{"trial_n":40,"n_dots":3.25,"target":"left","response":"left","rt":682.60000002384,"correct":true,"confidence":2},{"trial_n":41,"n_dots":3.15,"target":"left","response":"left","rt":398.89999997616,"correct":true,"confidence":4},{"trial_n":42,"n_dots":3.15,"target":"right","response":"left","rt":707.10000002384,"correct":false,"confidence":2},{"trial_n":43,"n_dots":3.25,"target":"left","response":"left","rt":648.70000004768,"correct":true,"confidence":3},{"trial_n":44,"n_dots":3.25,"target":"right","response":"right","rt":583.5,"correct":true,"confidence":2},{"trial_n":45,"n_dots":3.15,"target":"right","response":"right","rt":676.70000004768,"correct":true,"confidence":1},{"trial_n":46,"n_dots":3.15,"target":"left","response":"left","rt":561.29999995232,"correct":true,"confidence":2},{"trial_n":47,"n_dots":3.05,"target":"left","response":"left","rt":833.20000004768,"correct":true,"confidence":1},{"trial_n":48,"n_dots":3.05,"target":"right","response":"right","rt":776.29999995232,"correct":true,"confidence":2},{"trial_n":49,"n_dots":2.95,"target":"left","response":"left","rt":873.89999997616,"correct":true,"confidence":2},{"trial_n":50,"n_dots":2.95,"target":"right","response":"right","rt":615.39999997616,"correct":true,"confidence":1},{"trial_n":51,"n_dots":2.85,"target":"left","response":"right","rt":510.10000002384,"correct":false,"confidence":1},{"trial_n":52,"n_dots":2.95,"target":"right","response":"right","rt":824,"correct":true,"confidence":3},{"trial_n":53,"n_dots":2.95,"target":"right","response":"left","rt":726.10000002384,"correct":false,"confidence":1},{"trial_n":54,"n_dots":3.05,"target":"right","response":"right","rt":598.79999995232,"correct":true,"confidence":1},{"trial_n":55,"n_dots":3.05,"target":"right","response":"right","rt":694.39999997616,"correct":true,"confidence":4},{"trial_n":56,"n_dots":2.95,"target":"right","response":"left","rt":649,"correct":false,"confidence":3},{"trial_n":57,"n_dots":3.05,"target":"right","response":"right","rt":768,"correct":true,"confidence":2},{"trial_n":58,"n_dots":3.05,"target":"right","response":"right","rt":846.39999997616,"correct":true,"confidence":1},{"trial_n":59,"n_dots":2.95,"target":"left","response":"right","rt":741.70000004768,"correct":false,"confidence":2},{"trial_n":60,"n_dots":3.05,"target":"left","response":"right","rt":1153.3999999762,"correct":false,"confidence":2},{"trial_n":61,"n_dots":3.15,"target":"right","response":"right","rt":732.20000004768,"correct":true,"confidence":4},{"trial_n":62,"n_dots":3.15,"target":"right","response":"right","rt":759.10000002384,"correct":true,"confidence":3},{"trial_n":63,"n_dots":3.05,"target":"left","response":"left","rt":743.29999995232,"correct":true,"confidence":3},{"trial_n":64,"n_dots":3.05,"target":"left","response":"left","rt":767,"correct":true,"confidence":4},{"trial_n":65,"n_dots":2.95,"target":"left","response":"left","rt":757.10000002384,"correct":true,"confidence":4},{"trial_n":66,"n_dots":2.95,"target":"left","response":"left","rt":706.89999997616,"correct":true,"confidence":5},{"trial_n":67,"n_dots":2.85,"target":"left","response":"left","rt":556.79999995232,"correct":true,"confidence":5},{"trial_n":68,"n_dots":2.85,"target":"right","response":"left","rt":824.29999995232,"correct":false,"confidence":3},{"trial_n":69,"n_dots":2.95,"target":"left","response":"left","rt":630.79999995232,"correct":true,"confidence":3},{"trial_n":70,"n_dots":2.95,"target":"left","response":"left","rt":1023.7000000477,"correct":true,"confidence":2},{"trial_n":71,"n_dots":2.85,"target":"left","response":"left","rt":604.70000004768,"correct":true,"confidence":3},{"trial_n":72,"n_dots":2.85,"target":"left","response":"right","rt":818.5,"correct":false,"confidence":2},{"trial_n":73,"n_dots":2.95,"target":"right","response":"left","rt":1073.7000000477,"correct":false,"confidence":2},{"trial_n":74,"n_dots":3.05,"target":"left","response":"left","rt":1957.7999999523,"correct":true,"confidence":2},{"trial_n":75,"n_dots":3.05,"target":"right","response":"right","rt":851.79999995232,"correct":true,"confidence":3},{"trial_n":76,"n_dots":2.95,"target":"left","response":"left","rt":726.5,"correct":true,"confidence":2},{"trial_n":77,"n_dots":2.95,"target":"left","response":"left","rt":601.39999997616,"correct":true,"confidence":3},{"trial_n":78,"n_dots":2.85,"target":"right","response":"right","rt":534.60000002384,"correct":true,"confidence":3},{"trial_n":79,"n_dots":2.85,"target":"left","response":"left","rt":453.70000004768,"correct":true,"confidence":2},{"trial_n":80,"n_dots":2.75,"target":"left","response":"left","rt":500.89999997616,"correct":true,"confidence":2},{"trial_n":81,"n_dots":2.75,"target":"right","response":"left","rt":673,"correct":false,"confidence":3},{"trial_n":82,"n_dots":2.85,"target":"right","response":"right","rt":717.29999995232,"correct":true,"confidence":3},{"trial_n":83,"n_dots":2.85,"target":"left","response":"left","rt":475.10000002384,"correct":true,"confidence":3},{"trial_n":84,"n_dots":2.75,"target":"left","response":"right","rt":424.70000004768,"correct":false,"confidence":3},{"trial_n":85,"n_dots":2.85,"target":"left","response":"left","rt":559.10000002384,"correct":true,"confidence":3},{"trial_n":86,"n_dots":2.85,"target":"right","response":"right","rt":817.29999995232,"correct":true,"confidence":3},{"trial_n":87,"n_dots":2.75,"target":"right","response":"left","rt":477.79999995232,"correct":false,"confidence":3},{"trial_n":88,"n_dots":2.85,"target":"left","response":"left","rt":377,"correct":true,"confidence":4},{"trial_n":89,"n_dots":2.85,"target":"left","response":"left","rt":434.39999997616,"correct":true,"confidence":4},{"trial_n":90,"n_dots":2.75,"target":"left","response":"left","rt":990.79999995232,"correct":true,"confidence":3},{"trial_n":91,"n_dots":2.75,"target":"right","response":"right","rt":535.60000002384,"correct":true,"confidence":3},{"trial_n":92,"n_dots":2.65,"target":"right","response":"left","rt":447.89999997616,"correct":false,"confidence":3},{"trial_n":93,"n_dots":2.75,"target":"right","response":"right","rt":391.10000002384,"correct":true,"confidence":5},{"trial_n":94,"n_dots":2.75,"target":"right","response":"right","rt":591.89999997616,"correct":true,"confidence":4},{"trial_n":95,"n_dots":2.65,"target":"left","response":"left","rt":451.79999995232,"correct":true,"confidence":3},{"trial_n":96,"n_dots":2.65,"target":"right","response":"left","rt":474.60000002384,"correct":false,"confidence":2},{"trial_n":97,"n_dots":2.75,"target":"right","response":"right","rt":371.29999995232,"correct":true,"confidence":4},{"trial_n":98,"n_dots":2.75,"target":"left","response":"left","rt":443,"correct":true,"confidence":5},{"trial_n":99,"n_dots":2.65,"target":"right","response":"left","rt":624.20000004768,"correct":false,"confidence":3},{"trial_n":100,"n_dots":2.75,"target":"right","response":"right","rt":108.20000004768,"correct":true,"confidence":5},{"trial_n":101,"n_dots":2.75,"target":"left","response":"left","rt":461.89999997616,"correct":true,"confidence":5},{"trial_n":102,"n_dots":2.65,"target":"left","response":"left","rt":492.20000004768,"correct":true,"confidence":3},{"trial_n":103,"n_dots":2.65,"target":"left","response":"left","rt":811.20000004768,"correct":true,"confidence":3},{"trial_n":104,"n_dots":2.55,"target":"right","response":"right","rt":548.29999995232,"correct":true,"confidence":4},{"trial_n":105,"n_dots":2.55,"target":"left","response":"left","rt":700.39999997616,"correct":true,"confidence":2},{"trial_n":106,"n_dots":2.45,"target":"left","response":"left","rt":415.10000002384,"correct":true,"confidence":2},{"trial_n":107,"n_dots":2.45,"target":"right","response":"right","rt":708.29999995232,"correct":true,"confidence":3},{"trial_n":108,"n_dots":2.35,"target":"left","response":"left","rt":578.60000002384,"correct":true,"confidence":3},{"trial_n":109,"n_dots":2.35,"target":"right","response":"left","rt":762.5,"correct":false,"confidence":1},{"trial_n":110,"n_dots":2.45,"target":"left","response":"left","rt":819.79999995232,"correct":true,"confidence":2},{"trial_n":111,"n_dots":2.45,"target":"right","response":"left","rt":961.70000004768,"correct":false,"confidence":2},{"trial_n":112,"n_dots":2.55,"target":"left","response":"right","rt":902,"correct":false,"confidence":3},{"trial_n":113,"n_dots":2.65,"target":"right","response":"left","rt":603.10000002384,"correct":false,"confidence":2},{"trial_n":114,"n_dots":2.75,"target":"right","response":"right","rt":675,"correct":true,"confidence":3},{"trial_n":115,"n_dots":2.75,"target":"left","response":"left","rt":485.89999997616,"correct":true,"confidence":4},{"trial_n":116,"n_dots":2.65,"target":"right","response":"right","rt":519.10000002384,"correct":true,"confidence":3},{"trial_n":117,"n_dots":2.65,"target":"right","response":"right","rt":475.89999997616,"correct":true,"confidence":4},{"trial_n":118,"n_dots":2.55,"target":"left","response":"left","rt":415.60000002384,"correct":true,"confidence":5},{"trial_n":119,"n_dots":2.55,"target":"left","response":"left","rt":472.70000004768,"correct":true,"confidence":4},{"trial_n":120,"n_dots":2.45,"target":"right","response":"left","rt":567.5,"correct":false,"confidence":4}]