[{"trial_n":1,"span":8,"encoder":"41770051","distractor":"41070051","target":"present","response":"absent","rt":"10483","correct":false,"confidence":-1},{"trial_n":2,"span":6,"encoder":"448791","distractor":"448790","target":"present","response":"present","rt":"2328","correct":true,"confidence":-1},{"trial_n":3,"span":6,"encoder":"728599","distractor":"728593","target":"absent","response":"absent","rt":"1516","correct":true,"confidence":-1},{"trial_n":4,"span":8,"encoder":"65268878","distractor":"68268878","target":"absent","response":"present","rt":"1526","correct":false,"confidence":-1},{"trial_n":5,"span":6,"encoder":"534413","distractor":"534473","target":"present","response":"present","rt":"1207","correct":true,"confidence":-1},{"trial_n":6,"span":6,"encoder":"963386","distractor":"963586","target":"absent","response":"present","rt":"1595","correct":false,"confidence":-1},{"trial_n":7,"span":4,"encoder":"5685","distractor":"5635","target":"absent","response":"present","rt":"1479","correct":false,"confidence":-1},{"trial_n":8,"span":2,"encoder":"01","distractor":"05","target":"present","response":"present","rt":"1220","correct":true,"confidence":-1},{"trial_n":9,"span":2,"encoder":"84","distractor":"82","target":"absent","response":"absent","rt":"1543","correct":true,"confidence":-1},{"trial_n":10,"span":4,"encoder":"4674","distractor":"0674","target":"present","response":"present","rt":"1179","correct":true,"confidence":-1},{"trial_n":11,"span":4,"encoder":"8876","distractor":"8176","target":"present","response":"present","rt":"1097","correct":true,"confidence":-1},{"trial_n":12,"span":5,"encoder":"67817","distractor":"37817","target":"present","response":"present","rt":"1115","correct":true,"confidence":-1},{"trial_n":13,"span":5,"encoder":"29817","distractor":"29217","target":"absent","response":"present","rt":"1340","correct":false,"confidence":-1},{"trial_n":14,"span":4,"encoder":"9620","distractor":"8620","target":"absent","response":"absent","rt":"1734","correct":true,"confidence":-1},{"trial_n":15,"span":4,"encoder":"5704","distractor":"5804","target":"absent","response":"absent","rt":"1809","correct":true,"confidence":-1},{"trial_n":16,"span":5,"encoder":"19090","distractor":"19020","target":"present","response":"present","rt":"1009","correct":true,"confidence":-1},{"trial_n":17,"span":5,"encoder":"38748","distractor":"38788","target":"absent","response":"absent","rt":"1686","correct":true,"confidence":-1},{"trial_n":18,"span":6,"encoder":"172368","distractor":"972368","target":"present","response":"present","rt":"17598","correct":true,"confidence":-1},{"trial_n":19,"span":6,"encoder":"359562","distractor":"359162","target":"present","response":"present","rt":"1330","correct":true,"confidence":-1},{"trial_n":20,"span":7,"encoder":"6298481","distractor":"3298481","target":"present","response":"present","rt":"1182","correct":true,"confidence":-1},{"trial_n":21,"span":7,"encoder":"4678678","distractor":"4678878","target":"absent","response":"present","rt":"1261","correct":false,"confidence":2},{"trial_n":22,"span":6,"encoder":"452279","distractor":"252279","target":"present","response":"present","rt":"2170","correct":true,"confidence":5},{"trial_n":23,"span":6,"encoder":"357719","distractor":"351719","target":"present","response":"present","rt":"2881.9999999999","correct":true,"confidence":3},{"trial_n":24,"span":7,"encoder":"6445471","distractor":"6445461","target":"present","response":"present","rt":"2777","correct":true,"confidence":5},{"trial_n":25,"span":7,"encoder":"3995486","distractor":"3990486","target":"absent","response":"absent","rt":"1801.0000000001","correct":true,"confidence":4},{"trial_n":26,"span":8,"encoder":"88315691","distractor":"88317691","target":"present","response":"present","rt":"15908","correct":true,"confidence":2},{"trial_n":27,"span":8,"encoder":"94660526","distractor":"94660026","target":"absent","response":"present","rt":"2350","correct":false,"confidence":2},{"trial_n":28,"span":7,"encoder":"3471749","distractor":"3491749","target":"present","response":"present","rt":"3181","correct":true,"confidence":3},{"trial_n":29,"span":7,"encoder":"4442788","distractor":"4342788","target":"absent","response":"absent","rt":"1529","correct":true,"confidence":5},{"trial_n":30,"span":8,"encoder":"32434755","distractor":"37434755","target":"absent","response":"absent","rt":"5593","correct":true,"confidence":2},{"trial_n":31,"span":8,"encoder":"13823786","distractor":"13823788","target":"present","response":"absent","rt":"11528","correct":false,"confidence":1},{"trial_n":32,"span":7,"encoder":"1879242","distractor":"1819242","target":"absent","response":"absent","rt":"1778","correct":true,"confidence":5},{"trial_n":33,"span":7,"encoder":"2064047","distractor":"2464047","target":"absent","response":"absent","rt":"1711.0000000001","correct":true,"confidence":5},{"trial_n":34,"span":8,"encoder":"71797309","distractor":"71799309","target":"absent","response":"present","rt":"2788","correct":false,"confidence":4},{"trial_n":35,"span":7,"encoder":"4903523","distractor":"4903543","target":"absent","response":"present","rt":"14311","correct":false,"confidence":3},{"trial_n":36,"span":6,"encoder":"523110","distractor":"523510","target":"absent","response":"absent","rt":"4181","correct":true,"confidence":2},{"trial_n":37,"span":6,"encoder":"922986","distractor":"922286","target":"present","response":"present","rt":"1945","correct":true,"confidence":5},{"trial_n":38,"span":7,"encoder":"8957930","distractor":"8957330","target":"present","response":"absent","rt":"10294","correct":false,"confidence":1},{"trial_n":39,"span":6,"encoder":"102035","distractor":"112035","target":"absent","response":"absent","rt":"1678","correct":true,"confidence":4},{"trial_n":40,"span":6,"encoder":"787138","distractor":"727138","target":"present","response":"absent","rt":"3007","correct":false,"confidence":2},{"trial_n":41,"span":5,"encoder":"31314","distractor":"11314","target":"present","response":"present","rt":"5792.0000000001","correct":true,"confidence":5},{"trial_n":42,"span":5,"encoder":"39561","distractor":"31561","target":"absent","response":"absent","rt":"1909.0000000001","correct":true,"confidence":3},{"trial_n":43,"span":6,"encoder":"509637","distractor":"509607","target":"absent","response":"absent","rt":"2548","correct":true,"confidence":4},{"trial_n":44,"span":6,"encoder":"306753","distractor":"306752","target":"absent","response":"present","rt":"4440","correct":false,"confidence":4},{"trial_n":45,"span":5,"encoder":"24478","distractor":"24578","target":"absent","response":"absent","rt":"1572","correct":true,"confidence":5},{"trial_n":46,"span":5,"encoder":"22316","distractor":"22216","target":"absent","response":"absent","rt":"1432","correct":true,"confidence":5},{"trial_n":47,"span":6,"encoder":"802183","distractor":"842183","target":"present","response":"present","rt":"1849","correct":true,"confidence":5},{"trial_n":48,"span":6,"encoder":"123658","distractor":"113658","target":"present","response":"absent","rt":"1431","correct":false,"confidence":3},{"trial_n":49,"span":5,"encoder":"38276","distractor":"37276","target":"present","response":"present","rt":"3126.9999999999","correct":true,"confidence":4},{"trial_n":50,"span":5,"encoder":"88005","distractor":"88075","target":"absent","response":"absent","rt":"1507","correct":true,"confidence":5},{"trial_n":51,"span":6,"encoder":"848936","distractor":"858936","target":"absent","response":"absent","rt":"1325.0000000001","correct":true,"confidence":5},{"trial_n":52,"span":6,"encoder":"050523","distractor":"050583","target":"absent","response":"absent","rt":"1789","correct":true,"confidence":5},{"trial_n":53,"span":7,"encoder":"3094500","distractor":"3004500","target":"present","response":"absent","rt":"2146","correct":false,"confidence":4},{"trial_n":54,"span":6,"encoder":"181426","distractor":"181421","target":"present","response":"present","rt":"3124","correct":true,"confidence":4},{"trial_n":55,"span":6,"encoder":"802193","distractor":"802195","target":"present","response":"present","rt":"2257","correct":true,"confidence":4},{"trial_n":56,"span":7,"encoder":"0871727","distractor":"0671727","target":"absent","response":"absent","rt":"2096","correct":true,"confidence":3},{"trial_n":57,"span":7,"encoder":"1135239","distractor":"0135239","target":"absent","response":"absent","rt":"1451","correct":true,"confidence":4},{"trial_n":58,"span":8,"encoder":"77642436","distractor":"87642436","target":"absent","response":"absent","rt":"2279","correct":true,"confidence":1},{"trial_n":59,"span":8,"encoder":"70782193","distractor":"50782193","target":"present","response":"absent","rt":"3780","correct":false,"confidence":1},{"trial_n":60,"span":7,"encoder":"2607416","distractor":"2606416","target":"present","response":"absent","rt":"7454","correct":false,"confidence":2},{"trial_n":61,"span":6,"encoder":"688786","distractor":"688886","target":"present","response":"present","rt":"1443","correct":true,"confidence":5},{"trial_n":62,"span":6,"encoder":"697817","distractor":"693817","target":"absent","response":"absent","rt":"1336.9999999999","correct":true,"confidence":5},{"trial_n":63,"span":7,"encoder":"5536725","distractor":"9536725","target":"present","response":"present","rt":"2114","correct":true,"confidence":2},{"trial_n":64,"span":7,"encoder":"0795458","distractor":"0795558","target":"present","response":"absent","rt":"2604","correct":false,"confidence":1},{"trial_n":65,"span":6,"encoder":"658738","distractor":"658768","target":"present","response":"present","rt":"1692","correct":true,"confidence":4},{"trial_n":66,"span":6,"encoder":"837441","distractor":"737441","target":"absent","response":"absent","rt":"1381.9999999999","correct":true,"confidence":5},{"trial_n":67,"span":7,"encoder":"4268382","distractor":"4268342","target":"present","response":"absent","rt":"3028.0000000001","correct":false,"confidence":4},{"trial_n":68,"span":6,"encoder":"049707","distractor":"046707","target":"present","response":"absent","rt":"9793","correct":false,"confidence":1},{"trial_n":69,"span":5,"encoder":"83704","distractor":"83404","target":"absent","response":"present","rt":"6168","correct":false,"confidence":4},{"trial_n":70,"span":4,"encoder":"7610","distractor":"7630","target":"present","response":"present","rt":"3920","correct":true,"confidence":2},{"trial_n":71,"span":8,"encoder":"49528330","distractor":"49528336","target":"present","response":"present","rt":"2512","correct":true,"confidence":-1},{"trial_n":72,"span":8,"encoder":"59824920","distractor":"59829920","target":"present","response":"present","rt":"44576","correct":true,"confidence":-1},{"trial_n":73,"span":9,"encoder":"600990655","distractor":"600990650","target":"absent","response":"absent","rt":"2000","correct":true,"confidence":-1},{"trial_n":74,"span":9,"encoder":"764645780","distractor":"767645780","target":"absent","response":"absent","rt":"3679","correct":true,"confidence":-1},{"trial_n":75,"span":10,"encoder":"9870067408","distractor":"9870267408","target":"present","response":"present","rt":"4461.9999999999","correct":true,"confidence":-1},{"trial_n":76,"span":10,"encoder":"5542385534","distractor":"5542385539","target":"present","response":"present","rt":"1864","correct":true,"confidence":-1},{"trial_n":77,"span":11,"encoder":"60917681317","distractor":"60917689317","target":"absent","response":"absent","rt":"9503.0000000001","correct":true,"confidence":-1},{"trial_n":78,"span":11,"encoder":"73555618862","distractor":"73555658862","target":"absent","response":"absent","rt":"38223","correct":true,"confidence":-1},{"trial_n":79,"span":12,"encoder":"743120814568","distractor":"743120814567","target":"present","response":"present","rt":"2713","correct":true,"confidence":-1},{"trial_n":80,"span":12,"encoder":"668803500543","distractor":"668103500543","target":"absent","response":"present","rt":"5755.9999999998","correct":false,"confidence":-1},{"trial_n":81,"span":11,"encoder":"64313589218","distractor":"64310589218","target":"present","response":"absent","rt":"10276","correct":false,"confidence":-1},{"trial_n":82,"span":10,"encoder":"2127121481","distractor":"2127121482","target":"present","response":"present","rt":"1993","correct":true,"confidence":-1},{"trial_n":83,"span":10,"encoder":"9720330772","distractor":"9720330792","target":"present","response":"absent","rt":"3056","correct":false,"confidence":-1},{"trial_n":84,"span":9,"encoder":"854832297","distractor":"754832297","target":"present","response":"present","rt":"23578","correct":true,"confidence":-1},{"trial_n":85,"span":9,"encoder":"701855837","distractor":"701825837","target":"absent","response":"present","rt":"4217","correct":false,"confidence":-1},{"trial_n":86,"span":8,"encoder":"48461437","distractor":"08461437","target":"present","response":"present","rt":"2383","correct":true,"confidence":-1},{"trial_n":87,"span":8,"encoder":"56625914","distractor":"55625914","target":"absent","response":"absent","rt":"3707","correct":true,"confidence":-1},{"trial_n":88,"span":9,"encoder":"793234892","distractor":"793234899","target":"present","response":"absent","rt":"3775.9999999998","correct":false,"confidence":-1},{"trial_n":89,"span":8,"encoder":"30529457","distractor":"30929457","target":"present","response":"present","rt":"3638","correct":true,"confidence":-1},{"trial_n":90,"span":8,"encoder":"88561272","distractor":"88569272","target":"absent","response":"present","rt":"28662","correct":false,"confidence":-1},{"trial_n":91,"span":7,"encoder":"0926197","distractor":"0946197","target":"absent","response":"absent","rt":"3453.9999999998","correct":true,"confidence":2},{"trial_n":92,"span":7,"encoder":"2261155","distractor":"2261115","target":"absent","response":"absent","rt":"7610","correct":true,"confidence":3},{"trial_n":93,"span":8,"encoder":"69774819","distractor":"69764819","target":"absent","response":"absent","rt":"4997","correct":true,"confidence":4},{"trial_n":94,"span":8,"encoder":"70261846","distractor":"74261846","target":"absent","response":"present","rt":"6406","correct":false,"confidence":3},{"trial_n":95,"span":7,"encoder":"6282080","distractor":"6282085","target":"absent","response":"absent","rt":"11283","correct":true,"confidence":1},{"trial_n":96,"span":7,"encoder":"5570632","distractor":"5770632","target":"present","response":"present","rt":"37716","correct":true,"confidence":1},{"trial_n":97,"span":8,"encoder":"21357684","distractor":"11357684","target":"present","response":"absent","rt":"56784","correct":false,"confidence":1},{"trial_n":98,"span":7,"encoder":"7608218","distractor":"7602218","target":"absent","response":"present","rt":"10151","correct":false,"confidence":1},{"trial_n":99,"span":6,"encoder":"593327","distractor":"593027","target":"present","response":"present","rt":"6866","correct":true,"confidence":1},{"trial_n":100,"span":6,"encoder":"969719","distractor":"989719","target":"present","response":"absent","rt":"2499","correct":false,"confidence":3},{"trial_n":101,"span":5,"encoder":"94959","distractor":"94950","target":"absent","response":"absent","rt":"2236","correct":true,"confidence":5},{"trial_n":102,"span":5,"encoder":"02680","distractor":"02880","target":"present","response":"present","rt":"2482","correct":true,"confidence":5},{"trial_n":103,"span":6,"encoder":"687993","distractor":"687093","target":"present","response":"present","rt":"4172","correct":true,"confidence":3},{"trial_n":104,"span":6,"encoder":"563465","distractor":"565465","target":"present","response":"present","rt":"3138","correct":true,"confidence":4},{"trial_n":105,"span":7,"encoder":"8405189","distractor":"8425189","target":"present","response":"absent","rt":"7111","correct":false,"confidence":3},{"trial_n":106,"span":6,"encoder":"897764","distractor":"897714","target":"present","response":"present","rt":"7331","correct":true,"confidence":2},{"trial_n":107,"span":6,"encoder":"386013","distractor":"386043","target":"absent","response":"present","rt":"9866","correct":false,"confidence":1},{"trial_n":108,"span":5,"encoder":"72894","distractor":"75894","target":"absent","response":"present","rt":"2230","correct":false,"confidence":5},{"trial_n":109,"span":4,"encoder":"7882","distractor":"7482","target":"present","response":"present","rt":"1967","correct":true,"confidence":5},{"trial_n":110,"span":4,"encoder":"3873","distractor":"3893","target":"absent","response":"present","rt":"25815","correct":false,"confidence":1},{"trial_n":111,"span":3,"encoder":"486","distractor":"446","target":"absent","response":"absent","rt":"1818","correct":true,"confidence":1},{"trial_n":112,"span":3,"encoder":"876","distractor":"875","target":"present","response":"present","rt":"1672","correct":true,"confidence":3},{"trial_n":113,"span":4,"encoder":"4804","distractor":"0804","target":"present","response":"present","rt":"2988","correct":true,"confidence":2},{"trial_n":114,"span":4,"encoder":"6517","distractor":"5517","target":"absent","response":"absent","rt":"909.99999999977","correct":true,"confidence":5},{"trial_n":115,"span":5,"encoder":"75927","distractor":"75929","target":"absent","response":"absent","rt":"2325","correct":true,"confidence":5},{"trial_n":116,"span":5,"encoder":"98279","distractor":"38279","target":"absent","response":"absent","rt":"942","correct":true,"confidence":5},{"trial_n":117,"span":6,"encoder":"726843","distractor":"726840","target":"present","response":"absent","rt":"4845","correct":false,"confidence":1},{"trial_n":118,"span":5,"encoder":"59133","distractor":"58133","target":"present","response":"absent","rt":"13564","correct":false,"confidence":1},{"trial_n":119,"span":4,"encoder":"2687","distractor":"2637","target":"absent","response":"absent","rt":"1488","correct":true,"confidence":5},{"trial_n":120,"span":4,"encoder":"8913","distractor":"8513","target":"absent","response":"absent","rt":"1094","correct":true,"confidence":5},{"trial_n":121,"span":5,"encoder":"11347","distractor":"71347","target":"present","response":"present","rt":"1927.9999999998","correct":true,"confidence":5},{"trial_n":122,"span":5,"encoder":"55749","distractor":"57749","target":"absent","response":"absent","rt":"1866","correct":true,"confidence":5},{"trial_n":123,"span":6,"encoder":"215160","distractor":"216160","target":"absent","response":"absent","rt":"4364","correct":true,"confidence":1},{"trial_n":124,"span":6,"encoder":"844645","distractor":"844145","target":"present","response":"absent","rt":"3289","correct":false,"confidence":3},{"trial_n":125,"span":5,"encoder":"41452","distractor":"41442","target":"present","response":"present","rt":"2399","correct":true,"confidence":3},{"trial_n":126,"span":5,"encoder":"08058","distractor":"38058","target":"present","response":"present","rt":"1757","correct":true,"confidence":5},{"trial_n":127,"span":6,"encoder":"573394","distractor":"573391","target":"absent","response":"absent","rt":"2663.0000000002","correct":true,"confidence":5},{"trial_n":128,"span":6,"encoder":"393117","distractor":"393111","target":"present","response":"present","rt":"1622","correct":true,"confidence":5},{"trial_n":129,"span":7,"encoder":"5522594","distractor":"5522584","target":"present","response":"present","rt":"5215","correct":true,"confidence":3},{"trial_n":130,"span":7,"encoder":"4100095","distractor":"9100095","target":"present","response":"present","rt":"2376","correct":true,"confidence":5},{"trial_n":131,"span":8,"encoder":"81584085","distractor":"83584085","target":"present","response":"present","rt":"1759","correct":true,"confidence":4},{"trial_n":132,"span":8,"encoder":"74305442","distractor":"74305242","target":"present","response":"present","rt":"4098","correct":true,"confidence":3},{"trial_n":133,"span":9,"encoder":"425839403","distractor":"425539403","target":"absent","response":"absent","rt":"3887","correct":true,"confidence":3},{"trial_n":134,"span":9,"encoder":"161524966","distractor":"161520966","target":"absent","response":"present","rt":"16207","correct":false,"confidence":1},{"trial_n":135,"span":8,"encoder":"58968289","distractor":"08968289","target":"absent","response":"present","rt":"6676","correct":false,"confidence":1},{"trial_n":136,"span":7,"encoder":"0037397","distractor":"0337397","target":"absent","response":"absent","rt":"2366","correct":true,"confidence":5},{"trial_n":137,"span":7,"encoder":"5122203","distractor":"5122293","target":"absent","response":"absent","rt":"4639.0000000002","correct":true,"confidence":1},{"trial_n":138,"span":8,"encoder":"78132631","distractor":"78632631","target":"absent","response":"absent","rt":"7146.9999999998","correct":true,"confidence":2},{"trial_n":139,"span":8,"encoder":"85714204","distractor":"85714704","target":"absent","response":"present","rt":"17096","correct":false,"confidence":1},{"trial_n":140,"span":7,"encoder":"6351885","distractor":"6351845","target":"present","response":"present","rt":"13588","correct":true,"confidence":1}]