[{"trial_n":1,"n_dots":4.25,"target":"right","response":"right","rt":1090,"correct":true,"confidence":-1},{"trial_n":2,"n_dots":4.25,"target":"left","response":"left","rt":681,"correct":true,"confidence":-1},{"trial_n":3,"n_dots":3.85,"target":"left","response":"left","rt":831,"correct":true,"confidence":-1},{"trial_n":4,"n_dots":3.85,"target":"left","response":"right","rt":601,"correct":false,"confidence":-1},{"trial_n":5,"n_dots":4.25,"target":"left","response":"left","rt":625,"correct":true,"confidence":-1},{"trial_n":6,"n_dots":4.25,"target":"left","response":"left","rt":684,"correct":true,"confidence":-1},{"trial_n":7,"n_dots":3.85,"target":"left","response":"right","rt":948,"correct":false,"confidence":-1},{"trial_n":8,"n_dots":4.05,"target":"left","response":"left","rt":581,"correct":true,"confidence":-1},{"trial_n":9,"n_dots":4.05,"target":"right","response":"left","rt":749,"correct":false,"confidence":-1},{"trial_n":10,"n_dots":4.25,"target":"right","response":"right","rt":647,"correct":true,"confidence":-1},{"trial_n":11,"n_dots":4.25,"target":"right","response":"left","rt":615,"correct":false,"confidence":-1},{"trial_n":12,"n_dots":4.45,"target":"left","response":"left","rt":501,"correct":true,"confidence":-1},{"trial_n":13,"n_dots":4.45,"target":"left","response":"right","rt":1117,"correct":false,"confidence":-1},{"trial_n":14,"n_dots":4.55,"target":"right","response":"right","rt":749,"correct":true,"confidence":-1},{"trial_n":15,"n_dots":4.55,"target":"right","response":"left","rt":683,"correct":false,"confidence":-1},{"trial_n":16,"n_dots":4.65,"target":"right","response":"right","rt":530,"correct":true,"confidence":-1},{"trial_n":17,"n_dots":4.65,"target":"left","response":"left","rt":744,"correct":true,"confidence":-1},{"trial_n":18,"n_dots":4.55,"target":"right","response":"right","rt":567,"correct":true,"confidence":-1},{"trial_n":19,"n_dots":4.55,"target":"right","response":"right","rt":766.00000000001,"correct":true,"confidence":-1},{"trial_n":20,"n_dots":4.45,"target":"left","response":"left","rt":483.00000000001,"correct":true,"confidence":-1},{"trial_n":21,"n_dots":4.45,"target":"left","response":"left","rt":583,"correct":true,"confidence":3},{"trial_n":22,"n_dots":4.35,"target":"left","response":"left","rt":634.99999999999,"correct":true,"confidence":3},{"trial_n":23,"n_dots":4.35,"target":"left","response":"left","rt":774.00000000001,"correct":true,"confidence":3},{"trial_n":24,"n_dots":4.25,"target":"left","response":"left","rt":740,"correct":true,"confidence":3},{"trial_n":25,"n_dots":4.25,"target":"right","response":"right","rt":391,"correct":true,"confidence":4},{"trial_n":26,"n_dots":4.15,"target":"left","response":"left","rt":685,"correct":true,"confidence":4},{"trial_n":27,"n_dots":4.15,"target":"left","response":"left","rt":956,"correct":true,"confidence":4},{"trial_n":28,"n_dots":4.05,"target":"left","response":"right","rt":953,"correct":false,"confidence":3},{"trial_n":29,"n_dots":4.15,"target":"left","response":"right","rt":806,"correct":false,"confidence":3},{"trial_n":30,"n_dots":4.25,"target":"left","response":"left","rt":753,"correct":true,"confidence":4},{"trial_n":31,"n_dots":4.25,"target":"left","response":"left","rt":534,"correct":true,"confidence":4},{"trial_n":32,"n_dots":4.15,"target":"right","response":"left","rt":853,"correct":false,"confidence":4},{"trial_n":33,"n_dots":4.25,"target":"right","response":"right","rt":570,"correct":true,"confidence":3},{"trial_n":34,"n_dots":4.25,"target":"right","response":"left","rt":800,"correct":false,"confidence":3},{"trial_n":35,"n_dots":4.35,"target":"left","response":"left","rt":487,"correct":true,"confidence":4},{"trial_n":36,"n_dots":4.35,"target":"left","response":"left","rt":552.99999999997,"correct":true,"confidence":4},{"trial_n":37,"n_dots":4.25,"target":"right","response":"left","rt":870.99999999997,"correct":false,"confidence":4},{"trial_n":38,"n_dots":4.35,"target":"left","response":"left","rt":504.00000000003,"correct":true,"confidence":3},{"trial_n":39,"n_dots":4.35,"target":"right","response":"left","rt":808,"correct":false,"confidence":4},{"trial_n":40,"n_dots":4.45,"target":"left","response":"left","rt":506,"correct":true,"confidence":3},{"trial_n":41,"n_dots":4.45,"target":"left","response":"left","rt":221,"correct":true,"confidence":4},{"trial_n":42,"n_dots":4.35,"target":"right","response":"right","rt":620,"correct":true,"confidence":3},{"trial_n":43,"n_dots":4.35,"target":"right","response":"right","rt":590,"correct":true,"confidence":4},{"trial_n":44,"n_dots":4.25,"target":"left","response":"left","rt":523,"correct":true,"confidence":3},{"trial_n":45,"n_dots":4.25,"target":"right","response":"right","rt":195,"correct":true,"confidence":3},{"trial_n":46,"n_dots":4.15,"target":"right","response":"right","rt":992,"correct":true,"confidence":3},{"trial_n":47,"n_dots":4.15,"target":"left","response":"left","rt":591.99999999997,"correct":true,"confidence":4},{"trial_n":48,"n_dots":4.05,"target":"left","response":"left","rt":490.99999999997,"correct":true,"confidence":4},{"trial_n":49,"n_dots":4.05,"target":"right","response":"right","rt":573,"correct":true,"confidence":3},{"trial_n":50,"n_dots":3.95,"target":"right","response":"left","rt":577,"correct":false,"confidence":4},{"trial_n":51,"n_dots":4.05,"target":"right","response":"right","rt":824.99999999997,"correct":true,"confidence":3},{"trial_n":52,"n_dots":4.05,"target":"left","response":"left","rt":593,"correct":true,"confidence":4},{"trial_n":53,"n_dots":3.95,"target":"left","response":"left","rt":860,"correct":true,"confidence":3},{"trial_n":54,"n_dots":3.95,"target":"right","response":"right","rt":1342,"correct":true,"confidence":3},{"trial_n":55,"n_dots":3.85,"target":"right","response":"right","rt":645,"correct":true,"confidence":4},{"trial_n":56,"n_dots":3.85,"target":"right","response":"left","rt":843,"correct":false,"confidence":3},{"trial_n":57,"n_dots":3.95,"target":"left","response":"left","rt":514,"correct":true,"confidence":3},{"trial_n":58,"n_dots":3.95,"target":"right","response":"right","rt":480,"correct":true,"confidence":4},{"trial_n":59,"n_dots":3.85,"target":"left","response":"left","rt":513.99999999994,"correct":true,"confidence":3},{"trial_n":60,"n_dots":3.85,"target":"right","response":"right","rt":497,"correct":true,"confidence":4},{"trial_n":61,"n_dots":3.75,"target":"left","response":"left","rt":578,"correct":true,"confidence":4},{"trial_n":62,"n_dots":3.75,"target":"left","response":"left","rt":463,"correct":true,"confidence":4},{"trial_n":63,"n_dots":3.65,"target":"right","response":"right","rt":743,"correct":true,"confidence":3},{"trial_n":64,"n_dots":3.65,"target":"right","response":"left","rt":1164,"correct":false,"confidence":3},{"trial_n":65,"n_dots":3.75,"target":"right","response":"right","rt":211.99999999994,"correct":true,"confidence":4},{"trial_n":66,"n_dots":3.75,"target":"left","response":"left","rt":1247,"correct":true,"confidence":3},{"trial_n":67,"n_dots":3.65,"target":"right","response":"left","rt":883,"correct":false,"confidence":3},{"trial_n":68,"n_dots":3.75,"target":"left","response":"left","rt":1164,"correct":true,"confidence":3},{"trial_n":69,"n_dots":3.75,"target":"right","response":"right","rt":558.99999999994,"correct":true,"confidence":4},{"trial_n":70,"n_dots":3.65,"target":"right","response":"left","rt":1149,"correct":false,"confidence":3},{"trial_n":71,"n_dots":3.75,"target":"left","response":"right","rt":2431,"correct":false,"confidence":3},{"trial_n":72,"n_dots":3.85,"target":"right","response":"left","rt":965.00000000006,"correct":false,"confidence":3},{"trial_n":73,"n_dots":3.95,"target":"right","response":"right","rt":467,"correct":true,"confidence":4},{"trial_n":74,"n_dots":3.95,"target":"left","response":"right","rt":1133,"correct":false,"confidence":3},{"trial_n":75,"n_dots":4.05,"target":"right","response":"right","rt":644,"correct":true,"confidence":4},{"trial_n":76,"n_dots":4.05,"target":"right","response":"right","rt":842.99999999994,"correct":true,"confidence":4},{"trial_n":77,"n_dots":3.95,"target":"left","response":"left","rt":751,"correct":true,"confidence":4},{"trial_n":78,"n_dots":3.95,"target":"right","response":"right","rt":633,"correct":true,"confidence":4},{"trial_n":79,"n_dots":3.85,"target":"right","response":"right","rt":1013,"correct":true,"confidence":4},{"trial_n":80,"n_dots":3.85,"target":"right","response":"right","rt":979,"correct":true,"confidence":4},{"trial_n":81,"n_dots":3.75,"target":"left","response":"left","rt":509.99999999988,"correct":true,"confidence":3},{"trial_n":82,"n_dots":3.75,"target":"right","response":"right","rt":158,"correct":true,"confidence":3},{"trial_n":83,"n_dots":3.65,"target":"right","response":"right","rt":648.00000000012,"correct":true,"confidence":3},{"trial_n":84,"n_dots":3.65,"target":"left","response":"left","rt":379,"correct":true,"confidence":3},{"trial_n":85,"n_dots":3.55,"target":"right","response":"left","rt":732,"correct":false,"confidence":3},{"trial_n":86,"n_dots":3.65,"target":"left","response":"right","rt":485,"correct":false,"confidence":3},{"trial_n":87,"n_dots":3.75,"target":"right","response":"right","rt":705,"correct":true,"confidence":3},{"trial_n":88,"n_dots":3.75,"target":"right","response":"left","rt":466,"correct":false,"confidence":3},{"trial_n":89,"n_dots":3.85,"target":"right","response":"right","rt":620.99999999988,"correct":true,"confidence":3},{"trial_n":90,"n_dots":3.85,"target":"right","response":"right","rt":518,"correct":true,"confidence":3},{"trial_n":91,"n_dots":3.75,"target":"left","response":"left","rt":1236,"correct":true,"confidence":3},{"trial_n":92,"n_dots":3.75,"target":"right","response":"right","rt":622,"correct":true,"confidence":3},{"trial_n":93,"n_dots":3.65,"target":"left","response":"left","rt":1285,"correct":true,"confidence":3},{"trial_n":94,"n_dots":3.65,"target":"left","response":"left","rt":1088.0000000002,"correct":true,"confidence":3},{"trial_n":95,"n_dots":3.55,"target":"left","response":"right","rt":259,"correct":false,"confidence":3},{"trial_n":96,"n_dots":3.65,"target":"left","response":"right","rt":2720,"correct":false,"confidence":3},{"trial_n":97,"n_dots":3.75,"target":"left","response":"left","rt":11556,"correct":true,"confidence":3},{"trial_n":98,"n_dots":3.75,"target":"right","response":"right","rt":541,"correct":true,"confidence":4},{"trial_n":99,"n_dots":3.65,"target":"right","response":"right","rt":324,"correct":true,"confidence":3},{"trial_n":100,"n_dots":3.65,"target":"left","response":"left","rt":590,"correct":true,"confidence":3},{"trial_n":101,"n_dots":3.55,"target":"left","response":"left","rt":657,"correct":true,"confidence":3},{"trial_n":102,"n_dots":3.55,"target":"left","response":"left","rt":695,"correct":true,"confidence":3},{"trial_n":103,"n_dots":3.45,"target":"right","response":"right","rt":375,"correct":true,"confidence":3},{"trial_n":104,"n_dots":3.45,"target":"right","response":"right","rt":622,"correct":true,"confidence":3},{"trial_n":105,"n_dots":3.35,"target":"right","response":"right","rt":519,"correct":true,"confidence":3},{"trial_n":106,"n_dots":3.35,"target":"right","response":"right","rt":1176.9999999998,"correct":true,"confidence":3},{"trial_n":107,"n_dots":3.25,"target":"right","response":"right","rt":492,"correct":true,"confidence":3},{"trial_n":108,"n_dots":3.25,"target":"left","response":"left","rt":1176,"correct":true,"confidence":3},{"trial_n":109,"n_dots":3.15,"target":"left","response":"left","rt":577,"correct":true,"confidence":3},{"trial_n":110,"n_dots":3.15,"target":"right","response":"right","rt":1062,"correct":true,"confidence":3},{"trial_n":111,"n_dots":3.05,"target":"right","response":"left","rt":544,"correct":false,"confidence":3},{"trial_n":112,"n_dots":3.15,"target":"left","response":"left","rt":639,"correct":true,"confidence":3},{"trial_n":113,"n_dots":3.15,"target":"left","response":"left","rt":659,"correct":true,"confidence":3},{"trial_n":114,"n_dots":3.05,"target":"right","response":"left","rt":661,"correct":false,"confidence":3},{"trial_n":115,"n_dots":3.15,"target":"right","response":"right","rt":827,"correct":true,"confidence":3},{"trial_n":116,"n_dots":3.15,"target":"left","response":"right","rt":759,"correct":false,"confidence":3},{"trial_n":117,"n_dots":3.25,"target":"left","response":"left","rt":855,"correct":true,"confidence":3},{"trial_n":118,"n_dots":3.25,"target":"right","response":"right","rt":428,"correct":true,"confidence":3},{"trial_n":119,"n_dots":3.15,"target":"left","response":"left","rt":614,"correct":true,"confidence":3},{"trial_n":120,"n_dots":3.15,"target":"left","response":"left","rt":715,"correct":true,"confidence":3}]