[{"trial_n":1,"min":25,"max":230,"target":"present","response":"present","rt":2390.599999994,"correct":true,"confidence":-1},{"trial_n":2,"min":25,"max":230,"target":"present","response":"present","rt":1117.900000006,"correct":true,"confidence":-1},{"trial_n":3,"min":41,"max":214,"target":"absent","response":"absent","rt":770.5,"correct":true,"confidence":-1},{"trial_n":4,"min":41,"max":214,"target":"absent","response":"absent","rt":836,"correct":true,"confidence":-1},{"trial_n":5,"min":57,"max":198,"target":"present","response":"present","rt":690,"correct":true,"confidence":-1},{"trial_n":6,"min":57,"max":198,"target":"absent","response":"absent","rt":643.80000001192,"correct":true,"confidence":-1},{"trial_n":7,"min":73,"max":182,"target":"present","response":"present","rt":519,"correct":true,"confidence":-1},{"trial_n":8,"min":73,"max":182,"target":"absent","response":"absent","rt":573.60000002384,"correct":true,"confidence":-1},{"trial_n":9,"min":89,"max":166,"target":"present","response":"absent","rt":523.90000000596,"correct":false,"confidence":-1},{"trial_n":10,"min":73,"max":182,"target":"present","response":"present","rt":588.90000000596,"correct":true,"confidence":-1},{"trial_n":11,"min":73,"max":182,"target":"present","response":"present","rt":537.79999998212,"correct":true,"confidence":-1},{"trial_n":12,"min":81,"max":174,"target":"absent","response":"absent","rt":706,"correct":true,"confidence":-1},{"trial_n":13,"min":81,"max":174,"target":"present","response":"present","rt":684.30000001192,"correct":true,"confidence":-1},{"trial_n":14,"min":89,"max":166,"target":"absent","response":"absent","rt":701.40000000596,"correct":true,"confidence":-1},{"trial_n":15,"min":89,"max":166,"target":"absent","response":"absent","rt":1029.3000000119,"correct":true,"confidence":-1},{"trial_n":16,"min":97,"max":158,"target":"present","response":"present","rt":674.5,"correct":true,"confidence":-1},{"trial_n":17,"min":97,"max":158,"target":"absent","response":"absent","rt":585.19999998808,"correct":true,"confidence":-1},{"trial_n":18,"min":105,"max":150,"target":"absent","response":"absent","rt":662.59999999404,"correct":true,"confidence":-1},{"trial_n":19,"min":105,"max":150,"target":"absent","response":"absent","rt":660.09999999404,"correct":true,"confidence":-1},{"trial_n":20,"min":113,"max":142,"target":"absent","response":"absent","rt":495.09999999404,"correct":true,"confidence":-1},{"trial_n":21,"min":113,"max":142,"target":"absent","response":"absent","rt":575.90000000596,"correct":true,"confidence":4},{"trial_n":22,"min":117,"max":138,"target":"present","response":"absent","rt":1120.2000000179,"correct":false,"confidence":4},{"trial_n":23,"min":113,"max":142,"target":"present","response":"absent","rt":1295,"correct":false,"confidence":3},{"trial_n":24,"min":109,"max":146,"target":"absent","response":"absent","rt":752,"correct":true,"confidence":4},{"trial_n":25,"min":109,"max":146,"target":"absent","response":"absent","rt":642.90000000596,"correct":true,"confidence":3},{"trial_n":26,"min":113,"max":142,"target":"present","response":"absent","rt":763.19999998808,"correct":false,"confidence":3},{"trial_n":27,"min":109,"max":146,"target":"present","response":"absent","rt":622.09999999404,"correct":false,"confidence":4},{"trial_n":28,"min":105,"max":150,"target":"absent","response":"absent","rt":760.5,"correct":true,"confidence":4},{"trial_n":29,"min":105,"max":150,"target":"absent","response":"absent","rt":1063.2999999821,"correct":true,"confidence":2},{"trial_n":30,"min":109,"max":146,"target":"present","response":"absent","rt":450.80000001192,"correct":false,"confidence":4},{"trial_n":31,"min":107,"max":148,"target":"absent","response":"absent","rt":694.80000001192,"correct":true,"confidence":3},{"trial_n":32,"min":107,"max":148,"target":"absent","response":"absent","rt":881,"correct":true,"confidence":3},{"trial_n":33,"min":109,"max":146,"target":"present","response":"absent","rt":796.19999998808,"correct":false,"confidence":3},{"trial_n":34,"min":107,"max":148,"target":"absent","response":"absent","rt":511.20000001788,"correct":true,"confidence":3},{"trial_n":35,"min":107,"max":148,"target":"present","response":"absent","rt":657.59999999404,"correct":false,"confidence":3},{"trial_n":36,"min":105,"max":150,"target":"present","response":"absent","rt":515.10000002384,"correct":false,"confidence":3},{"trial_n":37,"min":103,"max":152,"target":"absent","response":"absent","rt":1026.8000000119,"correct":true,"confidence":4},{"trial_n":38,"min":103,"max":152,"target":"present","response":"absent","rt":1601.8000000119,"correct":false,"confidence":4},{"trial_n":39,"min":101,"max":154,"target":"present","response":"absent","rt":760.89999997616,"correct":false,"confidence":4},{"trial_n":40,"min":99,"max":156,"target":"present","response":"absent","rt":635.90000000596,"correct":false,"confidence":4},{"trial_n":41,"min":98,"max":157,"target":"present","response":"absent","rt":524.5,"correct":false,"confidence":4},{"trial_n":42,"min":97,"max":158,"target":"present","response":"absent","rt":423.39999997616,"correct":false,"confidence":4},{"trial_n":43,"min":96,"max":159,"target":"present","response":"absent","rt":604,"correct":false,"confidence":1},{"trial_n":44,"min":95,"max":160,"target":"present","response":"absent","rt":554.29999998212,"correct":false,"confidence":5},{"trial_n":45,"min":94,"max":161,"target":"absent","response":"absent","rt":416.90000000596,"correct":true,"confidence":5},{"trial_n":46,"min":94,"max":161,"target":"absent","response":"absent","rt":417.19999998808,"correct":true,"confidence":5},{"trial_n":47,"min":95,"max":160,"target":"absent","response":"absent","rt":456.5,"correct":true,"confidence":5},{"trial_n":48,"min":95,"max":160,"target":"present","response":"absent","rt":1520.5,"correct":false,"confidence":2},{"trial_n":49,"min":94,"max":161,"target":"present","response":"present","rt":1449.7999999821,"correct":true,"confidence":2},{"trial_n":50,"min":94,"max":161,"target":"absent","response":"absent","rt":472.90000000596,"correct":true,"confidence":5},{"trial_n":51,"min":95,"max":160,"target":"absent","response":"absent","rt":536.39999997616,"correct":true,"confidence":3},{"trial_n":52,"min":95,"max":160,"target":"present","response":"absent","rt":740.89999997616,"correct":false,"confidence":3},{"trial_n":53,"min":94,"max":161,"target":"present","response":"absent","rt":668.40000000596,"correct":false,"confidence":3},{"trial_n":54,"min":93,"max":162,"target":"absent","response":"present","rt":1937.099999994,"correct":false,"confidence":1},{"trial_n":55,"min":92,"max":163,"target":"present","response":"absent","rt":1081.7000000179,"correct":false,"confidence":3},{"trial_n":56,"min":91,"max":164,"target":"absent","response":"absent","rt":748.5,"correct":true,"confidence":3},{"trial_n":57,"min":91,"max":164,"target":"absent","response":"absent","rt":667.40000000596,"correct":true,"confidence":4},{"trial_n":58,"min":92,"max":163,"target":"absent","response":"absent","rt":763.90000000596,"correct":true,"confidence":4},{"trial_n":59,"min":92,"max":163,"target":"absent","response":"absent","rt":572.60000002384,"correct":true,"confidence":4},{"trial_n":60,"min":93,"max":162,"target":"absent","response":"absent","rt":955.19999998808,"correct":true,"confidence":4},{"trial_n":61,"min":93,"max":162,"target":"present","response":"absent","rt":517.29999998212,"correct":false,"confidence":4},{"trial_n":62,"min":92,"max":163,"target":"present","response":"absent","rt":2116.599999994,"correct":false,"confidence":2},{"trial_n":63,"min":91,"max":164,"target":"present","response":"absent","rt":949.70000001788,"correct":false,"confidence":2},{"trial_n":64,"min":90,"max":165,"target":"absent","response":"absent","rt":648.5,"correct":true,"confidence":4},{"trial_n":65,"min":90,"max":165,"target":"present","response":"present","rt":868.69999998808,"correct":true,"confidence":3},{"trial_n":66,"min":91,"max":164,"target":"present","response":"absent","rt":576.59999999404,"correct":false,"confidence":3},{"trial_n":67,"min":90,"max":165,"target":"present","response":"absent","rt":610.69999998808,"correct":false,"confidence":2},{"trial_n":68,"min":89,"max":166,"target":"present","response":"absent","rt":2377.099999994,"correct":false,"confidence":3},{"trial_n":69,"min":88,"max":167,"target":"absent","response":"present","rt":1130.900000006,"correct":false,"confidence":2},{"trial_n":70,"min":87,"max":168,"target":"absent","response":"absent","rt":543.09999999404,"correct":true,"confidence":3},{"trial_n":71,"min":41,"max":214,"target":"present","response":"present","rt":1241.2000000179,"correct":true,"confidence":-1},{"trial_n":72,"min":41,"max":214,"target":"present","response":"present","rt":2421.8000000119,"correct":true,"confidence":-1},{"trial_n":73,"min":57,"max":198,"target":"absent","response":"absent","rt":480.90000000596,"correct":true,"confidence":-1},{"trial_n":74,"min":57,"max":198,"target":"absent","response":"absent","rt":931.70000001788,"correct":true,"confidence":-1},{"trial_n":75,"min":73,"max":182,"target":"present","response":"present","rt":997.60000002384,"correct":true,"confidence":-1},{"trial_n":76,"min":73,"max":182,"target":"absent","response":"absent","rt":552,"correct":true,"confidence":-1},{"trial_n":77,"min":89,"max":166,"target":"absent","response":"absent","rt":1253.7000000179,"correct":true,"confidence":-1},{"trial_n":78,"min":89,"max":166,"target":"present","response":"present","rt":1018.8000000119,"correct":true,"confidence":-1},{"trial_n":79,"min":105,"max":150,"target":"absent","response":"present","rt":1557.2000000179,"correct":false,"confidence":-1},{"trial_n":80,"min":89,"max":166,"target":"absent","response":"absent","rt":1074.400000006,"correct":true,"confidence":-1},{"trial_n":81,"min":89,"max":166,"target":"present","response":"present","rt":934.40000000596,"correct":true,"confidence":-1},{"trial_n":82,"min":97,"max":158,"target":"absent","response":"absent","rt":2086.8000000119,"correct":true,"confidence":-1},{"trial_n":83,"min":97,"max":158,"target":"absent","response":"absent","rt":1770.8000000119,"correct":true,"confidence":-1},{"trial_n":84,"min":105,"max":150,"target":"present","response":"absent","rt":3252.400000006,"correct":false,"confidence":-1},{"trial_n":85,"min":97,"max":158,"target":"absent","response":"present","rt":696.09999999404,"correct":false,"confidence":-1},{"trial_n":86,"min":89,"max":166,"target":"present","response":"present","rt":988.09999999404,"correct":true,"confidence":-1},{"trial_n":87,"min":89,"max":166,"target":"present","response":"present","rt":672.80000001192,"correct":true,"confidence":-1},{"trial_n":88,"min":97,"max":158,"target":"absent","response":"present","rt":1015.2999999821,"correct":false,"confidence":-1},{"trial_n":89,"min":89,"max":166,"target":"present","response":"present","rt":1372.5,"correct":true,"confidence":-1},{"trial_n":90,"min":89,"max":166,"target":"present","response":"present","rt":838.70000001788,"correct":true,"confidence":-1},{"trial_n":91,"min":93,"max":162,"target":"present","response":"present","rt":1926,"correct":true,"confidence":3},{"trial_n":92,"min":93,"max":162,"target":"absent","response":"present","rt":1242,"correct":false,"confidence":3},{"trial_n":93,"min":89,"max":166,"target":"absent","response":"present","rt":2622.400000006,"correct":false,"confidence":2},{"trial_n":94,"min":85,"max":170,"target":"present","response":"present","rt":740.09999999404,"correct":true,"confidence":4},{"trial_n":95,"min":85,"max":170,"target":"absent","response":"present","rt":4742.599999994,"correct":false,"confidence":3},{"trial_n":96,"min":81,"max":174,"target":"absent","response":"present","rt":1545,"correct":false,"confidence":3},{"trial_n":97,"min":77,"max":178,"target":"absent","response":"absent","rt":1048.6000000238,"correct":true,"confidence":3},{"trial_n":98,"min":77,"max":178,"target":"present","response":"present","rt":578.69999998808,"correct":true,"confidence":5},{"trial_n":99,"min":81,"max":174,"target":"absent","response":"present","rt":5942.400000006,"correct":false,"confidence":1},{"trial_n":100,"min":77,"max":178,"target":"present","response":"present","rt":493.90000000596,"correct":true,"confidence":5},{"trial_n":101,"min":77,"max":178,"target":"absent","response":"absent","rt":3172.2999999821,"correct":true,"confidence":2},{"trial_n":102,"min":79,"max":176,"target":"present","response":"present","rt":572.59999999404,"correct":true,"confidence":4},{"trial_n":103,"min":79,"max":176,"target":"present","response":"present","rt":434.10000002384,"correct":true,"confidence":5},{"trial_n":104,"min":81,"max":174,"target":"present","response":"present","rt":941.40000000596,"correct":true,"confidence":3},{"trial_n":105,"min":81,"max":174,"target":"present","response":"present","rt":654.30000001192,"correct":true,"confidence":4},{"trial_n":106,"min":83,"max":172,"target":"absent","response":"absent","rt":841.30000001192,"correct":true,"confidence":4},{"trial_n":107,"min":83,"max":172,"target":"present","response":"present","rt":2005.8000000119,"correct":true,"confidence":4},{"trial_n":108,"min":85,"max":170,"target":"absent","response":"present","rt":1466.3999999762,"correct":false,"confidence":1},{"trial_n":109,"min":83,"max":172,"target":"absent","response":"absent","rt":1047.5,"correct":true,"confidence":4},{"trial_n":110,"min":83,"max":172,"target":"absent","response":"present","rt":1478.8000000119,"correct":false,"confidence":2},{"trial_n":111,"min":82,"max":173,"target":"present","response":"present","rt":683.09999999404,"correct":true,"confidence":3},{"trial_n":112,"min":82,"max":173,"target":"absent","response":"absent","rt":1295.599999994,"correct":true,"confidence":3},{"trial_n":113,"min":83,"max":172,"target":"present","response":"present","rt":792.30000001192,"correct":true,"confidence":4},{"trial_n":114,"min":83,"max":172,"target":"absent","response":"absent","rt":759.20000001788,"correct":true,"confidence":3},{"trial_n":115,"min":84,"max":171,"target":"absent","response":"absent","rt":1868.099999994,"correct":true,"confidence":2},{"trial_n":116,"min":84,"max":171,"target":"present","response":"present","rt":735.80000001192,"correct":true,"confidence":3},{"trial_n":117,"min":85,"max":170,"target":"absent","response":"absent","rt":1549.099999994,"correct":true,"confidence":2},{"trial_n":118,"min":85,"max":170,"target":"absent","response":"absent","rt":1510,"correct":true,"confidence":3},{"trial_n":119,"min":86,"max":169,"target":"present","response":"present","rt":3047.5,"correct":true,"confidence":1},{"trial_n":120,"min":86,"max":169,"target":"present","response":"present","rt":737.5,"correct":true,"confidence":3},{"trial_n":121,"min":87,"max":168,"target":"absent","response":"absent","rt":1379,"correct":true,"confidence":1},{"trial_n":122,"min":87,"max":168,"target":"present","response":"present","rt":877,"correct":true,"confidence":4},{"trial_n":123,"min":88,"max":167,"target":"absent","response":"present","rt":1981,"correct":false,"confidence":2},{"trial_n":124,"min":87,"max":168,"target":"absent","response":"absent","rt":3002,"correct":true,"confidence":2},{"trial_n":125,"min":87,"max":168,"target":"absent","response":"present","rt":1583.6000000238,"correct":false,"confidence":2},{"trial_n":126,"min":86,"max":169,"target":"present","response":"present","rt":845.5,"correct":true,"confidence":3},{"trial_n":127,"min":86,"max":169,"target":"absent","response":"present","rt":960.90000000596,"correct":false,"confidence":2},{"trial_n":128,"min":85,"max":170,"target":"present","response":"present","rt":1331.7000000179,"correct":true,"confidence":3},{"trial_n":129,"min":85,"max":170,"target":"present","response":"present","rt":789.5,"correct":true,"confidence":2},{"trial_n":130,"min":86,"max":169,"target":"present","response":"present","rt":1839,"correct":true,"confidence":3},{"trial_n":131,"min":86,"max":169,"target":"present","response":"present","rt":883.19999998808,"correct":true,"confidence":4},{"trial_n":132,"min":87,"max":168,"target":"present","response":"present","rt":917,"correct":true,"confidence":3},{"trial_n":133,"min":87,"max":168,"target":"present","response":"present","rt":846.19999998808,"correct":true,"confidence":3},{"trial_n":134,"min":88,"max":167,"target":"present","response":"present","rt":678,"correct":true,"confidence":4},{"trial_n":135,"min":88,"max":167,"target":"absent","response":"present","rt":1723.8000000119,"correct":false,"confidence":2},{"trial_n":136,"min":87,"max":168,"target":"present","response":"present","rt":701.89999997616,"correct":true,"confidence":1},{"trial_n":137,"min":87,"max":168,"target":"absent","response":"absent","rt":893.59999999404,"correct":true,"confidence":4},{"trial_n":138,"min":88,"max":167,"target":"absent","response":"present","rt":1868.2999999821,"correct":false,"confidence":2},{"trial_n":139,"min":87,"max":168,"target":"present","response":"present","rt":512.19999998808,"correct":true,"confidence":4},{"trial_n":140,"min":87,"max":168,"target":"present","response":"present","rt":750.30000001192,"correct":true,"confidence":4}]