[{"trial_n":1,"n_dots":4.25,"target":"right","response":"left","rt":12356.5,"correct":false,"confidence":-1},{"trial_n":2,"n_dots":4.25,"target":"left","response":"left","rt":1370.400000006,"correct":true,"confidence":-1},{"trial_n":3,"n_dots":4.25,"target":"right","response":"right","rt":1250,"correct":true,"confidence":-1},{"trial_n":4,"n_dots":3.85,"target":"right","response":"right","rt":1486.599999994,"correct":true,"confidence":-1},{"trial_n":5,"n_dots":3.85,"target":"right","response":"right","rt":1775.5,"correct":true,"confidence":-1},{"trial_n":6,"n_dots":3.45,"target":"left","response":"left","rt":1218.400000006,"correct":true,"confidence":-1},{"trial_n":7,"n_dots":3.45,"target":"left","response":"left","rt":1294.400000006,"correct":true,"confidence":-1},{"trial_n":8,"n_dots":3.25,"target":"right","response":"left","rt":1737.799999997,"correct":false,"confidence":-1},{"trial_n":9,"n_dots":3.45,"target":"right","response":"right","rt":2118.3999999911,"correct":true,"confidence":-1},{"trial_n":10,"n_dots":3.45,"target":"left","response":"left","rt":1586.900000006,"correct":true,"confidence":-1},{"trial_n":11,"n_dots":3.25,"target":"left","response":"left","rt":1376.1999999881,"correct":true,"confidence":-1},{"trial_n":12,"n_dots":3.25,"target":"right","response":"left","rt":1526.200000003,"correct":false,"confidence":-1},{"trial_n":13,"n_dots":3.35,"target":"left","response":"right","rt":1078.200000003,"correct":false,"confidence":-1},{"trial_n":14,"n_dots":3.45,"target":"right","response":"left","rt":2297.5,"correct":false,"confidence":-1},{"trial_n":15,"n_dots":3.55,"target":"left","response":"right","rt":1386.099999994,"correct":false,"confidence":-1},{"trial_n":16,"n_dots":3.65,"target":"left","response":"right","rt":2015.3000000119,"correct":false,"confidence":-1},{"trial_n":17,"n_dots":3.75,"target":"right","response":"left","rt":1268,"correct":false,"confidence":-1},{"trial_n":18,"n_dots":3.85,"target":"right","response":"right","rt":780.79999999702,"correct":true,"confidence":-1},{"trial_n":19,"n_dots":3.85,"target":"left","response":"left","rt":765,"correct":true,"confidence":-1},{"trial_n":20,"n_dots":3.75,"target":"left","response":"left","rt":565.5,"correct":true,"confidence":-1},{"trial_n":21,"n_dots":3.75,"target":"left","response":"left","rt":1065,"correct":true,"confidence":5},{"trial_n":22,"n_dots":3.65,"target":"right","response":"right","rt":2274.200000003,"correct":true,"confidence":3},{"trial_n":23,"n_dots":3.65,"target":"right","response":"right","rt":1734.299999997,"correct":true,"confidence":3},{"trial_n":24,"n_dots":3.55,"target":"right","response":"right","rt":1500.900000006,"correct":true,"confidence":4},{"trial_n":25,"n_dots":3.55,"target":"left","response":"right","rt":1753,"correct":false,"confidence":4},{"trial_n":26,"n_dots":3.65,"target":"left","response":"left","rt":935.40000000596,"correct":true,"confidence":4},{"trial_n":27,"n_dots":3.65,"target":"left","response":"left","rt":800.70000000298,"correct":true,"confidence":5},{"trial_n":28,"n_dots":3.55,"target":"left","response":"left","rt":896.90000000596,"correct":true,"confidence":4},{"trial_n":29,"n_dots":3.55,"target":"left","response":"right","rt":1054.3999999911,"correct":false,"confidence":4},{"trial_n":30,"n_dots":3.65,"target":"left","response":"left","rt":824.79999999702,"correct":true,"confidence":5},{"trial_n":31,"n_dots":3.65,"target":"right","response":"right","rt":1295.099999994,"correct":true,"confidence":4},{"trial_n":32,"n_dots":3.55,"target":"right","response":"left","rt":2209.700000003,"correct":false,"confidence":3},{"trial_n":33,"n_dots":3.65,"target":"left","response":"left","rt":938.09999999404,"correct":true,"confidence":3},{"trial_n":34,"n_dots":3.65,"target":"right","response":"right","rt":1445.299999997,"correct":true,"confidence":4},{"trial_n":35,"n_dots":3.55,"target":"left","response":"left","rt":807.80000001192,"correct":true,"confidence":5},{"trial_n":36,"n_dots":3.55,"target":"left","response":"left","rt":681.10000000894,"correct":true,"confidence":5},{"trial_n":37,"n_dots":3.45,"target":"right","response":"left","rt":1024.1000000089,"correct":false,"confidence":5},{"trial_n":38,"n_dots":3.55,"target":"left","response":"left","rt":918.19999998808,"correct":true,"confidence":4},{"trial_n":39,"n_dots":3.55,"target":"right","response":"right","rt":1197.599999994,"correct":true,"confidence":2},{"trial_n":40,"n_dots":3.45,"target":"right","response":"right","rt":1033.900000006,"correct":true,"confidence":3},{"trial_n":41,"n_dots":3.45,"target":"left","response":"left","rt":1036.8999999911,"correct":true,"confidence":3},{"trial_n":42,"n_dots":3.35,"target":"left","response":"left","rt":860.79999999702,"correct":true,"confidence":5},{"trial_n":43,"n_dots":3.35,"target":"right","response":"left","rt":1145.900000006,"correct":false,"confidence":3},{"trial_n":44,"n_dots":3.45,"target":"left","response":"left","rt":821,"correct":true,"confidence":4},{"trial_n":45,"n_dots":3.45,"target":"left","response":"left","rt":3188,"correct":true,"confidence":2},{"trial_n":46,"n_dots":3.35,"target":"right","response":"right","rt":1076,"correct":true,"confidence":5},{"trial_n":47,"n_dots":3.35,"target":"left","response":"left","rt":820.60000000894,"correct":true,"confidence":4},{"trial_n":48,"n_dots":3.25,"target":"left","response":"left","rt":3363.3000000119,"correct":true,"confidence":2},{"trial_n":49,"n_dots":3.25,"target":"right","response":"left","rt":539.59999999404,"correct":false,"confidence":4},{"trial_n":50,"n_dots":3.35,"target":"right","response":"left","rt":1847.299999997,"correct":false,"confidence":4},{"trial_n":51,"n_dots":3.45,"target":"right","response":"right","rt":1044.700000003,"correct":true,"confidence":5},{"trial_n":52,"n_dots":3.45,"target":"left","response":"left","rt":1077.099999994,"correct":true,"confidence":4},{"trial_n":53,"n_dots":3.35,"target":"right","response":"right","rt":1095.3999999911,"correct":true,"confidence":5},{"trial_n":54,"n_dots":3.35,"target":"right","response":"right","rt":1014.799999997,"correct":true,"confidence":5},{"trial_n":55,"n_dots":3.25,"target":"left","response":"left","rt":756.40000000596,"correct":true,"confidence":3},{"trial_n":56,"n_dots":3.25,"target":"left","response":"left","rt":709.39999999106,"correct":true,"confidence":3},{"trial_n":57,"n_dots":3.15,"target":"right","response":"left","rt":745.5,"correct":false,"confidence":4},{"trial_n":58,"n_dots":3.25,"target":"right","response":"right","rt":888.59999999404,"correct":true,"confidence":5},{"trial_n":59,"n_dots":3.25,"target":"right","response":"left","rt":1566.099999994,"correct":false,"confidence":2},{"trial_n":60,"n_dots":3.35,"target":"right","response":"left","rt":1476.6000000089,"correct":false,"confidence":2},{"trial_n":61,"n_dots":3.45,"target":"left","response":"left","rt":861.70000000298,"correct":true,"confidence":4},{"trial_n":62,"n_dots":3.45,"target":"right","response":"left","rt":928.09999999404,"correct":false,"confidence":4},{"trial_n":63,"n_dots":3.55,"target":"left","response":"left","rt":984.70000000298,"correct":true,"confidence":3},{"trial_n":64,"n_dots":3.55,"target":"left","response":"left","rt":694,"correct":true,"confidence":3},{"trial_n":65,"n_dots":3.45,"target":"right","response":"left","rt":936.5,"correct":false,"confidence":3},{"trial_n":66,"n_dots":3.55,"target":"right","response":"left","rt":956.10000000894,"correct":false,"confidence":3},{"trial_n":67,"n_dots":3.65,"target":"right","response":"right","rt":667.29999999702,"correct":true,"confidence":5},{"trial_n":68,"n_dots":3.65,"target":"right","response":"right","rt":883.70000000298,"correct":true,"confidence":3},{"trial_n":69,"n_dots":3.55,"target":"left","response":"left","rt":530.5,"correct":true,"confidence":4},{"trial_n":70,"n_dots":3.55,"target":"left","response":"left","rt":473.20000000298,"correct":true,"confidence":4},{"trial_n":71,"n_dots":3.45,"target":"right","response":"left","rt":481.20000000298,"correct":false,"confidence":4},{"trial_n":72,"n_dots":3.55,"target":"left","response":"left","rt":399.79999999702,"correct":true,"confidence":5},{"trial_n":73,"n_dots":3.55,"target":"right","response":"left","rt":461.5,"correct":false,"confidence":4},{"trial_n":74,"n_dots":3.65,"target":"right","response":"right","rt":1209.700000003,"correct":true,"confidence":3},{"trial_n":75,"n_dots":3.65,"target":"left","response":"left","rt":549.40000000596,"correct":true,"confidence":4},{"trial_n":76,"n_dots":3.55,"target":"left","response":"left","rt":900.39999999106,"correct":true,"confidence":5},{"trial_n":77,"n_dots":3.55,"target":"left","response":"left","rt":656.29999999702,"correct":true,"confidence":5},{"trial_n":78,"n_dots":3.45,"target":"left","response":"left","rt":526.40000000596,"correct":true,"confidence":5},{"trial_n":79,"n_dots":3.45,"target":"right","response":"right","rt":1242.900000006,"correct":true,"confidence":3},{"trial_n":80,"n_dots":3.35,"target":"left","response":"left","rt":647.70000000298,"correct":true,"confidence":4},{"trial_n":81,"n_dots":3.35,"target":"right","response":"left","rt":1176.700000003,"correct":false,"confidence":3},{"trial_n":82,"n_dots":3.45,"target":"left","response":"left","rt":523.79999999702,"correct":true,"confidence":5},{"trial_n":83,"n_dots":3.45,"target":"left","response":"left","rt":458,"correct":true,"confidence":5},{"trial_n":84,"n_dots":3.35,"target":"left","response":"right","rt":785.89999999106,"correct":false,"confidence":3},{"trial_n":85,"n_dots":3.45,"target":"left","response":"left","rt":381.10000000894,"correct":true,"confidence":4},{"trial_n":86,"n_dots":3.45,"target":"right","response":"right","rt":646,"correct":true,"confidence":4},{"trial_n":87,"n_dots":3.35,"target":"left","response":"left","rt":552.70000000298,"correct":true,"confidence":5},{"trial_n":88,"n_dots":3.35,"target":"right","response":"left","rt":547,"correct":false,"confidence":5},{"trial_n":89,"n_dots":3.45,"target":"right","response":"right","rt":1139.799999997,"correct":true,"confidence":4},{"trial_n":90,"n_dots":3.45,"target":"right","response":"left","rt":397.29999999702,"correct":false,"confidence":5},{"trial_n":91,"n_dots":3.55,"target":"left","response":"left","rt":468.29999999702,"correct":true,"confidence":3},{"trial_n":92,"n_dots":3.55,"target":"left","response":"left","rt":509.79999999702,"correct":true,"confidence":3},{"trial_n":93,"n_dots":3.45,"target":"right","response":"right","rt":598,"correct":true,"confidence":3},{"trial_n":94,"n_dots":3.45,"target":"left","response":"right","rt":676.59999999404,"correct":false,"confidence":4},{"trial_n":95,"n_dots":3.55,"target":"right","response":"left","rt":574.90000000596,"correct":false,"confidence":3},{"trial_n":96,"n_dots":3.65,"target":"left","response":"left","rt":415.89999999106,"correct":true,"confidence":4},{"trial_n":97,"n_dots":3.65,"target":"left","response":"left","rt":540.79999999702,"correct":true,"confidence":5},{"trial_n":98,"n_dots":3.55,"target":"left","response":"left","rt":671.79999999702,"correct":true,"confidence":4},{"trial_n":99,"n_dots":3.55,"target":"right","response":"right","rt":676.79999999702,"correct":true,"confidence":4},{"trial_n":100,"n_dots":3.45,"target":"left","response":"left","rt":586.10000000894,"correct":true,"confidence":5},{"trial_n":101,"n_dots":3.45,"target":"right","response":"right","rt":1057.1999999881,"correct":true,"confidence":3},{"trial_n":102,"n_dots":3.35,"target":"left","response":"left","rt":605,"correct":true,"confidence":4},{"trial_n":103,"n_dots":3.35,"target":"right","response":"left","rt":1309.799999997,"correct":false,"confidence":3},{"trial_n":104,"n_dots":3.45,"target":"left","response":"left","rt":936.20000000298,"correct":true,"confidence":3},{"trial_n":105,"n_dots":3.45,"target":"left","response":"left","rt":418,"correct":true,"confidence":5},{"trial_n":106,"n_dots":3.35,"target":"right","response":"left","rt":1006.299999997,"correct":false,"confidence":3},{"trial_n":107,"n_dots":3.45,"target":"right","response":"right","rt":952.90000000596,"correct":true,"confidence":4},{"trial_n":108,"n_dots":3.45,"target":"right","response":"right","rt":751.89999999106,"correct":true,"confidence":4},{"trial_n":109,"n_dots":3.35,"target":"left","response":"left","rt":468.20000000298,"correct":true,"confidence":5},{"trial_n":110,"n_dots":3.35,"target":"right","response":"right","rt":903.20000000298,"correct":true,"confidence":4},{"trial_n":111,"n_dots":3.25,"target":"left","response":"left","rt":412.30000001192,"correct":true,"confidence":5},{"trial_n":112,"n_dots":3.25,"target":"right","response":"right","rt":762,"correct":true,"confidence":3},{"trial_n":113,"n_dots":3.15,"target":"right","response":"right","rt":724.90000000596,"correct":true,"confidence":3},{"trial_n":114,"n_dots":3.15,"target":"right","response":"left","rt":933.89999999106,"correct":false,"confidence":3},{"trial_n":115,"n_dots":3.25,"target":"right","response":"right","rt":827.79999999702,"correct":true,"confidence":4},{"trial_n":116,"n_dots":3.25,"target":"right","response":"left","rt":1155.700000003,"correct":false,"confidence":4},{"trial_n":117,"n_dots":3.35,"target":"right","response":"right","rt":1421.099999994,"correct":true,"confidence":3},{"trial_n":118,"n_dots":3.35,"target":"left","response":"left","rt":489,"correct":true,"confidence":5},{"trial_n":119,"n_dots":3.25,"target":"right","response":"left","rt":1243,"correct":false,"confidence":3},{"trial_n":120,"n_dots":3.35,"target":"left","response":"left","rt":620.39999999106,"correct":true,"confidence":5}]