[{"trial_n":1,"min":25,"max":230,"target":"present","response":"absent","rt":7884,"correct":false,"confidence":-1},{"trial_n":2,"min":25,"max":230,"target":"present","response":"absent","rt":2055,"correct":false,"confidence":-1},{"trial_n":3,"min":9,"max":246,"target":"absent","response":"present","rt":1086,"correct":false,"confidence":-1},{"trial_n":4,"min":0,"max":255,"target":"absent","response":"present","rt":1503,"correct":false,"confidence":-1},{"trial_n":5,"min":0,"max":255,"target":"present","response":"present","rt":1177,"correct":true,"confidence":-1},{"trial_n":6,"min":0,"max":255,"target":"present","response":"present","rt":1330,"correct":true,"confidence":-1},{"trial_n":7,"min":16,"max":239,"target":"present","response":"present","rt":829,"correct":true,"confidence":-1},{"trial_n":8,"min":16,"max":239,"target":"present","response":"present","rt":645,"correct":true,"confidence":-1},{"trial_n":9,"min":32,"max":223,"target":"absent","response":"absent","rt":1053,"correct":true,"confidence":-1},{"trial_n":10,"min":32,"max":223,"target":"absent","response":"absent","rt":1188,"correct":true,"confidence":-1},{"trial_n":11,"min":40,"max":215,"target":"absent","response":"absent","rt":635,"correct":true,"confidence":-1},{"trial_n":12,"min":40,"max":215,"target":"absent","response":"absent","rt":1071,"correct":true,"confidence":-1},{"trial_n":13,"min":48,"max":207,"target":"present","response":"present","rt":1197,"correct":true,"confidence":-1},{"trial_n":14,"min":48,"max":207,"target":"absent","response":"absent","rt":937.99999999999,"correct":true,"confidence":-1},{"trial_n":15,"min":56,"max":199,"target":"absent","response":"absent","rt":620.99999999999,"correct":true,"confidence":-1},{"trial_n":16,"min":56,"max":199,"target":"present","response":"present","rt":1232,"correct":true,"confidence":-1},{"trial_n":17,"min":64,"max":191,"target":"present","response":"present","rt":1128,"correct":true,"confidence":-1},{"trial_n":18,"min":64,"max":191,"target":"present","response":"present","rt":1334,"correct":true,"confidence":-1},{"trial_n":19,"min":72,"max":183,"target":"absent","response":"absent","rt":1004,"correct":true,"confidence":-1},{"trial_n":20,"min":72,"max":183,"target":"absent","response":"absent","rt":671.00000000001,"correct":true,"confidence":-1},{"trial_n":21,"min":76,"max":179,"target":"absent","response":"absent","rt":923,"correct":true,"confidence":4},{"trial_n":22,"min":76,"max":179,"target":"absent","response":"absent","rt":1588,"correct":true,"confidence":3},{"trial_n":23,"min":80,"max":175,"target":"absent","response":"absent","rt":1524,"correct":true,"confidence":4},{"trial_n":24,"min":80,"max":175,"target":"present","response":"present","rt":1147,"correct":true,"confidence":3},{"trial_n":25,"min":84,"max":171,"target":"present","response":"absent","rt":1399,"correct":false,"confidence":3},{"trial_n":26,"min":80,"max":175,"target":"present","response":"present","rt":984,"correct":true,"confidence":3},{"trial_n":27,"min":80,"max":175,"target":"absent","response":"absent","rt":1176,"correct":true,"confidence":4},{"trial_n":28,"min":84,"max":171,"target":"present","response":"present","rt":1548,"correct":true,"confidence":5},{"trial_n":29,"min":84,"max":171,"target":"present","response":"absent","rt":1016,"correct":false,"confidence":4},{"trial_n":30,"min":80,"max":175,"target":"present","response":"present","rt":1218,"correct":true,"confidence":4},{"trial_n":31,"min":80,"max":175,"target":"absent","response":"absent","rt":1576,"correct":true,"confidence":4},{"trial_n":32,"min":82,"max":173,"target":"present","response":"absent","rt":1548,"correct":false,"confidence":4},{"trial_n":33,"min":80,"max":175,"target":"absent","response":"absent","rt":1227,"correct":true,"confidence":5},{"trial_n":34,"min":80,"max":175,"target":"present","response":"present","rt":1419,"correct":true,"confidence":3},{"trial_n":35,"min":82,"max":173,"target":"absent","response":"absent","rt":1309,"correct":true,"confidence":3},{"trial_n":36,"min":82,"max":173,"target":"present","response":"absent","rt":1085,"correct":false,"confidence":4},{"trial_n":37,"min":80,"max":175,"target":"absent","response":"absent","rt":1056,"correct":true,"confidence":4},{"trial_n":38,"min":80,"max":175,"target":"absent","response":"absent","rt":1308,"correct":true,"confidence":4},{"trial_n":39,"min":82,"max":173,"target":"present","response":"absent","rt":1409,"correct":false,"confidence":4},{"trial_n":40,"min":80,"max":175,"target":"present","response":"present","rt":1002,"correct":true,"confidence":3},{"trial_n":41,"min":80,"max":175,"target":"present","response":"present","rt":937,"correct":true,"confidence":3},{"trial_n":42,"min":81,"max":174,"target":"present","response":"absent","rt":1084,"correct":false,"confidence":3},{"trial_n":43,"min":80,"max":175,"target":"present","response":"present","rt":1118,"correct":true,"confidence":3},{"trial_n":44,"min":80,"max":175,"target":"present","response":"absent","rt":987.00000000003,"correct":false,"confidence":3},{"trial_n":45,"min":79,"max":176,"target":"absent","response":"absent","rt":1046,"correct":true,"confidence":3},{"trial_n":46,"min":79,"max":176,"target":"absent","response":"absent","rt":1276,"correct":true,"confidence":3},{"trial_n":47,"min":80,"max":175,"target":"absent","response":"absent","rt":1076,"correct":true,"confidence":3},{"trial_n":48,"min":80,"max":175,"target":"present","response":"present","rt":1829,"correct":true,"confidence":3},{"trial_n":49,"min":81,"max":174,"target":"present","response":"present","rt":1220,"correct":true,"confidence":3},{"trial_n":50,"min":81,"max":174,"target":"absent","response":"absent","rt":1094,"correct":true,"confidence":3},{"trial_n":51,"min":82,"max":173,"target":"absent","response":"absent","rt":1159,"correct":true,"confidence":4},{"trial_n":52,"min":82,"max":173,"target":"absent","response":"absent","rt":1912,"correct":true,"confidence":4},{"trial_n":53,"min":83,"max":172,"target":"present","response":"present","rt":1925,"correct":true,"confidence":3},{"trial_n":54,"min":83,"max":172,"target":"absent","response":"absent","rt":1246,"correct":true,"confidence":3},{"trial_n":55,"min":84,"max":171,"target":"present","response":"absent","rt":1204,"correct":false,"confidence":3},{"trial_n":56,"min":83,"max":172,"target":"present","response":"absent","rt":2421,"correct":false,"confidence":3},{"trial_n":57,"min":82,"max":173,"target":"absent","response":"absent","rt":1160,"correct":true,"confidence":4},{"trial_n":58,"min":82,"max":173,"target":"present","response":"absent","rt":1125,"correct":false,"confidence":4},{"trial_n":59,"min":81,"max":174,"target":"present","response":"present","rt":1486.9999999999,"correct":true,"confidence":4},{"trial_n":60,"min":81,"max":174,"target":"absent","response":"absent","rt":1014,"correct":true,"confidence":5},{"trial_n":61,"min":82,"max":173,"target":"absent","response":"present","rt":1612,"correct":false,"confidence":3},{"trial_n":62,"min":81,"max":174,"target":"absent","response":"absent","rt":1030,"correct":true,"confidence":5},{"trial_n":63,"min":81,"max":174,"target":"absent","response":"absent","rt":911,"correct":true,"confidence":4},{"trial_n":64,"min":82,"max":173,"target":"present","response":"absent","rt":1288,"correct":false,"confidence":3},{"trial_n":65,"min":81,"max":174,"target":"present","response":"present","rt":1405,"correct":true,"confidence":5},{"trial_n":66,"min":81,"max":174,"target":"absent","response":"absent","rt":1930,"correct":true,"confidence":3},{"trial_n":67,"min":82,"max":173,"target":"present","response":"present","rt":1341,"correct":true,"confidence":5},{"trial_n":68,"min":82,"max":173,"target":"absent","response":"present","rt":1983,"correct":false,"confidence":3},{"trial_n":69,"min":81,"max":174,"target":"present","response":"absent","rt":1391,"correct":false,"confidence":4},{"trial_n":70,"min":80,"max":175,"target":"absent","response":"absent","rt":1232,"correct":true,"confidence":4},{"trial_n":71,"min":41,"max":214,"target":"present","response":"present","rt":2300.0000000001,"correct":true,"confidence":-1},{"trial_n":72,"min":41,"max":214,"target":"present","response":"present","rt":718,"correct":true,"confidence":-1},{"trial_n":73,"min":57,"max":198,"target":"absent","response":"absent","rt":1434,"correct":true,"confidence":-1},{"trial_n":74,"min":57,"max":198,"target":"absent","response":"absent","rt":987,"correct":true,"confidence":-1},{"trial_n":75,"min":73,"max":182,"target":"present","response":"present","rt":1137,"correct":true,"confidence":-1},{"trial_n":76,"min":73,"max":182,"target":"present","response":"present","rt":1702,"correct":true,"confidence":-1},{"trial_n":77,"min":89,"max":166,"target":"absent","response":"absent","rt":2454,"correct":true,"confidence":-1},{"trial_n":78,"min":89,"max":166,"target":"present","response":"present","rt":2252.0000000001,"correct":true,"confidence":-1},{"trial_n":79,"min":105,"max":150,"target":"absent","response":"absent","rt":1186,"correct":true,"confidence":-1},{"trial_n":80,"min":105,"max":150,"target":"absent","response":"present","rt":1021,"correct":false,"confidence":-1},{"trial_n":81,"min":97,"max":158,"target":"present","response":"present","rt":1439,"correct":true,"confidence":-1},{"trial_n":82,"min":97,"max":158,"target":"present","response":"present","rt":1588,"correct":true,"confidence":-1},{"trial_n":83,"min":105,"max":150,"target":"absent","response":"absent","rt":1756,"correct":true,"confidence":-1},{"trial_n":84,"min":105,"max":150,"target":"present","response":"present","rt":1255.9999999999,"correct":true,"confidence":-1},{"trial_n":85,"min":113,"max":142,"target":"absent","response":"present","rt":873,"correct":false,"confidence":-1},{"trial_n":86,"min":105,"max":150,"target":"present","response":"absent","rt":1904,"correct":false,"confidence":-1},{"trial_n":87,"min":97,"max":158,"target":"absent","response":"present","rt":1656,"correct":false,"confidence":-1},{"trial_n":88,"min":89,"max":166,"target":"present","response":"present","rt":1120.9999999999,"correct":true,"confidence":-1},{"trial_n":89,"min":89,"max":166,"target":"absent","response":"present","rt":842,"correct":false,"confidence":-1},{"trial_n":90,"min":81,"max":174,"target":"present","response":"absent","rt":2258,"correct":false,"confidence":-1},{"trial_n":91,"min":77,"max":178,"target":"present","response":"present","rt":1272,"correct":true,"confidence":4},{"trial_n":92,"min":77,"max":178,"target":"present","response":"present","rt":1191,"correct":true,"confidence":5},{"trial_n":93,"min":81,"max":174,"target":"absent","response":"absent","rt":1277.0000000001,"correct":true,"confidence":3},{"trial_n":94,"min":81,"max":174,"target":"absent","response":"absent","rt":1910.0000000001,"correct":true,"confidence":4},{"trial_n":95,"min":85,"max":170,"target":"present","response":"present","rt":1030,"correct":true,"confidence":5},{"trial_n":96,"min":85,"max":170,"target":"absent","response":"present","rt":1529,"correct":false,"confidence":3},{"trial_n":97,"min":81,"max":174,"target":"absent","response":"present","rt":2115,"correct":false,"confidence":3},{"trial_n":98,"min":77,"max":178,"target":"present","response":"present","rt":2131,"correct":true,"confidence":4},{"trial_n":99,"min":77,"max":178,"target":"absent","response":"present","rt":1799.0000000001,"correct":false,"confidence":4},{"trial_n":100,"min":73,"max":182,"target":"absent","response":"present","rt":1365,"correct":false,"confidence":3},{"trial_n":101,"min":71,"max":184,"target":"absent","response":"present","rt":1147,"correct":false,"confidence":3},{"trial_n":102,"min":69,"max":186,"target":"present","response":"present","rt":953,"correct":true,"confidence":5},{"trial_n":103,"min":69,"max":186,"target":"absent","response":"present","rt":1182,"correct":false,"confidence":3},{"trial_n":104,"min":67,"max":188,"target":"present","response":"present","rt":1320,"correct":true,"confidence":4},{"trial_n":105,"min":67,"max":188,"target":"absent","response":"present","rt":2467.9999999999,"correct":false,"confidence":3},{"trial_n":106,"min":65,"max":190,"target":"present","response":"present","rt":866.00000000006,"correct":true,"confidence":5},{"trial_n":107,"min":65,"max":190,"target":"present","response":"present","rt":1116,"correct":true,"confidence":5},{"trial_n":108,"min":67,"max":188,"target":"absent","response":"absent","rt":1151,"correct":true,"confidence":5},{"trial_n":109,"min":67,"max":188,"target":"absent","response":"absent","rt":1383,"correct":true,"confidence":4},{"trial_n":110,"min":69,"max":186,"target":"present","response":"present","rt":1802,"correct":true,"confidence":5},{"trial_n":111,"min":69,"max":186,"target":"present","response":"present","rt":916,"correct":true,"confidence":5},{"trial_n":112,"min":70,"max":185,"target":"present","response":"present","rt":1052.0000000001,"correct":true,"confidence":5},{"trial_n":113,"min":70,"max":185,"target":"present","response":"present","rt":1504.0000000001,"correct":true,"confidence":5},{"trial_n":114,"min":71,"max":184,"target":"present","response":"present","rt":1104.0000000001,"correct":true,"confidence":5},{"trial_n":115,"min":71,"max":184,"target":"absent","response":"absent","rt":901.00000000006,"correct":true,"confidence":4},{"trial_n":116,"min":72,"max":183,"target":"present","response":"present","rt":1605,"correct":true,"confidence":4},{"trial_n":117,"min":72,"max":183,"target":"present","response":"present","rt":1104,"correct":true,"confidence":3},{"trial_n":118,"min":73,"max":182,"target":"present","response":"present","rt":1088,"correct":true,"confidence":4},{"trial_n":119,"min":73,"max":182,"target":"absent","response":"absent","rt":1436,"correct":true,"confidence":5},{"trial_n":120,"min":74,"max":181,"target":"absent","response":"absent","rt":1255,"correct":true,"confidence":5},{"trial_n":121,"min":74,"max":181,"target":"absent","response":"absent","rt":1203,"correct":true,"confidence":5},{"trial_n":122,"min":75,"max":180,"target":"absent","response":"present","rt":2021,"correct":false,"confidence":2},{"trial_n":123,"min":74,"max":181,"target":"absent","response":"absent","rt":1973,"correct":true,"confidence":3},{"trial_n":124,"min":74,"max":181,"target":"absent","response":"absent","rt":1621,"correct":true,"confidence":4},{"trial_n":125,"min":75,"max":180,"target":"absent","response":"present","rt":1308,"correct":false,"confidence":4},{"trial_n":126,"min":74,"max":181,"target":"present","response":"present","rt":1777.0000000001,"correct":true,"confidence":3},{"trial_n":127,"min":74,"max":181,"target":"present","response":"present","rt":1073,"correct":true,"confidence":5},{"trial_n":128,"min":75,"max":180,"target":"present","response":"present","rt":1323.0000000001,"correct":true,"confidence":4},{"trial_n":129,"min":75,"max":180,"target":"absent","response":"absent","rt":2055,"correct":true,"confidence":3},{"trial_n":130,"min":76,"max":179,"target":"absent","response":"present","rt":1123,"correct":false,"confidence":3},{"trial_n":131,"min":75,"max":180,"target":"absent","response":"present","rt":1288,"correct":false,"confidence":3},{"trial_n":132,"min":74,"max":181,"target":"present","response":"present","rt":1059,"correct":true,"confidence":3},{"trial_n":133,"min":74,"max":181,"target":"absent","response":"absent","rt":1206.0000000001,"correct":true,"confidence":3},{"trial_n":134,"min":75,"max":180,"target":"present","response":"present","rt":1159.0000000001,"correct":true,"confidence":4},{"trial_n":135,"min":75,"max":180,"target":"present","response":"present","rt":1042,"correct":true,"confidence":4},{"trial_n":136,"min":76,"max":179,"target":"absent","response":"absent","rt":1137,"correct":true,"confidence":4},{"trial_n":137,"min":76,"max":179,"target":"present","response":"present","rt":1154,"correct":true,"confidence":4},{"trial_n":138,"min":77,"max":178,"target":"absent","response":"present","rt":1755.9999999999,"correct":false,"confidence":4},{"trial_n":139,"min":76,"max":179,"target":"present","response":"present","rt":1173,"correct":true,"confidence":3},{"trial_n":140,"min":76,"max":179,"target":"present","response":"present","rt":942,"correct":true,"confidence":5}]