[{"trial_n":1,"min":25,"max":230,"target":"present","response":"present","rt":22221,"correct":true,"confidence":-1},{"trial_n":2,"min":25,"max":230,"target":"present","response":"present","rt":1012.9999999999,"correct":true,"confidence":-1},{"trial_n":3,"min":41,"max":214,"target":"absent","response":"absent","rt":886,"correct":true,"confidence":-1},{"trial_n":4,"min":41,"max":214,"target":"absent","response":"present","rt":950,"correct":false,"confidence":-1},{"trial_n":5,"min":25,"max":230,"target":"present","response":"present","rt":838,"correct":true,"confidence":-1},{"trial_n":6,"min":25,"max":230,"target":"present","response":"present","rt":2281,"correct":true,"confidence":-1},{"trial_n":7,"min":41,"max":214,"target":"absent","response":"absent","rt":678.00000000006,"correct":true,"confidence":-1},{"trial_n":8,"min":41,"max":214,"target":"absent","response":"absent","rt":574,"correct":true,"confidence":-1},{"trial_n":9,"min":57,"max":198,"target":"present","response":"present","rt":526,"correct":true,"confidence":-1},{"trial_n":10,"min":57,"max":198,"target":"present","response":"absent","rt":708,"correct":false,"confidence":-1},{"trial_n":11,"min":49,"max":206,"target":"absent","response":"absent","rt":1457,"correct":true,"confidence":-1},{"trial_n":12,"min":49,"max":206,"target":"absent","response":"absent","rt":3689,"correct":true,"confidence":-1},{"trial_n":13,"min":57,"max":198,"target":"absent","response":"absent","rt":648,"correct":true,"confidence":-1},{"trial_n":14,"min":57,"max":198,"target":"present","response":"present","rt":537.99999999994,"correct":true,"confidence":-1},{"trial_n":15,"min":65,"max":190,"target":"absent","response":"absent","rt":492,"correct":true,"confidence":-1},{"trial_n":16,"min":65,"max":190,"target":"present","response":"absent","rt":478,"correct":false,"confidence":-1},{"trial_n":17,"min":57,"max":198,"target":"present","response":"present","rt":635.00000000006,"correct":true,"confidence":-1},{"trial_n":18,"min":57,"max":198,"target":"present","response":"present","rt":4310,"correct":true,"confidence":-1},{"trial_n":19,"min":65,"max":190,"target":"present","response":"present","rt":983,"correct":true,"confidence":-1},{"trial_n":20,"min":65,"max":190,"target":"absent","response":"absent","rt":599,"correct":true,"confidence":-1},{"trial_n":21,"min":69,"max":186,"target":"present","response":"absent","rt":702,"correct":false,"confidence":4},{"trial_n":22,"min":65,"max":190,"target":"present","response":"present","rt":637,"correct":true,"confidence":5},{"trial_n":23,"min":65,"max":190,"target":"present","response":"present","rt":855,"correct":true,"confidence":5},{"trial_n":24,"min":69,"max":186,"target":"present","response":"present","rt":839.99999999994,"correct":true,"confidence":4},{"trial_n":25,"min":69,"max":186,"target":"absent","response":"absent","rt":449,"correct":true,"confidence":5},{"trial_n":26,"min":73,"max":182,"target":"absent","response":"absent","rt":1755.0000000001,"correct":true,"confidence":3},{"trial_n":27,"min":73,"max":182,"target":"absent","response":"absent","rt":541,"correct":true,"confidence":5},{"trial_n":28,"min":77,"max":178,"target":"absent","response":"absent","rt":1153.9999999999,"correct":true,"confidence":4},{"trial_n":29,"min":77,"max":178,"target":"present","response":"present","rt":636,"correct":true,"confidence":5},{"trial_n":30,"min":81,"max":174,"target":"present","response":"absent","rt":821,"correct":false,"confidence":4},{"trial_n":31,"min":79,"max":176,"target":"absent","response":"absent","rt":553,"correct":true,"confidence":5},{"trial_n":32,"min":79,"max":176,"target":"present","response":"absent","rt":554,"correct":false,"confidence":5},{"trial_n":33,"min":77,"max":178,"target":"present","response":"present","rt":1140,"correct":true,"confidence":3},{"trial_n":34,"min":77,"max":178,"target":"present","response":"absent","rt":1388,"correct":false,"confidence":4},{"trial_n":35,"min":75,"max":180,"target":"absent","response":"absent","rt":548.99999999994,"correct":true,"confidence":5},{"trial_n":36,"min":75,"max":180,"target":"present","response":"present","rt":853.00000000006,"correct":true,"confidence":3},{"trial_n":37,"min":77,"max":178,"target":"absent","response":"absent","rt":532.00000000006,"correct":true,"confidence":5},{"trial_n":38,"min":77,"max":178,"target":"absent","response":"absent","rt":21969,"correct":true,"confidence":4},{"trial_n":39,"min":79,"max":176,"target":"absent","response":"absent","rt":5092.0000000001,"correct":true,"confidence":3},{"trial_n":40,"min":79,"max":176,"target":"absent","response":"absent","rt":508,"correct":true,"confidence":5},{"trial_n":41,"min":80,"max":175,"target":"absent","response":"absent","rt":469.99999999994,"correct":true,"confidence":5},{"trial_n":42,"min":80,"max":175,"target":"absent","response":"absent","rt":515,"correct":true,"confidence":5},{"trial_n":43,"min":81,"max":174,"target":"present","response":"present","rt":694,"correct":true,"confidence":4},{"trial_n":44,"min":81,"max":174,"target":"absent","response":"absent","rt":465,"correct":true,"confidence":5},{"trial_n":45,"min":82,"max":173,"target":"absent","response":"absent","rt":520.00000000006,"correct":true,"confidence":5},{"trial_n":46,"min":82,"max":173,"target":"present","response":"present","rt":1113.9999999999,"correct":true,"confidence":3},{"trial_n":47,"min":83,"max":172,"target":"absent","response":"absent","rt":481.99999999994,"correct":true,"confidence":5},{"trial_n":48,"min":83,"max":172,"target":"present","response":"absent","rt":2025.9999999999,"correct":false,"confidence":3},{"trial_n":49,"min":82,"max":173,"target":"absent","response":"absent","rt":507,"correct":true,"confidence":5},{"trial_n":50,"min":82,"max":173,"target":"present","response":"absent","rt":1913,"correct":false,"confidence":4},{"trial_n":51,"min":81,"max":174,"target":"absent","response":"absent","rt":997.99999999988,"correct":true,"confidence":3},{"trial_n":52,"min":81,"max":174,"target":"absent","response":"absent","rt":539,"correct":true,"confidence":5},{"trial_n":53,"min":82,"max":173,"target":"absent","response":"absent","rt":1224,"correct":true,"confidence":3},{"trial_n":54,"min":82,"max":173,"target":"present","response":"present","rt":890.00000000012,"correct":true,"confidence":4},{"trial_n":55,"min":83,"max":172,"target":"present","response":"absent","rt":2988,"correct":false,"confidence":2},{"trial_n":56,"min":82,"max":173,"target":"absent","response":"absent","rt":1021,"correct":true,"confidence":4},{"trial_n":57,"min":82,"max":173,"target":"absent","response":"absent","rt":836.00000000012,"correct":true,"confidence":4},{"trial_n":58,"min":83,"max":172,"target":"absent","response":"absent","rt":565,"correct":true,"confidence":4},{"trial_n":59,"min":83,"max":172,"target":"present","response":"present","rt":736,"correct":true,"confidence":4},{"trial_n":60,"min":84,"max":171,"target":"present","response":"present","rt":620.00000000012,"correct":true,"confidence":3},{"trial_n":61,"min":84,"max":171,"target":"absent","response":"absent","rt":519,"correct":true,"confidence":4},{"trial_n":62,"min":85,"max":170,"target":"absent","response":"absent","rt":1763,"correct":true,"confidence":4},{"trial_n":63,"min":85,"max":170,"target":"present","response":"absent","rt":9407,"correct":false,"confidence":2},{"trial_n":64,"min":84,"max":171,"target":"absent","response":"absent","rt":932,"correct":true,"confidence":4},{"trial_n":65,"min":84,"max":171,"target":"present","response":"absent","rt":602,"correct":false,"confidence":4},{"trial_n":66,"min":83,"max":172,"target":"present","response":"present","rt":638.00000000012,"correct":true,"confidence":3},{"trial_n":67,"min":83,"max":172,"target":"present","response":"present","rt":704.00000000012,"correct":true,"confidence":3},{"trial_n":68,"min":84,"max":171,"target":"present","response":"present","rt":1297,"correct":true,"confidence":3},{"trial_n":69,"min":84,"max":171,"target":"present","response":"absent","rt":474,"correct":false,"confidence":4},{"trial_n":70,"min":83,"max":172,"target":"present","response":"absent","rt":18860,"correct":false,"confidence":1},{"trial_n":71,"min":41,"max":214,"target":"present","response":"present","rt":8374,"correct":true,"confidence":-1},{"trial_n":72,"min":41,"max":214,"target":"present","response":"present","rt":999,"correct":true,"confidence":-1},{"trial_n":73,"min":57,"max":198,"target":"absent","response":"absent","rt":721,"correct":true,"confidence":-1},{"trial_n":74,"min":57,"max":198,"target":"absent","response":"absent","rt":625,"correct":true,"confidence":-1},{"trial_n":75,"min":73,"max":182,"target":"present","response":"present","rt":1155,"correct":true,"confidence":-1},{"trial_n":76,"min":73,"max":182,"target":"present","response":"present","rt":1100,"correct":true,"confidence":-1},{"trial_n":77,"min":89,"max":166,"target":"absent","response":"present","rt":1734,"correct":false,"confidence":-1},{"trial_n":78,"min":73,"max":182,"target":"absent","response":"absent","rt":752,"correct":true,"confidence":-1},{"trial_n":79,"min":73,"max":182,"target":"present","response":"present","rt":694,"correct":true,"confidence":-1},{"trial_n":80,"min":89,"max":166,"target":"absent","response":"absent","rt":966,"correct":true,"confidence":-1},{"trial_n":81,"min":89,"max":166,"target":"present","response":"present","rt":1769,"correct":true,"confidence":-1},{"trial_n":82,"min":97,"max":158,"target":"absent","response":"present","rt":815.99999999977,"correct":false,"confidence":-1},{"trial_n":83,"min":89,"max":166,"target":"present","response":"present","rt":708.00000000023,"correct":true,"confidence":-1},{"trial_n":84,"min":89,"max":166,"target":"absent","response":"present","rt":2441,"correct":false,"confidence":-1},{"trial_n":85,"min":81,"max":174,"target":"present","response":"present","rt":489.99999999977,"correct":true,"confidence":-1},{"trial_n":86,"min":81,"max":174,"target":"absent","response":"absent","rt":484,"correct":true,"confidence":-1},{"trial_n":87,"min":89,"max":166,"target":"absent","response":"absent","rt":1276.0000000002,"correct":true,"confidence":-1},{"trial_n":88,"min":89,"max":166,"target":"present","response":"present","rt":463.00000000023,"correct":true,"confidence":-1},{"trial_n":89,"min":97,"max":158,"target":"absent","response":"absent","rt":540,"correct":true,"confidence":-1},{"trial_n":90,"min":97,"max":158,"target":"present","response":"absent","rt":586,"correct":false,"confidence":-1},{"trial_n":91,"min":93,"max":162,"target":"present","response":"present","rt":886.99999999977,"correct":true,"confidence":2},{"trial_n":92,"min":93,"max":162,"target":"present","response":"present","rt":763,"correct":true,"confidence":3},{"trial_n":93,"min":97,"max":158,"target":"present","response":"present","rt":970,"correct":true,"confidence":3},{"trial_n":94,"min":97,"max":158,"target":"absent","response":"present","rt":1492,"correct":false,"confidence":2},{"trial_n":95,"min":93,"max":162,"target":"present","response":"present","rt":2516,"correct":true,"confidence":2},{"trial_n":96,"min":93,"max":162,"target":"present","response":"present","rt":556,"correct":true,"confidence":4},{"trial_n":97,"min":97,"max":158,"target":"absent","response":"present","rt":808.00000000023,"correct":false,"confidence":3},{"trial_n":98,"min":93,"max":162,"target":"absent","response":"present","rt":703,"correct":false,"confidence":3},{"trial_n":99,"min":89,"max":166,"target":"present","response":"present","rt":747,"correct":true,"confidence":3},{"trial_n":100,"min":89,"max":166,"target":"absent","response":"present","rt":3389,"correct":false,"confidence":1},{"trial_n":101,"min":87,"max":168,"target":"present","response":"present","rt":542,"correct":true,"confidence":5},{"trial_n":102,"min":87,"max":168,"target":"present","response":"present","rt":661,"correct":true,"confidence":4},{"trial_n":103,"min":89,"max":166,"target":"absent","response":"present","rt":812,"correct":false,"confidence":3},{"trial_n":104,"min":87,"max":168,"target":"absent","response":"absent","rt":3172,"correct":true,"confidence":1},{"trial_n":105,"min":87,"max":168,"target":"absent","response":"absent","rt":1557,"correct":true,"confidence":1},{"trial_n":106,"min":89,"max":166,"target":"present","response":"present","rt":633,"correct":true,"confidence":4},{"trial_n":107,"min":89,"max":166,"target":"absent","response":"present","rt":1560,"correct":false,"confidence":1},{"trial_n":108,"min":87,"max":168,"target":"present","response":"present","rt":2553,"correct":true,"confidence":2},{"trial_n":109,"min":87,"max":168,"target":"absent","response":"present","rt":3128,"correct":false,"confidence":3},{"trial_n":110,"min":85,"max":170,"target":"present","response":"absent","rt":3540.0000000002,"correct":false,"confidence":1},{"trial_n":111,"min":84,"max":171,"target":"absent","response":"present","rt":770,"correct":false,"confidence":2},{"trial_n":112,"min":83,"max":172,"target":"absent","response":"present","rt":619,"correct":false,"confidence":2},{"trial_n":113,"min":82,"max":173,"target":"present","response":"present","rt":714,"correct":true,"confidence":5},{"trial_n":114,"min":82,"max":173,"target":"present","response":"present","rt":554,"correct":true,"confidence":5},{"trial_n":115,"min":83,"max":172,"target":"present","response":"present","rt":588,"correct":true,"confidence":5},{"trial_n":116,"min":83,"max":172,"target":"absent","response":"absent","rt":827,"correct":true,"confidence":3},{"trial_n":117,"min":84,"max":171,"target":"present","response":"present","rt":2033.9999999998,"correct":true,"confidence":1},{"trial_n":118,"min":84,"max":171,"target":"present","response":"present","rt":770.99999999977,"correct":true,"confidence":1},{"trial_n":119,"min":85,"max":170,"target":"present","response":"present","rt":606,"correct":true,"confidence":3},{"trial_n":120,"min":85,"max":170,"target":"present","response":"present","rt":633,"correct":true,"confidence":4},{"trial_n":121,"min":86,"max":169,"target":"absent","response":"present","rt":649.00000000023,"correct":false,"confidence":2},{"trial_n":122,"min":85,"max":170,"target":"absent","response":"present","rt":554,"correct":false,"confidence":3},{"trial_n":123,"min":84,"max":171,"target":"absent","response":"absent","rt":862.99999999977,"correct":true,"confidence":4},{"trial_n":124,"min":84,"max":171,"target":"absent","response":"present","rt":4670.0000000002,"correct":false,"confidence":1},{"trial_n":125,"min":83,"max":172,"target":"absent","response":"present","rt":832,"correct":false,"confidence":1},{"trial_n":126,"min":82,"max":173,"target":"present","response":"present","rt":565,"correct":true,"confidence":5},{"trial_n":127,"min":82,"max":173,"target":"absent","response":"present","rt":956.00000000023,"correct":false,"confidence":3},{"trial_n":128,"min":81,"max":174,"target":"absent","response":"absent","rt":878.00000000023,"correct":true,"confidence":5},{"trial_n":129,"min":81,"max":174,"target":"absent","response":"absent","rt":905,"correct":true,"confidence":3},{"trial_n":130,"min":82,"max":173,"target":"present","response":"present","rt":533.00000000023,"correct":true,"confidence":5},{"trial_n":131,"min":82,"max":173,"target":"present","response":"present","rt":467,"correct":true,"confidence":5},{"trial_n":132,"min":83,"max":172,"target":"absent","response":"present","rt":1419,"correct":false,"confidence":2},{"trial_n":133,"min":82,"max":173,"target":"present","response":"present","rt":883,"correct":true,"confidence":5},{"trial_n":134,"min":82,"max":173,"target":"present","response":"present","rt":721,"correct":true,"confidence":5},{"trial_n":135,"min":83,"max":172,"target":"present","response":"present","rt":777.00000000023,"correct":true,"confidence":3},{"trial_n":136,"min":83,"max":172,"target":"present","response":"present","rt":567,"correct":true,"confidence":5},{"trial_n":137,"min":84,"max":171,"target":"absent","response":"absent","rt":959,"correct":true,"confidence":5},{"trial_n":138,"min":84,"max":171,"target":"absent","response":"present","rt":1049,"correct":false,"confidence":3},{"trial_n":139,"min":83,"max":172,"target":"absent","response":"present","rt":749,"correct":false,"confidence":4},{"trial_n":140,"min":82,"max":173,"target":"present","response":"present","rt":594,"correct":true,"confidence":4}]