[{"trial_n":1,"span":8,"encoder":"96243023","distractor":"96243073","target":"present","response":"present","rt":"3922.8000000119","correct":true,"confidence":-1},{"trial_n":2,"span":8,"encoder":"15644692","distractor":"15641692","target":"present","response":"present","rt":"3113.599999994","correct":true,"confidence":-1},{"trial_n":3,"span":10,"encoder":"1606834667","distractor":"1606834867","target":"absent","response":"absent","rt":"2804.400000006","correct":true,"confidence":-1},{"trial_n":4,"span":10,"encoder":"5873441581","distractor":"3873441581","target":"absent","response":"absent","rt":"1885.900000006","correct":true,"confidence":-1},{"trial_n":5,"span":12,"encoder":"070172875704","distractor":"070172874704","target":"present","response":"present","rt":"3562.5","correct":true,"confidence":-1},{"trial_n":6,"span":12,"encoder":"282725456714","distractor":"282715456714","target":"present","response":"absent","rt":"3031.400000006","correct":false,"confidence":-1},{"trial_n":7,"span":10,"encoder":"9811379888","distractor":"9811379788","target":"absent","response":"absent","rt":"2028.599999994","correct":true,"confidence":-1},{"trial_n":8,"span":10,"encoder":"6128542417","distractor":"6129542417","target":"absent","response":"present","rt":"3650.400000006","correct":false,"confidence":-1},{"trial_n":9,"span":8,"encoder":"99216856","distractor":"99236856","target":"present","response":"present","rt":"2337.400000006","correct":true,"confidence":-1},{"trial_n":10,"span":8,"encoder":"41546764","distractor":"41546784","target":"absent","response":"absent","rt":"2397.3999999762","correct":true,"confidence":-1},{"trial_n":11,"span":10,"encoder":"8672101917","distractor":"8672101967","target":"absent","response":"present","rt":"2933.900000006","correct":false,"confidence":-1},{"trial_n":12,"span":9,"encoder":"217797552","distractor":"217597552","target":"absent","response":"absent","rt":"2886.8000000119","correct":true,"confidence":-1},{"trial_n":13,"span":9,"encoder":"646525367","distractor":"646521367","target":"present","response":"present","rt":"2329.7999999821","correct":true,"confidence":-1},{"trial_n":14,"span":10,"encoder":"9244628203","distractor":"9244626203","target":"absent","response":"absent","rt":"2731.900000006","correct":true,"confidence":-1},{"trial_n":15,"span":10,"encoder":"2074049206","distractor":"2074079206","target":"absent","response":"absent","rt":"4053.5","correct":true,"confidence":-1},{"trial_n":16,"span":11,"encoder":"76996477661","distractor":"76990477661","target":"present","response":"present","rt":"6010","correct":true,"confidence":-1},{"trial_n":17,"span":11,"encoder":"67162350838","distractor":"67162320838","target":"absent","response":"absent","rt":"3435.599999994","correct":true,"confidence":-1},{"trial_n":18,"span":12,"encoder":"606478182206","distractor":"606478182200","target":"absent","response":"absent","rt":"4448.2999999821","correct":true,"confidence":-1},{"trial_n":19,"span":12,"encoder":"891851544090","distractor":"891851544097","target":"absent","response":"absent","rt":"3840.900000006","correct":true,"confidence":-1},{"trial_n":20,"span":13,"encoder":"4971247555365","distractor":"4971247555385","target":"absent","response":"present","rt":"2566.099999994","correct":false,"confidence":-1},{"trial_n":21,"span":12,"encoder":"467692986919","distractor":"467692986909","target":"present","response":"absent","rt":"5842.3000000119","correct":false,"confidence":3},{"trial_n":22,"span":11,"encoder":"02550477084","distractor":"02550475084","target":"absent","response":"absent","rt":"2459.1999999881","correct":true,"confidence":5},{"trial_n":23,"span":11,"encoder":"37442967242","distractor":"37442967282","target":"absent","response":"absent","rt":"4926.599999994","correct":true,"confidence":5},{"trial_n":24,"span":12,"encoder":"870027836018","distractor":"873027836018","target":"present","response":"absent","rt":"7251.1000000238","correct":false,"confidence":2},{"trial_n":25,"span":11,"encoder":"10395002891","distractor":"10391002891","target":"present","response":"present","rt":"2603.5","correct":true,"confidence":4},{"trial_n":26,"span":11,"encoder":"59668913462","distractor":"59658913462","target":"absent","response":"absent","rt":"4263.099999994","correct":true,"confidence":4},{"trial_n":27,"span":12,"encoder":"686637939493","distractor":"686337939493","target":"present","response":"present","rt":"4670.8000000119","correct":true,"confidence":3},{"trial_n":28,"span":12,"encoder":"580304616704","distractor":"580304316704","target":"present","response":"present","rt":"4930.8000000119","correct":true,"confidence":3},{"trial_n":29,"span":13,"encoder":"0508637067828","distractor":"0508637167828","target":"present","response":"absent","rt":"7069.599999994","correct":false,"confidence":2},{"trial_n":30,"span":12,"encoder":"397822152061","distractor":"397822152051","target":"absent","response":"absent","rt":"4254","correct":true,"confidence":5},{"trial_n":31,"span":12,"encoder":"951920954727","distractor":"954920954727","target":"absent","response":"present","rt":"4336.1000000238","correct":false,"confidence":3},{"trial_n":32,"span":11,"encoder":"52924571062","distractor":"52924571067","target":"absent","response":"absent","rt":"2189.6999999881","correct":true,"confidence":5},{"trial_n":33,"span":11,"encoder":"76861951954","distractor":"76061951954","target":"absent","response":"present","rt":"6256.5","correct":false,"confidence":2},{"trial_n":34,"span":10,"encoder":"9224243157","distractor":"9229243157","target":"absent","response":"absent","rt":"4182.900000006","correct":true,"confidence":3},{"trial_n":35,"span":10,"encoder":"8232565861","distractor":"8232505861","target":"present","response":"absent","rt":"4194.6999999881","correct":false,"confidence":4},{"trial_n":36,"span":9,"encoder":"896877961","distractor":"896877941","target":"present","response":"absent","rt":"4480.599999994","correct":false,"confidence":3},{"trial_n":37,"span":8,"encoder":"45948286","distractor":"45348286","target":"present","response":"present","rt":"2405.6999999881","correct":true,"confidence":4},{"trial_n":38,"span":8,"encoder":"40480561","distractor":"40482561","target":"present","response":"absent","rt":"3376","correct":false,"confidence":4},{"trial_n":39,"span":7,"encoder":"1857659","distractor":"1057659","target":"present","response":"present","rt":"1968.3000000119","correct":true,"confidence":5},{"trial_n":40,"span":7,"encoder":"9346746","distractor":"9316746","target":"present","response":"present","rt":"3671.6999999881","correct":true,"confidence":4},{"trial_n":41,"span":8,"encoder":"58443521","distractor":"58443221","target":"present","response":"present","rt":"1878.2000000179","correct":true,"confidence":5},{"trial_n":42,"span":8,"encoder":"45842488","distractor":"45842484","target":"present","response":"present","rt":"3322.7000000179","correct":true,"confidence":4},{"trial_n":43,"span":9,"encoder":"195419485","distractor":"195419465","target":"present","response":"present","rt":"2535.5","correct":true,"confidence":4},{"trial_n":44,"span":9,"encoder":"024905152","distractor":"024905252","target":"absent","response":"absent","rt":"4172.3999999762","correct":true,"confidence":5},{"trial_n":45,"span":10,"encoder":"5871118668","distractor":"8871118668","target":"absent","response":"absent","rt":"4769.900000006","correct":true,"confidence":3},{"trial_n":46,"span":10,"encoder":"9782979680","distractor":"9782979640","target":"present","response":"present","rt":"7227.5","correct":true,"confidence":1},{"trial_n":47,"span":11,"encoder":"73937616368","distractor":"73936616368","target":"absent","response":"absent","rt":"4346","correct":true,"confidence":3},{"trial_n":48,"span":11,"encoder":"46751201211","distractor":"46751901211","target":"present","response":"present","rt":"4811.3000000119","correct":true,"confidence":3},{"trial_n":49,"span":12,"encoder":"235904629029","distractor":"237904629029","target":"absent","response":"present","rt":"5044.6999999881","correct":false,"confidence":4},{"trial_n":50,"span":11,"encoder":"70369543232","distractor":"70369543212","target":"present","response":"present","rt":"4726.599999994","correct":true,"confidence":4},{"trial_n":51,"span":11,"encoder":"63790670580","distractor":"63780670580","target":"present","response":"present","rt":"3858.5","correct":true,"confidence":4},{"trial_n":52,"span":12,"encoder":"414907017039","distractor":"414007017039","target":"present","response":"absent","rt":"2245.8000000119","correct":false,"confidence":3},{"trial_n":53,"span":11,"encoder":"70204580680","distractor":"70209580680","target":"present","response":"present","rt":"4346.1999999881","correct":true,"confidence":4},{"trial_n":54,"span":11,"encoder":"03872510502","distractor":"03872510509","target":"absent","response":"present","rt":"2925.900000006","correct":false,"confidence":1},{"trial_n":55,"span":10,"encoder":"6337241577","distractor":"6387241577","target":"absent","response":"absent","rt":"3821.7999999821","correct":true,"confidence":4},{"trial_n":56,"span":10,"encoder":"8462360872","distractor":"8462320872","target":"absent","response":"absent","rt":"4352.900000006","correct":true,"confidence":4},{"trial_n":57,"span":11,"encoder":"61616373758","distractor":"61616373728","target":"present","response":"present","rt":"4241.599999994","correct":true,"confidence":4},{"trial_n":58,"span":11,"encoder":"69352144477","distractor":"69352144497","target":"absent","response":"absent","rt":"1573.5","correct":true,"confidence":5},{"trial_n":59,"span":12,"encoder":"700828202372","distractor":"700828202272","target":"present","response":"absent","rt":"4886","correct":false,"confidence":4},{"trial_n":60,"span":11,"encoder":"73294421660","distractor":"73299421660","target":"present","response":"present","rt":"3710.2000000179","correct":true,"confidence":3},{"trial_n":61,"span":11,"encoder":"74855997370","distractor":"74255997370","target":"present","response":"present","rt":"2271","correct":true,"confidence":4},{"trial_n":62,"span":12,"encoder":"113333934060","distractor":"513333934060","target":"absent","response":"absent","rt":"5264","correct":true,"confidence":3},{"trial_n":63,"span":12,"encoder":"262329615179","distractor":"262329615379","target":"absent","response":"absent","rt":"4500.400000006","correct":true,"confidence":3},{"trial_n":64,"span":13,"encoder":"1435495727387","distractor":"1435895727387","target":"present","response":"present","rt":"4344.099999994","correct":true,"confidence":2},{"trial_n":65,"span":13,"encoder":"1759376712123","distractor":"1799376712123","target":"absent","response":"absent","rt":"3333.3000000119","correct":true,"confidence":2},{"trial_n":66,"span":14,"encoder":"25813938640007","distractor":"25813938644007","target":"present","response":"present","rt":"5568.8999999762","correct":true,"confidence":3},{"trial_n":67,"span":14,"encoder":"18921670580606","distractor":"18921270580606","target":"present","response":"present","rt":"4808.599999994","correct":true,"confidence":3},{"trial_n":68,"span":15,"encoder":"645625843534451","distractor":"645125843534451","target":"present","response":"present","rt":"4721.6999999881","correct":true,"confidence":2},{"trial_n":69,"span":15,"encoder":"592608485985756","distractor":"592608485285756","target":"absent","response":"absent","rt":"6108.7999999821","correct":true,"confidence":3},{"trial_n":70,"span":16,"encoder":"7585627613751745","distractor":"7585727613751745","target":"absent","response":"absent","rt":"4895.599999994","correct":true,"confidence":2},{"trial_n":71,"span":8,"encoder":"92964295","distractor":"22964295","target":"present","response":"present","rt":"2730.099999994","correct":true,"confidence":-1},{"trial_n":72,"span":8,"encoder":"11241756","distractor":"14241756","target":"present","response":"present","rt":"2564.7000000179","correct":true,"confidence":-1},{"trial_n":73,"span":9,"encoder":"258033737","distractor":"258035737","target":"absent","response":"absent","rt":"2000.400000006","correct":true,"confidence":-1},{"trial_n":74,"span":9,"encoder":"800591869","distractor":"800593869","target":"absent","response":"absent","rt":"3283.2000000179","correct":true,"confidence":-1},{"trial_n":75,"span":10,"encoder":"2910678467","distractor":"2910478467","target":"present","response":"present","rt":"3996.599999994","correct":true,"confidence":-1},{"trial_n":76,"span":10,"encoder":"0978026272","distractor":"1978026272","target":"absent","response":"present","rt":"4064.5","correct":false,"confidence":-1},{"trial_n":77,"span":9,"encoder":"657068397","distractor":"667068397","target":"absent","response":"absent","rt":"6908.8000000119","correct":true,"confidence":-1},{"trial_n":78,"span":9,"encoder":"689109961","distractor":"686109961","target":"absent","response":"present","rt":"3969.900000006","correct":false,"confidence":-1},{"trial_n":79,"span":8,"encoder":"11058088","distractor":"11058888","target":"present","response":"present","rt":"3112.8000000119","correct":true,"confidence":-1},{"trial_n":80,"span":8,"encoder":"82384252","distractor":"82184252","target":"present","response":"present","rt":"3916.7000000179","correct":true,"confidence":-1},{"trial_n":81,"span":9,"encoder":"230962812","distractor":"230962912","target":"present","response":"absent","rt":"5069.2999999821","correct":false,"confidence":-1},{"trial_n":82,"span":8,"encoder":"76318208","distractor":"76328208","target":"absent","response":"present","rt":"4874.1999999881","correct":false,"confidence":-1},{"trial_n":83,"span":7,"encoder":"4382251","distractor":"4372251","target":"absent","response":"absent","rt":"2957.2000000179","correct":true,"confidence":-1},{"trial_n":84,"span":7,"encoder":"9370570","distractor":"9370590","target":"absent","response":"absent","rt":"2852.1999999881","correct":true,"confidence":-1},{"trial_n":85,"span":8,"encoder":"95392958","distractor":"95992958","target":"absent","response":"absent","rt":"3793.599999994","correct":true,"confidence":-1},{"trial_n":86,"span":8,"encoder":"92992987","distractor":"12992987","target":"absent","response":"absent","rt":"1904.6999999881","correct":true,"confidence":-1},{"trial_n":87,"span":9,"encoder":"304533755","distractor":"307533755","target":"present","response":"absent","rt":"3550.2000000179","correct":false,"confidence":-1},{"trial_n":88,"span":8,"encoder":"26822242","distractor":"26822244","target":"absent","response":"absent","rt":"2422.400000006","correct":true,"confidence":-1},{"trial_n":89,"span":8,"encoder":"47158756","distractor":"45158756","target":"absent","response":"present","rt":"8388.3000000119","correct":false,"confidence":-1},{"trial_n":90,"span":7,"encoder":"8719112","distractor":"8729112","target":"present","response":"present","rt":"2111.3000000119","correct":true,"confidence":-1},{"trial_n":91,"span":7,"encoder":"7123144","distractor":"7123844","target":"absent","response":"absent","rt":"2633.099999994","correct":true,"confidence":4},{"trial_n":92,"span":8,"encoder":"37986661","distractor":"37986621","target":"absent","response":"absent","rt":"1545.7999999821","correct":true,"confidence":5},{"trial_n":93,"span":8,"encoder":"56718076","distractor":"96718076","target":"absent","response":"absent","rt":"6108.6999999881","correct":true,"confidence":3},{"trial_n":94,"span":9,"encoder":"436912016","distractor":"436912014","target":"present","response":"present","rt":"4462.3999999762","correct":true,"confidence":4},{"trial_n":95,"span":9,"encoder":"655147122","distractor":"655747122","target":"absent","response":"absent","rt":"3972.3999999762","correct":true,"confidence":3},{"trial_n":96,"span":10,"encoder":"3437376016","distractor":"3430376016","target":"absent","response":"present","rt":"10414.200000018","correct":false,"confidence":2},{"trial_n":97,"span":9,"encoder":"206836932","distractor":"206436932","target":"present","response":"present","rt":"11036.400000006","correct":true,"confidence":4},{"trial_n":98,"span":9,"encoder":"919109060","distractor":"929109060","target":"absent","response":"absent","rt":"1979.6999999881","correct":true,"confidence":5},{"trial_n":99,"span":10,"encoder":"2938949520","distractor":"2938949570","target":"absent","response":"absent","rt":"3743.5","correct":true,"confidence":5},{"trial_n":100,"span":10,"encoder":"7696762008","distractor":"7696752008","target":"absent","response":"absent","rt":"7295.2000000179","correct":true,"confidence":4},{"trial_n":101,"span":11,"encoder":"79829162795","distractor":"79824162795","target":"present","response":"present","rt":"8107.5","correct":true,"confidence":3},{"trial_n":102,"span":11,"encoder":"23269365361","distractor":"23269365661","target":"present","response":"present","rt":"3450.1999999881","correct":true,"confidence":5},{"trial_n":103,"span":12,"encoder":"955049571289","distractor":"935049571289","target":"present","response":"present","rt":"3071","correct":true,"confidence":5},{"trial_n":104,"span":12,"encoder":"168264400834","distractor":"164264400834","target":"present","response":"present","rt":"4937.2000000179","correct":true,"confidence":2},{"trial_n":105,"span":13,"encoder":"4876092566646","distractor":"4866092566646","target":"present","response":"present","rt":"5783.5","correct":true,"confidence":3},{"trial_n":106,"span":13,"encoder":"5832795896562","distractor":"5832795836562","target":"present","response":"absent","rt":"9558.2000000179","correct":false,"confidence":4},{"trial_n":107,"span":12,"encoder":"566999156965","distractor":"566999158965","target":"absent","response":"absent","rt":"9123.2999999821","correct":true,"confidence":2},{"trial_n":108,"span":12,"encoder":"301861787802","distractor":"301861777802","target":"present","response":"present","rt":"5058.3000000119","correct":true,"confidence":4},{"trial_n":109,"span":13,"encoder":"5288840607874","distractor":"5288840605874","target":"present","response":"present","rt":"6247.8000000119","correct":true,"confidence":3},{"trial_n":110,"span":13,"encoder":"4282159313271","distractor":"4282159313241","target":"present","response":"present","rt":"2216","correct":true,"confidence":5},{"trial_n":111,"span":14,"encoder":"21923474770282","distractor":"21923774770282","target":"present","response":"present","rt":"7258.1999999881","correct":true,"confidence":2},{"trial_n":112,"span":14,"encoder":"61513566859272","distractor":"91513566859272","target":"present","response":"absent","rt":"6544.1999999881","correct":false,"confidence":3},{"trial_n":113,"span":13,"encoder":"0072790270330","distractor":"0072790273330","target":"absent","response":"absent","rt":"7003","correct":true,"confidence":3},{"trial_n":114,"span":13,"encoder":"8263803874843","distractor":"8263803874813","target":"absent","response":"absent","rt":"22090.799999982","correct":true,"confidence":2},{"trial_n":115,"span":14,"encoder":"45037360360648","distractor":"45037360310648","target":"absent","response":"absent","rt":"7979","correct":true,"confidence":3},{"trial_n":116,"span":14,"encoder":"97751378863679","distractor":"97791378863679","target":"present","response":"present","rt":"7612.2999999821","correct":true,"confidence":2},{"trial_n":117,"span":15,"encoder":"259298607424849","distractor":"289298607424849","target":"present","response":"absent","rt":"3726.5","correct":false,"confidence":4},{"trial_n":118,"span":14,"encoder":"51404187352951","distractor":"51404147352951","target":"absent","response":"absent","rt":"9618.400000006","correct":true,"confidence":2},{"trial_n":119,"span":14,"encoder":"94713891954884","distractor":"94713891354884","target":"present","response":"present","rt":"9742.8000000119","correct":true,"confidence":1},{"trial_n":120,"span":15,"encoder":"351740402741627","distractor":"351780402741627","target":"present","response":"absent","rt":"6737.3999999762","correct":false,"confidence":3},{"trial_n":121,"span":14,"encoder":"73907291402308","distractor":"73107291402308","target":"present","response":"present","rt":"5706","correct":true,"confidence":3},{"trial_n":122,"span":14,"encoder":"26671466741640","distractor":"26672466741640","target":"present","response":"present","rt":"6122.6999999881","correct":true,"confidence":3},{"trial_n":123,"span":15,"encoder":"755668793405257","distractor":"755668793405287","target":"present","response":"absent","rt":"8797.3000000119","correct":false,"confidence":3},{"trial_n":124,"span":14,"encoder":"46505165626492","distractor":"46505165626412","target":"absent","response":"absent","rt":"1985.099999994","correct":true,"confidence":5},{"trial_n":125,"span":14,"encoder":"33592282049346","distractor":"33592282049246","target":"present","response":"absent","rt":"4378.900000006","correct":false,"confidence":4},{"trial_n":126,"span":13,"encoder":"8274271588249","distractor":"3274271588249","target":"absent","response":"absent","rt":"6138.2000000179","correct":true,"confidence":3},{"trial_n":127,"span":13,"encoder":"8503612434150","distractor":"8503612134150","target":"absent","response":"absent","rt":"7519.599999994","correct":true,"confidence":2},{"trial_n":128,"span":14,"encoder":"58482756554841","distractor":"58482756554842","target":"present","response":"present","rt":"2423.7000000179","correct":true,"confidence":5},{"trial_n":129,"span":14,"encoder":"11182317993967","distractor":"11182317893967","target":"present","response":"present","rt":"4295.599999994","correct":true,"confidence":5},{"trial_n":130,"span":15,"encoder":"240035980049249","distractor":"240035980045249","target":"absent","response":"present","rt":"7531.400000006","correct":false,"confidence":3},{"trial_n":131,"span":14,"encoder":"25801977411598","distractor":"25501977411598","target":"absent","response":"absent","rt":"7828.8000000119","correct":true,"confidence":4},{"trial_n":132,"span":14,"encoder":"01308544319376","distractor":"01608544319376","target":"present","response":"present","rt":"4161.400000006","correct":true,"confidence":3},{"trial_n":133,"span":15,"encoder":"587010042561420","distractor":"587010042561490","target":"absent","response":"absent","rt":"1489.8999999762","correct":true,"confidence":5},{"trial_n":134,"span":15,"encoder":"919679761506499","distractor":"909679761506499","target":"present","response":"present","rt":"3468.2000000179","correct":true,"confidence":4},{"trial_n":135,"span":16,"encoder":"4905426298601778","distractor":"4905426998601778","target":"present","response":"present","rt":"4757.2000000179","correct":true,"confidence":3},{"trial_n":136,"span":16,"encoder":"3539918791185517","distractor":"3539948791185517","target":"absent","response":"absent","rt":"11759.900000006","correct":true,"confidence":1},{"trial_n":137,"span":17,"encoder":"46129659315510749","distractor":"46129649315510749","target":"present","response":"absent","rt":"9597.5","correct":false,"confidence":2},{"trial_n":138,"span":16,"encoder":"3013385375517273","distractor":"3013384375517273","target":"absent","response":"present","rt":"5632","correct":false,"confidence":3},{"trial_n":139,"span":15,"encoder":"143369071453662","distractor":"143369871453662","target":"present","response":"present","rt":"12619.400000006","correct":true,"confidence":2},{"trial_n":140,"span":15,"encoder":"507652223092522","distractor":"507752223092522","target":"absent","response":"absent","rt":"5837.8000000119","correct":true,"confidence":3}]