[{"trial_n":1,"n_dots":4.25,"target":"right","response":"left","rt":4017,"correct":false,"confidence":-1},{"trial_n":2,"n_dots":4.25,"target":"left","response":"left","rt":1872,"correct":true,"confidence":-1},{"trial_n":3,"n_dots":4.25,"target":"left","response":"left","rt":1253,"correct":true,"confidence":-1},{"trial_n":4,"n_dots":3.85,"target":"left","response":"left","rt":947,"correct":true,"confidence":-1},{"trial_n":5,"n_dots":3.85,"target":"right","response":"right","rt":1089,"correct":true,"confidence":-1},{"trial_n":6,"n_dots":3.45,"target":"right","response":"left","rt":1176,"correct":false,"confidence":-1},{"trial_n":7,"n_dots":3.85,"target":"left","response":"left","rt":842.00000000001,"correct":true,"confidence":-1},{"trial_n":8,"n_dots":3.85,"target":"right","response":"right","rt":419,"correct":true,"confidence":-1},{"trial_n":9,"n_dots":3.65,"target":"right","response":"right","rt":428,"correct":true,"confidence":-1},{"trial_n":10,"n_dots":3.65,"target":"left","response":"left","rt":948,"correct":true,"confidence":-1},{"trial_n":11,"n_dots":3.45,"target":"left","response":"right","rt":671.99999999999,"correct":false,"confidence":-1},{"trial_n":12,"n_dots":3.65,"target":"left","response":"left","rt":931.00000000001,"correct":true,"confidence":-1},{"trial_n":13,"n_dots":3.65,"target":"right","response":"left","rt":2226,"correct":false,"confidence":-1},{"trial_n":14,"n_dots":3.75,"target":"right","response":"right","rt":642,"correct":true,"confidence":-1},{"trial_n":15,"n_dots":3.75,"target":"left","response":"right","rt":627,"correct":false,"confidence":-1},{"trial_n":16,"n_dots":3.85,"target":"left","response":"left","rt":240,"correct":true,"confidence":-1},{"trial_n":17,"n_dots":3.85,"target":"right","response":"right","rt":522.00000000001,"correct":true,"confidence":-1},{"trial_n":18,"n_dots":3.75,"target":"right","response":"right","rt":650,"correct":true,"confidence":-1},{"trial_n":19,"n_dots":3.75,"target":"right","response":"right","rt":294.00000000001,"correct":true,"confidence":-1},{"trial_n":20,"n_dots":3.65,"target":"left","response":"left","rt":256,"correct":true,"confidence":-1},{"trial_n":21,"n_dots":3.65,"target":"left","response":"left","rt":792,"correct":true,"confidence":3},{"trial_n":22,"n_dots":3.55,"target":"left","response":"left","rt":774,"correct":true,"confidence":2},{"trial_n":23,"n_dots":3.55,"target":"right","response":"left","rt":748,"correct":false,"confidence":2},{"trial_n":24,"n_dots":3.65,"target":"right","response":"right","rt":789,"correct":true,"confidence":1},{"trial_n":25,"n_dots":3.65,"target":"right","response":"left","rt":755,"correct":false,"confidence":1},{"trial_n":26,"n_dots":3.75,"target":"left","response":"left","rt":2280,"correct":true,"confidence":2},{"trial_n":27,"n_dots":3.75,"target":"right","response":"right","rt":587,"correct":true,"confidence":2},{"trial_n":28,"n_dots":3.65,"target":"left","response":"left","rt":845,"correct":true,"confidence":2},{"trial_n":29,"n_dots":3.65,"target":"right","response":"right","rt":544,"correct":true,"confidence":2},{"trial_n":30,"n_dots":3.55,"target":"right","response":"left","rt":1167,"correct":false,"confidence":2},{"trial_n":31,"n_dots":3.65,"target":"left","response":"left","rt":852.99999999997,"correct":true,"confidence":3},{"trial_n":32,"n_dots":3.65,"target":"left","response":"left","rt":1986,"correct":true,"confidence":1},{"trial_n":33,"n_dots":3.55,"target":"right","response":"left","rt":920,"correct":false,"confidence":2},{"trial_n":34,"n_dots":3.65,"target":"left","response":"left","rt":525.00000000003,"correct":true,"confidence":3},{"trial_n":35,"n_dots":3.65,"target":"right","response":"right","rt":423,"correct":true,"confidence":3},{"trial_n":36,"n_dots":3.55,"target":"left","response":"left","rt":684,"correct":true,"confidence":3},{"trial_n":37,"n_dots":3.55,"target":"right","response":"right","rt":655.99999999997,"correct":true,"confidence":3},{"trial_n":38,"n_dots":3.45,"target":"left","response":"left","rt":702,"correct":true,"confidence":2},{"trial_n":39,"n_dots":3.45,"target":"right","response":"right","rt":960,"correct":true,"confidence":2},{"trial_n":40,"n_dots":3.35,"target":"left","response":"left","rt":792,"correct":true,"confidence":1},{"trial_n":41,"n_dots":3.35,"target":"right","response":"left","rt":691,"correct":false,"confidence":1},{"trial_n":42,"n_dots":3.45,"target":"right","response":"left","rt":779,"correct":false,"confidence":1},{"trial_n":43,"n_dots":3.55,"target":"left","response":"left","rt":662,"correct":true,"confidence":1},{"trial_n":44,"n_dots":3.55,"target":"left","response":"right","rt":634,"correct":false,"confidence":1},{"trial_n":45,"n_dots":3.65,"target":"left","response":"left","rt":595,"correct":true,"confidence":2},{"trial_n":46,"n_dots":3.65,"target":"left","response":"left","rt":662,"correct":true,"confidence":2},{"trial_n":47,"n_dots":3.55,"target":"right","response":"left","rt":808.99999999994,"correct":false,"confidence":2},{"trial_n":48,"n_dots":3.65,"target":"left","response":"left","rt":260,"correct":true,"confidence":3},{"trial_n":49,"n_dots":3.65,"target":"right","response":"right","rt":345,"correct":true,"confidence":3},{"trial_n":50,"n_dots":3.55,"target":"left","response":"left","rt":1023,"correct":true,"confidence":1},{"trial_n":51,"n_dots":3.55,"target":"right","response":"left","rt":871,"correct":false,"confidence":1},{"trial_n":52,"n_dots":3.65,"target":"right","response":"left","rt":631.00000000006,"correct":false,"confidence":2},{"trial_n":53,"n_dots":3.75,"target":"left","response":"left","rt":495.00000000006,"correct":true,"confidence":1},{"trial_n":54,"n_dots":3.75,"target":"right","response":"left","rt":937,"correct":false,"confidence":1},{"trial_n":55,"n_dots":3.85,"target":"left","response":"left","rt":142,"correct":true,"confidence":3},{"trial_n":56,"n_dots":3.85,"target":"left","response":"left","rt":848.00000000006,"correct":true,"confidence":2},{"trial_n":57,"n_dots":3.75,"target":"right","response":"right","rt":738,"correct":true,"confidence":1},{"trial_n":58,"n_dots":3.75,"target":"right","response":"left","rt":871.00000000006,"correct":false,"confidence":1},{"trial_n":59,"n_dots":3.85,"target":"left","response":"left","rt":772,"correct":true,"confidence":1},{"trial_n":60,"n_dots":3.85,"target":"left","response":"left","rt":685,"correct":true,"confidence":1},{"trial_n":61,"n_dots":3.75,"target":"right","response":"left","rt":2299,"correct":false,"confidence":1},{"trial_n":62,"n_dots":3.85,"target":"right","response":"right","rt":1384,"correct":true,"confidence":2},{"trial_n":63,"n_dots":3.85,"target":"right","response":"right","rt":524,"correct":true,"confidence":3},{"trial_n":64,"n_dots":3.75,"target":"left","response":"left","rt":353.00000000006,"correct":true,"confidence":4},{"trial_n":65,"n_dots":3.75,"target":"right","response":"left","rt":864,"correct":false,"confidence":1},{"trial_n":66,"n_dots":3.85,"target":"right","response":"left","rt":984,"correct":false,"confidence":1},{"trial_n":67,"n_dots":3.95,"target":"left","response":"left","rt":247,"correct":true,"confidence":3},{"trial_n":68,"n_dots":3.95,"target":"right","response":"left","rt":1031,"correct":false,"confidence":1},{"trial_n":69,"n_dots":4.05,"target":"right","response":"right","rt":579,"correct":true,"confidence":2},{"trial_n":70,"n_dots":4.05,"target":"right","response":"left","rt":658.00000000012,"correct":false,"confidence":1},{"trial_n":71,"n_dots":4.15,"target":"right","response":"right","rt":678,"correct":true,"confidence":1},{"trial_n":72,"n_dots":4.15,"target":"right","response":"right","rt":596,"correct":true,"confidence":1},{"trial_n":73,"n_dots":4.05,"target":"left","response":"left","rt":234,"correct":true,"confidence":3},{"trial_n":74,"n_dots":4.05,"target":"right","response":"right","rt":630,"correct":true,"confidence":1},{"trial_n":75,"n_dots":3.95,"target":"left","response":"left","rt":448,"correct":true,"confidence":1},{"trial_n":76,"n_dots":3.95,"target":"right","response":"right","rt":390,"correct":true,"confidence":1},{"trial_n":77,"n_dots":3.85,"target":"left","response":"left","rt":249,"correct":true,"confidence":1},{"trial_n":78,"n_dots":3.85,"target":"right","response":"right","rt":325,"correct":true,"confidence":2},{"trial_n":79,"n_dots":3.75,"target":"right","response":"right","rt":700,"correct":true,"confidence":2},{"trial_n":80,"n_dots":3.75,"target":"right","response":"right","rt":114,"correct":true,"confidence":3},{"trial_n":81,"n_dots":3.65,"target":"left","response":"left","rt":698,"correct":true,"confidence":1},{"trial_n":82,"n_dots":3.65,"target":"right","response":"right","rt":767,"correct":true,"confidence":1},{"trial_n":83,"n_dots":3.55,"target":"left","response":"left","rt":852,"correct":true,"confidence":2},{"trial_n":84,"n_dots":3.55,"target":"right","response":"left","rt":628,"correct":false,"confidence":1},{"trial_n":85,"n_dots":3.65,"target":"right","response":"right","rt":504,"correct":true,"confidence":1},{"trial_n":86,"n_dots":3.65,"target":"left","response":"left","rt":519,"correct":true,"confidence":2},{"trial_n":87,"n_dots":3.55,"target":"left","response":"left","rt":296,"correct":true,"confidence":2},{"trial_n":88,"n_dots":3.55,"target":"right","response":"right","rt":374,"correct":true,"confidence":1},{"trial_n":89,"n_dots":3.45,"target":"right","response":"left","rt":246,"correct":false,"confidence":2},{"trial_n":90,"n_dots":3.55,"target":"left","response":"left","rt":157,"correct":true,"confidence":1},{"trial_n":91,"n_dots":3.55,"target":"right","response":"left","rt":162,"correct":false,"confidence":1},{"trial_n":92,"n_dots":3.65,"target":"left","response":"left","rt":1254,"correct":true,"confidence":2},{"trial_n":93,"n_dots":3.65,"target":"left","response":"left","rt":304.99999999988,"correct":true,"confidence":1},{"trial_n":94,"n_dots":3.55,"target":"right","response":"left","rt":261,"correct":false,"confidence":2},{"trial_n":95,"n_dots":3.65,"target":"right","response":"left","rt":647,"correct":false,"confidence":1},{"trial_n":96,"n_dots":3.75,"target":"left","response":"left","rt":578,"correct":true,"confidence":2},{"trial_n":97,"n_dots":3.75,"target":"left","response":"left","rt":298,"correct":true,"confidence":2},{"trial_n":98,"n_dots":3.65,"target":"left","response":"left","rt":326,"correct":true,"confidence":3},{"trial_n":99,"n_dots":3.65,"target":"left","response":"left","rt":230,"correct":true,"confidence":2},{"trial_n":100,"n_dots":3.55,"target":"left","response":"left","rt":388,"correct":true,"confidence":3},{"trial_n":101,"n_dots":3.55,"target":"right","response":"left","rt":696.99999999988,"correct":false,"confidence":1},{"trial_n":102,"n_dots":3.65,"target":"left","response":"left","rt":237.00000000012,"correct":true,"confidence":3},{"trial_n":103,"n_dots":3.65,"target":"left","response":"left","rt":799,"correct":true,"confidence":2},{"trial_n":104,"n_dots":3.55,"target":"left","response":"left","rt":512,"correct":true,"confidence":1},{"trial_n":105,"n_dots":3.55,"target":"left","response":"left","rt":698,"correct":true,"confidence":1},{"trial_n":106,"n_dots":3.45,"target":"left","response":"left","rt":1046,"correct":true,"confidence":2},{"trial_n":107,"n_dots":3.45,"target":"left","response":"left","rt":128,"correct":true,"confidence":2},{"trial_n":108,"n_dots":3.35,"target":"right","response":"left","rt":312.99999999988,"correct":false,"confidence":1},{"trial_n":109,"n_dots":3.45,"target":"left","response":"left","rt":564,"correct":true,"confidence":1},{"trial_n":110,"n_dots":3.45,"target":"left","response":"right","rt":2059.0000000001,"correct":false,"confidence":1},{"trial_n":111,"n_dots":3.55,"target":"right","response":"right","rt":472,"correct":true,"confidence":1},{"trial_n":112,"n_dots":3.55,"target":"left","response":"left","rt":297.00000000012,"correct":true,"confidence":2},{"trial_n":113,"n_dots":3.45,"target":"left","response":"left","rt":406,"correct":true,"confidence":1},{"trial_n":114,"n_dots":3.45,"target":"right","response":"left","rt":1029,"correct":false,"confidence":2},{"trial_n":115,"n_dots":3.55,"target":"right","response":"right","rt":293.99999999988,"correct":true,"confidence":1},{"trial_n":116,"n_dots":3.55,"target":"left","response":"left","rt":341.00000000012,"correct":true,"confidence":2},{"trial_n":117,"n_dots":3.45,"target":"right","response":"right","rt":315,"correct":true,"confidence":2},{"trial_n":118,"n_dots":3.45,"target":"right","response":"right","rt":755.99999999988,"correct":true,"confidence":1},{"trial_n":119,"n_dots":3.35,"target":"right","response":"right","rt":374,"correct":true,"confidence":1},{"trial_n":120,"n_dots":3.35,"target":"left","response":"left","rt":423,"correct":true,"confidence":1}]