[{"trial_n":1,"span":8,"encoder":"79191757","distractor":"79111757","target":"present","response":"present","rt":"2499.8999999762","correct":true,"confidence":-1},{"trial_n":2,"span":8,"encoder":"53359957","distractor":"53353957","target":"present","response":"present","rt":"2381.6000000238","correct":true,"confidence":-1},{"trial_n":3,"span":10,"encoder":"2179301813","distractor":"6179301813","target":"absent","response":"absent","rt":"2312.2000000477","correct":true,"confidence":-1},{"trial_n":4,"span":10,"encoder":"5852267114","distractor":"5822267114","target":"absent","response":"present","rt":"1996.7999999523","correct":false,"confidence":-1},{"trial_n":5,"span":8,"encoder":"95004598","distractor":"95008598","target":"present","response":"present","rt":"1622","correct":true,"confidence":-1},{"trial_n":6,"span":8,"encoder":"76186459","distractor":"76286459","target":"absent","response":"present","rt":"3024.2999999523","correct":false,"confidence":-1},{"trial_n":7,"span":6,"encoder":"827733","distractor":"877733","target":"absent","response":"absent","rt":"2693.6000000238","correct":true,"confidence":-1},{"trial_n":8,"span":6,"encoder":"339203","distractor":"339293","target":"present","response":"present","rt":"2985","correct":true,"confidence":-1},{"trial_n":9,"span":8,"encoder":"08681828","distractor":"08684828","target":"present","response":"present","rt":"2859.2999999523","correct":true,"confidence":-1},{"trial_n":10,"span":8,"encoder":"33178721","distractor":"33179721","target":"present","response":"present","rt":"2453.7999999523","correct":true,"confidence":-1},{"trial_n":11,"span":10,"encoder":"5093700492","distractor":"5793700492","target":"present","response":"present","rt":"2183.8999999762","correct":true,"confidence":-1},{"trial_n":12,"span":10,"encoder":"7586978811","distractor":"7586978841","target":"absent","response":"absent","rt":"1634.2999999523","correct":true,"confidence":-1},{"trial_n":13,"span":11,"encoder":"92507810369","distractor":"82507810369","target":"absent","response":"present","rt":"2816.2000000477","correct":false,"confidence":-1},{"trial_n":14,"span":10,"encoder":"3189189509","distractor":"3189189503","target":"absent","response":"absent","rt":"1570.6000000238","correct":true,"confidence":-1},{"trial_n":15,"span":10,"encoder":"8569915511","distractor":"8569915571","target":"present","response":"present","rt":"2142","correct":true,"confidence":-1},{"trial_n":16,"span":11,"encoder":"57176239795","distractor":"53176239795","target":"present","response":"present","rt":"1972.2999999523","correct":true,"confidence":-1},{"trial_n":17,"span":11,"encoder":"59036860426","distractor":"29036860426","target":"absent","response":"absent","rt":"1666.6000000238","correct":true,"confidence":-1},{"trial_n":18,"span":12,"encoder":"005962178571","distractor":"005962178581","target":"present","response":"present","rt":"1680","correct":true,"confidence":-1},{"trial_n":19,"span":12,"encoder":"138029476661","distractor":"138029476061","target":"absent","response":"absent","rt":"1526.2999999523","correct":true,"confidence":-1},{"trial_n":20,"span":13,"encoder":"3620956341586","distractor":"3620956341486","target":"absent","response":"present","rt":"1683.1000000238","correct":false,"confidence":-1},{"trial_n":21,"span":12,"encoder":"426748694604","distractor":"426748694664","target":"present","response":"present","rt":"2707","correct":true,"confidence":3},{"trial_n":22,"span":12,"encoder":"976797334302","distractor":"976097334302","target":"present","response":"present","rt":"5274.8999999762","correct":true,"confidence":2},{"trial_n":23,"span":13,"encoder":"2078855638225","distractor":"4078855638225","target":"present","response":"present","rt":"2805.6000000238","correct":true,"confidence":3},{"trial_n":24,"span":13,"encoder":"5129573521195","distractor":"5129533521195","target":"absent","response":"present","rt":"2771.8999999762","correct":false,"confidence":3},{"trial_n":25,"span":12,"encoder":"805361721537","distractor":"805361721536","target":"present","response":"absent","rt":"1778","correct":false,"confidence":3},{"trial_n":26,"span":11,"encoder":"81789763430","distractor":"85789763430","target":"present","response":"present","rt":"2684.7000000477","correct":true,"confidence":1},{"trial_n":27,"span":11,"encoder":"55774817171","distractor":"55774617171","target":"present","response":"present","rt":"1661.2999999523","correct":true,"confidence":4},{"trial_n":28,"span":12,"encoder":"418597473090","distractor":"418597073090","target":"present","response":"present","rt":"2127.5","correct":true,"confidence":4},{"trial_n":29,"span":12,"encoder":"315047721408","distractor":"315045721408","target":"absent","response":"absent","rt":"2765","correct":true,"confidence":1},{"trial_n":30,"span":13,"encoder":"9802250801908","distractor":"9806250801908","target":"absent","response":"present","rt":"3371.2000000477","correct":false,"confidence":2},{"trial_n":31,"span":12,"encoder":"431356266796","distractor":"731356266796","target":"present","response":"present","rt":"2102.2000000477","correct":true,"confidence":4},{"trial_n":32,"span":12,"encoder":"807543292878","distractor":"806543292878","target":"absent","response":"present","rt":"2194.7999999523","correct":false,"confidence":2},{"trial_n":33,"span":11,"encoder":"80546518913","distractor":"80536518913","target":"absent","response":"present","rt":"2054.6000000238","correct":false,"confidence":3},{"trial_n":34,"span":10,"encoder":"8589766936","distractor":"8589666936","target":"present","response":"present","rt":"1951.7999999523","correct":true,"confidence":5},{"trial_n":35,"span":10,"encoder":"0429971208","distractor":"0429971228","target":"absent","response":"absent","rt":"4860.3999999762","correct":true,"confidence":1},{"trial_n":36,"span":11,"encoder":"56933054713","distractor":"56833054713","target":"present","response":"present","rt":"5134","correct":true,"confidence":1},{"trial_n":37,"span":11,"encoder":"02642005999","distractor":"02602005999","target":"present","response":"absent","rt":"3280.2000000477","correct":false,"confidence":3},{"trial_n":38,"span":10,"encoder":"3903447985","distractor":"3003447985","target":"absent","response":"absent","rt":"3315.1000000238","correct":true,"confidence":2},{"trial_n":39,"span":10,"encoder":"0556776838","distractor":"5556776838","target":"absent","response":"present","rt":"2262.3999999762","correct":false,"confidence":2},{"trial_n":40,"span":9,"encoder":"554090349","distractor":"554090549","target":"present","response":"present","rt":"1669.7000000477","correct":true,"confidence":4},{"trial_n":41,"span":9,"encoder":"787106956","distractor":"789106956","target":"absent","response":"present","rt":"1802.7999999523","correct":false,"confidence":1},{"trial_n":42,"span":8,"encoder":"04776258","distractor":"04776958","target":"present","response":"present","rt":"1978.3999999762","correct":true,"confidence":1},{"trial_n":43,"span":8,"encoder":"90948307","distractor":"90928307","target":"absent","response":"present","rt":"1354.7999999523","correct":false,"confidence":3},{"trial_n":44,"span":7,"encoder":"1121098","distractor":"1121091","target":"absent","response":"present","rt":"1616.7000000477","correct":false,"confidence":5},{"trial_n":45,"span":6,"encoder":"326427","distractor":"329427","target":"absent","response":"absent","rt":"4763.5","correct":true,"confidence":3},{"trial_n":46,"span":6,"encoder":"468332","distractor":"466332","target":"absent","response":"absent","rt":"2881.2000000477","correct":true,"confidence":2},{"trial_n":47,"span":7,"encoder":"4907827","distractor":"4908827","target":"present","response":"present","rt":"3596.2999999523","correct":true,"confidence":4},{"trial_n":48,"span":7,"encoder":"7135673","distractor":"7135973","target":"present","response":"present","rt":"2379.1000000238","correct":true,"confidence":4},{"trial_n":49,"span":8,"encoder":"99430815","distractor":"99830815","target":"absent","response":"absent","rt":"2717.5","correct":true,"confidence":3},{"trial_n":50,"span":8,"encoder":"52846366","distractor":"52845366","target":"present","response":"present","rt":"2466.3999999762","correct":true,"confidence":4},{"trial_n":51,"span":9,"encoder":"349994651","distractor":"349995651","target":"absent","response":"present","rt":"2037.1000000238","correct":false,"confidence":4},{"trial_n":52,"span":8,"encoder":"74240722","distractor":"74243722","target":"absent","response":"present","rt":"1975.2000000477","correct":false,"confidence":5},{"trial_n":53,"span":7,"encoder":"0127035","distractor":"0123035","target":"present","response":"present","rt":"1583.7999999523","correct":true,"confidence":5},{"trial_n":54,"span":7,"encoder":"0935047","distractor":"0955047","target":"absent","response":"absent","rt":"2488.7000000477","correct":true,"confidence":3},{"trial_n":55,"span":8,"encoder":"71665415","distractor":"71865415","target":"absent","response":"absent","rt":"1808.5","correct":true,"confidence":5},{"trial_n":56,"span":8,"encoder":"81441601","distractor":"81481601","target":"present","response":"present","rt":"2345.6000000238","correct":true,"confidence":4},{"trial_n":57,"span":9,"encoder":"511699060","distractor":"511699061","target":"absent","response":"present","rt":"2743.7999999523","correct":false,"confidence":2},{"trial_n":58,"span":8,"encoder":"87077599","distractor":"87077559","target":"present","response":"present","rt":"1468.1000000238","correct":true,"confidence":5},{"trial_n":59,"span":8,"encoder":"53826759","distractor":"58826759","target":"absent","response":"present","rt":"1788.2000000477","correct":false,"confidence":2},{"trial_n":60,"span":7,"encoder":"7608967","distractor":"7678967","target":"present","response":"present","rt":"2236","correct":true,"confidence":4},{"trial_n":61,"span":7,"encoder":"2328636","distractor":"2628636","target":"present","response":"present","rt":"1672.2000000477","correct":true,"confidence":5},{"trial_n":62,"span":8,"encoder":"98500477","distractor":"98400477","target":"absent","response":"present","rt":"2974","correct":false,"confidence":5},{"trial_n":63,"span":7,"encoder":"4560874","distractor":"4560374","target":"present","response":"present","rt":"1505","correct":true,"confidence":4},{"trial_n":64,"span":7,"encoder":"0894283","distractor":"0895283","target":"absent","response":"present","rt":"1167.8999999762","correct":false,"confidence":3},{"trial_n":65,"span":6,"encoder":"128965","distractor":"128995","target":"absent","response":"absent","rt":"2004.1000000238","correct":true,"confidence":2},{"trial_n":66,"span":6,"encoder":"349563","distractor":"349763","target":"present","response":"present","rt":"1559.7000000477","correct":true,"confidence":4},{"trial_n":67,"span":7,"encoder":"8142412","distractor":"8342412","target":"absent","response":"present","rt":"1171","correct":false,"confidence":4},{"trial_n":68,"span":6,"encoder":"074424","distractor":"074422","target":"present","response":"present","rt":"1177.7000000477","correct":true,"confidence":5},{"trial_n":69,"span":6,"encoder":"840654","distractor":"840554","target":"present","response":"present","rt":"2724","correct":true,"confidence":5},{"trial_n":70,"span":7,"encoder":"5166118","distractor":"6166118","target":"present","response":"present","rt":"1344.5","correct":true,"confidence":5},{"trial_n":71,"span":8,"encoder":"95302127","distractor":"95302129","target":"present","response":"present","rt":"3465.6000000238","correct":true,"confidence":-1},{"trial_n":72,"span":8,"encoder":"78448288","distractor":"78448281","target":"present","response":"present","rt":"885.70000004768","correct":true,"confidence":-1},{"trial_n":73,"span":9,"encoder":"457524710","distractor":"457527710","target":"absent","response":"absent","rt":"2931.8999999762","correct":true,"confidence":-1},{"trial_n":74,"span":9,"encoder":"887405826","distractor":"887405426","target":"absent","response":"absent","rt":"1296.5","correct":true,"confidence":-1},{"trial_n":75,"span":10,"encoder":"0724089729","distractor":"0724089725","target":"present","response":"present","rt":"1393.2999999523","correct":true,"confidence":-1},{"trial_n":76,"span":10,"encoder":"5813371898","distractor":"5815371898","target":"present","response":"absent","rt":"3488.2999999523","correct":false,"confidence":-1},{"trial_n":77,"span":9,"encoder":"891422358","distractor":"491422358","target":"present","response":"present","rt":"4701.6000000238","correct":true,"confidence":-1},{"trial_n":78,"span":9,"encoder":"686705701","distractor":"686505701","target":"absent","response":"present","rt":"2011.8999999762","correct":false,"confidence":-1},{"trial_n":79,"span":8,"encoder":"20319106","distractor":"20319006","target":"absent","response":"absent","rt":"1767.5","correct":true,"confidence":-1},{"trial_n":80,"span":8,"encoder":"18705888","distractor":"18705838","target":"absent","response":"absent","rt":"1497.8999999762","correct":true,"confidence":-1},{"trial_n":81,"span":9,"encoder":"739468268","distractor":"739268268","target":"present","response":"absent","rt":"2911.2000000477","correct":false,"confidence":-1},{"trial_n":82,"span":8,"encoder":"80785746","distractor":"80775746","target":"absent","response":"absent","rt":"1113","correct":true,"confidence":-1},{"trial_n":83,"span":8,"encoder":"13691664","distractor":"13699664","target":"absent","response":"absent","rt":"1621","correct":true,"confidence":-1},{"trial_n":84,"span":9,"encoder":"481423157","distractor":"481483157","target":"present","response":"absent","rt":"1687.7000000477","correct":false,"confidence":-1},{"trial_n":85,"span":8,"encoder":"99504238","distractor":"99504230","target":"present","response":"present","rt":"2897.2000000477","correct":true,"confidence":-1},{"trial_n":86,"span":8,"encoder":"52279980","distractor":"52279880","target":"present","response":"present","rt":"1875.2000000477","correct":true,"confidence":-1},{"trial_n":87,"span":9,"encoder":"262996612","distractor":"212996612","target":"absent","response":"absent","rt":"4314.1000000238","correct":true,"confidence":-1},{"trial_n":88,"span":9,"encoder":"719103968","distractor":"719103928","target":"absent","response":"absent","rt":"1434.7000000477","correct":true,"confidence":-1},{"trial_n":89,"span":10,"encoder":"6333019324","distractor":"6333019624","target":"present","response":"absent","rt":"642.70000004768","correct":false,"confidence":-1},{"trial_n":90,"span":9,"encoder":"006912460","distractor":"006912468","target":"absent","response":"absent","rt":"742.70000004768","correct":true,"confidence":-1},{"trial_n":91,"span":9,"encoder":"837997485","distractor":"837997482","target":"absent","response":"absent","rt":"1468.2000000477","correct":true,"confidence":5},{"trial_n":92,"span":10,"encoder":"9314913926","distractor":"9814913926","target":"absent","response":"absent","rt":"3791.8999999762","correct":true,"confidence":2},{"trial_n":93,"span":10,"encoder":"9539878335","distractor":"9539873335","target":"absent","response":"absent","rt":"1837.5","correct":true,"confidence":5},{"trial_n":94,"span":11,"encoder":"39378495382","distractor":"39377495382","target":"present","response":"present","rt":"1886.1000000238","correct":true,"confidence":5},{"trial_n":95,"span":11,"encoder":"71209737313","distractor":"71203737313","target":"absent","response":"present","rt":"3316.2999999523","correct":false,"confidence":1},{"trial_n":96,"span":10,"encoder":"6373026006","distractor":"6373096006","target":"present","response":"present","rt":"5399.5","correct":true,"confidence":1},{"trial_n":97,"span":10,"encoder":"6645092386","distractor":"6645092396","target":"present","response":"present","rt":"2534.6000000238","correct":true,"confidence":5},{"trial_n":98,"span":11,"encoder":"80326358611","distractor":"80326758611","target":"present","response":"present","rt":"4067.7999999523","correct":true,"confidence":1},{"trial_n":99,"span":11,"encoder":"74324850690","distractor":"74324850790","target":"present","response":"present","rt":"3131.2000000477","correct":true,"confidence":5},{"trial_n":100,"span":12,"encoder":"470041071101","distractor":"470046071101","target":"present","response":"absent","rt":"4355.8999999762","correct":false,"confidence":3},{"trial_n":101,"span":11,"encoder":"81897514046","distractor":"21897514046","target":"present","response":"absent","rt":"2026.8999999762","correct":false,"confidence":1},{"trial_n":102,"span":10,"encoder":"4024265007","distractor":"4084265007","target":"absent","response":"absent","rt":"3298","correct":true,"confidence":1},{"trial_n":103,"span":10,"encoder":"7218946313","distractor":"2218946313","target":"absent","response":"absent","rt":"6395.7000000477","correct":true,"confidence":1},{"trial_n":104,"span":11,"encoder":"01605557317","distractor":"01605557316","target":"present","response":"present","rt":"3380.6000000238","correct":true,"confidence":2},{"trial_n":105,"span":11,"encoder":"25821835967","distractor":"25821935967","target":"present","response":"absent","rt":"5207.1000000238","correct":false,"confidence":1},{"trial_n":106,"span":10,"encoder":"3976583835","distractor":"3986583835","target":"absent","response":"present","rt":"3549.3999999762","correct":false,"confidence":2},{"trial_n":107,"span":9,"encoder":"777547874","distractor":"777547876","target":"absent","response":"absent","rt":"5074.5","correct":true,"confidence":4},{"trial_n":108,"span":9,"encoder":"768943738","distractor":"768943138","target":"absent","response":"absent","rt":"2516.7000000477","correct":true,"confidence":2},{"trial_n":109,"span":10,"encoder":"2159627293","distractor":"2159627283","target":"absent","response":"absent","rt":"5519","correct":true,"confidence":2},{"trial_n":110,"span":10,"encoder":"5984697333","distractor":"5784697333","target":"absent","response":"absent","rt":"3461.5","correct":true,"confidence":4},{"trial_n":111,"span":11,"encoder":"07562616070","distractor":"47562616070","target":"absent","response":"absent","rt":"4439.7999999523","correct":true,"confidence":2},{"trial_n":112,"span":11,"encoder":"27163764420","distractor":"29163764420","target":"present","response":"present","rt":"3452.5","correct":true,"confidence":3},{"trial_n":113,"span":12,"encoder":"410834792501","distractor":"410837792501","target":"present","response":"present","rt":"3053.7000000477","correct":true,"confidence":1},{"trial_n":114,"span":12,"encoder":"611099647113","distractor":"611199647113","target":"absent","response":"absent","rt":"2659.3999999762","correct":true,"confidence":5},{"trial_n":115,"span":13,"encoder":"7532846513279","distractor":"1532846513279","target":"present","response":"absent","rt":"10407","correct":false,"confidence":2},{"trial_n":116,"span":12,"encoder":"074005559550","distractor":"074005559520","target":"absent","response":"absent","rt":"6347.5","correct":true,"confidence":5},{"trial_n":117,"span":12,"encoder":"114798977743","distractor":"114798177743","target":"absent","response":"absent","rt":"3973.7999999523","correct":true,"confidence":3},{"trial_n":118,"span":13,"encoder":"8731450361437","distractor":"8731450361137","target":"present","response":"absent","rt":"1243.6000000238","correct":false,"confidence":1},{"trial_n":119,"span":12,"encoder":"843488116923","distractor":"843988116923","target":"absent","response":"absent","rt":"5894.8999999762","correct":true,"confidence":2},{"trial_n":120,"span":12,"encoder":"929675742615","distractor":"929678742615","target":"present","response":"present","rt":"1664.5","correct":true,"confidence":3},{"trial_n":121,"span":13,"encoder":"0689362211466","distractor":"0684362211466","target":"present","response":"present","rt":"5481.2999999523","correct":true,"confidence":2},{"trial_n":122,"span":13,"encoder":"6594328832960","distractor":"2594328832960","target":"absent","response":"absent","rt":"1544.8999999762","correct":true,"confidence":1},{"trial_n":123,"span":14,"encoder":"12996975502924","distractor":"82996975502924","target":"present","response":"absent","rt":"4838.7000000477","correct":false,"confidence":3},{"trial_n":124,"span":13,"encoder":"4427808033065","distractor":"4027808033065","target":"present","response":"absent","rt":"4768.2000000477","correct":false,"confidence":5},{"trial_n":125,"span":12,"encoder":"687094225032","distractor":"687494225032","target":"present","response":"present","rt":"5866.2000000477","correct":true,"confidence":3},{"trial_n":126,"span":12,"encoder":"570029506429","distractor":"570629506429","target":"absent","response":"absent","rt":"1702.6000000238","correct":true,"confidence":5},{"trial_n":127,"span":13,"encoder":"7353473577702","distractor":"7353473527702","target":"present","response":"present","rt":"1987.1000000238","correct":true,"confidence":5},{"trial_n":128,"span":13,"encoder":"7275624029462","distractor":"7205624029462","target":"present","response":"present","rt":"4781.5","correct":true,"confidence":1},{"trial_n":129,"span":14,"encoder":"71789639406044","distractor":"91789639406044","target":"absent","response":"absent","rt":"2824.1000000238","correct":true,"confidence":5},{"trial_n":130,"span":14,"encoder":"00564959012940","distractor":"00564959018940","target":"absent","response":"absent","rt":"7888.7999999523","correct":true,"confidence":1},{"trial_n":131,"span":15,"encoder":"429372092566160","distractor":"429372092966160","target":"absent","response":"absent","rt":"5190.2000000477","correct":true,"confidence":1},{"trial_n":132,"span":15,"encoder":"246224366447883","distractor":"246224365447883","target":"present","response":"present","rt":"4264.3999999762","correct":true,"confidence":5},{"trial_n":133,"span":16,"encoder":"3888621677580243","distractor":"3888621677380243","target":"present","response":"absent","rt":"4428.3999999762","correct":false,"confidence":1},{"trial_n":134,"span":15,"encoder":"908416248742622","distractor":"908416249742622","target":"present","response":"present","rt":"3967.5","correct":true,"confidence":1},{"trial_n":135,"span":15,"encoder":"295275172956755","distractor":"295275172958755","target":"present","response":"absent","rt":"3203.1000000238","correct":false,"confidence":2},{"trial_n":136,"span":14,"encoder":"54324898196594","distractor":"54324895196594","target":"present","response":"present","rt":"3400.6000000238","correct":true,"confidence":3},{"trial_n":137,"span":14,"encoder":"52833513998979","distractor":"92833513998979","target":"absent","response":"absent","rt":"5434.2999999523","correct":true,"confidence":3},{"trial_n":138,"span":15,"encoder":"115174699754045","distractor":"115174699784045","target":"absent","response":"absent","rt":"1553.2000000477","correct":true,"confidence":1},{"trial_n":139,"span":15,"encoder":"827211732726415","distractor":"827211732766415","target":"present","response":"absent","rt":"3379.1000000238","correct":false,"confidence":1},{"trial_n":140,"span":14,"encoder":"75166388812386","distractor":"75166388852386","target":"absent","response":"present","rt":"3018.7000000477","correct":false,"confidence":2}]