[{"trial_n":1,"n_dots":4.25,"target":"left","response":"left","rt":4470,"correct":true,"confidence":-1},{"trial_n":2,"n_dots":4.25,"target":"left","response":"right","rt":4121,"correct":false,"confidence":-1},{"trial_n":3,"n_dots":4.65,"target":"left","response":"left","rt":781.00000000001,"correct":true,"confidence":-1},{"trial_n":4,"n_dots":4.65,"target":"left","response":"left","rt":730,"correct":true,"confidence":-1},{"trial_n":5,"n_dots":4.25,"target":"right","response":"right","rt":394,"correct":true,"confidence":-1},{"trial_n":6,"n_dots":4.25,"target":"left","response":"left","rt":667.99999999999,"correct":true,"confidence":-1},{"trial_n":7,"n_dots":3.85,"target":"right","response":"right","rt":838,"correct":true,"confidence":-1},{"trial_n":8,"n_dots":3.85,"target":"left","response":"left","rt":1074,"correct":true,"confidence":-1},{"trial_n":9,"n_dots":3.65,"target":"right","response":"right","rt":1361,"correct":true,"confidence":-1},{"trial_n":10,"n_dots":3.65,"target":"right","response":"left","rt":655,"correct":false,"confidence":-1},{"trial_n":11,"n_dots":3.85,"target":"right","response":"right","rt":847,"correct":true,"confidence":-1},{"trial_n":12,"n_dots":3.85,"target":"left","response":"left","rt":393,"correct":true,"confidence":-1},{"trial_n":13,"n_dots":3.75,"target":"right","response":"right","rt":770.00000000001,"correct":true,"confidence":-1},{"trial_n":14,"n_dots":3.75,"target":"right","response":"right","rt":822,"correct":true,"confidence":-1},{"trial_n":15,"n_dots":3.65,"target":"right","response":"right","rt":1476,"correct":true,"confidence":-1},{"trial_n":16,"n_dots":3.65,"target":"left","response":"left","rt":1213,"correct":true,"confidence":-1},{"trial_n":17,"n_dots":3.55,"target":"right","response":"right","rt":733,"correct":true,"confidence":-1},{"trial_n":18,"n_dots":3.55,"target":"left","response":"left","rt":777,"correct":true,"confidence":-1},{"trial_n":19,"n_dots":3.45,"target":"right","response":"right","rt":2151,"correct":true,"confidence":-1},{"trial_n":20,"n_dots":3.45,"target":"left","response":"left","rt":1364,"correct":true,"confidence":-1},{"trial_n":21,"n_dots":3.35,"target":"left","response":"right","rt":367.99999999999,"correct":false,"confidence":3},{"trial_n":22,"n_dots":3.45,"target":"left","response":"left","rt":1509,"correct":true,"confidence":4},{"trial_n":23,"n_dots":3.45,"target":"left","response":"right","rt":1392,"correct":false,"confidence":3},{"trial_n":24,"n_dots":3.55,"target":"left","response":"left","rt":1394,"correct":true,"confidence":1},{"trial_n":25,"n_dots":3.55,"target":"left","response":"left","rt":767,"correct":true,"confidence":3},{"trial_n":26,"n_dots":3.45,"target":"left","response":"left","rt":1816,"correct":true,"confidence":3},{"trial_n":27,"n_dots":3.45,"target":"left","response":"left","rt":865,"correct":true,"confidence":2},{"trial_n":28,"n_dots":3.35,"target":"right","response":"right","rt":1106,"correct":true,"confidence":2},{"trial_n":29,"n_dots":3.35,"target":"right","response":"right","rt":545,"correct":true,"confidence":4},{"trial_n":30,"n_dots":3.25,"target":"right","response":"left","rt":632,"correct":false,"confidence":1},{"trial_n":31,"n_dots":3.35,"target":"right","response":"right","rt":301,"correct":true,"confidence":4},{"trial_n":32,"n_dots":3.35,"target":"right","response":"right","rt":511,"correct":true,"confidence":3},{"trial_n":33,"n_dots":3.25,"target":"left","response":"left","rt":741.00000000003,"correct":true,"confidence":2},{"trial_n":34,"n_dots":3.25,"target":"left","response":"left","rt":1240,"correct":true,"confidence":2},{"trial_n":35,"n_dots":3.15,"target":"right","response":"right","rt":677.00000000003,"correct":true,"confidence":3},{"trial_n":36,"n_dots":3.15,"target":"left","response":"right","rt":941,"correct":false,"confidence":2},{"trial_n":37,"n_dots":3.25,"target":"left","response":"left","rt":1913,"correct":true,"confidence":1},{"trial_n":38,"n_dots":3.25,"target":"left","response":"right","rt":631,"correct":false,"confidence":3},{"trial_n":39,"n_dots":3.35,"target":"left","response":"right","rt":514,"correct":false,"confidence":5},{"trial_n":40,"n_dots":3.45,"target":"left","response":"right","rt":1310,"correct":false,"confidence":1},{"trial_n":41,"n_dots":3.55,"target":"right","response":"right","rt":489,"correct":true,"confidence":3},{"trial_n":42,"n_dots":3.55,"target":"right","response":"right","rt":569,"correct":true,"confidence":1},{"trial_n":43,"n_dots":3.45,"target":"left","response":"left","rt":1359,"correct":true,"confidence":2},{"trial_n":44,"n_dots":3.45,"target":"right","response":"right","rt":757.00000000006,"correct":true,"confidence":3},{"trial_n":45,"n_dots":3.35,"target":"right","response":"right","rt":1009,"correct":true,"confidence":1},{"trial_n":46,"n_dots":3.35,"target":"right","response":"right","rt":723,"correct":true,"confidence":3},{"trial_n":47,"n_dots":3.25,"target":"left","response":"right","rt":1133,"correct":false,"confidence":1},{"trial_n":48,"n_dots":3.35,"target":"right","response":"right","rt":284,"correct":true,"confidence":1},{"trial_n":49,"n_dots":3.35,"target":"right","response":"right","rt":1260,"correct":true,"confidence":3},{"trial_n":50,"n_dots":3.25,"target":"right","response":"right","rt":1253,"correct":true,"confidence":1},{"trial_n":51,"n_dots":3.25,"target":"right","response":"right","rt":397,"correct":true,"confidence":2},{"trial_n":52,"n_dots":3.15,"target":"right","response":"left","rt":1598.9999999999,"correct":false,"confidence":2},{"trial_n":53,"n_dots":3.25,"target":"right","response":"right","rt":1731,"correct":true,"confidence":2},{"trial_n":54,"n_dots":3.25,"target":"left","response":"right","rt":723,"correct":false,"confidence":3},{"trial_n":55,"n_dots":3.35,"target":"right","response":"right","rt":5572,"correct":true,"confidence":4},{"trial_n":56,"n_dots":3.35,"target":"left","response":"left","rt":1304,"correct":true,"confidence":2},{"trial_n":57,"n_dots":3.25,"target":"left","response":"right","rt":2975,"correct":false,"confidence":2},{"trial_n":58,"n_dots":3.35,"target":"right","response":"left","rt":3199.9999999999,"correct":false,"confidence":1},{"trial_n":59,"n_dots":3.45,"target":"right","response":"right","rt":297,"correct":true,"confidence":5},{"trial_n":60,"n_dots":3.45,"target":"right","response":"right","rt":86,"correct":true,"confidence":3},{"trial_n":61,"n_dots":3.35,"target":"right","response":"right","rt":1105,"correct":true,"confidence":2},{"trial_n":62,"n_dots":3.35,"target":"right","response":"left","rt":1060,"correct":false,"confidence":3},{"trial_n":63,"n_dots":3.45,"target":"right","response":"left","rt":939.00000000006,"correct":false,"confidence":1},{"trial_n":64,"n_dots":3.55,"target":"left","response":"left","rt":1507,"correct":true,"confidence":3},{"trial_n":65,"n_dots":3.55,"target":"left","response":"left","rt":1008,"correct":true,"confidence":2},{"trial_n":66,"n_dots":3.45,"target":"right","response":"right","rt":952,"correct":true,"confidence":3},{"trial_n":67,"n_dots":3.45,"target":"left","response":"left","rt":975.00000000006,"correct":true,"confidence":3},{"trial_n":68,"n_dots":3.35,"target":"left","response":"left","rt":497,"correct":true,"confidence":4},{"trial_n":69,"n_dots":3.35,"target":"left","response":"right","rt":1070,"correct":false,"confidence":1},{"trial_n":70,"n_dots":3.45,"target":"right","response":"right","rt":488,"correct":true,"confidence":3},{"trial_n":71,"n_dots":3.45,"target":"right","response":"right","rt":1262,"correct":true,"confidence":1},{"trial_n":72,"n_dots":3.35,"target":"right","response":"right","rt":405.00000000006,"correct":true,"confidence":3},{"trial_n":73,"n_dots":3.35,"target":"left","response":"left","rt":403,"correct":true,"confidence":3},{"trial_n":74,"n_dots":3.25,"target":"left","response":"left","rt":613,"correct":true,"confidence":3},{"trial_n":75,"n_dots":3.25,"target":"right","response":"right","rt":1034,"correct":true,"confidence":3},{"trial_n":76,"n_dots":3.15,"target":"right","response":"right","rt":1834,"correct":true,"confidence":3},{"trial_n":77,"n_dots":3.15,"target":"right","response":"right","rt":1382,"correct":true,"confidence":1},{"trial_n":78,"n_dots":3.05,"target":"left","response":"right","rt":1417,"correct":false,"confidence":1},{"trial_n":79,"n_dots":3.15,"target":"left","response":"left","rt":3117,"correct":true,"confidence":1},{"trial_n":80,"n_dots":3.15,"target":"left","response":"left","rt":1034,"correct":true,"confidence":4},{"trial_n":81,"n_dots":3.05,"target":"right","response":"right","rt":564.00000000012,"correct":true,"confidence":3},{"trial_n":82,"n_dots":3.05,"target":"left","response":"left","rt":403,"correct":true,"confidence":3},{"trial_n":83,"n_dots":2.95,"target":"left","response":"left","rt":480,"correct":true,"confidence":3},{"trial_n":84,"n_dots":2.95,"target":"right","response":"right","rt":609,"correct":true,"confidence":2},{"trial_n":85,"n_dots":2.85,"target":"left","response":"left","rt":415.99999999988,"correct":true,"confidence":3},{"trial_n":86,"n_dots":2.85,"target":"right","response":"left","rt":177,"correct":false,"confidence":1},{"trial_n":87,"n_dots":2.95,"target":"left","response":"left","rt":636.00000000012,"correct":true,"confidence":2},{"trial_n":88,"n_dots":2.95,"target":"left","response":"right","rt":1735,"correct":false,"confidence":2},{"trial_n":89,"n_dots":3.05,"target":"right","response":"left","rt":1320,"correct":false,"confidence":1},{"trial_n":90,"n_dots":3.15,"target":"left","response":"left","rt":224,"correct":true,"confidence":3},{"trial_n":91,"n_dots":3.15,"target":"left","response":"left","rt":472,"correct":true,"confidence":1},{"trial_n":92,"n_dots":3.05,"target":"right","response":"right","rt":519,"correct":true,"confidence":4},{"trial_n":93,"n_dots":3.05,"target":"right","response":"right","rt":453,"correct":true,"confidence":1},{"trial_n":94,"n_dots":2.95,"target":"right","response":"right","rt":665,"correct":true,"confidence":5},{"trial_n":95,"n_dots":2.95,"target":"left","response":"left","rt":264,"correct":true,"confidence":3},{"trial_n":96,"n_dots":2.85,"target":"left","response":"left","rt":445,"correct":true,"confidence":2},{"trial_n":97,"n_dots":2.85,"target":"left","response":"right","rt":1708.0000000001,"correct":false,"confidence":1},{"trial_n":98,"n_dots":2.95,"target":"right","response":"left","rt":2207,"correct":false,"confidence":1},{"trial_n":99,"n_dots":3.05,"target":"left","response":"left","rt":1347,"correct":true,"confidence":2},{"trial_n":100,"n_dots":3.05,"target":"right","response":"left","rt":830,"correct":false,"confidence":2},{"trial_n":101,"n_dots":3.15,"target":"right","response":"left","rt":393,"correct":false,"confidence":2},{"trial_n":102,"n_dots":3.25,"target":"right","response":"right","rt":266,"correct":true,"confidence":1},{"trial_n":103,"n_dots":3.25,"target":"right","response":"left","rt":903,"correct":false,"confidence":2},{"trial_n":104,"n_dots":3.35,"target":"left","response":"right","rt":1033.0000000001,"correct":false,"confidence":3},{"trial_n":105,"n_dots":3.45,"target":"right","response":"right","rt":735,"correct":true,"confidence":4},{"trial_n":106,"n_dots":3.45,"target":"left","response":"left","rt":750,"correct":true,"confidence":3},{"trial_n":107,"n_dots":3.35,"target":"right","response":"right","rt":1075,"correct":true,"confidence":3},{"trial_n":108,"n_dots":3.35,"target":"left","response":"left","rt":626,"correct":true,"confidence":4},{"trial_n":109,"n_dots":3.25,"target":"right","response":"right","rt":197,"correct":true,"confidence":3},{"trial_n":110,"n_dots":3.25,"target":"right","response":"left","rt":712.00000000012,"correct":false,"confidence":3},{"trial_n":111,"n_dots":3.35,"target":"left","response":"left","rt":1026,"correct":true,"confidence":4},{"trial_n":112,"n_dots":3.35,"target":"right","response":"left","rt":1354,"correct":false,"confidence":2},{"trial_n":113,"n_dots":3.45,"target":"left","response":"left","rt":809,"correct":true,"confidence":4},{"trial_n":114,"n_dots":3.45,"target":"left","response":"left","rt":791,"correct":true,"confidence":5},{"trial_n":115,"n_dots":3.35,"target":"right","response":"right","rt":841.99999999988,"correct":true,"confidence":5},{"trial_n":116,"n_dots":3.35,"target":"left","response":"left","rt":1702,"correct":true,"confidence":4},{"trial_n":117,"n_dots":3.25,"target":"left","response":"left","rt":771,"correct":true,"confidence":3},{"trial_n":118,"n_dots":3.25,"target":"right","response":"left","rt":1634,"correct":false,"confidence":3},{"trial_n":119,"n_dots":3.35,"target":"left","response":"left","rt":860.00000000012,"correct":true,"confidence":3},{"trial_n":120,"n_dots":3.35,"target":"left","response":"left","rt":955.00000000012,"correct":true,"confidence":3}]