[{"trial_n":1,"span":8,"encoder":"17968414","distractor":"19968414","target":"present","response":"present","rt":"4040","correct":true,"confidence":-1},{"trial_n":2,"span":8,"encoder":"08864327","distractor":"00864327","target":"present","response":"present","rt":"2284","correct":true,"confidence":-1},{"trial_n":3,"span":10,"encoder":"5307641852","distractor":"5307645852","target":"absent","response":"absent","rt":"3525","correct":true,"confidence":-1},{"trial_n":4,"span":10,"encoder":"0043552511","distractor":"0043582511","target":"absent","response":"present","rt":"3392","correct":false,"confidence":-1},{"trial_n":5,"span":8,"encoder":"59606433","distractor":"59106433","target":"present","response":"present","rt":"1535","correct":true,"confidence":-1},{"trial_n":6,"span":8,"encoder":"76885122","distractor":"76585122","target":"absent","response":"absent","rt":"2301","correct":true,"confidence":-1},{"trial_n":7,"span":10,"encoder":"8354647802","distractor":"6354647802","target":"absent","response":"present","rt":"1994","correct":false,"confidence":-1},{"trial_n":8,"span":8,"encoder":"68851509","distractor":"68850509","target":"present","response":"absent","rt":"2170","correct":false,"confidence":-1},{"trial_n":9,"span":6,"encoder":"408678","distractor":"408658","target":"present","response":"present","rt":"1777","correct":true,"confidence":-1},{"trial_n":10,"span":6,"encoder":"379459","distractor":"376459","target":"present","response":"present","rt":"2079","correct":true,"confidence":-1},{"trial_n":11,"span":8,"encoder":"52154988","distractor":"52154984","target":"absent","response":"absent","rt":"2876","correct":true,"confidence":-1},{"trial_n":12,"span":8,"encoder":"90815952","distractor":"40815952","target":"absent","response":"absent","rt":"1753","correct":true,"confidence":-1},{"trial_n":13,"span":9,"encoder":"329563444","distractor":"379563444","target":"absent","response":"absent","rt":"4425","correct":true,"confidence":-1},{"trial_n":14,"span":9,"encoder":"788857860","distractor":"748857860","target":"absent","response":"absent","rt":"61529","correct":true,"confidence":-1},{"trial_n":15,"span":10,"encoder":"5563457945","distractor":"5563457995","target":"absent","response":"absent","rt":"9685","correct":true,"confidence":-1},{"trial_n":16,"span":10,"encoder":"1710887997","distractor":"1715887997","target":"present","response":"present","rt":"1703","correct":true,"confidence":-1},{"trial_n":17,"span":11,"encoder":"43622605413","distractor":"43622605433","target":"present","response":"present","rt":"1404","correct":true,"confidence":-1},{"trial_n":18,"span":11,"encoder":"99828664797","distractor":"99828264797","target":"absent","response":"present","rt":"1091","correct":false,"confidence":-1},{"trial_n":19,"span":10,"encoder":"0531759116","distractor":"0531859116","target":"present","response":"present","rt":"1549","correct":true,"confidence":-1},{"trial_n":20,"span":10,"encoder":"2048419369","distractor":"2548419369","target":"absent","response":"absent","rt":"2021","correct":true,"confidence":-1},{"trial_n":21,"span":11,"encoder":"87794068807","distractor":"57794068807","target":"absent","response":"present","rt":"6240","correct":false,"confidence":3},{"trial_n":22,"span":10,"encoder":"2068307906","distractor":"2068307901","target":"present","response":"present","rt":"10473","correct":true,"confidence":2},{"trial_n":23,"span":10,"encoder":"0064434633","distractor":"0064404633","target":"absent","response":"absent","rt":"5125","correct":true,"confidence":3},{"trial_n":24,"span":11,"encoder":"59286720543","distractor":"59286724543","target":"absent","response":"absent","rt":"4447","correct":true,"confidence":5},{"trial_n":25,"span":11,"encoder":"52584051893","distractor":"56584051893","target":"present","response":"absent","rt":"15264","correct":false,"confidence":2},{"trial_n":26,"span":10,"encoder":"7283880445","distractor":"7183880445","target":"absent","response":"absent","rt":"8778","correct":true,"confidence":4},{"trial_n":27,"span":10,"encoder":"4619569135","distractor":"4619589135","target":"present","response":"absent","rt":"7261","correct":false,"confidence":4},{"trial_n":28,"span":9,"encoder":"463677450","distractor":"463667450","target":"absent","response":"present","rt":"1842.0000000001","correct":false,"confidence":3},{"trial_n":29,"span":8,"encoder":"98012336","distractor":"96012336","target":"absent","response":"present","rt":"5355","correct":false,"confidence":4},{"trial_n":30,"span":7,"encoder":"0921994","distractor":"0921394","target":"present","response":"present","rt":"5966.0000000001","correct":true,"confidence":3},{"trial_n":31,"span":7,"encoder":"9740604","distractor":"9440604","target":"absent","response":"absent","rt":"3513","correct":true,"confidence":4},{"trial_n":32,"span":8,"encoder":"48679893","distractor":"48679883","target":"absent","response":"present","rt":"7055","correct":false,"confidence":2},{"trial_n":33,"span":7,"encoder":"3775282","distractor":"3755282","target":"present","response":"present","rt":"3252","correct":true,"confidence":3},{"trial_n":34,"span":7,"encoder":"8550155","distractor":"8550151","target":"present","response":"absent","rt":"8005","correct":false,"confidence":2},{"trial_n":35,"span":6,"encoder":"953336","distractor":"953316","target":"present","response":"present","rt":"3449.0000000001","correct":true,"confidence":4},{"trial_n":36,"span":6,"encoder":"280117","distractor":"280217","target":"present","response":"present","rt":"1547.0000000001","correct":true,"confidence":4},{"trial_n":37,"span":7,"encoder":"6616246","distractor":"6616240","target":"present","response":"absent","rt":"10387","correct":false,"confidence":4},{"trial_n":38,"span":6,"encoder":"503267","distractor":"503967","target":"absent","response":"present","rt":"2150","correct":false,"confidence":3},{"trial_n":39,"span":5,"encoder":"99049","distractor":"95049","target":"present","response":"present","rt":"5962","correct":true,"confidence":3},{"trial_n":40,"span":5,"encoder":"53975","distractor":"58975","target":"absent","response":"absent","rt":"2996","correct":true,"confidence":5},{"trial_n":41,"span":6,"encoder":"888705","distractor":"888706","target":"present","response":"present","rt":"2713","correct":true,"confidence":5},{"trial_n":42,"span":6,"encoder":"993338","distractor":"999338","target":"absent","response":"absent","rt":"3962.9999999999","correct":true,"confidence":3},{"trial_n":43,"span":7,"encoder":"9360190","distractor":"9660190","target":"present","response":"present","rt":"4888.9999999999","correct":true,"confidence":3},{"trial_n":44,"span":7,"encoder":"7804081","distractor":"7804781","target":"absent","response":"absent","rt":"3071","correct":true,"confidence":3},{"trial_n":45,"span":8,"encoder":"57494514","distractor":"54494514","target":"absent","response":"absent","rt":"2793","correct":true,"confidence":3},{"trial_n":46,"span":8,"encoder":"04167350","distractor":"04107350","target":"present","response":"absent","rt":"2963","correct":false,"confidence":4},{"trial_n":47,"span":7,"encoder":"0100676","distractor":"0100671","target":"present","response":"present","rt":"1957","correct":true,"confidence":5},{"trial_n":48,"span":7,"encoder":"9747916","distractor":"9747316","target":"absent","response":"absent","rt":"4939","correct":true,"confidence":4},{"trial_n":49,"span":8,"encoder":"46941188","distractor":"46541188","target":"present","response":"absent","rt":"5208","correct":false,"confidence":4},{"trial_n":50,"span":7,"encoder":"8053744","distractor":"8013744","target":"present","response":"absent","rt":"4791","correct":false,"confidence":3},{"trial_n":51,"span":6,"encoder":"754521","distractor":"704521","target":"present","response":"present","rt":"3550","correct":true,"confidence":4},{"trial_n":52,"span":6,"encoder":"090607","distractor":"099607","target":"absent","response":"absent","rt":"2005","correct":true,"confidence":4},{"trial_n":53,"span":7,"encoder":"2905497","distractor":"2975497","target":"present","response":"present","rt":"3989","correct":true,"confidence":4},{"trial_n":54,"span":7,"encoder":"6789470","distractor":"6789410","target":"absent","response":"absent","rt":"4909.9999999999","correct":true,"confidence":3},{"trial_n":55,"span":8,"encoder":"33860453","distractor":"33862453","target":"absent","response":"absent","rt":"2749","correct":true,"confidence":5},{"trial_n":56,"span":8,"encoder":"81681128","distractor":"81381128","target":"absent","response":"present","rt":"8999.0000000001","correct":false,"confidence":3},{"trial_n":57,"span":7,"encoder":"8638151","distractor":"8631151","target":"present","response":"present","rt":"3945","correct":true,"confidence":3},{"trial_n":58,"span":7,"encoder":"3906068","distractor":"3906088","target":"present","response":"present","rt":"4279","correct":true,"confidence":3},{"trial_n":59,"span":8,"encoder":"02093026","distractor":"02093526","target":"present","response":"present","rt":"3218","correct":true,"confidence":4},{"trial_n":60,"span":8,"encoder":"75225282","distractor":"75205282","target":"present","response":"absent","rt":"5250","correct":false,"confidence":3},{"trial_n":61,"span":7,"encoder":"6097836","distractor":"6097833","target":"present","response":"present","rt":"3340.9999999999","correct":true,"confidence":4},{"trial_n":62,"span":7,"encoder":"8834720","distractor":"8864720","target":"present","response":"present","rt":"4262","correct":true,"confidence":4},{"trial_n":63,"span":8,"encoder":"44298630","distractor":"44298610","target":"absent","response":"absent","rt":"5268","correct":true,"confidence":4},{"trial_n":64,"span":8,"encoder":"73756611","distractor":"73756613","target":"absent","response":"absent","rt":"4436","correct":true,"confidence":4},{"trial_n":65,"span":9,"encoder":"930283953","distractor":"930289953","target":"present","response":"absent","rt":"10006","correct":false,"confidence":2},{"trial_n":66,"span":8,"encoder":"27224459","distractor":"27223459","target":"absent","response":"absent","rt":"3436","correct":true,"confidence":3},{"trial_n":67,"span":8,"encoder":"47198414","distractor":"41198414","target":"absent","response":"absent","rt":"2922","correct":true,"confidence":4},{"trial_n":68,"span":9,"encoder":"816211811","distractor":"816212811","target":"absent","response":"absent","rt":"11305","correct":true,"confidence":3},{"trial_n":69,"span":9,"encoder":"423914794","distractor":"423954794","target":"present","response":"present","rt":"10225","correct":true,"confidence":2},{"trial_n":70,"span":10,"encoder":"2630158500","distractor":"3630158500","target":"present","response":"absent","rt":"3712","correct":false,"confidence":3},{"trial_n":71,"span":8,"encoder":"14749446","distractor":"12749446","target":"present","response":"present","rt":"8185.0000000002","correct":true,"confidence":-1},{"trial_n":72,"span":8,"encoder":"90661629","distractor":"90661619","target":"present","response":"absent","rt":"11213","correct":false,"confidence":-1},{"trial_n":73,"span":7,"encoder":"8277247","distractor":"8217247","target":"absent","response":"present","rt":"1538","correct":false,"confidence":-1},{"trial_n":74,"span":6,"encoder":"779244","distractor":"779264","target":"absent","response":"present","rt":"2281","correct":false,"confidence":-1},{"trial_n":75,"span":5,"encoder":"09916","distractor":"59916","target":"present","response":"absent","rt":"1566","correct":false,"confidence":-1},{"trial_n":76,"span":4,"encoder":"2486","distractor":"2586","target":"present","response":"absent","rt":"2119","correct":false,"confidence":-1},{"trial_n":77,"span":3,"encoder":"912","distractor":"916","target":"absent","response":"absent","rt":"1768","correct":true,"confidence":-1},{"trial_n":78,"span":3,"encoder":"228","distractor":"226","target":"present","response":"present","rt":"1685","correct":true,"confidence":-1},{"trial_n":79,"span":4,"encoder":"2717","distractor":"2797","target":"absent","response":"absent","rt":"1348","correct":true,"confidence":-1},{"trial_n":80,"span":4,"encoder":"6445","distractor":"0445","target":"present","response":"present","rt":"2755","correct":true,"confidence":-1},{"trial_n":81,"span":5,"encoder":"10046","distractor":"60046","target":"absent","response":"absent","rt":"2118.0000000002","correct":true,"confidence":-1},{"trial_n":82,"span":5,"encoder":"02531","distractor":"02551","target":"absent","response":"absent","rt":"3085","correct":true,"confidence":-1},{"trial_n":83,"span":6,"encoder":"706017","distractor":"006017","target":"absent","response":"absent","rt":"2071","correct":true,"confidence":-1},{"trial_n":84,"span":6,"encoder":"308489","distractor":"308589","target":"present","response":"present","rt":"4350","correct":true,"confidence":-1},{"trial_n":85,"span":7,"encoder":"8115750","distractor":"8111750","target":"absent","response":"absent","rt":"3485","correct":true,"confidence":-1},{"trial_n":86,"span":7,"encoder":"2332014","distractor":"2352014","target":"absent","response":"absent","rt":"2038","correct":true,"confidence":-1},{"trial_n":87,"span":8,"encoder":"13834972","distractor":"18834972","target":"present","response":"present","rt":"5742","correct":true,"confidence":-1},{"trial_n":88,"span":8,"encoder":"37371920","distractor":"47371920","target":"absent","response":"absent","rt":"3410","correct":true,"confidence":-1},{"trial_n":89,"span":9,"encoder":"822326780","distractor":"822326789","target":"absent","response":"absent","rt":"1118","correct":true,"confidence":-1},{"trial_n":90,"span":9,"encoder":"490951752","distractor":"490957752","target":"absent","response":"present","rt":"1859.9999999998","correct":false,"confidence":-1},{"trial_n":91,"span":8,"encoder":"99812403","distractor":"09812403","target":"present","response":"present","rt":"2962","correct":true,"confidence":3},{"trial_n":92,"span":8,"encoder":"08329012","distractor":"08320012","target":"absent","response":"absent","rt":"2831","correct":true,"confidence":3},{"trial_n":93,"span":9,"encoder":"188247566","distractor":"181247566","target":"present","response":"present","rt":"9169","correct":true,"confidence":2},{"trial_n":94,"span":9,"encoder":"898493749","distractor":"898453749","target":"present","response":"present","rt":"4036.9999999998","correct":true,"confidence":3},{"trial_n":95,"span":10,"encoder":"1868488598","distractor":"0868488598","target":"absent","response":"present","rt":"25657","correct":false,"confidence":3},{"trial_n":96,"span":9,"encoder":"793917243","distractor":"793917283","target":"present","response":"absent","rt":"5340","correct":false,"confidence":3},{"trial_n":97,"span":8,"encoder":"89090300","distractor":"89098300","target":"present","response":"absent","rt":"10580","correct":false,"confidence":4},{"trial_n":98,"span":7,"encoder":"2855893","distractor":"2855891","target":"present","response":"present","rt":"1598","correct":true,"confidence":5},{"trial_n":99,"span":7,"encoder":"5903365","distractor":"5503365","target":"absent","response":"absent","rt":"2216","correct":true,"confidence":2},{"trial_n":100,"span":8,"encoder":"32923856","distractor":"32923852","target":"present","response":"present","rt":"1520","correct":true,"confidence":5},{"trial_n":101,"span":8,"encoder":"25401927","distractor":"25491927","target":"present","response":"present","rt":"2399","correct":true,"confidence":2},{"trial_n":102,"span":9,"encoder":"032528992","distractor":"033528992","target":"present","response":"absent","rt":"8041.9999999998","correct":false,"confidence":1},{"trial_n":103,"span":8,"encoder":"22803208","distractor":"22503208","target":"absent","response":"present","rt":"3401.9999999998","correct":false,"confidence":3},{"trial_n":104,"span":7,"encoder":"8446162","distractor":"8446165","target":"present","response":"present","rt":"1416","correct":true,"confidence":5},{"trial_n":105,"span":7,"encoder":"6359505","distractor":"6309505","target":"present","response":"present","rt":"9734","correct":true,"confidence":2},{"trial_n":106,"span":8,"encoder":"43688081","distractor":"43688681","target":"absent","response":"absent","rt":"1805","correct":true,"confidence":5},{"trial_n":107,"span":8,"encoder":"98767792","distractor":"98867792","target":"absent","response":"present","rt":"3524","correct":false,"confidence":3},{"trial_n":108,"span":7,"encoder":"0294009","distractor":"0254009","target":"present","response":"present","rt":"2667.9999999998","correct":true,"confidence":4},{"trial_n":109,"span":7,"encoder":"7627920","distractor":"7627926","target":"present","response":"present","rt":"1552.0000000002","correct":true,"confidence":5},{"trial_n":110,"span":8,"encoder":"92862911","distractor":"91862911","target":"absent","response":"absent","rt":"2408","correct":true,"confidence":3},{"trial_n":111,"span":8,"encoder":"63043066","distractor":"63043026","target":"present","response":"absent","rt":"1930","correct":false,"confidence":2},{"trial_n":112,"span":7,"encoder":"3430225","distractor":"3730225","target":"present","response":"present","rt":"1818.9999999998","correct":true,"confidence":2},{"trial_n":113,"span":7,"encoder":"8541229","distractor":"8441229","target":"absent","response":"absent","rt":"3368.9999999998","correct":true,"confidence":3},{"trial_n":114,"span":8,"encoder":"03801796","distractor":"03809796","target":"absent","response":"present","rt":"29746","correct":false,"confidence":1},{"trial_n":115,"span":7,"encoder":"0211657","distractor":"0251657","target":"absent","response":"present","rt":"1883","correct":false,"confidence":2},{"trial_n":116,"span":6,"encoder":"326805","distractor":"366805","target":"present","response":"present","rt":"3784","correct":true,"confidence":2},{"trial_n":117,"span":6,"encoder":"714546","distractor":"314546","target":"absent","response":"present","rt":"4482.9999999998","correct":false,"confidence":2},{"trial_n":118,"span":5,"encoder":"89969","distractor":"39969","target":"present","response":"present","rt":"25697","correct":true,"confidence":1},{"trial_n":119,"span":5,"encoder":"02133","distractor":"02633","target":"absent","response":"absent","rt":"1398","correct":true,"confidence":4},{"trial_n":120,"span":6,"encoder":"212097","distractor":"212897","target":"absent","response":"present","rt":"8003","correct":false,"confidence":2},{"trial_n":121,"span":5,"encoder":"14670","distractor":"14673","target":"present","response":"present","rt":"1170","correct":true,"confidence":5},{"trial_n":122,"span":5,"encoder":"13506","distractor":"16506","target":"present","response":"present","rt":"2165","correct":true,"confidence":3},{"trial_n":123,"span":6,"encoder":"385274","distractor":"385276","target":"present","response":"present","rt":"1123.0000000002","correct":true,"confidence":5},{"trial_n":124,"span":6,"encoder":"126520","distractor":"127520","target":"present","response":"present","rt":"2288","correct":true,"confidence":5},{"trial_n":125,"span":7,"encoder":"1281110","distractor":"1281910","target":"present","response":"absent","rt":"4442","correct":false,"confidence":1},{"trial_n":126,"span":6,"encoder":"426610","distractor":"426010","target":"present","response":"absent","rt":"13505","correct":false,"confidence":1},{"trial_n":127,"span":5,"encoder":"08907","distractor":"08905","target":"present","response":"present","rt":"1498.9999999998","correct":true,"confidence":5},{"trial_n":128,"span":5,"encoder":"00813","distractor":"00816","target":"absent","response":"absent","rt":"1451","correct":true,"confidence":5},{"trial_n":129,"span":6,"encoder":"783587","distractor":"783987","target":"absent","response":"absent","rt":"9542","correct":true,"confidence":1},{"trial_n":130,"span":6,"encoder":"419403","distractor":"410403","target":"absent","response":"absent","rt":"1574.9999999998","correct":true,"confidence":5},{"trial_n":131,"span":7,"encoder":"5066169","distractor":"5056169","target":"absent","response":"present","rt":"3345.0000000002","correct":false,"confidence":1},{"trial_n":132,"span":6,"encoder":"939207","distractor":"999207","target":"absent","response":"absent","rt":"1441","correct":true,"confidence":5},{"trial_n":133,"span":6,"encoder":"953784","distractor":"953184","target":"present","response":"present","rt":"4290","correct":true,"confidence":2},{"trial_n":134,"span":7,"encoder":"5160579","distractor":"5166579","target":"present","response":"present","rt":"2095.0000000002","correct":true,"confidence":4},{"trial_n":135,"span":7,"encoder":"9984611","distractor":"8984611","target":"absent","response":"absent","rt":"3044.9999999998","correct":true,"confidence":3},{"trial_n":136,"span":8,"encoder":"15188619","distractor":"15188519","target":"present","response":"present","rt":"13752","correct":true,"confidence":5},{"trial_n":137,"span":8,"encoder":"64484061","distractor":"64484261","target":"absent","response":"absent","rt":"1519.0000000002","correct":true,"confidence":5},{"trial_n":138,"span":9,"encoder":"261364358","distractor":"261364357","target":"absent","response":"absent","rt":"1822","correct":true,"confidence":3},{"trial_n":139,"span":9,"encoder":"170335701","distractor":"170335791","target":"present","response":"present","rt":"1622","correct":true,"confidence":5},{"trial_n":140,"span":10,"encoder":"5395303814","distractor":"5385303814","target":"absent","response":"present","rt":"2243","correct":false,"confidence":3}]