[{"trial_n":1,"span":8,"encoder":"16160689","distractor":"16100689","target":"present","response":"present","rt":"4919","correct":true,"confidence":-1},{"trial_n":2,"span":8,"encoder":"83818253","distractor":"83813253","target":"present","response":"absent","rt":"2356","correct":false,"confidence":-1},{"trial_n":3,"span":6,"encoder":"264956","distractor":"564956","target":"absent","response":"present","rt":"4399","correct":false,"confidence":-1},{"trial_n":4,"span":4,"encoder":"3967","distractor":"7967","target":"absent","response":"absent","rt":"2027","correct":true,"confidence":-1},{"trial_n":5,"span":4,"encoder":"7757","distractor":"7157","target":"present","response":"present","rt":"1841","correct":true,"confidence":-1},{"trial_n":6,"span":6,"encoder":"507525","distractor":"107525","target":"absent","response":"present","rt":"2906","correct":false,"confidence":-1},{"trial_n":7,"span":4,"encoder":"5536","distractor":"5236","target":"present","response":"present","rt":"2759","correct":true,"confidence":-1},{"trial_n":8,"span":4,"encoder":"3532","distractor":"3536","target":"absent","response":"absent","rt":"3042","correct":true,"confidence":-1},{"trial_n":9,"span":6,"encoder":"001923","distractor":"004923","target":"present","response":"present","rt":"2934","correct":true,"confidence":-1},{"trial_n":10,"span":6,"encoder":"261460","distractor":"861460","target":"absent","response":"absent","rt":"3064","correct":true,"confidence":-1},{"trial_n":11,"span":8,"encoder":"34267210","distractor":"04267210","target":"absent","response":"present","rt":"2988","correct":false,"confidence":-1},{"trial_n":12,"span":7,"encoder":"7259879","distractor":"7255879","target":"present","response":"present","rt":"2116","correct":true,"confidence":-1},{"trial_n":13,"span":7,"encoder":"1096745","distractor":"1196745","target":"present","response":"present","rt":"2358","correct":true,"confidence":-1},{"trial_n":14,"span":8,"encoder":"47432949","distractor":"47132949","target":"absent","response":"absent","rt":"2659","correct":true,"confidence":-1},{"trial_n":15,"span":8,"encoder":"95521927","distractor":"91521927","target":"present","response":"present","rt":"3964","correct":true,"confidence":-1},{"trial_n":16,"span":9,"encoder":"514954754","distractor":"564954754","target":"present","response":"present","rt":"2963","correct":true,"confidence":-1},{"trial_n":17,"span":9,"encoder":"594533492","distractor":"594533482","target":"absent","response":"present","rt":"1285","correct":false,"confidence":-1},{"trial_n":18,"span":8,"encoder":"59456119","distractor":"89456119","target":"absent","response":"present","rt":"1983","correct":false,"confidence":-1},{"trial_n":19,"span":7,"encoder":"6652457","distractor":"6682457","target":"absent","response":"present","rt":"52728","correct":false,"confidence":-1},{"trial_n":20,"span":6,"encoder":"254911","distractor":"254011","target":"present","response":"present","rt":"3217","correct":true,"confidence":-1},{"trial_n":21,"span":6,"encoder":"157393","distractor":"157392","target":"absent","response":"absent","rt":"3738","correct":true,"confidence":5},{"trial_n":22,"span":7,"encoder":"6865864","distractor":"6875864","target":"present","response":"present","rt":"4368","correct":true,"confidence":5},{"trial_n":23,"span":7,"encoder":"8539354","distractor":"8039354","target":"absent","response":"absent","rt":"2650","correct":true,"confidence":4},{"trial_n":24,"span":8,"encoder":"87648690","distractor":"87646690","target":"absent","response":"absent","rt":"3043","correct":true,"confidence":3},{"trial_n":25,"span":8,"encoder":"02466116","distractor":"02866116","target":"present","response":"present","rt":"4192.0000000001","correct":true,"confidence":4},{"trial_n":26,"span":9,"encoder":"953467881","distractor":"953567881","target":"absent","response":"absent","rt":"4079.0000000001","correct":true,"confidence":3},{"trial_n":27,"span":9,"encoder":"277320930","distractor":"277324930","target":"absent","response":"absent","rt":"4360","correct":true,"confidence":3},{"trial_n":28,"span":10,"encoder":"3992834875","distractor":"3992834870","target":"absent","response":"absent","rt":"4432.0000000001","correct":true,"confidence":3},{"trial_n":29,"span":10,"encoder":"4362517115","distractor":"4962517115","target":"absent","response":"present","rt":"4865","correct":false,"confidence":3},{"trial_n":30,"span":9,"encoder":"154563415","distractor":"154563418","target":"absent","response":"absent","rt":"2062","correct":true,"confidence":5},{"trial_n":31,"span":9,"encoder":"094221138","distractor":"894221138","target":"present","response":"present","rt":"5483","correct":true,"confidence":4},{"trial_n":32,"span":10,"encoder":"8514895687","distractor":"8514895684","target":"absent","response":"absent","rt":"1854","correct":true,"confidence":5},{"trial_n":33,"span":10,"encoder":"9481296975","distractor":"9981296975","target":"absent","response":"present","rt":"4585.9999999999","correct":false,"confidence":4},{"trial_n":34,"span":9,"encoder":"161580719","distractor":"163580719","target":"present","response":"present","rt":"2912","correct":true,"confidence":5},{"trial_n":35,"span":9,"encoder":"576681432","distractor":"076681432","target":"absent","response":"absent","rt":"1352","correct":true,"confidence":3},{"trial_n":36,"span":10,"encoder":"0230041893","distractor":"0231041893","target":"present","response":"present","rt":"1918","correct":true,"confidence":4},{"trial_n":37,"span":10,"encoder":"7613090950","distractor":"7613090956","target":"present","response":"present","rt":"4455.0000000001","correct":true,"confidence":4},{"trial_n":38,"span":11,"encoder":"53176105352","distractor":"53186105352","target":"absent","response":"present","rt":"3108","correct":false,"confidence":4},{"trial_n":39,"span":10,"encoder":"1488436529","distractor":"1488436729","target":"present","response":"absent","rt":"4404.9999999999","correct":false,"confidence":3},{"trial_n":40,"span":9,"encoder":"817430285","distractor":"817470285","target":"present","response":"present","rt":"1732","correct":true,"confidence":3},{"trial_n":41,"span":9,"encoder":"384943016","distractor":"384843016","target":"present","response":"present","rt":"139211","correct":true,"confidence":1},{"trial_n":42,"span":10,"encoder":"5086344313","distractor":"5086044313","target":"present","response":"present","rt":"4412","correct":true,"confidence":4},{"trial_n":43,"span":10,"encoder":"3783552494","distractor":"3783552394","target":"present","response":"present","rt":"2248","correct":true,"confidence":4},{"trial_n":44,"span":11,"encoder":"63501476309","distractor":"63501476509","target":"absent","response":"present","rt":"2208","correct":false,"confidence":4},{"trial_n":45,"span":10,"encoder":"8140622033","distractor":"8140662033","target":"absent","response":"present","rt":"1804","correct":false,"confidence":3},{"trial_n":46,"span":9,"encoder":"801676067","distractor":"801676467","target":"present","response":"present","rt":"1616","correct":true,"confidence":4},{"trial_n":47,"span":9,"encoder":"457148759","distractor":"357148759","target":"present","response":"present","rt":"1837.9999999999","correct":true,"confidence":4},{"trial_n":48,"span":10,"encoder":"9742038561","distractor":"9742034561","target":"present","response":"present","rt":"1355","correct":true,"confidence":4},{"trial_n":49,"span":10,"encoder":"8044507305","distractor":"8041507305","target":"present","response":"present","rt":"1826","correct":true,"confidence":3},{"trial_n":50,"span":11,"encoder":"75024367273","distractor":"75024667273","target":"present","response":"present","rt":"1691","correct":true,"confidence":4},{"trial_n":51,"span":11,"encoder":"34504319108","distractor":"30504319108","target":"absent","response":"absent","rt":"4439.0000000001","correct":true,"confidence":3},{"trial_n":52,"span":12,"encoder":"105250900724","distractor":"905250900724","target":"present","response":"present","rt":"2981","correct":true,"confidence":4},{"trial_n":53,"span":12,"encoder":"873807212068","distractor":"873807212062","target":"absent","response":"absent","rt":"5002","correct":true,"confidence":3},{"trial_n":54,"span":13,"encoder":"5547118001581","distractor":"5547168001581","target":"absent","response":"present","rt":"6421","correct":false,"confidence":2},{"trial_n":55,"span":12,"encoder":"208643579150","distractor":"208643579160","target":"present","response":"absent","rt":"7981","correct":false,"confidence":3},{"trial_n":56,"span":11,"encoder":"58432456944","distractor":"58412456944","target":"present","response":"absent","rt":"267347","correct":false,"confidence":3},{"trial_n":57,"span":10,"encoder":"0733613671","distractor":"0733610671","target":"absent","response":"absent","rt":"1104","correct":true,"confidence":4},{"trial_n":58,"span":10,"encoder":"7447737923","distractor":"9447737923","target":"absent","response":"present","rt":"2400","correct":false,"confidence":4},{"trial_n":59,"span":9,"encoder":"575223751","distractor":"575225751","target":"absent","response":"absent","rt":"4776.9999999998","correct":true,"confidence":3},{"trial_n":60,"span":9,"encoder":"520946250","distractor":"520946450","target":"absent","response":"absent","rt":"5511","correct":true,"confidence":3},{"trial_n":61,"span":10,"encoder":"3044789931","distractor":"3044789936","target":"absent","response":"absent","rt":"1662","correct":true,"confidence":4},{"trial_n":62,"span":10,"encoder":"1314126663","distractor":"1314126693","target":"present","response":"present","rt":"2068","correct":true,"confidence":3},{"trial_n":63,"span":11,"encoder":"48104396793","distractor":"48104396993","target":"present","response":"present","rt":"1415","correct":true,"confidence":3},{"trial_n":64,"span":11,"encoder":"55509203812","distractor":"45509203812","target":"present","response":"absent","rt":"1489","correct":false,"confidence":3},{"trial_n":65,"span":10,"encoder":"1682963099","distractor":"3682963099","target":"present","response":"absent","rt":"1661.0000000002","correct":false,"confidence":3},{"trial_n":66,"span":9,"encoder":"274753589","distractor":"274752589","target":"present","response":"present","rt":"2977","correct":true,"confidence":3},{"trial_n":67,"span":9,"encoder":"984428734","distractor":"984438734","target":"present","response":"present","rt":"3144","correct":true,"confidence":4},{"trial_n":68,"span":10,"encoder":"4196744950","distractor":"4196748950","target":"absent","response":"present","rt":"1695.9999999998","correct":false,"confidence":4},{"trial_n":69,"span":9,"encoder":"727972327","distractor":"727972326","target":"present","response":"present","rt":"3596","correct":true,"confidence":4},{"trial_n":70,"span":9,"encoder":"444786219","distractor":"044786219","target":"absent","response":"present","rt":"1845.9999999998","correct":false,"confidence":4},{"trial_n":71,"span":8,"encoder":"85296940","distractor":"85296980","target":"present","response":"present","rt":"3153","correct":true,"confidence":-1},{"trial_n":72,"span":8,"encoder":"90853585","distractor":"90803585","target":"present","response":"absent","rt":"1159","correct":false,"confidence":-1},{"trial_n":73,"span":7,"encoder":"9873653","distractor":"9873651","target":"absent","response":"absent","rt":"1501","correct":true,"confidence":-1},{"trial_n":74,"span":7,"encoder":"6532196","distractor":"6332196","target":"absent","response":"present","rt":"1301","correct":false,"confidence":-1},{"trial_n":75,"span":6,"encoder":"055157","distractor":"050157","target":"present","response":"present","rt":"1647","correct":true,"confidence":-1},{"trial_n":76,"span":6,"encoder":"366379","distractor":"386379","target":"present","response":"absent","rt":"1664","correct":false,"confidence":-1},{"trial_n":77,"span":5,"encoder":"19042","distractor":"10042","target":"absent","response":"absent","rt":"2408","correct":true,"confidence":-1},{"trial_n":78,"span":5,"encoder":"70484","distractor":"70284","target":"absent","response":"present","rt":"1709","correct":false,"confidence":-1},{"trial_n":79,"span":4,"encoder":"2299","distractor":"5299","target":"present","response":"present","rt":"1209","correct":true,"confidence":-1},{"trial_n":80,"span":4,"encoder":"4552","distractor":"4553","target":"absent","response":"absent","rt":"1706","correct":true,"confidence":-1},{"trial_n":81,"span":5,"encoder":"02932","distractor":"00932","target":"absent","response":"present","rt":"1259","correct":false,"confidence":-1},{"trial_n":82,"span":4,"encoder":"9979","distractor":"9999","target":"absent","response":"present","rt":"824","correct":false,"confidence":-1},{"trial_n":83,"span":3,"encoder":"157","distractor":"107","target":"present","response":"present","rt":"968","correct":true,"confidence":-1},{"trial_n":84,"span":3,"encoder":"255","distractor":"155","target":"present","response":"absent","rt":"1419","correct":false,"confidence":-1},{"trial_n":85,"span":2,"encoder":"85","distractor":"05","target":"absent","response":"absent","rt":"1096","correct":true,"confidence":-1},{"trial_n":86,"span":2,"encoder":"05","distractor":"03","target":"present","response":"present","rt":"1497","correct":true,"confidence":-1},{"trial_n":87,"span":3,"encoder":"113","distractor":"103","target":"present","response":"present","rt":"952","correct":true,"confidence":-1},{"trial_n":88,"span":3,"encoder":"754","distractor":"759","target":"present","response":"present","rt":"1519.0000000002","correct":true,"confidence":-1},{"trial_n":89,"span":4,"encoder":"4302","distractor":"4305","target":"absent","response":"absent","rt":"1322","correct":true,"confidence":-1},{"trial_n":90,"span":4,"encoder":"9002","distractor":"9202","target":"absent","response":"absent","rt":"8793","correct":true,"confidence":-1},{"trial_n":91,"span":5,"encoder":"43732","distractor":"43782","target":"present","response":"present","rt":"2079","correct":true,"confidence":3},{"trial_n":92,"span":5,"encoder":"91740","distractor":"91747","target":"present","response":"absent","rt":"2211","correct":false,"confidence":3},{"trial_n":93,"span":4,"encoder":"2573","distractor":"2533","target":"absent","response":"absent","rt":"1760.0000000002","correct":true,"confidence":3},{"trial_n":94,"span":4,"encoder":"5372","distractor":"5972","target":"present","response":"absent","rt":"2894","correct":false,"confidence":3},{"trial_n":95,"span":3,"encoder":"340","distractor":"440","target":"absent","response":"absent","rt":"1869","correct":true,"confidence":3},{"trial_n":96,"span":3,"encoder":"086","distractor":"089","target":"present","response":"present","rt":"5520","correct":true,"confidence":3},{"trial_n":97,"span":4,"encoder":"4011","distractor":"4411","target":"absent","response":"absent","rt":"1628","correct":true,"confidence":3},{"trial_n":98,"span":4,"encoder":"5580","distractor":"5680","target":"present","response":"present","rt":"4324","correct":true,"confidence":3},{"trial_n":99,"span":5,"encoder":"19179","distractor":"19178","target":"present","response":"present","rt":"2029","correct":true,"confidence":3},{"trial_n":100,"span":5,"encoder":"50849","distractor":"50845","target":"present","response":"present","rt":"2196","correct":true,"confidence":3},{"trial_n":101,"span":6,"encoder":"338343","distractor":"398343","target":"present","response":"present","rt":"4543.9999999998","correct":true,"confidence":4},{"trial_n":102,"span":6,"encoder":"453503","distractor":"453003","target":"present","response":"present","rt":"1887","correct":true,"confidence":3},{"trial_n":103,"span":7,"encoder":"5474731","distractor":"9474731","target":"absent","response":"present","rt":"2272","correct":false,"confidence":3},{"trial_n":104,"span":6,"encoder":"549229","distractor":"549239","target":"absent","response":"absent","rt":"2285","correct":true,"confidence":4},{"trial_n":105,"span":6,"encoder":"575826","distractor":"575226","target":"absent","response":"present","rt":"3252","correct":false,"confidence":3},{"trial_n":106,"span":5,"encoder":"87754","distractor":"57754","target":"absent","response":"absent","rt":"5298","correct":true,"confidence":3},{"trial_n":107,"span":5,"encoder":"65028","distractor":"45028","target":"present","response":"present","rt":"3014","correct":true,"confidence":3},{"trial_n":108,"span":6,"encoder":"279292","distractor":"279232","target":"absent","response":"absent","rt":"2318","correct":true,"confidence":3},{"trial_n":109,"span":6,"encoder":"689673","distractor":"689670","target":"absent","response":"absent","rt":"1532","correct":true,"confidence":4},{"trial_n":110,"span":7,"encoder":"5035553","distractor":"5039553","target":"absent","response":"absent","rt":"4177","correct":true,"confidence":3},{"trial_n":111,"span":7,"encoder":"1983552","distractor":"1981552","target":"present","response":"present","rt":"1973.0000000002","correct":true,"confidence":3},{"trial_n":112,"span":8,"encoder":"53719080","distractor":"53719060","target":"present","response":"present","rt":"1598","correct":true,"confidence":4},{"trial_n":113,"span":8,"encoder":"34374337","distractor":"35374337","target":"present","response":"present","rt":"3396","correct":true,"confidence":3},{"trial_n":114,"span":9,"encoder":"030359230","distractor":"030359235","target":"present","response":"present","rt":"1382.9999999998","correct":true,"confidence":4},{"trial_n":115,"span":9,"encoder":"839975095","distractor":"839975195","target":"present","response":"present","rt":"1267.9999999998","correct":true,"confidence":4},{"trial_n":116,"span":10,"encoder":"0828732427","distractor":"0828332427","target":"present","response":"present","rt":"2857.9999999998","correct":true,"confidence":1},{"trial_n":117,"span":10,"encoder":"6330915346","distractor":"6330918346","target":"absent","response":"absent","rt":"2762.9999999998","correct":true,"confidence":4},{"trial_n":118,"span":11,"encoder":"56508560284","distractor":"56508560264","target":"present","response":"present","rt":"1960","correct":true,"confidence":4},{"trial_n":119,"span":11,"encoder":"14060796297","distractor":"14068796297","target":"absent","response":"present","rt":"909","correct":false,"confidence":1},{"trial_n":120,"span":10,"encoder":"8147301775","distractor":"8147301175","target":"absent","response":"absent","rt":"1486.9999999998","correct":true,"confidence":4},{"trial_n":121,"span":10,"encoder":"3899036035","distractor":"3899038035","target":"present","response":"present","rt":"2688","correct":true,"confidence":4},{"trial_n":122,"span":11,"encoder":"13097770402","distractor":"17097770402","target":"absent","response":"absent","rt":"9184.9999999998","correct":true,"confidence":4},{"trial_n":123,"span":11,"encoder":"01050674222","distractor":"01000674222","target":"present","response":"present","rt":"3461","correct":true,"confidence":4},{"trial_n":124,"span":12,"encoder":"272613319323","distractor":"272613310323","target":"absent","response":"absent","rt":"2601","correct":true,"confidence":4},{"trial_n":125,"span":12,"encoder":"499545004763","distractor":"459545004763","target":"absent","response":"absent","rt":"2952","correct":true,"confidence":3},{"trial_n":126,"span":13,"encoder":"7748012233930","distractor":"7748012273930","target":"absent","response":"absent","rt":"3154","correct":true,"confidence":4},{"trial_n":127,"span":13,"encoder":"6479620558311","distractor":"6479620558411","target":"absent","response":"absent","rt":"1341.9999999998","correct":true,"confidence":4},{"trial_n":128,"span":14,"encoder":"37298382304822","distractor":"34298382304822","target":"present","response":"absent","rt":"2532","correct":false,"confidence":4},{"trial_n":129,"span":13,"encoder":"0281393567174","distractor":"0231393567174","target":"absent","response":"absent","rt":"3139","correct":true,"confidence":4},{"trial_n":130,"span":13,"encoder":"7645368232439","distractor":"7645368230439","target":"absent","response":"present","rt":"18456","correct":false,"confidence":3},{"trial_n":131,"span":12,"encoder":"586480681494","distractor":"586480781494","target":"present","response":"absent","rt":"9563","correct":false,"confidence":3},{"trial_n":132,"span":11,"encoder":"73195890736","distractor":"73195880736","target":"present","response":"present","rt":"3208.9999999998","correct":true,"confidence":3},{"trial_n":133,"span":11,"encoder":"03797392838","distractor":"03757392838","target":"present","response":"present","rt":"1149.9999999995","correct":true,"confidence":4},{"trial_n":134,"span":12,"encoder":"687745906442","distractor":"687745902442","target":"absent","response":"present","rt":"1740.0000000002","correct":false,"confidence":3},{"trial_n":135,"span":11,"encoder":"16380488692","distractor":"16380488632","target":"present","response":"present","rt":"984","correct":true,"confidence":4},{"trial_n":136,"span":11,"encoder":"09347630837","distractor":"09347630834","target":"absent","response":"absent","rt":"1916","correct":true,"confidence":3},{"trial_n":137,"span":12,"encoder":"641904182562","distractor":"641904182568","target":"present","response":"present","rt":"1592","correct":true,"confidence":5},{"trial_n":138,"span":12,"encoder":"745070497670","distractor":"745070597670","target":"absent","response":"present","rt":"4989","correct":false,"confidence":3},{"trial_n":139,"span":11,"encoder":"64106727506","distractor":"64106721506","target":"absent","response":"absent","rt":"12165","correct":true,"confidence":3},{"trial_n":140,"span":11,"encoder":"03818042918","distractor":"06818042918","target":"present","response":"absent","rt":"868","correct":false,"confidence":3}]