[{"trial_n":1,"min":25,"max":230,"target":"present","response":"absent","rt":5805,"correct":false,"confidence":-1},{"trial_n":2,"min":25,"max":230,"target":"present","response":"present","rt":1177,"correct":true,"confidence":-1},{"trial_n":3,"min":25,"max":230,"target":"absent","response":"absent","rt":978,"correct":true,"confidence":-1},{"trial_n":4,"min":41,"max":214,"target":"absent","response":"absent","rt":791,"correct":true,"confidence":-1},{"trial_n":5,"min":41,"max":214,"target":"present","response":"present","rt":805,"correct":true,"confidence":-1},{"trial_n":6,"min":57,"max":198,"target":"present","response":"present","rt":547,"correct":true,"confidence":-1},{"trial_n":7,"min":57,"max":198,"target":"present","response":"present","rt":1160,"correct":true,"confidence":-1},{"trial_n":8,"min":73,"max":182,"target":"absent","response":"absent","rt":1029,"correct":true,"confidence":-1},{"trial_n":9,"min":73,"max":182,"target":"present","response":"present","rt":1062,"correct":true,"confidence":-1},{"trial_n":10,"min":89,"max":166,"target":"present","response":"absent","rt":1539,"correct":false,"confidence":-1},{"trial_n":11,"min":81,"max":174,"target":"present","response":"absent","rt":708,"correct":false,"confidence":-1},{"trial_n":12,"min":73,"max":182,"target":"present","response":"absent","rt":1098,"correct":false,"confidence":-1},{"trial_n":13,"min":65,"max":190,"target":"absent","response":"absent","rt":565,"correct":true,"confidence":-1},{"trial_n":14,"min":65,"max":190,"target":"absent","response":"absent","rt":537.99999999999,"correct":true,"confidence":-1},{"trial_n":15,"min":73,"max":182,"target":"present","response":"absent","rt":549,"correct":false,"confidence":-1},{"trial_n":16,"min":65,"max":190,"target":"absent","response":"absent","rt":1763,"correct":true,"confidence":-1},{"trial_n":17,"min":65,"max":190,"target":"absent","response":"absent","rt":618,"correct":true,"confidence":-1},{"trial_n":18,"min":73,"max":182,"target":"absent","response":"absent","rt":486.99999999999,"correct":true,"confidence":-1},{"trial_n":19,"min":73,"max":182,"target":"present","response":"present","rt":846,"correct":true,"confidence":-1},{"trial_n":20,"min":81,"max":174,"target":"present","response":"present","rt":553,"correct":true,"confidence":-1},{"trial_n":21,"min":81,"max":174,"target":"present","response":"absent","rt":1322,"correct":false,"confidence":1},{"trial_n":22,"min":77,"max":178,"target":"present","response":"absent","rt":2174,"correct":false,"confidence":2},{"trial_n":23,"min":73,"max":182,"target":"absent","response":"present","rt":1104,"correct":false,"confidence":1},{"trial_n":24,"min":69,"max":186,"target":"absent","response":"absent","rt":1520,"correct":true,"confidence":3},{"trial_n":25,"min":69,"max":186,"target":"absent","response":"absent","rt":1294,"correct":true,"confidence":3},{"trial_n":26,"min":73,"max":182,"target":"absent","response":"absent","rt":1764,"correct":true,"confidence":1},{"trial_n":27,"min":73,"max":182,"target":"absent","response":"absent","rt":1116,"correct":true,"confidence":3},{"trial_n":28,"min":77,"max":178,"target":"present","response":"present","rt":918,"correct":true,"confidence":3},{"trial_n":29,"min":77,"max":178,"target":"present","response":"present","rt":1149,"correct":true,"confidence":4},{"trial_n":30,"min":81,"max":174,"target":"present","response":"absent","rt":982.99999999999,"correct":false,"confidence":4},{"trial_n":31,"min":79,"max":176,"target":"present","response":"present","rt":1136,"correct":true,"confidence":3},{"trial_n":32,"min":79,"max":176,"target":"absent","response":"absent","rt":1585,"correct":true,"confidence":3},{"trial_n":33,"min":81,"max":174,"target":"present","response":"absent","rt":1280,"correct":false,"confidence":3},{"trial_n":34,"min":79,"max":176,"target":"absent","response":"absent","rt":1060,"correct":true,"confidence":3},{"trial_n":35,"min":79,"max":176,"target":"absent","response":"absent","rt":1144,"correct":true,"confidence":3},{"trial_n":36,"min":81,"max":174,"target":"absent","response":"absent","rt":1170,"correct":true,"confidence":3},{"trial_n":37,"min":81,"max":174,"target":"absent","response":"present","rt":1651,"correct":false,"confidence":3},{"trial_n":38,"min":79,"max":176,"target":"absent","response":"absent","rt":942.99999999999,"correct":true,"confidence":3},{"trial_n":39,"min":79,"max":176,"target":"present","response":"absent","rt":1559,"correct":false,"confidence":3},{"trial_n":40,"min":77,"max":178,"target":"absent","response":"absent","rt":1344,"correct":true,"confidence":3},{"trial_n":41,"min":77,"max":178,"target":"present","response":"present","rt":1154,"correct":true,"confidence":5},{"trial_n":42,"min":78,"max":177,"target":"absent","response":"absent","rt":1034,"correct":true,"confidence":5},{"trial_n":43,"min":78,"max":177,"target":"present","response":"absent","rt":1149,"correct":false,"confidence":3},{"trial_n":44,"min":77,"max":178,"target":"present","response":"present","rt":1004,"correct":true,"confidence":5},{"trial_n":45,"min":77,"max":178,"target":"present","response":"absent","rt":1024,"correct":false,"confidence":4},{"trial_n":46,"min":76,"max":179,"target":"absent","response":"absent","rt":954,"correct":true,"confidence":4},{"trial_n":47,"min":76,"max":179,"target":"present","response":"present","rt":1138,"correct":true,"confidence":3},{"trial_n":48,"min":77,"max":178,"target":"absent","response":"absent","rt":743,"correct":true,"confidence":5},{"trial_n":49,"min":77,"max":178,"target":"absent","response":"present","rt":1388,"correct":false,"confidence":3},{"trial_n":50,"min":76,"max":179,"target":"absent","response":"present","rt":1363,"correct":false,"confidence":3},{"trial_n":51,"min":75,"max":180,"target":"absent","response":"absent","rt":989.99999999997,"correct":true,"confidence":4},{"trial_n":52,"min":75,"max":180,"target":"present","response":"present","rt":927,"correct":true,"confidence":4},{"trial_n":53,"min":76,"max":179,"target":"absent","response":"absent","rt":934,"correct":true,"confidence":3},{"trial_n":54,"min":76,"max":179,"target":"absent","response":"absent","rt":1070,"correct":true,"confidence":2},{"trial_n":55,"min":77,"max":178,"target":"present","response":"present","rt":1212,"correct":true,"confidence":4},{"trial_n":56,"min":77,"max":178,"target":"present","response":"present","rt":1727,"correct":true,"confidence":4},{"trial_n":57,"min":78,"max":177,"target":"absent","response":"absent","rt":838,"correct":true,"confidence":4},{"trial_n":58,"min":78,"max":177,"target":"present","response":"present","rt":1076,"correct":true,"confidence":3},{"trial_n":59,"min":79,"max":176,"target":"present","response":"present","rt":902,"correct":true,"confidence":3},{"trial_n":60,"min":79,"max":176,"target":"absent","response":"present","rt":1055,"correct":false,"confidence":3},{"trial_n":61,"min":78,"max":177,"target":"absent","response":"absent","rt":931,"correct":true,"confidence":4},{"trial_n":62,"min":78,"max":177,"target":"present","response":"present","rt":1102,"correct":true,"confidence":3},{"trial_n":63,"min":79,"max":176,"target":"absent","response":"absent","rt":958,"correct":true,"confidence":4},{"trial_n":64,"min":79,"max":176,"target":"present","response":"present","rt":969,"correct":true,"confidence":4},{"trial_n":65,"min":80,"max":175,"target":"present","response":"present","rt":931,"correct":true,"confidence":4},{"trial_n":66,"min":80,"max":175,"target":"absent","response":"absent","rt":800,"correct":true,"confidence":3},{"trial_n":67,"min":81,"max":174,"target":"present","response":"present","rt":1104,"correct":true,"confidence":4},{"trial_n":68,"min":81,"max":174,"target":"absent","response":"absent","rt":800.00000000003,"correct":true,"confidence":4},{"trial_n":69,"min":82,"max":173,"target":"present","response":"present","rt":767.99999999997,"correct":true,"confidence":4},{"trial_n":70,"min":82,"max":173,"target":"present","response":"absent","rt":1031,"correct":false,"confidence":1},{"trial_n":71,"min":41,"max":214,"target":"present","response":"present","rt":1695,"correct":true,"confidence":-1},{"trial_n":72,"min":41,"max":214,"target":"present","response":"present","rt":593,"correct":true,"confidence":-1},{"trial_n":73,"min":57,"max":198,"target":"absent","response":"absent","rt":760,"correct":true,"confidence":-1},{"trial_n":74,"min":57,"max":198,"target":"absent","response":"absent","rt":699,"correct":true,"confidence":-1},{"trial_n":75,"min":73,"max":182,"target":"present","response":"present","rt":968,"correct":true,"confidence":-1},{"trial_n":76,"min":73,"max":182,"target":"present","response":"present","rt":715,"correct":true,"confidence":-1},{"trial_n":77,"min":89,"max":166,"target":"absent","response":"absent","rt":1810,"correct":true,"confidence":-1},{"trial_n":78,"min":89,"max":166,"target":"present","response":"present","rt":913,"correct":true,"confidence":-1},{"trial_n":79,"min":105,"max":150,"target":"absent","response":"present","rt":630,"correct":false,"confidence":-1},{"trial_n":80,"min":89,"max":166,"target":"absent","response":"present","rt":548.00000000006,"correct":false,"confidence":-1},{"trial_n":81,"min":81,"max":174,"target":"absent","response":"absent","rt":1297,"correct":true,"confidence":-1},{"trial_n":82,"min":81,"max":174,"target":"absent","response":"absent","rt":600,"correct":true,"confidence":-1},{"trial_n":83,"min":89,"max":166,"target":"absent","response":"absent","rt":579,"correct":true,"confidence":-1},{"trial_n":84,"min":89,"max":166,"target":"absent","response":"present","rt":1191,"correct":false,"confidence":-1},{"trial_n":85,"min":81,"max":174,"target":"present","response":"present","rt":541.00000000006,"correct":true,"confidence":-1},{"trial_n":86,"min":81,"max":174,"target":"absent","response":"present","rt":713,"correct":false,"confidence":-1},{"trial_n":87,"min":73,"max":182,"target":"present","response":"present","rt":880,"correct":true,"confidence":-1},{"trial_n":88,"min":73,"max":182,"target":"absent","response":"absent","rt":1715,"correct":true,"confidence":-1},{"trial_n":89,"min":81,"max":174,"target":"present","response":"present","rt":1223.9999999999,"correct":true,"confidence":-1},{"trial_n":90,"min":81,"max":174,"target":"present","response":"present","rt":692,"correct":true,"confidence":-1},{"trial_n":91,"min":85,"max":170,"target":"present","response":"present","rt":532.00000000006,"correct":true,"confidence":3},{"trial_n":92,"min":85,"max":170,"target":"present","response":"present","rt":936,"correct":true,"confidence":1},{"trial_n":93,"min":89,"max":166,"target":"absent","response":"present","rt":1297.0000000001,"correct":false,"confidence":2},{"trial_n":94,"min":85,"max":170,"target":"present","response":"present","rt":1000,"correct":true,"confidence":1},{"trial_n":95,"min":85,"max":170,"target":"present","response":"absent","rt":761,"correct":false,"confidence":2},{"trial_n":96,"min":81,"max":174,"target":"absent","response":"present","rt":1872,"correct":false,"confidence":2},{"trial_n":97,"min":77,"max":178,"target":"absent","response":"absent","rt":2073,"correct":true,"confidence":3},{"trial_n":98,"min":77,"max":178,"target":"absent","response":"absent","rt":974,"correct":true,"confidence":4},{"trial_n":99,"min":81,"max":174,"target":"present","response":"present","rt":851,"correct":true,"confidence":1},{"trial_n":100,"min":81,"max":174,"target":"absent","response":"absent","rt":951,"correct":true,"confidence":4},{"trial_n":101,"min":83,"max":172,"target":"absent","response":"absent","rt":820,"correct":true,"confidence":3},{"trial_n":102,"min":83,"max":172,"target":"absent","response":"absent","rt":1320.0000000001,"correct":true,"confidence":5},{"trial_n":103,"min":85,"max":170,"target":"absent","response":"present","rt":1097,"correct":false,"confidence":1},{"trial_n":104,"min":83,"max":172,"target":"present","response":"present","rt":716.00000000006,"correct":true,"confidence":1},{"trial_n":105,"min":83,"max":172,"target":"present","response":"present","rt":845.00000000006,"correct":true,"confidence":3},{"trial_n":106,"min":85,"max":170,"target":"present","response":"present","rt":927,"correct":true,"confidence":5},{"trial_n":107,"min":85,"max":170,"target":"absent","response":"present","rt":1071,"correct":false,"confidence":1},{"trial_n":108,"min":83,"max":172,"target":"present","response":"present","rt":1322,"correct":true,"confidence":1},{"trial_n":109,"min":83,"max":172,"target":"present","response":"present","rt":774,"correct":true,"confidence":3},{"trial_n":110,"min":85,"max":170,"target":"present","response":"present","rt":811,"correct":true,"confidence":4},{"trial_n":111,"min":85,"max":170,"target":"absent","response":"absent","rt":930,"correct":true,"confidence":5},{"trial_n":112,"min":86,"max":169,"target":"present","response":"present","rt":834.99999999994,"correct":true,"confidence":5},{"trial_n":113,"min":86,"max":169,"target":"present","response":"present","rt":966,"correct":true,"confidence":5},{"trial_n":114,"min":87,"max":168,"target":"present","response":"absent","rt":888,"correct":false,"confidence":3},{"trial_n":115,"min":86,"max":169,"target":"absent","response":"absent","rt":996,"correct":true,"confidence":3},{"trial_n":116,"min":86,"max":169,"target":"present","response":"present","rt":842.00000000006,"correct":true,"confidence":4},{"trial_n":117,"min":87,"max":168,"target":"present","response":"present","rt":1104,"correct":true,"confidence":1},{"trial_n":118,"min":87,"max":168,"target":"absent","response":"absent","rt":947,"correct":true,"confidence":1},{"trial_n":119,"min":88,"max":167,"target":"present","response":"present","rt":828,"correct":true,"confidence":3},{"trial_n":120,"min":88,"max":167,"target":"absent","response":"absent","rt":796.99999999994,"correct":true,"confidence":3},{"trial_n":121,"min":89,"max":166,"target":"present","response":"present","rt":643,"correct":true,"confidence":4},{"trial_n":122,"min":89,"max":166,"target":"absent","response":"absent","rt":1545,"correct":true,"confidence":4},{"trial_n":123,"min":90,"max":165,"target":"absent","response":"present","rt":1197,"correct":false,"confidence":1},{"trial_n":124,"min":89,"max":166,"target":"present","response":"present","rt":908,"correct":true,"confidence":1},{"trial_n":125,"min":89,"max":166,"target":"absent","response":"absent","rt":675.00000000006,"correct":true,"confidence":4},{"trial_n":126,"min":90,"max":165,"target":"absent","response":"absent","rt":1252.0000000001,"correct":true,"confidence":1},{"trial_n":127,"min":90,"max":165,"target":"present","response":"present","rt":883,"correct":true,"confidence":1},{"trial_n":128,"min":91,"max":164,"target":"present","response":"present","rt":2085,"correct":true,"confidence":4},{"trial_n":129,"min":91,"max":164,"target":"present","response":"present","rt":816,"correct":true,"confidence":3},{"trial_n":130,"min":92,"max":163,"target":"absent","response":"absent","rt":955.99999999994,"correct":true,"confidence":5},{"trial_n":131,"min":92,"max":163,"target":"absent","response":"present","rt":1253,"correct":false,"confidence":1},{"trial_n":132,"min":91,"max":164,"target":"absent","response":"present","rt":1122.9999999999,"correct":false,"confidence":1},{"trial_n":133,"min":90,"max":165,"target":"absent","response":"absent","rt":982,"correct":true,"confidence":2},{"trial_n":134,"min":90,"max":165,"target":"present","response":"present","rt":1322.9999999999,"correct":true,"confidence":1},{"trial_n":135,"min":91,"max":164,"target":"absent","response":"absent","rt":2659,"correct":true,"confidence":1},{"trial_n":136,"min":91,"max":164,"target":"absent","response":"present","rt":1751,"correct":false,"confidence":3},{"trial_n":137,"min":90,"max":165,"target":"present","response":"absent","rt":1852.0000000001,"correct":false,"confidence":3},{"trial_n":138,"min":89,"max":166,"target":"present","response":"absent","rt":1513,"correct":false,"confidence":1},{"trial_n":139,"min":88,"max":167,"target":"present","response":"present","rt":1080,"correct":true,"confidence":3},{"trial_n":140,"min":88,"max":167,"target":"present","response":"absent","rt":1453,"correct":false,"confidence":1}]