[{"trial_n":1,"min":25,"max":230,"target":"present","response":"absent","rt":5588.700000003,"correct":false,"confidence":-1},{"trial_n":2,"min":25,"max":230,"target":"present","response":"absent","rt":3946,"correct":false,"confidence":-1},{"trial_n":3,"min":9,"max":246,"target":"absent","response":"present","rt":3263.299999997,"correct":false,"confidence":-1},{"trial_n":4,"min":0,"max":255,"target":"absent","response":"present","rt":5325.700000003,"correct":false,"confidence":-1},{"trial_n":5,"min":0,"max":255,"target":"present","response":"absent","rt":3384.599999994,"correct":false,"confidence":-1},{"trial_n":6,"min":0,"max":255,"target":"present","response":"present","rt":1511.3999999911,"correct":true,"confidence":-1},{"trial_n":7,"min":0,"max":255,"target":"absent","response":"absent","rt":2433.700000003,"correct":true,"confidence":-1},{"trial_n":8,"min":16,"max":239,"target":"present","response":"present","rt":1923.1999999881,"correct":true,"confidence":-1},{"trial_n":9,"min":16,"max":239,"target":"absent","response":"absent","rt":1427,"correct":true,"confidence":-1},{"trial_n":10,"min":32,"max":223,"target":"present","response":"present","rt":1818.6000000089,"correct":true,"confidence":-1},{"trial_n":11,"min":32,"max":223,"target":"absent","response":"present","rt":1690,"correct":false,"confidence":-1},{"trial_n":12,"min":24,"max":231,"target":"absent","response":"absent","rt":1192.5,"correct":true,"confidence":-1},{"trial_n":13,"min":24,"max":231,"target":"absent","response":"absent","rt":862,"correct":true,"confidence":-1},{"trial_n":14,"min":32,"max":223,"target":"absent","response":"absent","rt":681.5,"correct":true,"confidence":-1},{"trial_n":15,"min":32,"max":223,"target":"present","response":"present","rt":1471.099999994,"correct":true,"confidence":-1},{"trial_n":16,"min":40,"max":215,"target":"absent","response":"absent","rt":981.29999999702,"correct":true,"confidence":-1},{"trial_n":17,"min":40,"max":215,"target":"present","response":"present","rt":996.39999999106,"correct":true,"confidence":-1},{"trial_n":18,"min":48,"max":207,"target":"absent","response":"absent","rt":1287.599999994,"correct":true,"confidence":-1},{"trial_n":19,"min":48,"max":207,"target":"present","response":"present","rt":969,"correct":true,"confidence":-1},{"trial_n":20,"min":56,"max":199,"target":"absent","response":"absent","rt":1039.799999997,"correct":true,"confidence":-1},{"trial_n":21,"min":56,"max":199,"target":"absent","response":"absent","rt":979.29999999702,"correct":true,"confidence":5},{"trial_n":22,"min":60,"max":195,"target":"absent","response":"absent","rt":1914.6000000089,"correct":true,"confidence":5},{"trial_n":23,"min":60,"max":195,"target":"present","response":"absent","rt":1792,"correct":false,"confidence":4},{"trial_n":24,"min":56,"max":199,"target":"present","response":"present","rt":1273.900000006,"correct":true,"confidence":5},{"trial_n":25,"min":56,"max":199,"target":"absent","response":"absent","rt":1984.1000000089,"correct":true,"confidence":5},{"trial_n":26,"min":60,"max":195,"target":"absent","response":"absent","rt":1550.900000006,"correct":true,"confidence":5},{"trial_n":27,"min":60,"max":195,"target":"present","response":"present","rt":1763.799999997,"correct":true,"confidence":5},{"trial_n":28,"min":64,"max":191,"target":"present","response":"absent","rt":3628.900000006,"correct":false,"confidence":3},{"trial_n":29,"min":60,"max":195,"target":"present","response":"present","rt":1198.200000003,"correct":true,"confidence":5},{"trial_n":30,"min":60,"max":195,"target":"present","response":"present","rt":1054.099999994,"correct":true,"confidence":5},{"trial_n":31,"min":62,"max":193,"target":"present","response":"present","rt":1941.299999997,"correct":true,"confidence":5},{"trial_n":32,"min":62,"max":193,"target":"present","response":"present","rt":1163.700000003,"correct":true,"confidence":5},{"trial_n":33,"min":64,"max":191,"target":"present","response":"absent","rt":1200.8999999911,"correct":false,"confidence":5},{"trial_n":34,"min":62,"max":193,"target":"absent","response":"absent","rt":1007.400000006,"correct":true,"confidence":5},{"trial_n":35,"min":62,"max":193,"target":"present","response":"absent","rt":2602.1999999881,"correct":false,"confidence":3},{"trial_n":36,"min":60,"max":195,"target":"absent","response":"absent","rt":979.60000000894,"correct":true,"confidence":5},{"trial_n":37,"min":60,"max":195,"target":"absent","response":"absent","rt":946.20000000298,"correct":true,"confidence":5},{"trial_n":38,"min":62,"max":193,"target":"present","response":"present","rt":849.39999999106,"correct":true,"confidence":5},{"trial_n":39,"min":62,"max":193,"target":"present","response":"present","rt":1629.5,"correct":true,"confidence":5},{"trial_n":40,"min":64,"max":191,"target":"absent","response":"absent","rt":978.79999999702,"correct":true,"confidence":5},{"trial_n":41,"min":64,"max":191,"target":"absent","response":"absent","rt":3110.799999997,"correct":true,"confidence":5},{"trial_n":42,"min":65,"max":190,"target":"present","response":"present","rt":1551.799999997,"correct":true,"confidence":5},{"trial_n":43,"min":65,"max":190,"target":"absent","response":"absent","rt":1285.5,"correct":true,"confidence":5},{"trial_n":44,"min":66,"max":189,"target":"absent","response":"absent","rt":1285.6000000089,"correct":true,"confidence":5},{"trial_n":45,"min":66,"max":189,"target":"absent","response":"absent","rt":955,"correct":true,"confidence":5},{"trial_n":46,"min":67,"max":188,"target":"present","response":"present","rt":1109.099999994,"correct":true,"confidence":5},{"trial_n":47,"min":67,"max":188,"target":"absent","response":"absent","rt":1153.099999994,"correct":true,"confidence":5},{"trial_n":48,"min":68,"max":187,"target":"absent","response":"absent","rt":986.69999998808,"correct":true,"confidence":5},{"trial_n":49,"min":68,"max":187,"target":"absent","response":"absent","rt":1028.8999999911,"correct":true,"confidence":4},{"trial_n":50,"min":69,"max":186,"target":"present","response":"present","rt":1101.6000000089,"correct":true,"confidence":3},{"trial_n":51,"min":69,"max":186,"target":"present","response":"present","rt":1550.6000000089,"correct":true,"confidence":5},{"trial_n":52,"min":70,"max":185,"target":"absent","response":"absent","rt":1820.700000003,"correct":true,"confidence":5},{"trial_n":53,"min":70,"max":185,"target":"present","response":"present","rt":1108.099999994,"correct":true,"confidence":3},{"trial_n":54,"min":71,"max":184,"target":"absent","response":"absent","rt":1074.400000006,"correct":true,"confidence":5},{"trial_n":55,"min":71,"max":184,"target":"present","response":"present","rt":1268.400000006,"correct":true,"confidence":3},{"trial_n":56,"min":72,"max":183,"target":"absent","response":"absent","rt":970.79999999702,"correct":true,"confidence":5},{"trial_n":57,"min":72,"max":183,"target":"absent","response":"absent","rt":1365.700000003,"correct":true,"confidence":5},{"trial_n":58,"min":73,"max":182,"target":"present","response":"present","rt":889.10000000894,"correct":true,"confidence":5},{"trial_n":59,"min":73,"max":182,"target":"present","response":"present","rt":936.29999999702,"correct":true,"confidence":5},{"trial_n":60,"min":74,"max":181,"target":"absent","response":"absent","rt":788.5,"correct":true,"confidence":5},{"trial_n":61,"min":74,"max":181,"target":"present","response":"absent","rt":831.59999999404,"correct":false,"confidence":5},{"trial_n":62,"min":73,"max":182,"target":"present","response":"present","rt":1027.3999999911,"correct":true,"confidence":4},{"trial_n":63,"min":73,"max":182,"target":"present","response":"present","rt":799.90000000596,"correct":true,"confidence":4},{"trial_n":64,"min":74,"max":181,"target":"absent","response":"absent","rt":1114.299999997,"correct":true,"confidence":5},{"trial_n":65,"min":74,"max":181,"target":"present","response":"present","rt":744.19999998808,"correct":true,"confidence":5},{"trial_n":66,"min":75,"max":180,"target":"present","response":"present","rt":2033,"correct":true,"confidence":3},{"trial_n":67,"min":75,"max":180,"target":"absent","response":"absent","rt":749.5,"correct":true,"confidence":5},{"trial_n":68,"min":76,"max":179,"target":"absent","response":"absent","rt":1369.900000006,"correct":true,"confidence":4},{"trial_n":69,"min":76,"max":179,"target":"present","response":"present","rt":769,"correct":true,"confidence":5},{"trial_n":70,"min":77,"max":178,"target":"present","response":"absent","rt":906.09999999404,"correct":false,"confidence":4},{"trial_n":71,"min":41,"max":214,"target":"present","response":"present","rt":10154.600000009,"correct":true,"confidence":-1},{"trial_n":72,"min":41,"max":214,"target":"present","response":"absent","rt":8100.6000000089,"correct":false,"confidence":-1},{"trial_n":73,"min":25,"max":230,"target":"absent","response":"present","rt":4246.799999997,"correct":false,"confidence":-1},{"trial_n":74,"min":9,"max":246,"target":"absent","response":"absent","rt":13365,"correct":true,"confidence":-1},{"trial_n":75,"min":9,"max":246,"target":"present","response":"present","rt":1429.8999999911,"correct":true,"confidence":-1},{"trial_n":76,"min":25,"max":230,"target":"present","response":"absent","rt":3025.799999997,"correct":false,"confidence":-1},{"trial_n":77,"min":9,"max":246,"target":"absent","response":"present","rt":4301.5,"correct":false,"confidence":-1},{"trial_n":78,"min":0,"max":255,"target":"present","response":"present","rt":9214.799999997,"correct":true,"confidence":-1},{"trial_n":79,"min":0,"max":255,"target":"absent","response":"present","rt":1207.5,"correct":false,"confidence":-1},{"trial_n":80,"min":0,"max":255,"target":"absent","response":"present","rt":8393.099999994,"correct":false,"confidence":-1},{"trial_n":81,"min":0,"max":255,"target":"present","response":"present","rt":724.09999999404,"correct":true,"confidence":-1},{"trial_n":82,"min":0,"max":255,"target":"present","response":"absent","rt":2797.200000003,"correct":false,"confidence":-1},{"trial_n":83,"min":0,"max":255,"target":"absent","response":"present","rt":4679.200000003,"correct":false,"confidence":-1},{"trial_n":84,"min":0,"max":255,"target":"absent","response":"present","rt":10637.699999988,"correct":false,"confidence":-1},{"trial_n":85,"min":0,"max":255,"target":"absent","response":"present","rt":3104.700000003,"correct":false,"confidence":-1},{"trial_n":86,"min":0,"max":255,"target":"present","response":"absent","rt":1492.5,"correct":false,"confidence":-1},{"trial_n":87,"min":0,"max":255,"target":"present","response":"present","rt":1596.5,"correct":true,"confidence":-1},{"trial_n":88,"min":0,"max":255,"target":"absent","response":"absent","rt":3196.900000006,"correct":true,"confidence":-1},{"trial_n":89,"min":8,"max":247,"target":"absent","response":"present","rt":1428.3000000119,"correct":false,"confidence":-1},{"trial_n":90,"min":0,"max":255,"target":"present","response":"present","rt":613,"correct":true,"confidence":-1},{"trial_n":91,"min":0,"max":255,"target":"absent","response":"present","rt":928.90000000596,"correct":false,"confidence":4},{"trial_n":92,"min":0,"max":255,"target":"present","response":"present","rt":673.29999999702,"correct":true,"confidence":5},{"trial_n":93,"min":0,"max":255,"target":"present","response":"absent","rt":881.20000000298,"correct":false,"confidence":5},{"trial_n":94,"min":0,"max":255,"target":"present","response":"present","rt":729.09999999404,"correct":true,"confidence":5},{"trial_n":95,"min":0,"max":255,"target":"present","response":"absent","rt":1008.299999997,"correct":false,"confidence":5},{"trial_n":96,"min":0,"max":255,"target":"absent","response":"present","rt":912.5,"correct":false,"confidence":4},{"trial_n":97,"min":0,"max":255,"target":"absent","response":"present","rt":1344.799999997,"correct":false,"confidence":3},{"trial_n":98,"min":0,"max":255,"target":"absent","response":"present","rt":853.59999999404,"correct":false,"confidence":5},{"trial_n":99,"min":0,"max":255,"target":"present","response":"present","rt":1173.1000000089,"correct":true,"confidence":3},{"trial_n":100,"min":0,"max":255,"target":"absent","response":"absent","rt":908.19999998808,"correct":true,"confidence":5},{"trial_n":101,"min":2,"max":253,"target":"absent","response":"present","rt":1386.5,"correct":false,"confidence":5},{"trial_n":102,"min":0,"max":255,"target":"absent","response":"absent","rt":796.5,"correct":true,"confidence":5},{"trial_n":103,"min":0,"max":255,"target":"absent","response":"present","rt":831.59999999404,"correct":false,"confidence":5},{"trial_n":104,"min":0,"max":255,"target":"present","response":"absent","rt":2306.799999997,"correct":false,"confidence":3},{"trial_n":105,"min":0,"max":255,"target":"present","response":"absent","rt":1266.599999994,"correct":false,"confidence":3},{"trial_n":106,"min":0,"max":255,"target":"present","response":"present","rt":1044.200000003,"correct":true,"confidence":3},{"trial_n":107,"min":0,"max":255,"target":"absent","response":"present","rt":1036.099999994,"correct":false,"confidence":5},{"trial_n":108,"min":0,"max":255,"target":"present","response":"absent","rt":1502.3999999911,"correct":false,"confidence":3},{"trial_n":109,"min":0,"max":255,"target":"absent","response":"absent","rt":803,"correct":true,"confidence":5},{"trial_n":110,"min":0,"max":255,"target":"present","response":"present","rt":1415.299999997,"correct":true,"confidence":3},{"trial_n":111,"min":1,"max":254,"target":"absent","response":"present","rt":928.60000000894,"correct":false,"confidence":4},{"trial_n":112,"min":0,"max":255,"target":"present","response":"absent","rt":1383.6999999881,"correct":false,"confidence":4},{"trial_n":113,"min":0,"max":255,"target":"present","response":"present","rt":1344.700000003,"correct":true,"confidence":3},{"trial_n":114,"min":0,"max":255,"target":"absent","response":"present","rt":1191.200000003,"correct":false,"confidence":4},{"trial_n":115,"min":0,"max":255,"target":"absent","response":"present","rt":811.19999998808,"correct":false,"confidence":4},{"trial_n":116,"min":0,"max":255,"target":"absent","response":"present","rt":695,"correct":false,"confidence":3},{"trial_n":117,"min":0,"max":255,"target":"present","response":"present","rt":1161.700000003,"correct":true,"confidence":4},{"trial_n":118,"min":0,"max":255,"target":"absent","response":"absent","rt":734.29999999702,"correct":true,"confidence":5},{"trial_n":119,"min":1,"max":254,"target":"absent","response":"absent","rt":789.10000000894,"correct":true,"confidence":5},{"trial_n":120,"min":1,"max":254,"target":"absent","response":"present","rt":1429.799999997,"correct":false,"confidence":4},{"trial_n":121,"min":0,"max":255,"target":"absent","response":"absent","rt":702.70000000298,"correct":true,"confidence":5},{"trial_n":122,"min":0,"max":255,"target":"present","response":"present","rt":1238.099999994,"correct":true,"confidence":4},{"trial_n":123,"min":1,"max":254,"target":"present","response":"present","rt":996.19999998808,"correct":true,"confidence":4},{"trial_n":124,"min":1,"max":254,"target":"absent","response":"present","rt":888.29999999702,"correct":false,"confidence":4},{"trial_n":125,"min":0,"max":255,"target":"present","response":"absent","rt":762.09999999404,"correct":false,"confidence":5},{"trial_n":126,"min":0,"max":255,"target":"present","response":"absent","rt":1334.900000006,"correct":false,"confidence":4},{"trial_n":127,"min":0,"max":255,"target":"present","response":"present","rt":1394.5,"correct":true,"confidence":5},{"trial_n":128,"min":0,"max":255,"target":"present","response":"present","rt":1136.5,"correct":true,"confidence":4},{"trial_n":129,"min":1,"max":254,"target":"present","response":"present","rt":851.5,"correct":true,"confidence":5},{"trial_n":130,"min":1,"max":254,"target":"absent","response":"absent","rt":629.29999999702,"correct":true,"confidence":5},{"trial_n":131,"min":2,"max":253,"target":"present","response":"present","rt":920.60000000894,"correct":true,"confidence":5},{"trial_n":132,"min":2,"max":253,"target":"absent","response":"absent","rt":786.79999999702,"correct":true,"confidence":4},{"trial_n":133,"min":3,"max":252,"target":"present","response":"present","rt":933.70000000298,"correct":true,"confidence":4},{"trial_n":134,"min":3,"max":252,"target":"absent","response":"absent","rt":838.40000000596,"correct":true,"confidence":5},{"trial_n":135,"min":4,"max":251,"target":"present","response":"present","rt":959.20000000298,"correct":true,"confidence":5},{"trial_n":136,"min":4,"max":251,"target":"present","response":"present","rt":822.20000000298,"correct":true,"confidence":4},{"trial_n":137,"min":5,"max":250,"target":"present","response":"absent","rt":964.79999999702,"correct":false,"confidence":4},{"trial_n":138,"min":4,"max":251,"target":"absent","response":"absent","rt":760.59999999404,"correct":true,"confidence":5},{"trial_n":139,"min":4,"max":251,"target":"present","response":"present","rt":952.40000000596,"correct":true,"confidence":4},{"trial_n":140,"min":5,"max":250,"target":"absent","response":"present","rt":751.09999999404,"correct":false,"confidence":4}]