[{"trial_n":1,"min":25,"max":230,"target":"present","response":"present","rt":15963.799999952,"correct":true,"confidence":-1},{"trial_n":2,"min":25,"max":230,"target":"present","response":"present","rt":822.39999997616,"correct":true,"confidence":-1},{"trial_n":3,"min":41,"max":214,"target":"absent","response":"absent","rt":726.60000002384,"correct":true,"confidence":-1},{"trial_n":4,"min":41,"max":214,"target":"absent","response":"absent","rt":678.79999995232,"correct":true,"confidence":-1},{"trial_n":5,"min":57,"max":198,"target":"present","response":"present","rt":818.29999995232,"correct":true,"confidence":-1},{"trial_n":6,"min":57,"max":198,"target":"present","response":"present","rt":724,"correct":true,"confidence":-1},{"trial_n":7,"min":73,"max":182,"target":"absent","response":"absent","rt":584.60000002384,"correct":true,"confidence":-1},{"trial_n":8,"min":73,"max":182,"target":"absent","response":"absent","rt":720.60000002384,"correct":true,"confidence":-1},{"trial_n":9,"min":89,"max":166,"target":"present","response":"absent","rt":590.70000004768,"correct":false,"confidence":-1},{"trial_n":10,"min":73,"max":182,"target":"absent","response":"absent","rt":486.60000002384,"correct":true,"confidence":-1},{"trial_n":11,"min":73,"max":182,"target":"absent","response":"absent","rt":800,"correct":true,"confidence":-1},{"trial_n":12,"min":81,"max":174,"target":"absent","response":"absent","rt":536.10000002384,"correct":true,"confidence":-1},{"trial_n":13,"min":81,"max":174,"target":"absent","response":"absent","rt":503.39999997616,"correct":true,"confidence":-1},{"trial_n":14,"min":89,"max":166,"target":"present","response":"absent","rt":501.29999995232,"correct":false,"confidence":-1},{"trial_n":15,"min":81,"max":174,"target":"absent","response":"absent","rt":945.60000002384,"correct":true,"confidence":-1},{"trial_n":16,"min":81,"max":174,"target":"absent","response":"absent","rt":527.39999997616,"correct":true,"confidence":-1},{"trial_n":17,"min":89,"max":166,"target":"present","response":"absent","rt":706.39999997616,"correct":false,"confidence":-1},{"trial_n":18,"min":81,"max":174,"target":"absent","response":"absent","rt":535.39999997616,"correct":true,"confidence":-1},{"trial_n":19,"min":81,"max":174,"target":"absent","response":"absent","rt":569.79999995232,"correct":true,"confidence":-1},{"trial_n":20,"min":89,"max":166,"target":"present","response":"present","rt":663.89999997616,"correct":true,"confidence":-1},{"trial_n":21,"min":89,"max":166,"target":"present","response":"present","rt":865,"correct":true,"confidence":2},{"trial_n":22,"min":93,"max":162,"target":"absent","response":"present","rt":921.20000004768,"correct":false,"confidence":2},{"trial_n":23,"min":89,"max":166,"target":"present","response":"absent","rt":578.60000002384,"correct":false,"confidence":4},{"trial_n":24,"min":85,"max":170,"target":"present","response":"absent","rt":8856.7000000477,"correct":false,"confidence":5},{"trial_n":25,"min":81,"max":174,"target":"absent","response":"absent","rt":2875,"correct":true,"confidence":4},{"trial_n":26,"min":81,"max":174,"target":"absent","response":"present","rt":992.29999995232,"correct":false,"confidence":3},{"trial_n":27,"min":77,"max":178,"target":"absent","response":"absent","rt":1215.1000000238,"correct":true,"confidence":4},{"trial_n":28,"min":77,"max":178,"target":"present","response":"present","rt":602.39999997616,"correct":true,"confidence":5},{"trial_n":29,"min":81,"max":174,"target":"present","response":"present","rt":632,"correct":true,"confidence":5},{"trial_n":30,"min":81,"max":174,"target":"present","response":"present","rt":739,"correct":true,"confidence":5},{"trial_n":31,"min":83,"max":172,"target":"present","response":"present","rt":670.60000002384,"correct":true,"confidence":5},{"trial_n":32,"min":83,"max":172,"target":"present","response":"present","rt":679.89999997616,"correct":true,"confidence":5},{"trial_n":33,"min":85,"max":170,"target":"present","response":"present","rt":728.70000004768,"correct":true,"confidence":5},{"trial_n":34,"min":85,"max":170,"target":"absent","response":"absent","rt":837.20000004768,"correct":true,"confidence":4},{"trial_n":35,"min":87,"max":168,"target":"present","response":"absent","rt":738.5,"correct":false,"confidence":5},{"trial_n":36,"min":85,"max":170,"target":"present","response":"absent","rt":780.60000002384,"correct":false,"confidence":3},{"trial_n":37,"min":83,"max":172,"target":"absent","response":"absent","rt":598.29999995232,"correct":true,"confidence":5},{"trial_n":38,"min":83,"max":172,"target":"present","response":"absent","rt":741.29999995232,"correct":false,"confidence":5},{"trial_n":39,"min":81,"max":174,"target":"present","response":"absent","rt":588.60000002384,"correct":false,"confidence":5},{"trial_n":40,"min":79,"max":176,"target":"absent","response":"absent","rt":573.20000004768,"correct":true,"confidence":4},{"trial_n":41,"min":79,"max":176,"target":"absent","response":"absent","rt":824.39999997616,"correct":true,"confidence":4},{"trial_n":42,"min":80,"max":175,"target":"absent","response":"absent","rt":622.29999995232,"correct":true,"confidence":4},{"trial_n":43,"min":80,"max":175,"target":"present","response":"present","rt":729.5,"correct":true,"confidence":5},{"trial_n":44,"min":81,"max":174,"target":"absent","response":"absent","rt":1155.8999999762,"correct":true,"confidence":4},{"trial_n":45,"min":81,"max":174,"target":"absent","response":"absent","rt":745.39999997616,"correct":true,"confidence":4},{"trial_n":46,"min":82,"max":173,"target":"present","response":"present","rt":760.20000004768,"correct":true,"confidence":5},{"trial_n":47,"min":82,"max":173,"target":"absent","response":"absent","rt":1072.2999999523,"correct":true,"confidence":3},{"trial_n":48,"min":83,"max":172,"target":"absent","response":"absent","rt":630.79999995232,"correct":true,"confidence":3},{"trial_n":49,"min":83,"max":172,"target":"present","response":"absent","rt":652.79999995232,"correct":false,"confidence":4},{"trial_n":50,"min":82,"max":173,"target":"present","response":"present","rt":612.60000002384,"correct":true,"confidence":5},{"trial_n":51,"min":82,"max":173,"target":"present","response":"present","rt":710.20000004768,"correct":true,"confidence":5},{"trial_n":52,"min":83,"max":172,"target":"present","response":"present","rt":636.39999997616,"correct":true,"confidence":5},{"trial_n":53,"min":83,"max":172,"target":"present","response":"present","rt":712.20000004768,"correct":true,"confidence":5},{"trial_n":54,"min":84,"max":171,"target":"present","response":"present","rt":594.60000002384,"correct":true,"confidence":5},{"trial_n":55,"min":84,"max":171,"target":"present","response":"absent","rt":1086.6000000238,"correct":false,"confidence":1},{"trial_n":56,"min":83,"max":172,"target":"absent","response":"absent","rt":1742.8999999762,"correct":true,"confidence":2},{"trial_n":57,"min":83,"max":172,"target":"present","response":"present","rt":878.79999995232,"correct":true,"confidence":2},{"trial_n":58,"min":84,"max":171,"target":"present","response":"present","rt":655.79999995232,"correct":true,"confidence":3},{"trial_n":59,"min":84,"max":171,"target":"absent","response":"present","rt":790.10000002384,"correct":false,"confidence":2},{"trial_n":60,"min":83,"max":172,"target":"absent","response":"absent","rt":998.20000004768,"correct":true,"confidence":1},{"trial_n":61,"min":83,"max":172,"target":"present","response":"present","rt":741.79999995232,"correct":true,"confidence":5},{"trial_n":62,"min":84,"max":171,"target":"absent","response":"absent","rt":1232.6000000238,"correct":true,"confidence":4},{"trial_n":63,"min":84,"max":171,"target":"absent","response":"present","rt":1581,"correct":false,"confidence":1},{"trial_n":64,"min":83,"max":172,"target":"present","response":"present","rt":587.20000004768,"correct":true,"confidence":5},{"trial_n":65,"min":83,"max":172,"target":"absent","response":"absent","rt":881.89999997616,"correct":true,"confidence":4},{"trial_n":66,"min":84,"max":171,"target":"present","response":"absent","rt":1562.6000000238,"correct":false,"confidence":4},{"trial_n":67,"min":83,"max":172,"target":"absent","response":"absent","rt":562.5,"correct":true,"confidence":4},{"trial_n":68,"min":83,"max":172,"target":"absent","response":"absent","rt":544.70000004768,"correct":true,"confidence":4},{"trial_n":69,"min":84,"max":171,"target":"absent","response":"absent","rt":496.70000004768,"correct":true,"confidence":4},{"trial_n":70,"min":84,"max":171,"target":"present","response":"absent","rt":453.5,"correct":false,"confidence":4},{"trial_n":71,"min":41,"max":214,"target":"present","response":"present","rt":7007.7000000477,"correct":true,"confidence":-1},{"trial_n":72,"min":41,"max":214,"target":"present","response":"present","rt":799.60000002384,"correct":true,"confidence":-1},{"trial_n":73,"min":57,"max":198,"target":"absent","response":"absent","rt":3524.7999999523,"correct":true,"confidence":-1},{"trial_n":74,"min":57,"max":198,"target":"absent","response":"absent","rt":700.89999997616,"correct":true,"confidence":-1},{"trial_n":75,"min":73,"max":182,"target":"present","response":"present","rt":713.60000002384,"correct":true,"confidence":-1},{"trial_n":76,"min":73,"max":182,"target":"absent","response":"absent","rt":797.20000004768,"correct":true,"confidence":-1},{"trial_n":77,"min":89,"max":166,"target":"present","response":"present","rt":1007,"correct":true,"confidence":-1},{"trial_n":78,"min":89,"max":166,"target":"absent","response":"absent","rt":1351.2000000477,"correct":true,"confidence":-1},{"trial_n":79,"min":105,"max":150,"target":"present","response":"present","rt":909.20000004768,"correct":true,"confidence":-1},{"trial_n":80,"min":105,"max":150,"target":"present","response":"present","rt":958.60000002384,"correct":true,"confidence":-1},{"trial_n":81,"min":113,"max":142,"target":"present","response":"absent","rt":651.39999997616,"correct":false,"confidence":-1},{"trial_n":82,"min":105,"max":150,"target":"absent","response":"present","rt":697.20000004768,"correct":false,"confidence":-1},{"trial_n":83,"min":97,"max":158,"target":"absent","response":"absent","rt":689.79999995232,"correct":true,"confidence":-1},{"trial_n":84,"min":97,"max":158,"target":"absent","response":"absent","rt":590.60000002384,"correct":true,"confidence":-1},{"trial_n":85,"min":105,"max":150,"target":"present","response":"absent","rt":534.60000002384,"correct":false,"confidence":-1},{"trial_n":86,"min":97,"max":158,"target":"present","response":"present","rt":595.79999995232,"correct":true,"confidence":-1},{"trial_n":87,"min":97,"max":158,"target":"absent","response":"absent","rt":1256.3999999762,"correct":true,"confidence":-1},{"trial_n":88,"min":105,"max":150,"target":"present","response":"present","rt":736.5,"correct":true,"confidence":-1},{"trial_n":89,"min":105,"max":150,"target":"present","response":"present","rt":790.10000002384,"correct":true,"confidence":-1},{"trial_n":90,"min":113,"max":142,"target":"present","response":"absent","rt":824.89999997616,"correct":false,"confidence":-1},{"trial_n":91,"min":109,"max":146,"target":"absent","response":"present","rt":1300.2000000477,"correct":false,"confidence":3},{"trial_n":92,"min":105,"max":150,"target":"absent","response":"present","rt":1243.3999999762,"correct":false,"confidence":2},{"trial_n":93,"min":101,"max":154,"target":"present","response":"present","rt":4441.7999999523,"correct":true,"confidence":2},{"trial_n":94,"min":101,"max":154,"target":"absent","response":"present","rt":1728.1000000238,"correct":false,"confidence":1},{"trial_n":95,"min":97,"max":158,"target":"absent","response":"present","rt":1640.8999999762,"correct":false,"confidence":3},{"trial_n":96,"min":93,"max":162,"target":"present","response":"absent","rt":833.39999997616,"correct":false,"confidence":4},{"trial_n":97,"min":89,"max":166,"target":"present","response":"present","rt":1094.8999999762,"correct":true,"confidence":1},{"trial_n":98,"min":89,"max":166,"target":"absent","response":"present","rt":1338.2000000477,"correct":false,"confidence":2},{"trial_n":99,"min":85,"max":170,"target":"present","response":"present","rt":2237.3999999762,"correct":true,"confidence":1},{"trial_n":100,"min":85,"max":170,"target":"absent","response":"present","rt":1015.2000000477,"correct":false,"confidence":1},{"trial_n":101,"min":83,"max":172,"target":"present","response":"present","rt":1406.7999999523,"correct":true,"confidence":5},{"trial_n":102,"min":83,"max":172,"target":"absent","response":"absent","rt":1435,"correct":true,"confidence":1},{"trial_n":103,"min":85,"max":170,"target":"absent","response":"absent","rt":2027.3999999762,"correct":true,"confidence":1},{"trial_n":104,"min":85,"max":170,"target":"present","response":"present","rt":1218.3999999762,"correct":true,"confidence":5},{"trial_n":105,"min":87,"max":168,"target":"present","response":"present","rt":884.39999997616,"correct":true,"confidence":5},{"trial_n":106,"min":87,"max":168,"target":"absent","response":"present","rt":1629.6000000238,"correct":false,"confidence":1},{"trial_n":107,"min":85,"max":170,"target":"present","response":"present","rt":1007.2000000477,"correct":true,"confidence":5},{"trial_n":108,"min":85,"max":170,"target":"absent","response":"absent","rt":981.39999997616,"correct":true,"confidence":5},{"trial_n":109,"min":87,"max":168,"target":"present","response":"present","rt":844.89999997616,"correct":true,"confidence":5},{"trial_n":110,"min":87,"max":168,"target":"present","response":"present","rt":958.79999995232,"correct":true,"confidence":1},{"trial_n":111,"min":88,"max":167,"target":"present","response":"present","rt":1055.7999999523,"correct":true,"confidence":1},{"trial_n":112,"min":88,"max":167,"target":"absent","response":"absent","rt":1399.5,"correct":true,"confidence":1},{"trial_n":113,"min":89,"max":166,"target":"present","response":"present","rt":1020.2999999523,"correct":true,"confidence":1},{"trial_n":114,"min":89,"max":166,"target":"absent","response":"absent","rt":823.89999997616,"correct":true,"confidence":1},{"trial_n":115,"min":90,"max":165,"target":"absent","response":"present","rt":841.29999995232,"correct":false,"confidence":1},{"trial_n":116,"min":89,"max":166,"target":"absent","response":"present","rt":798.10000002384,"correct":false,"confidence":1},{"trial_n":117,"min":88,"max":167,"target":"absent","response":"present","rt":739,"correct":false,"confidence":1},{"trial_n":118,"min":87,"max":168,"target":"absent","response":"present","rt":641.10000002384,"correct":false,"confidence":1},{"trial_n":119,"min":86,"max":169,"target":"absent","response":"present","rt":598.20000004768,"correct":false,"confidence":1},{"trial_n":120,"min":85,"max":170,"target":"absent","response":"present","rt":940.29999995232,"correct":false,"confidence":1},{"trial_n":121,"min":84,"max":171,"target":"absent","response":"present","rt":1368.2000000477,"correct":false,"confidence":4},{"trial_n":122,"min":83,"max":172,"target":"present","response":"present","rt":937.20000004768,"correct":true,"confidence":5},{"trial_n":123,"min":83,"max":172,"target":"present","response":"present","rt":785.79999995232,"correct":true,"confidence":5},{"trial_n":124,"min":84,"max":171,"target":"present","response":"present","rt":774.10000002384,"correct":true,"confidence":5},{"trial_n":125,"min":84,"max":171,"target":"absent","response":"present","rt":825.60000002384,"correct":false,"confidence":1},{"trial_n":126,"min":83,"max":172,"target":"absent","response":"absent","rt":1049.1000000238,"correct":true,"confidence":1},{"trial_n":127,"min":83,"max":172,"target":"absent","response":"absent","rt":1122.5,"correct":true,"confidence":1},{"trial_n":128,"min":84,"max":171,"target":"absent","response":"present","rt":1464.1000000238,"correct":false,"confidence":1},{"trial_n":129,"min":83,"max":172,"target":"present","response":"present","rt":869.5,"correct":true,"confidence":5},{"trial_n":130,"min":83,"max":172,"target":"present","response":"present","rt":716.89999997616,"correct":true,"confidence":5},{"trial_n":131,"min":84,"max":171,"target":"absent","response":"present","rt":1174.1000000238,"correct":false,"confidence":1},{"trial_n":132,"min":83,"max":172,"target":"present","response":"present","rt":704.29999995232,"correct":true,"confidence":5},{"trial_n":133,"min":83,"max":172,"target":"present","response":"present","rt":792.60000002384,"correct":true,"confidence":5},{"trial_n":134,"min":84,"max":171,"target":"present","response":"present","rt":734.89999997616,"correct":true,"confidence":4},{"trial_n":135,"min":84,"max":171,"target":"present","response":"present","rt":607.39999997616,"correct":true,"confidence":5},{"trial_n":136,"min":85,"max":170,"target":"present","response":"present","rt":674.89999997616,"correct":true,"confidence":5},{"trial_n":137,"min":85,"max":170,"target":"absent","response":"absent","rt":782.79999995232,"correct":true,"confidence":1},{"trial_n":138,"min":86,"max":169,"target":"present","response":"absent","rt":968.79999995232,"correct":false,"confidence":1},{"trial_n":139,"min":85,"max":170,"target":"absent","response":"present","rt":773,"correct":false,"confidence":1},{"trial_n":140,"min":84,"max":171,"target":"present","response":"present","rt":593.10000002384,"correct":true,"confidence":5}]