[{"trial_n":1,"span":8,"encoder":"42650803","distractor":"42950803","target":"present","response":"present","rt":"5143.6000000015","correct":true,"confidence":-1},{"trial_n":2,"span":8,"encoder":"92550753","distractor":"92550783","target":"present","response":"present","rt":"1640.3999999985","correct":true,"confidence":-1},{"trial_n":3,"span":10,"encoder":"9345538980","distractor":"9341538980","target":"absent","response":"present","rt":"1564.6999999955","correct":false,"confidence":-1},{"trial_n":4,"span":8,"encoder":"62915966","distractor":"12915966","target":"absent","response":"present","rt":"1470.8999999985","correct":false,"confidence":-1},{"trial_n":5,"span":6,"encoder":"303328","distractor":"803328","target":"present","response":"absent","rt":"2111.200000003","correct":false,"confidence":-1},{"trial_n":6,"span":4,"encoder":"5952","distractor":"5922","target":"absent","response":"present","rt":"2347.8000000045","correct":false,"confidence":-1},{"trial_n":7,"span":2,"encoder":"07","distractor":"37","target":"absent","response":"present","rt":"1469.3000000045","correct":false,"confidence":-1},{"trial_n":8,"span":2,"encoder":"43","distractor":"83","target":"present","response":"present","rt":"810.89999999851","correct":true,"confidence":-1},{"trial_n":9,"span":2,"encoder":"42","distractor":"92","target":"absent","response":"absent","rt":"1538.5","correct":true,"confidence":-1},{"trial_n":10,"span":4,"encoder":"0285","distractor":"0185","target":"present","response":"present","rt":"1590.3999999985","correct":true,"confidence":-1},{"trial_n":11,"span":4,"encoder":"7039","distractor":"7036","target":"absent","response":"present","rt":"884.29999999702","correct":false,"confidence":-1},{"trial_n":12,"span":3,"encoder":"942","distractor":"941","target":"present","response":"present","rt":"888","correct":true,"confidence":-1},{"trial_n":13,"span":3,"encoder":"042","distractor":"043","target":"present","response":"present","rt":"927.29999999702","correct":true,"confidence":-1},{"trial_n":14,"span":4,"encoder":"6130","distractor":"6630","target":"present","response":"present","rt":"723.70000000298","correct":true,"confidence":-1},{"trial_n":15,"span":4,"encoder":"7948","distractor":"7748","target":"absent","response":"present","rt":"664.70000000298","correct":false,"confidence":-1},{"trial_n":16,"span":3,"encoder":"330","distractor":"390","target":"absent","response":"absent","rt":"1833.6000000015","correct":true,"confidence":-1},{"trial_n":17,"span":3,"encoder":"199","distractor":"190","target":"absent","response":"absent","rt":"1424","correct":true,"confidence":-1},{"trial_n":18,"span":4,"encoder":"6107","distractor":"6007","target":"present","response":"present","rt":"1270.5","correct":true,"confidence":-1},{"trial_n":19,"span":4,"encoder":"1703","distractor":"1709","target":"present","response":"present","rt":"812.59999999404","correct":true,"confidence":-1},{"trial_n":20,"span":5,"encoder":"70204","distractor":"70504","target":"present","response":"present","rt":"609","correct":true,"confidence":-1},{"trial_n":21,"span":5,"encoder":"71784","distractor":"71787","target":"present","response":"present","rt":"1902.5","correct":true,"confidence":5},{"trial_n":22,"span":6,"encoder":"134229","distractor":"134279","target":"present","response":"present","rt":"2301.3999999985","correct":true,"confidence":5},{"trial_n":23,"span":6,"encoder":"779368","distractor":"779363","target":"absent","response":"absent","rt":"1834","correct":true,"confidence":5},{"trial_n":24,"span":7,"encoder":"8458084","distractor":"4458084","target":"present","response":"present","rt":"4294.3999999985","correct":true,"confidence":4},{"trial_n":25,"span":7,"encoder":"3289492","distractor":"3689492","target":"present","response":"absent","rt":"5937.099999994","correct":false,"confidence":3},{"trial_n":26,"span":6,"encoder":"772431","distractor":"772435","target":"absent","response":"absent","rt":"2020.8999999985","correct":true,"confidence":5},{"trial_n":27,"span":6,"encoder":"833445","distractor":"837445","target":"absent","response":"absent","rt":"3974.700000003","correct":true,"confidence":3},{"trial_n":28,"span":7,"encoder":"8867907","distractor":"8869907","target":"present","response":"present","rt":"2374.200000003","correct":true,"confidence":5},{"trial_n":29,"span":7,"encoder":"4294686","distractor":"4294680","target":"absent","response":"absent","rt":"2433.3000000045","correct":true,"confidence":5},{"trial_n":30,"span":8,"encoder":"91050556","distractor":"91054556","target":"absent","response":"present","rt":"4934.700000003","correct":false,"confidence":3},{"trial_n":31,"span":7,"encoder":"0998051","distractor":"0993051","target":"absent","response":"absent","rt":"3611.8000000045","correct":true,"confidence":5},{"trial_n":32,"span":7,"encoder":"6881826","distractor":"6881626","target":"present","response":"present","rt":"2289.400000006","correct":true,"confidence":5},{"trial_n":33,"span":8,"encoder":"46633229","distractor":"26633229","target":"absent","response":"present","rt":"1782.3999999985","correct":false,"confidence":5},{"trial_n":34,"span":7,"encoder":"0922783","distractor":"0922083","target":"absent","response":"present","rt":"1889.8999999985","correct":false,"confidence":5},{"trial_n":35,"span":6,"encoder":"636264","distractor":"636254","target":"present","response":"present","rt":"1606","correct":true,"confidence":5},{"trial_n":36,"span":6,"encoder":"005365","distractor":"075365","target":"absent","response":"absent","rt":"1257.6000000015","correct":true,"confidence":5},{"trial_n":37,"span":7,"encoder":"0418541","distractor":"0418547","target":"absent","response":"absent","rt":"2906","correct":true,"confidence":5},{"trial_n":38,"span":7,"encoder":"4495051","distractor":"4455051","target":"absent","response":"absent","rt":"2395.8000000045","correct":true,"confidence":5},{"trial_n":39,"span":8,"encoder":"15363949","distractor":"15363749","target":"absent","response":"absent","rt":"4019.900000006","correct":true,"confidence":5},{"trial_n":40,"span":8,"encoder":"43003277","distractor":"03003277","target":"present","response":"absent","rt":"4070.700000003","correct":false,"confidence":3},{"trial_n":41,"span":7,"encoder":"4581517","distractor":"4581507","target":"present","response":"present","rt":"2859.200000003","correct":true,"confidence":5},{"trial_n":42,"span":7,"encoder":"3463695","distractor":"3963695","target":"present","response":"present","rt":"3732.1000000015","correct":true,"confidence":5},{"trial_n":43,"span":8,"encoder":"92859210","distractor":"92159210","target":"absent","response":"absent","rt":"2367.200000003","correct":true,"confidence":5},{"trial_n":44,"span":8,"encoder":"02691627","distractor":"02693627","target":"present","response":"present","rt":"2904.8000000045","correct":true,"confidence":5},{"trial_n":45,"span":9,"encoder":"453024263","distractor":"463024263","target":"present","response":"present","rt":"4981","correct":true,"confidence":3},{"trial_n":46,"span":9,"encoder":"216778567","distractor":"216578567","target":"present","response":"present","rt":"3022.5","correct":true,"confidence":5},{"trial_n":47,"span":10,"encoder":"0099076395","distractor":"0099076305","target":"present","response":"present","rt":"3245.200000003","correct":true,"confidence":5},{"trial_n":48,"span":10,"encoder":"0546217642","distractor":"3546217642","target":"present","response":"present","rt":"3473.200000003","correct":true,"confidence":3},{"trial_n":49,"span":11,"encoder":"93066793687","distractor":"93076793687","target":"present","response":"absent","rt":"5007.599999994","correct":false,"confidence":3},{"trial_n":50,"span":10,"encoder":"9317391959","distractor":"7317391959","target":"absent","response":"present","rt":"4958.299999997","correct":false,"confidence":4},{"trial_n":51,"span":9,"encoder":"285733553","distractor":"295733553","target":"absent","response":"absent","rt":"3931.299999997","correct":true,"confidence":3},{"trial_n":52,"span":9,"encoder":"769328093","distractor":"767328093","target":"present","response":"present","rt":"4275.3999999985","correct":true,"confidence":3},{"trial_n":53,"span":10,"encoder":"3564174106","distractor":"3064174106","target":"present","response":"present","rt":"5334.1000000015","correct":true,"confidence":4},{"trial_n":54,"span":10,"encoder":"5053619007","distractor":"5253619007","target":"present","response":"present","rt":"2714.3999999985","correct":true,"confidence":5},{"trial_n":55,"span":11,"encoder":"34063698056","distractor":"34063688056","target":"absent","response":"absent","rt":"3647.6000000015","correct":true,"confidence":5},{"trial_n":56,"span":11,"encoder":"40475854740","distractor":"40475850740","target":"present","response":"present","rt":"5444.799999997","correct":true,"confidence":4},{"trial_n":57,"span":12,"encoder":"060940357816","distractor":"360940357816","target":"absent","response":"present","rt":"4985.6999999955","correct":false,"confidence":5},{"trial_n":58,"span":11,"encoder":"65440180193","distractor":"65440188193","target":"absent","response":"absent","rt":"2007.1000000015","correct":true,"confidence":5},{"trial_n":59,"span":11,"encoder":"98962231466","distractor":"98362231466","target":"absent","response":"present","rt":"3105.5","correct":false,"confidence":4},{"trial_n":60,"span":10,"encoder":"6223158366","distractor":"6225158366","target":"present","response":"absent","rt":"2111.099999994","correct":false,"confidence":5},{"trial_n":61,"span":9,"encoder":"736576411","distractor":"736576811","target":"absent","response":"absent","rt":"2199.8999999985","correct":true,"confidence":5},{"trial_n":62,"span":9,"encoder":"296660359","distractor":"296670359","target":"present","response":"present","rt":"3649.200000003","correct":true,"confidence":5},{"trial_n":63,"span":10,"encoder":"5916493835","distractor":"5916493839","target":"present","response":"present","rt":"4836.1000000015","correct":true,"confidence":4},{"trial_n":64,"span":10,"encoder":"1375211641","distractor":"1375011641","target":"absent","response":"present","rt":"5523.3999999985","correct":false,"confidence":4},{"trial_n":65,"span":9,"encoder":"882423770","distractor":"812423770","target":"present","response":"present","rt":"2264.3000000045","correct":true,"confidence":5},{"trial_n":66,"span":9,"encoder":"049788332","distractor":"049728332","target":"absent","response":"absent","rt":"2430.8999999985","correct":true,"confidence":5},{"trial_n":67,"span":10,"encoder":"8380142666","distractor":"8381142666","target":"absent","response":"absent","rt":"2454.8000000045","correct":true,"confidence":3},{"trial_n":68,"span":10,"encoder":"8265472145","distractor":"8225472145","target":"absent","response":"present","rt":"4590","correct":false,"confidence":3},{"trial_n":69,"span":9,"encoder":"794739962","distractor":"794719962","target":"absent","response":"absent","rt":"5724.299999997","correct":true,"confidence":3},{"trial_n":70,"span":9,"encoder":"095710812","distractor":"095710872","target":"present","response":"present","rt":"3214.1999999955","correct":true,"confidence":4},{"trial_n":71,"span":8,"encoder":"34933372","distractor":"32933372","target":"present","response":"present","rt":"6907.099999994","correct":true,"confidence":-1},{"trial_n":72,"span":8,"encoder":"68040933","distractor":"68040938","target":"present","response":"present","rt":"5958.5","correct":true,"confidence":-1},{"trial_n":73,"span":9,"encoder":"058887472","distractor":"058887477","target":"absent","response":"absent","rt":"1106.5","correct":true,"confidence":-1},{"trial_n":74,"span":9,"encoder":"781661982","distractor":"781665982","target":"absent","response":"absent","rt":"2696.099999994","correct":true,"confidence":-1},{"trial_n":75,"span":10,"encoder":"4415785141","distractor":"4415485141","target":"present","response":"present","rt":"5347.1999999955","correct":true,"confidence":-1},{"trial_n":76,"span":10,"encoder":"8454868861","distractor":"8424868861","target":"present","response":"present","rt":"2606.8000000045","correct":true,"confidence":-1},{"trial_n":77,"span":11,"encoder":"08278853859","distractor":"08278858859","target":"absent","response":"present","rt":"4455.8999999985","correct":false,"confidence":-1},{"trial_n":78,"span":10,"encoder":"5150353089","distractor":"5150453089","target":"present","response":"absent","rt":"6016.299999997","correct":false,"confidence":-1},{"trial_n":79,"span":9,"encoder":"349328113","distractor":"349325113","target":"present","response":"present","rt":"1952.5","correct":true,"confidence":-1},{"trial_n":80,"span":9,"encoder":"545059911","distractor":"565059911","target":"absent","response":"absent","rt":"4386.8999999985","correct":true,"confidence":-1},{"trial_n":81,"span":10,"encoder":"7292529587","distractor":"7892529587","target":"present","response":"present","rt":"4029.700000003","correct":true,"confidence":-1},{"trial_n":82,"span":10,"encoder":"6967425257","distractor":"6967429257","target":"absent","response":"absent","rt":"3009.200000003","correct":true,"confidence":-1},{"trial_n":83,"span":11,"encoder":"10002216760","distractor":"10002616760","target":"present","response":"present","rt":"2099.5","correct":true,"confidence":-1},{"trial_n":84,"span":11,"encoder":"99804530797","distractor":"59804530797","target":"absent","response":"absent","rt":"4514.5","correct":true,"confidence":-1},{"trial_n":85,"span":12,"encoder":"001919542272","distractor":"001919522272","target":"present","response":"present","rt":"6828.3999999985","correct":true,"confidence":-1},{"trial_n":86,"span":12,"encoder":"611226250971","distractor":"611226250771","target":"absent","response":"absent","rt":"3608.6000000015","correct":true,"confidence":-1},{"trial_n":87,"span":13,"encoder":"5262558469219","distractor":"5762558469219","target":"present","response":"absent","rt":"8059.5","correct":false,"confidence":-1},{"trial_n":88,"span":12,"encoder":"213721877595","distractor":"218721877595","target":"absent","response":"present","rt":"6402.799999997","correct":false,"confidence":-1},{"trial_n":89,"span":11,"encoder":"19817175517","distractor":"19817115517","target":"absent","response":"present","rt":"5373.200000003","correct":false,"confidence":-1},{"trial_n":90,"span":10,"encoder":"0385159356","distractor":"8385159356","target":"absent","response":"absent","rt":"4122.1000000015","correct":true,"confidence":-1},{"trial_n":91,"span":10,"encoder":"9049600314","distractor":"9049605314","target":"absent","response":"absent","rt":"2140.5","correct":true,"confidence":5},{"trial_n":92,"span":11,"encoder":"56333997794","distractor":"26333997794","target":"absent","response":"absent","rt":"5576.8000000045","correct":true,"confidence":5},{"trial_n":93,"span":11,"encoder":"26694080624","distractor":"26194080624","target":"present","response":"present","rt":"5204.3999999985","correct":true,"confidence":5},{"trial_n":94,"span":12,"encoder":"160769692341","distractor":"163769692341","target":"absent","response":"present","rt":"3424.3999999985","correct":false,"confidence":5},{"trial_n":95,"span":11,"encoder":"10233310964","distractor":"10233310864","target":"absent","response":"absent","rt":"2998.6000000015","correct":true,"confidence":5},{"trial_n":96,"span":11,"encoder":"34238970662","distractor":"44238970662","target":"absent","response":"absent","rt":"7464.1000000015","correct":true,"confidence":5},{"trial_n":97,"span":12,"encoder":"268033208171","distractor":"268033248171","target":"absent","response":"absent","rt":"5004.6999999955","correct":true,"confidence":5},{"trial_n":98,"span":12,"encoder":"644843349762","distractor":"644813349762","target":"present","response":"present","rt":"6504.1000000015","correct":true,"confidence":5},{"trial_n":99,"span":13,"encoder":"2119748680696","distractor":"6119748680696","target":"absent","response":"present","rt":"8481.700000003","correct":false,"confidence":4},{"trial_n":100,"span":12,"encoder":"061682839214","distractor":"761682839214","target":"present","response":"present","rt":"6082.3000000045","correct":true,"confidence":5},{"trial_n":101,"span":12,"encoder":"406301269244","distractor":"406301268244","target":"present","response":"present","rt":"2848.8000000045","correct":true,"confidence":5},{"trial_n":102,"span":13,"encoder":"1353407078139","distractor":"1353407278139","target":"absent","response":"absent","rt":"3540.299999997","correct":true,"confidence":5},{"trial_n":103,"span":13,"encoder":"7700773123808","distractor":"7700770123808","target":"present","response":"present","rt":"17892.700000003","correct":true,"confidence":3},{"trial_n":104,"span":14,"encoder":"77758170897848","distractor":"77758120897848","target":"present","response":"absent","rt":"36989.799999997","correct":false,"confidence":2},{"trial_n":105,"span":13,"encoder":"9368246398448","distractor":"9368246368448","target":"absent","response":"absent","rt":"9990.1000000015","correct":true,"confidence":3},{"trial_n":106,"span":13,"encoder":"0397682194011","distractor":"0397684194011","target":"present","response":"absent","rt":"7168.8999999985","correct":false,"confidence":3},{"trial_n":107,"span":12,"encoder":"163050472778","distractor":"163050476778","target":"present","response":"present","rt":"3287.599999994","correct":true,"confidence":5},{"trial_n":108,"span":12,"encoder":"094504553697","distractor":"094504753697","target":"present","response":"present","rt":"3717.700000003","correct":true,"confidence":5},{"trial_n":109,"span":13,"encoder":"0541805131977","distractor":"0341805131977","target":"present","response":"present","rt":"5824.1999999955","correct":true,"confidence":3},{"trial_n":110,"span":13,"encoder":"1629913980074","distractor":"1621913980074","target":"absent","response":"present","rt":"7052.6000000015","correct":false,"confidence":3},{"trial_n":111,"span":12,"encoder":"431295625986","distractor":"430295625986","target":"present","response":"present","rt":"6027.3999999985","correct":true,"confidence":5},{"trial_n":112,"span":12,"encoder":"768758257332","distractor":"768758254332","target":"present","response":"present","rt":"3370.1999999955","correct":true,"confidence":5},{"trial_n":113,"span":13,"encoder":"9405262686588","distractor":"9405262586588","target":"absent","response":"present","rt":"15264.5","correct":false,"confidence":4},{"trial_n":114,"span":12,"encoder":"194285156604","distractor":"194285656604","target":"absent","response":"absent","rt":"4822.5","correct":true,"confidence":5},{"trial_n":115,"span":12,"encoder":"439060494389","distractor":"439068494389","target":"absent","response":"absent","rt":"6674.799999997","correct":true,"confidence":5},{"trial_n":116,"span":13,"encoder":"7709362488170","distractor":"7709362488171","target":"present","response":"present","rt":"1787.1999999955","correct":true,"confidence":5},{"trial_n":117,"span":13,"encoder":"5487948593658","distractor":"5484948593658","target":"present","response":"present","rt":"8374.700000003","correct":true,"confidence":5},{"trial_n":118,"span":14,"encoder":"79746100027949","distractor":"79146100027949","target":"present","response":"present","rt":"4648.6999999955","correct":true,"confidence":5},{"trial_n":119,"span":14,"encoder":"43339010227444","distractor":"43339010227484","target":"absent","response":"absent","rt":"8190.299999997","correct":true,"confidence":4},{"trial_n":120,"span":15,"encoder":"796355006111520","distractor":"796358006111520","target":"present","response":"present","rt":"6807.6000000015","correct":true,"confidence":4},{"trial_n":121,"span":15,"encoder":"713270491598297","distractor":"713250491598297","target":"present","response":"present","rt":"6505.1000000015","correct":true,"confidence":4},{"trial_n":122,"span":16,"encoder":"4519560647948918","distractor":"4519560647148918","target":"absent","response":"present","rt":"5342.8000000045","correct":false,"confidence":4},{"trial_n":123,"span":15,"encoder":"435247391964928","distractor":"435247391944928","target":"absent","response":"absent","rt":"2638.6000000015","correct":true,"confidence":5},{"trial_n":124,"span":15,"encoder":"823217060718685","distractor":"823217060718085","target":"absent","response":"absent","rt":"3165.299999997","correct":true,"confidence":5},{"trial_n":125,"span":16,"encoder":"0295969356603207","distractor":"0695969356603207","target":"absent","response":"absent","rt":"15264.600000001","correct":true,"confidence":5},{"trial_n":126,"span":16,"encoder":"8165012712348237","distractor":"8165012713348237","target":"present","response":"present","rt":"9445.5","correct":true,"confidence":4},{"trial_n":127,"span":17,"encoder":"33261489967768334","distractor":"33261489967768339","target":"present","response":"present","rt":"6848.1000000015","correct":true,"confidence":5},{"trial_n":128,"span":17,"encoder":"86268451412445688","distractor":"86268451412445685","target":"absent","response":"absent","rt":"3781.6000000015","correct":true,"confidence":5},{"trial_n":129,"span":18,"encoder":"424913906923452447","distractor":"484913906923452447","target":"present","response":"absent","rt":"19011.100000001","correct":false,"confidence":2},{"trial_n":130,"span":17,"encoder":"88559777287711418","distractor":"48559777287711418","target":"absent","response":"present","rt":"7110.200000003","correct":false,"confidence":3},{"trial_n":131,"span":16,"encoder":"6383219197610571","distractor":"6383219157610571","target":"absent","response":"absent","rt":"4909.8999999985","correct":true,"confidence":4},{"trial_n":132,"span":16,"encoder":"1928458016587548","distractor":"1928458016567548","target":"absent","response":"absent","rt":"3951.900000006","correct":true,"confidence":3},{"trial_n":133,"span":17,"encoder":"15703786902291978","distractor":"11703786902291978","target":"present","response":"present","rt":"6475.299999997","correct":true,"confidence":2},{"trial_n":134,"span":17,"encoder":"13654168010040312","distractor":"13654168015040312","target":"present","response":"present","rt":"3419","correct":true,"confidence":2},{"trial_n":135,"span":18,"encoder":"132189434689111800","distractor":"162189434689111800","target":"absent","response":"absent","rt":"6067.200000003","correct":true,"confidence":3},{"trial_n":136,"span":18,"encoder":"153292100032171006","distractor":"153292100432171006","target":"present","response":"absent","rt":"5544.900000006","correct":false,"confidence":2},{"trial_n":137,"span":17,"encoder":"64532955552850230","distractor":"64532955552850231","target":"present","response":"present","rt":"5739.1000000015","correct":true,"confidence":2},{"trial_n":138,"span":17,"encoder":"11939730034379954","distractor":"12939730034379954","target":"present","response":"absent","rt":"8821.1000000015","correct":false,"confidence":2},{"trial_n":139,"span":16,"encoder":"2907116032620840","distractor":"2907116032620860","target":"present","response":"present","rt":"2114.599999994","correct":true,"confidence":5},{"trial_n":140,"span":16,"encoder":"2226991339465654","distractor":"2726991339465654","target":"absent","response":"absent","rt":"4711","correct":true,"confidence":3}]