[{"trial_n":1,"min":25,"max":230,"target":"present","response":"present","rt":9999.6000000238,"correct":true,"confidence":-1},{"trial_n":2,"min":25,"max":230,"target":"present","response":"present","rt":4087.2000000477,"correct":true,"confidence":-1},{"trial_n":3,"min":41,"max":214,"target":"absent","response":"absent","rt":986.60000002384,"correct":true,"confidence":-1},{"trial_n":4,"min":41,"max":214,"target":"absent","response":"absent","rt":769.69999992847,"correct":true,"confidence":-1},{"trial_n":5,"min":57,"max":198,"target":"present","response":"present","rt":1405.3000000715,"correct":true,"confidence":-1},{"trial_n":6,"min":57,"max":198,"target":"absent","response":"absent","rt":673.10000002384,"correct":true,"confidence":-1},{"trial_n":7,"min":73,"max":182,"target":"present","response":"present","rt":914,"correct":true,"confidence":-1},{"trial_n":8,"min":73,"max":182,"target":"absent","response":"absent","rt":845.59999990463,"correct":true,"confidence":-1},{"trial_n":9,"min":89,"max":166,"target":"absent","response":"absent","rt":565.10000002384,"correct":true,"confidence":-1},{"trial_n":10,"min":89,"max":166,"target":"absent","response":"absent","rt":589.69999992847,"correct":true,"confidence":-1},{"trial_n":11,"min":97,"max":158,"target":"absent","response":"absent","rt":510.19999992847,"correct":true,"confidence":-1},{"trial_n":12,"min":97,"max":158,"target":"present","response":"absent","rt":591.80000007153,"correct":false,"confidence":-1},{"trial_n":13,"min":89,"max":166,"target":"absent","response":"absent","rt":783.30000007153,"correct":true,"confidence":-1},{"trial_n":14,"min":89,"max":166,"target":"absent","response":"present","rt":1117.2999999523,"correct":false,"confidence":-1},{"trial_n":15,"min":81,"max":174,"target":"present","response":"present","rt":885.89999997616,"correct":true,"confidence":-1},{"trial_n":16,"min":81,"max":174,"target":"absent","response":"present","rt":1338.5,"correct":false,"confidence":-1},{"trial_n":17,"min":73,"max":182,"target":"present","response":"absent","rt":658.19999992847,"correct":false,"confidence":-1},{"trial_n":18,"min":65,"max":190,"target":"present","response":"present","rt":741.79999995232,"correct":true,"confidence":-1},{"trial_n":19,"min":65,"max":190,"target":"absent","response":"absent","rt":1232.6999999285,"correct":true,"confidence":-1},{"trial_n":20,"min":73,"max":182,"target":"present","response":"present","rt":720,"correct":true,"confidence":-1},{"trial_n":21,"min":73,"max":182,"target":"absent","response":"absent","rt":1570.8999999762,"correct":true,"confidence":4},{"trial_n":22,"min":77,"max":178,"target":"present","response":"present","rt":1064.1000000238,"correct":true,"confidence":5},{"trial_n":23,"min":77,"max":178,"target":"present","response":"present","rt":950.20000004768,"correct":true,"confidence":5},{"trial_n":24,"min":81,"max":174,"target":"present","response":"absent","rt":1742.6000000238,"correct":false,"confidence":3},{"trial_n":25,"min":77,"max":178,"target":"absent","response":"absent","rt":5585.7999999523,"correct":true,"confidence":3},{"trial_n":26,"min":77,"max":178,"target":"absent","response":"absent","rt":3921.3000000715,"correct":true,"confidence":1},{"trial_n":27,"min":81,"max":174,"target":"absent","response":"absent","rt":1731.1000000238,"correct":true,"confidence":3},{"trial_n":28,"min":81,"max":174,"target":"absent","response":"absent","rt":5839.7000000477,"correct":true,"confidence":2},{"trial_n":29,"min":85,"max":170,"target":"present","response":"present","rt":1259.6999999285,"correct":true,"confidence":3},{"trial_n":30,"min":85,"max":170,"target":"present","response":"present","rt":1041.3000000715,"correct":true,"confidence":4},{"trial_n":31,"min":87,"max":168,"target":"absent","response":"absent","rt":1726.5,"correct":true,"confidence":3},{"trial_n":32,"min":87,"max":168,"target":"present","response":"present","rt":1012.2000000477,"correct":true,"confidence":5},{"trial_n":33,"min":89,"max":166,"target":"absent","response":"absent","rt":1979.1000000238,"correct":true,"confidence":3},{"trial_n":34,"min":89,"max":166,"target":"present","response":"absent","rt":1396.1999999285,"correct":false,"confidence":3},{"trial_n":35,"min":87,"max":168,"target":"present","response":"absent","rt":1634.2000000477,"correct":false,"confidence":3},{"trial_n":36,"min":85,"max":170,"target":"absent","response":"absent","rt":1445.7999999523,"correct":true,"confidence":4},{"trial_n":37,"min":85,"max":170,"target":"present","response":"present","rt":826.59999990463,"correct":true,"confidence":4},{"trial_n":38,"min":87,"max":168,"target":"present","response":"present","rt":912.69999992847,"correct":true,"confidence":4},{"trial_n":39,"min":87,"max":168,"target":"present","response":"present","rt":953.79999995232,"correct":true,"confidence":3},{"trial_n":40,"min":89,"max":166,"target":"present","response":"absent","rt":1247.2000000477,"correct":false,"confidence":4},{"trial_n":41,"min":88,"max":167,"target":"present","response":"present","rt":1147.6000000238,"correct":true,"confidence":4},{"trial_n":42,"min":88,"max":167,"target":"present","response":"absent","rt":2626.8999999762,"correct":false,"confidence":4},{"trial_n":43,"min":87,"max":168,"target":"present","response":"present","rt":765,"correct":true,"confidence":5},{"trial_n":44,"min":87,"max":168,"target":"present","response":"absent","rt":1058.7999999523,"correct":false,"confidence":4},{"trial_n":45,"min":86,"max":169,"target":"absent","response":"present","rt":916.5,"correct":false,"confidence":4},{"trial_n":46,"min":85,"max":170,"target":"present","response":"absent","rt":1210.2000000477,"correct":false,"confidence":3},{"trial_n":47,"min":84,"max":171,"target":"present","response":"present","rt":3027.8000000715,"correct":true,"confidence":1},{"trial_n":48,"min":84,"max":171,"target":"absent","response":"absent","rt":1753.5,"correct":true,"confidence":2},{"trial_n":49,"min":85,"max":170,"target":"absent","response":"absent","rt":930,"correct":true,"confidence":4},{"trial_n":50,"min":85,"max":170,"target":"absent","response":"present","rt":1013.5,"correct":false,"confidence":3},{"trial_n":51,"min":84,"max":171,"target":"present","response":"present","rt":858.19999992847,"correct":true,"confidence":5},{"trial_n":52,"min":84,"max":171,"target":"absent","response":"absent","rt":1144.3999999762,"correct":true,"confidence":4},{"trial_n":53,"min":85,"max":170,"target":"absent","response":"absent","rt":830.5,"correct":true,"confidence":4},{"trial_n":54,"min":85,"max":170,"target":"absent","response":"absent","rt":1092.3000000715,"correct":true,"confidence":4},{"trial_n":55,"min":86,"max":169,"target":"present","response":"absent","rt":1904.7999999523,"correct":false,"confidence":1},{"trial_n":56,"min":85,"max":170,"target":"absent","response":"absent","rt":2833.2999999523,"correct":true,"confidence":3},{"trial_n":57,"min":85,"max":170,"target":"present","response":"absent","rt":918.80000007153,"correct":false,"confidence":3},{"trial_n":58,"min":84,"max":171,"target":"absent","response":"absent","rt":854.29999995232,"correct":true,"confidence":1},{"trial_n":59,"min":84,"max":171,"target":"absent","response":"absent","rt":966.5,"correct":true,"confidence":5},{"trial_n":60,"min":85,"max":170,"target":"present","response":"absent","rt":951.39999997616,"correct":false,"confidence":4},{"trial_n":61,"min":84,"max":171,"target":"present","response":"absent","rt":2103.7999999523,"correct":false,"confidence":1},{"trial_n":62,"min":83,"max":172,"target":"present","response":"present","rt":843.10000002384,"correct":true,"confidence":4},{"trial_n":63,"min":83,"max":172,"target":"absent","response":"absent","rt":879.89999997616,"correct":true,"confidence":4},{"trial_n":64,"min":84,"max":171,"target":"absent","response":"absent","rt":1489.2000000477,"correct":true,"confidence":4},{"trial_n":65,"min":84,"max":171,"target":"present","response":"absent","rt":2273.7000000477,"correct":false,"confidence":4},{"trial_n":66,"min":83,"max":172,"target":"present","response":"present","rt":932,"correct":true,"confidence":3},{"trial_n":67,"min":83,"max":172,"target":"absent","response":"absent","rt":1020.0999999046,"correct":true,"confidence":4},{"trial_n":68,"min":84,"max":171,"target":"absent","response":"absent","rt":814.40000009537,"correct":true,"confidence":4},{"trial_n":69,"min":84,"max":171,"target":"absent","response":"absent","rt":772.90000009537,"correct":true,"confidence":4},{"trial_n":70,"min":85,"max":170,"target":"present","response":"present","rt":982.60000002384,"correct":true,"confidence":4},{"trial_n":71,"min":41,"max":214,"target":"present","response":"present","rt":1437.1000000238,"correct":true,"confidence":-1},{"trial_n":72,"min":41,"max":214,"target":"present","response":"present","rt":794.19999992847,"correct":true,"confidence":-1},{"trial_n":73,"min":57,"max":198,"target":"absent","response":"absent","rt":1053.2999999523,"correct":true,"confidence":-1},{"trial_n":74,"min":57,"max":198,"target":"absent","response":"absent","rt":901.39999997616,"correct":true,"confidence":-1},{"trial_n":75,"min":73,"max":182,"target":"present","response":"absent","rt":1001.2000000477,"correct":false,"confidence":-1},{"trial_n":76,"min":57,"max":198,"target":"present","response":"present","rt":651.20000004768,"correct":true,"confidence":-1},{"trial_n":77,"min":57,"max":198,"target":"present","response":"present","rt":703.70000004768,"correct":true,"confidence":-1},{"trial_n":78,"min":73,"max":182,"target":"absent","response":"absent","rt":3244.6000000238,"correct":true,"confidence":-1},{"trial_n":79,"min":73,"max":182,"target":"present","response":"present","rt":567.5,"correct":true,"confidence":-1},{"trial_n":80,"min":89,"max":166,"target":"absent","response":"absent","rt":1770.2999999523,"correct":true,"confidence":-1},{"trial_n":81,"min":89,"max":166,"target":"present","response":"absent","rt":1070.9000000954,"correct":false,"confidence":-1},{"trial_n":82,"min":81,"max":174,"target":"present","response":"present","rt":756.79999995232,"correct":true,"confidence":-1},{"trial_n":83,"min":81,"max":174,"target":"present","response":"present","rt":585.5,"correct":true,"confidence":-1},{"trial_n":84,"min":89,"max":166,"target":"present","response":"present","rt":1865.6999999285,"correct":true,"confidence":-1},{"trial_n":85,"min":89,"max":166,"target":"absent","response":"present","rt":1104.8999999762,"correct":false,"confidence":-1},{"trial_n":86,"min":81,"max":174,"target":"present","response":"present","rt":564.5,"correct":true,"confidence":-1},{"trial_n":87,"min":81,"max":174,"target":"absent","response":"absent","rt":1218.8000000715,"correct":true,"confidence":-1},{"trial_n":88,"min":89,"max":166,"target":"absent","response":"present","rt":716.70000004768,"correct":false,"confidence":-1},{"trial_n":89,"min":81,"max":174,"target":"present","response":"present","rt":898.20000004768,"correct":true,"confidence":-1},{"trial_n":90,"min":81,"max":174,"target":"absent","response":"absent","rt":1184.6000000238,"correct":true,"confidence":-1},{"trial_n":91,"min":85,"max":170,"target":"present","response":"present","rt":1715.2000000477,"correct":true,"confidence":4},{"trial_n":92,"min":85,"max":170,"target":"absent","response":"absent","rt":2190.1000000238,"correct":true,"confidence":1},{"trial_n":93,"min":89,"max":166,"target":"absent","response":"absent","rt":1927.6999999285,"correct":true,"confidence":1},{"trial_n":94,"min":89,"max":166,"target":"absent","response":"present","rt":941.19999992847,"correct":false,"confidence":1},{"trial_n":95,"min":85,"max":170,"target":"present","response":"present","rt":1027.6000000238,"correct":true,"confidence":3},{"trial_n":96,"min":85,"max":170,"target":"absent","response":"absent","rt":1197.2000000477,"correct":true,"confidence":3},{"trial_n":97,"min":89,"max":166,"target":"absent","response":"absent","rt":1327.8999999762,"correct":true,"confidence":3},{"trial_n":98,"min":89,"max":166,"target":"absent","response":"absent","rt":1043.6000000238,"correct":true,"confidence":3},{"trial_n":99,"min":93,"max":162,"target":"absent","response":"absent","rt":1954.0999999046,"correct":true,"confidence":1},{"trial_n":100,"min":93,"max":162,"target":"absent","response":"absent","rt":1729.6000000238,"correct":true,"confidence":1},{"trial_n":101,"min":95,"max":160,"target":"absent","response":"present","rt":4488,"correct":false,"confidence":2},{"trial_n":102,"min":93,"max":162,"target":"present","response":"absent","rt":1830.0999999046,"correct":false,"confidence":3},{"trial_n":103,"min":91,"max":164,"target":"present","response":"present","rt":1333.2000000477,"correct":true,"confidence":1},{"trial_n":104,"min":91,"max":164,"target":"present","response":"absent","rt":1203.5999999046,"correct":false,"confidence":4},{"trial_n":105,"min":89,"max":166,"target":"present","response":"present","rt":932.19999992847,"correct":true,"confidence":5},{"trial_n":106,"min":89,"max":166,"target":"absent","response":"absent","rt":2046.7999999523,"correct":true,"confidence":1},{"trial_n":107,"min":91,"max":164,"target":"absent","response":"absent","rt":1341.3999999762,"correct":true,"confidence":1},{"trial_n":108,"min":91,"max":164,"target":"present","response":"present","rt":1270.7999999523,"correct":true,"confidence":4},{"trial_n":109,"min":93,"max":162,"target":"present","response":"absent","rt":1673.2000000477,"correct":false,"confidence":1},{"trial_n":110,"min":91,"max":164,"target":"absent","response":"absent","rt":1215.1999999285,"correct":true,"confidence":1},{"trial_n":111,"min":91,"max":164,"target":"present","response":"present","rt":1302.4000000954,"correct":true,"confidence":1},{"trial_n":112,"min":92,"max":163,"target":"absent","response":"present","rt":1115.3000000715,"correct":false,"confidence":1},{"trial_n":113,"min":91,"max":164,"target":"present","response":"present","rt":1014,"correct":true,"confidence":4},{"trial_n":114,"min":91,"max":164,"target":"absent","response":"absent","rt":830.59999990463,"correct":true,"confidence":1},{"trial_n":115,"min":92,"max":163,"target":"absent","response":"present","rt":702.09999990463,"correct":false,"confidence":1},{"trial_n":116,"min":91,"max":164,"target":"absent","response":"absent","rt":1967.2999999523,"correct":true,"confidence":1},{"trial_n":117,"min":91,"max":164,"target":"absent","response":"present","rt":1000.7000000477,"correct":false,"confidence":4},{"trial_n":118,"min":90,"max":165,"target":"absent","response":"absent","rt":967.70000004768,"correct":true,"confidence":4},{"trial_n":119,"min":90,"max":165,"target":"absent","response":"absent","rt":1260,"correct":true,"confidence":3},{"trial_n":120,"min":91,"max":164,"target":"present","response":"present","rt":910.39999997616,"correct":true,"confidence":5},{"trial_n":121,"min":91,"max":164,"target":"present","response":"present","rt":710.80000007153,"correct":true,"confidence":5},{"trial_n":122,"min":92,"max":163,"target":"present","response":"present","rt":982.89999997616,"correct":true,"confidence":5},{"trial_n":123,"min":92,"max":163,"target":"absent","response":"absent","rt":1032.3999999762,"correct":true,"confidence":3},{"trial_n":124,"min":93,"max":162,"target":"present","response":"absent","rt":1281.5,"correct":false,"confidence":4},{"trial_n":125,"min":92,"max":163,"target":"present","response":"absent","rt":1147.2000000477,"correct":false,"confidence":1},{"trial_n":126,"min":91,"max":164,"target":"absent","response":"present","rt":1905.1000000238,"correct":false,"confidence":1},{"trial_n":127,"min":90,"max":165,"target":"absent","response":"present","rt":892.79999995232,"correct":false,"confidence":4},{"trial_n":128,"min":89,"max":166,"target":"present","response":"present","rt":886.5,"correct":true,"confidence":4},{"trial_n":129,"min":89,"max":166,"target":"absent","response":"absent","rt":979.29999995232,"correct":true,"confidence":1},{"trial_n":130,"min":90,"max":165,"target":"absent","response":"absent","rt":756.19999992847,"correct":true,"confidence":1},{"trial_n":131,"min":90,"max":165,"target":"present","response":"absent","rt":1062.7999999523,"correct":false,"confidence":1},{"trial_n":132,"min":89,"max":166,"target":"present","response":"absent","rt":737.39999997616,"correct":false,"confidence":1},{"trial_n":133,"min":88,"max":167,"target":"present","response":"present","rt":688.39999997616,"correct":true,"confidence":5},{"trial_n":134,"min":88,"max":167,"target":"present","response":"absent","rt":1021.8999999762,"correct":false,"confidence":1},{"trial_n":135,"min":87,"max":168,"target":"present","response":"present","rt":783.70000004768,"correct":true,"confidence":5},{"trial_n":136,"min":87,"max":168,"target":"absent","response":"present","rt":2014.6999999285,"correct":false,"confidence":3},{"trial_n":137,"min":86,"max":169,"target":"absent","response":"absent","rt":927.89999997616,"correct":true,"confidence":1},{"trial_n":138,"min":86,"max":169,"target":"present","response":"present","rt":852.40000009537,"correct":true,"confidence":3},{"trial_n":139,"min":87,"max":168,"target":"present","response":"present","rt":705.90000009537,"correct":true,"confidence":5},{"trial_n":140,"min":87,"max":168,"target":"present","response":"present","rt":744.80000007153,"correct":true,"confidence":5}]