[{"trial_n":1,"min":25,"max":230,"target":"present","response":"present","rt":5624.6000000238,"correct":true,"confidence":-1},{"trial_n":2,"min":25,"max":230,"target":"present","response":"present","rt":1403.8000000119,"correct":true,"confidence":-1},{"trial_n":3,"min":41,"max":214,"target":"absent","response":"absent","rt":362.5,"correct":true,"confidence":-1},{"trial_n":4,"min":41,"max":214,"target":"absent","response":"absent","rt":356.80000001192,"correct":true,"confidence":-1},{"trial_n":5,"min":57,"max":198,"target":"present","response":"present","rt":224.39999997616,"correct":true,"confidence":-1},{"trial_n":6,"min":57,"max":198,"target":"present","response":"present","rt":494.90000003576,"correct":true,"confidence":-1},{"trial_n":7,"min":73,"max":182,"target":"absent","response":"absent","rt":557.19999998808,"correct":true,"confidence":-1},{"trial_n":8,"min":73,"max":182,"target":"present","response":"present","rt":280.5,"correct":true,"confidence":-1},{"trial_n":9,"min":89,"max":166,"target":"present","response":"absent","rt":310.19999998808,"correct":false,"confidence":-1},{"trial_n":10,"min":73,"max":182,"target":"present","response":"present","rt":930.40000003576,"correct":true,"confidence":-1},{"trial_n":11,"min":73,"max":182,"target":"absent","response":"absent","rt":465.19999998808,"correct":true,"confidence":-1},{"trial_n":12,"min":81,"max":174,"target":"present","response":"present","rt":463.59999996424,"correct":true,"confidence":-1},{"trial_n":13,"min":81,"max":174,"target":"absent","response":"absent","rt":441,"correct":true,"confidence":-1},{"trial_n":14,"min":89,"max":166,"target":"present","response":"absent","rt":387.80000001192,"correct":false,"confidence":-1},{"trial_n":15,"min":81,"max":174,"target":"present","response":"present","rt":397.80000001192,"correct":true,"confidence":-1},{"trial_n":16,"min":81,"max":174,"target":"absent","response":"absent","rt":534.69999998808,"correct":true,"confidence":-1},{"trial_n":17,"min":89,"max":166,"target":"absent","response":"absent","rt":544,"correct":true,"confidence":-1},{"trial_n":18,"min":89,"max":166,"target":"absent","response":"absent","rt":391,"correct":true,"confidence":-1},{"trial_n":19,"min":97,"max":158,"target":"present","response":"absent","rt":422.80000001192,"correct":false,"confidence":-1},{"trial_n":20,"min":89,"max":166,"target":"present","response":"absent","rt":685.30000001192,"correct":false,"confidence":-1},{"trial_n":21,"min":85,"max":170,"target":"present","response":"present","rt":699.09999996424,"correct":true,"confidence":4},{"trial_n":22,"min":85,"max":170,"target":"present","response":"present","rt":1306.6999999881,"correct":true,"confidence":3},{"trial_n":23,"min":89,"max":166,"target":"present","response":"absent","rt":1254.3000000119,"correct":false,"confidence":4},{"trial_n":24,"min":85,"max":170,"target":"present","response":"present","rt":1048.4000000358,"correct":true,"confidence":2},{"trial_n":25,"min":85,"max":170,"target":"absent","response":"absent","rt":1099.7000000477,"correct":true,"confidence":3},{"trial_n":26,"min":89,"max":166,"target":"absent","response":"present","rt":1000.5,"correct":false,"confidence":4},{"trial_n":27,"min":85,"max":170,"target":"present","response":"present","rt":972.19999998808,"correct":true,"confidence":5},{"trial_n":28,"min":85,"max":170,"target":"absent","response":"absent","rt":995.90000003576,"correct":true,"confidence":4},{"trial_n":29,"min":89,"max":166,"target":"absent","response":"present","rt":895.39999997616,"correct":false,"confidence":4},{"trial_n":30,"min":85,"max":170,"target":"present","response":"present","rt":776.09999996424,"correct":true,"confidence":5},{"trial_n":31,"min":85,"max":170,"target":"absent","response":"absent","rt":1036.5,"correct":true,"confidence":3},{"trial_n":32,"min":87,"max":168,"target":"present","response":"present","rt":770.89999997616,"correct":true,"confidence":3},{"trial_n":33,"min":87,"max":168,"target":"present","response":"present","rt":749.10000002384,"correct":true,"confidence":3},{"trial_n":34,"min":89,"max":166,"target":"present","response":"absent","rt":765.40000003576,"correct":false,"confidence":2},{"trial_n":35,"min":87,"max":168,"target":"absent","response":"present","rt":1538.5999999642,"correct":false,"confidence":3},{"trial_n":36,"min":85,"max":170,"target":"absent","response":"present","rt":678.5,"correct":false,"confidence":3},{"trial_n":37,"min":83,"max":172,"target":"absent","response":"absent","rt":1158.2999999523,"correct":true,"confidence":3},{"trial_n":38,"min":83,"max":172,"target":"present","response":"present","rt":718.60000002384,"correct":true,"confidence":3},{"trial_n":39,"min":85,"max":170,"target":"present","response":"present","rt":618.5,"correct":true,"confidence":4},{"trial_n":40,"min":85,"max":170,"target":"present","response":"present","rt":1205.6999999881,"correct":true,"confidence":3},{"trial_n":41,"min":86,"max":169,"target":"present","response":"absent","rt":1394.0999999642,"correct":false,"confidence":1},{"trial_n":42,"min":85,"max":170,"target":"present","response":"present","rt":869.10000002384,"correct":true,"confidence":3},{"trial_n":43,"min":85,"max":170,"target":"absent","response":"absent","rt":893.39999997616,"correct":true,"confidence":3},{"trial_n":44,"min":86,"max":169,"target":"absent","response":"present","rt":755,"correct":false,"confidence":3},{"trial_n":45,"min":85,"max":170,"target":"absent","response":"present","rt":1105.6999999881,"correct":false,"confidence":4},{"trial_n":46,"min":84,"max":171,"target":"present","response":"present","rt":679.19999998808,"correct":true,"confidence":5},{"trial_n":47,"min":84,"max":171,"target":"present","response":"present","rt":796.39999997616,"correct":true,"confidence":5},{"trial_n":48,"min":85,"max":170,"target":"absent","response":"absent","rt":989.19999998808,"correct":true,"confidence":4},{"trial_n":49,"min":85,"max":170,"target":"absent","response":"present","rt":718.10000002384,"correct":false,"confidence":3},{"trial_n":50,"min":84,"max":171,"target":"present","response":"present","rt":706,"correct":true,"confidence":4},{"trial_n":51,"min":84,"max":171,"target":"absent","response":"absent","rt":839.59999996424,"correct":true,"confidence":4},{"trial_n":52,"min":85,"max":170,"target":"absent","response":"present","rt":653.79999995232,"correct":false,"confidence":5},{"trial_n":53,"min":84,"max":171,"target":"present","response":"present","rt":639.80000001192,"correct":true,"confidence":5},{"trial_n":54,"min":84,"max":171,"target":"absent","response":"present","rt":2049.6999999881,"correct":false,"confidence":2},{"trial_n":55,"min":83,"max":172,"target":"absent","response":"present","rt":1094.3000000119,"correct":false,"confidence":2},{"trial_n":56,"min":82,"max":173,"target":"absent","response":"present","rt":660.30000001192,"correct":false,"confidence":4},{"trial_n":57,"min":81,"max":174,"target":"absent","response":"present","rt":556,"correct":false,"confidence":4},{"trial_n":58,"min":80,"max":175,"target":"absent","response":"present","rt":703.60000002384,"correct":false,"confidence":4},{"trial_n":59,"min":79,"max":176,"target":"absent","response":"present","rt":679.60000002384,"correct":false,"confidence":4},{"trial_n":60,"min":78,"max":177,"target":"absent","response":"present","rt":733.19999998808,"correct":false,"confidence":4},{"trial_n":61,"min":77,"max":178,"target":"absent","response":"present","rt":765.19999998808,"correct":false,"confidence":5},{"trial_n":62,"min":76,"max":179,"target":"present","response":"present","rt":689.09999996424,"correct":true,"confidence":5},{"trial_n":63,"min":76,"max":179,"target":"absent","response":"absent","rt":1498.3000000119,"correct":true,"confidence":2},{"trial_n":64,"min":77,"max":178,"target":"absent","response":"present","rt":942.59999996424,"correct":false,"confidence":4},{"trial_n":65,"min":76,"max":179,"target":"present","response":"present","rt":665,"correct":true,"confidence":5},{"trial_n":66,"min":76,"max":179,"target":"present","response":"present","rt":700.5,"correct":true,"confidence":5},{"trial_n":67,"min":77,"max":178,"target":"absent","response":"absent","rt":953.19999998808,"correct":true,"confidence":4},{"trial_n":68,"min":77,"max":178,"target":"present","response":"present","rt":665.09999996424,"correct":true,"confidence":5},{"trial_n":69,"min":78,"max":177,"target":"present","response":"present","rt":644.40000003576,"correct":true,"confidence":4},{"trial_n":70,"min":78,"max":177,"target":"present","response":"present","rt":822.59999996424,"correct":true,"confidence":5},{"trial_n":71,"min":41,"max":214,"target":"present","response":"present","rt":797.60000002384,"correct":true,"confidence":-1},{"trial_n":72,"min":41,"max":214,"target":"present","response":"present","rt":526.59999996424,"correct":true,"confidence":-1},{"trial_n":73,"min":57,"max":198,"target":"absent","response":"absent","rt":1372.3999999762,"correct":true,"confidence":-1},{"trial_n":74,"min":57,"max":198,"target":"absent","response":"absent","rt":738.19999998808,"correct":true,"confidence":-1},{"trial_n":75,"min":73,"max":182,"target":"present","response":"present","rt":902.80000001192,"correct":true,"confidence":-1},{"trial_n":76,"min":73,"max":182,"target":"present","response":"absent","rt":2086.0999999642,"correct":false,"confidence":-1},{"trial_n":77,"min":57,"max":198,"target":"present","response":"present","rt":770.89999997616,"correct":true,"confidence":-1},{"trial_n":78,"min":57,"max":198,"target":"absent","response":"absent","rt":1845.8999999762,"correct":true,"confidence":-1},{"trial_n":79,"min":73,"max":182,"target":"present","response":"present","rt":1429.2999999523,"correct":true,"confidence":-1},{"trial_n":80,"min":73,"max":182,"target":"present","response":"present","rt":898.19999998808,"correct":true,"confidence":-1},{"trial_n":81,"min":81,"max":174,"target":"present","response":"present","rt":751.5,"correct":true,"confidence":-1},{"trial_n":82,"min":81,"max":174,"target":"absent","response":"absent","rt":701,"correct":true,"confidence":-1},{"trial_n":83,"min":89,"max":166,"target":"present","response":"present","rt":1466.4000000358,"correct":true,"confidence":-1},{"trial_n":84,"min":89,"max":166,"target":"present","response":"present","rt":884.80000001192,"correct":true,"confidence":-1},{"trial_n":85,"min":97,"max":158,"target":"absent","response":"absent","rt":907.10000002384,"correct":true,"confidence":-1},{"trial_n":86,"min":97,"max":158,"target":"absent","response":"absent","rt":792.90000003576,"correct":true,"confidence":-1},{"trial_n":87,"min":105,"max":150,"target":"present","response":"present","rt":771.80000001192,"correct":true,"confidence":-1},{"trial_n":88,"min":105,"max":150,"target":"absent","response":"present","rt":742.60000002384,"correct":false,"confidence":-1},{"trial_n":89,"min":97,"max":158,"target":"present","response":"absent","rt":770.89999997616,"correct":false,"confidence":-1},{"trial_n":90,"min":89,"max":166,"target":"absent","response":"absent","rt":1156.1000000238,"correct":true,"confidence":-1},{"trial_n":91,"min":89,"max":166,"target":"present","response":"present","rt":984,"correct":true,"confidence":1},{"trial_n":92,"min":93,"max":162,"target":"absent","response":"absent","rt":1054.6999999881,"correct":true,"confidence":3},{"trial_n":93,"min":93,"max":162,"target":"present","response":"present","rt":924.80000001192,"correct":true,"confidence":3},{"trial_n":94,"min":97,"max":158,"target":"present","response":"present","rt":2104.6999999881,"correct":true,"confidence":1},{"trial_n":95,"min":97,"max":158,"target":"absent","response":"present","rt":2585.8000000119,"correct":false,"confidence":2},{"trial_n":96,"min":93,"max":162,"target":"present","response":"present","rt":1308.8000000119,"correct":true,"confidence":3},{"trial_n":97,"min":93,"max":162,"target":"present","response":"present","rt":1247.4000000358,"correct":true,"confidence":3},{"trial_n":98,"min":97,"max":158,"target":"present","response":"present","rt":1458.3999999762,"correct":true,"confidence":2},{"trial_n":99,"min":97,"max":158,"target":"present","response":"present","rt":1289.3000000119,"correct":true,"confidence":2},{"trial_n":100,"min":101,"max":154,"target":"absent","response":"absent","rt":1889.5,"correct":true,"confidence":1},{"trial_n":101,"min":101,"max":154,"target":"present","response":"absent","rt":1204.8000000119,"correct":false,"confidence":1},{"trial_n":102,"min":99,"max":156,"target":"present","response":"present","rt":1491.6999999881,"correct":true,"confidence":1},{"trial_n":103,"min":99,"max":156,"target":"present","response":"present","rt":1103.1999999881,"correct":true,"confidence":1},{"trial_n":104,"min":101,"max":154,"target":"present","response":"present","rt":2159.6999999881,"correct":true,"confidence":1},{"trial_n":105,"min":101,"max":154,"target":"absent","response":"present","rt":1425.2000000477,"correct":false,"confidence":2},{"trial_n":106,"min":99,"max":156,"target":"absent","response":"present","rt":940.80000001192,"correct":false,"confidence":1},{"trial_n":107,"min":97,"max":158,"target":"absent","response":"present","rt":687.5,"correct":false,"confidence":1},{"trial_n":108,"min":95,"max":160,"target":"absent","response":"absent","rt":1004.8999999762,"correct":true,"confidence":1},{"trial_n":109,"min":95,"max":160,"target":"absent","response":"present","rt":1611.8000000119,"correct":false,"confidence":3},{"trial_n":110,"min":93,"max":162,"target":"present","response":"present","rt":1060.5,"correct":true,"confidence":1},{"trial_n":111,"min":93,"max":162,"target":"absent","response":"present","rt":1199.1000000238,"correct":false,"confidence":3},{"trial_n":112,"min":92,"max":163,"target":"absent","response":"absent","rt":919.10000002384,"correct":true,"confidence":2},{"trial_n":113,"min":92,"max":163,"target":"absent","response":"absent","rt":1408.9000000358,"correct":true,"confidence":1},{"trial_n":114,"min":93,"max":162,"target":"absent","response":"present","rt":1856.6000000238,"correct":false,"confidence":1},{"trial_n":115,"min":92,"max":163,"target":"absent","response":"present","rt":864.20000004768,"correct":false,"confidence":1},{"trial_n":116,"min":91,"max":164,"target":"absent","response":"absent","rt":1068.1999999881,"correct":true,"confidence":1},{"trial_n":117,"min":91,"max":164,"target":"present","response":"present","rt":1123.1000000238,"correct":true,"confidence":1},{"trial_n":118,"min":92,"max":163,"target":"absent","response":"present","rt":914.19999998808,"correct":false,"confidence":1},{"trial_n":119,"min":91,"max":164,"target":"present","response":"absent","rt":887.79999995232,"correct":false,"confidence":1},{"trial_n":120,"min":90,"max":165,"target":"absent","response":"absent","rt":1171.1999999881,"correct":true,"confidence":2},{"trial_n":121,"min":90,"max":165,"target":"present","response":"present","rt":958,"correct":true,"confidence":4},{"trial_n":122,"min":91,"max":164,"target":"absent","response":"absent","rt":1509.5999999642,"correct":true,"confidence":2},{"trial_n":123,"min":91,"max":164,"target":"absent","response":"present","rt":1325.5,"correct":false,"confidence":2},{"trial_n":124,"min":90,"max":165,"target":"present","response":"present","rt":968.60000002384,"correct":true,"confidence":1},{"trial_n":125,"min":90,"max":165,"target":"present","response":"absent","rt":1515.9000000358,"correct":false,"confidence":1},{"trial_n":126,"min":89,"max":166,"target":"absent","response":"absent","rt":1047.8000000119,"correct":true,"confidence":3},{"trial_n":127,"min":89,"max":166,"target":"present","response":"present","rt":950.90000003576,"correct":true,"confidence":3},{"trial_n":128,"min":90,"max":165,"target":"absent","response":"present","rt":2554.5,"correct":false,"confidence":1},{"trial_n":129,"min":89,"max":166,"target":"absent","response":"absent","rt":1414.8999999762,"correct":true,"confidence":2},{"trial_n":130,"min":89,"max":166,"target":"present","response":"present","rt":1169.5,"correct":true,"confidence":3},{"trial_n":131,"min":90,"max":165,"target":"absent","response":"present","rt":1161.6999999881,"correct":false,"confidence":1},{"trial_n":132,"min":89,"max":166,"target":"present","response":"present","rt":800.89999997616,"correct":true,"confidence":4},{"trial_n":133,"min":89,"max":166,"target":"present","response":"present","rt":1664,"correct":true,"confidence":4},{"trial_n":134,"min":90,"max":165,"target":"present","response":"present","rt":1173.5,"correct":true,"confidence":1},{"trial_n":135,"min":90,"max":165,"target":"present","response":"present","rt":1553.1000000238,"correct":true,"confidence":2},{"trial_n":136,"min":91,"max":164,"target":"absent","response":"absent","rt":1192.2999999523,"correct":true,"confidence":4},{"trial_n":137,"min":91,"max":164,"target":"absent","response":"absent","rt":1161.8999999762,"correct":true,"confidence":4},{"trial_n":138,"min":92,"max":163,"target":"present","response":"present","rt":999.30000001192,"correct":true,"confidence":1},{"trial_n":139,"min":92,"max":163,"target":"absent","response":"present","rt":1321.5,"correct":false,"confidence":1},{"trial_n":140,"min":91,"max":164,"target":"absent","response":"absent","rt":1847.3999999762,"correct":true,"confidence":1}]