[{"trial_n":1,"min":25,"max":230,"target":"present","response":"present","rt":5162.599999994,"correct":true,"confidence":-1},{"trial_n":2,"min":25,"max":230,"target":"present","response":"present","rt":821.40000000596,"correct":true,"confidence":-1},{"trial_n":3,"min":41,"max":214,"target":"absent","response":"absent","rt":949.20000000298,"correct":true,"confidence":-1},{"trial_n":4,"min":41,"max":214,"target":"absent","response":"absent","rt":778.19999998808,"correct":true,"confidence":-1},{"trial_n":5,"min":57,"max":198,"target":"present","response":"present","rt":1002,"correct":true,"confidence":-1},{"trial_n":6,"min":57,"max":198,"target":"present","response":"present","rt":808.79999999702,"correct":true,"confidence":-1},{"trial_n":7,"min":73,"max":182,"target":"present","response":"present","rt":542.59999999404,"correct":true,"confidence":-1},{"trial_n":8,"min":73,"max":182,"target":"present","response":"present","rt":529.20000000298,"correct":true,"confidence":-1},{"trial_n":9,"min":89,"max":166,"target":"present","response":"present","rt":1405.400000006,"correct":true,"confidence":-1},{"trial_n":10,"min":89,"max":166,"target":"present","response":"absent","rt":445.59999999404,"correct":false,"confidence":-1},{"trial_n":11,"min":81,"max":174,"target":"present","response":"absent","rt":812.40000000596,"correct":false,"confidence":-1},{"trial_n":12,"min":73,"max":182,"target":"absent","response":"present","rt":633.20000000298,"correct":false,"confidence":-1},{"trial_n":13,"min":65,"max":190,"target":"absent","response":"absent","rt":1291.400000006,"correct":true,"confidence":-1},{"trial_n":14,"min":65,"max":190,"target":"present","response":"present","rt":559.5,"correct":true,"confidence":-1},{"trial_n":15,"min":73,"max":182,"target":"present","response":"present","rt":485.20000000298,"correct":true,"confidence":-1},{"trial_n":16,"min":73,"max":182,"target":"absent","response":"present","rt":588.90000000596,"correct":false,"confidence":-1},{"trial_n":17,"min":65,"max":190,"target":"absent","response":"absent","rt":798.40000000596,"correct":true,"confidence":-1},{"trial_n":18,"min":65,"max":190,"target":"absent","response":"absent","rt":618.70000000298,"correct":true,"confidence":-1},{"trial_n":19,"min":73,"max":182,"target":"absent","response":"absent","rt":499.70000000298,"correct":true,"confidence":-1},{"trial_n":20,"min":73,"max":182,"target":"absent","response":"absent","rt":497.59999999404,"correct":true,"confidence":-1},{"trial_n":21,"min":77,"max":178,"target":"absent","response":"present","rt":921.80000001192,"correct":false,"confidence":3},{"trial_n":22,"min":73,"max":182,"target":"absent","response":"absent","rt":940.59999999404,"correct":true,"confidence":3},{"trial_n":23,"min":73,"max":182,"target":"present","response":"absent","rt":692.70000000298,"correct":false,"confidence":3},{"trial_n":24,"min":69,"max":186,"target":"present","response":"present","rt":1278.700000003,"correct":true,"confidence":4},{"trial_n":25,"min":69,"max":186,"target":"present","response":"absent","rt":795.39999999106,"correct":false,"confidence":4},{"trial_n":26,"min":65,"max":190,"target":"present","response":"present","rt":876.5,"correct":true,"confidence":5},{"trial_n":27,"min":65,"max":190,"target":"present","response":"absent","rt":3180.200000003,"correct":false,"confidence":2},{"trial_n":28,"min":61,"max":194,"target":"absent","response":"absent","rt":740.90000000596,"correct":true,"confidence":3},{"trial_n":29,"min":61,"max":194,"target":"absent","response":"present","rt":896.69999998808,"correct":false,"confidence":3},{"trial_n":30,"min":57,"max":198,"target":"absent","response":"absent","rt":1093.700000003,"correct":true,"confidence":2},{"trial_n":31,"min":57,"max":198,"target":"present","response":"present","rt":787,"correct":true,"confidence":4},{"trial_n":32,"min":59,"max":196,"target":"absent","response":"absent","rt":819.20000000298,"correct":true,"confidence":4},{"trial_n":33,"min":59,"max":196,"target":"present","response":"present","rt":385.79999999702,"correct":true,"confidence":4},{"trial_n":34,"min":61,"max":194,"target":"present","response":"present","rt":519.5,"correct":true,"confidence":4},{"trial_n":35,"min":61,"max":194,"target":"absent","response":"absent","rt":672.70000000298,"correct":true,"confidence":3},{"trial_n":36,"min":63,"max":192,"target":"present","response":"present","rt":368.59999999404,"correct":true,"confidence":5},{"trial_n":37,"min":63,"max":192,"target":"present","response":"present","rt":632.69999998808,"correct":true,"confidence":3},{"trial_n":38,"min":65,"max":190,"target":"present","response":"present","rt":1625.599999994,"correct":true,"confidence":4},{"trial_n":39,"min":65,"max":190,"target":"present","response":"present","rt":495.89999999106,"correct":true,"confidence":5},{"trial_n":40,"min":67,"max":188,"target":"absent","response":"absent","rt":891.29999999702,"correct":true,"confidence":2},{"trial_n":41,"min":67,"max":188,"target":"absent","response":"absent","rt":1006.200000003,"correct":true,"confidence":2},{"trial_n":42,"min":68,"max":187,"target":"absent","response":"absent","rt":954.09999999404,"correct":true,"confidence":2},{"trial_n":43,"min":68,"max":187,"target":"present","response":"absent","rt":1132.1000000089,"correct":false,"confidence":2},{"trial_n":44,"min":67,"max":188,"target":"present","response":"present","rt":712.60000000894,"correct":true,"confidence":4},{"trial_n":45,"min":67,"max":188,"target":"present","response":"present","rt":709.60000000894,"correct":true,"confidence":5},{"trial_n":46,"min":68,"max":187,"target":"absent","response":"absent","rt":884,"correct":true,"confidence":3},{"trial_n":47,"min":68,"max":187,"target":"absent","response":"absent","rt":618.09999999404,"correct":true,"confidence":3},{"trial_n":48,"min":69,"max":186,"target":"present","response":"present","rt":691,"correct":true,"confidence":3},{"trial_n":49,"min":69,"max":186,"target":"absent","response":"absent","rt":702.60000000894,"correct":true,"confidence":4},{"trial_n":50,"min":70,"max":185,"target":"absent","response":"absent","rt":896,"correct":true,"confidence":3},{"trial_n":51,"min":70,"max":185,"target":"absent","response":"absent","rt":450.5,"correct":true,"confidence":3},{"trial_n":52,"min":71,"max":184,"target":"absent","response":"absent","rt":952.09999999404,"correct":true,"confidence":2},{"trial_n":53,"min":71,"max":184,"target":"present","response":"present","rt":760.90000000596,"correct":true,"confidence":3},{"trial_n":54,"min":72,"max":183,"target":"absent","response":"absent","rt":478.79999999702,"correct":true,"confidence":2},{"trial_n":55,"min":72,"max":183,"target":"present","response":"present","rt":841.79999999702,"correct":true,"confidence":3},{"trial_n":56,"min":73,"max":182,"target":"absent","response":"absent","rt":629.60000000894,"correct":true,"confidence":4},{"trial_n":57,"min":73,"max":182,"target":"absent","response":"absent","rt":832.19999998808,"correct":true,"confidence":2},{"trial_n":58,"min":74,"max":181,"target":"present","response":"present","rt":621.09999999404,"correct":true,"confidence":4},{"trial_n":59,"min":74,"max":181,"target":"absent","response":"absent","rt":677.90000000596,"correct":true,"confidence":4},{"trial_n":60,"min":75,"max":180,"target":"present","response":"present","rt":674.70000000298,"correct":true,"confidence":4},{"trial_n":61,"min":75,"max":180,"target":"present","response":"present","rt":1538.299999997,"correct":true,"confidence":2},{"trial_n":62,"min":76,"max":179,"target":"present","response":"present","rt":731.09999999404,"correct":true,"confidence":3},{"trial_n":63,"min":76,"max":179,"target":"absent","response":"absent","rt":674.40000000596,"correct":true,"confidence":3},{"trial_n":64,"min":77,"max":178,"target":"absent","response":"absent","rt":558.10000000894,"correct":true,"confidence":3},{"trial_n":65,"min":77,"max":178,"target":"absent","response":"absent","rt":525.5,"correct":true,"confidence":3},{"trial_n":66,"min":78,"max":177,"target":"absent","response":"absent","rt":704.40000000596,"correct":true,"confidence":3},{"trial_n":67,"min":78,"max":177,"target":"present","response":"present","rt":874.5,"correct":true,"confidence":2},{"trial_n":68,"min":79,"max":176,"target":"present","response":"present","rt":654.10000000894,"correct":true,"confidence":3},{"trial_n":69,"min":79,"max":176,"target":"present","response":"present","rt":968.90000000596,"correct":true,"confidence":3},{"trial_n":70,"min":80,"max":175,"target":"absent","response":"present","rt":795.79999999702,"correct":false,"confidence":3},{"trial_n":71,"min":41,"max":214,"target":"present","response":"present","rt":1512.700000003,"correct":true,"confidence":-1},{"trial_n":72,"min":41,"max":214,"target":"present","response":"present","rt":473,"correct":true,"confidence":-1},{"trial_n":73,"min":57,"max":198,"target":"absent","response":"absent","rt":675.60000000894,"correct":true,"confidence":-1},{"trial_n":74,"min":57,"max":198,"target":"absent","response":"absent","rt":633.20000000298,"correct":true,"confidence":-1},{"trial_n":75,"min":73,"max":182,"target":"present","response":"present","rt":659.5,"correct":true,"confidence":-1},{"trial_n":76,"min":73,"max":182,"target":"present","response":"present","rt":399.20000000298,"correct":true,"confidence":-1},{"trial_n":77,"min":89,"max":166,"target":"absent","response":"absent","rt":1784.299999997,"correct":true,"confidence":-1},{"trial_n":78,"min":89,"max":166,"target":"absent","response":"present","rt":819,"correct":false,"confidence":-1},{"trial_n":79,"min":73,"max":182,"target":"absent","response":"absent","rt":883.79999999702,"correct":true,"confidence":-1},{"trial_n":80,"min":73,"max":182,"target":"absent","response":"absent","rt":542,"correct":true,"confidence":-1},{"trial_n":81,"min":81,"max":174,"target":"absent","response":"present","rt":723.40000000596,"correct":false,"confidence":-1},{"trial_n":82,"min":73,"max":182,"target":"absent","response":"absent","rt":539.5,"correct":true,"confidence":-1},{"trial_n":83,"min":73,"max":182,"target":"present","response":"present","rt":612.59999999404,"correct":true,"confidence":-1},{"trial_n":84,"min":81,"max":174,"target":"absent","response":"absent","rt":645.79999999702,"correct":true,"confidence":-1},{"trial_n":85,"min":81,"max":174,"target":"absent","response":"present","rt":860.90000000596,"correct":false,"confidence":-1},{"trial_n":86,"min":73,"max":182,"target":"absent","response":"absent","rt":500,"correct":true,"confidence":-1},{"trial_n":87,"min":73,"max":182,"target":"present","response":"present","rt":376.60000000894,"correct":true,"confidence":-1},{"trial_n":88,"min":81,"max":174,"target":"present","response":"present","rt":545.59999999404,"correct":true,"confidence":-1},{"trial_n":89,"min":81,"max":174,"target":"present","response":"present","rt":460.29999999702,"correct":true,"confidence":-1},{"trial_n":90,"min":89,"max":166,"target":"absent","response":"present","rt":656.89999999106,"correct":false,"confidence":-1},{"trial_n":91,"min":85,"max":170,"target":"present","response":"present","rt":740.20000000298,"correct":true,"confidence":4},{"trial_n":92,"min":85,"max":170,"target":"present","response":"present","rt":501.40000000596,"correct":true,"confidence":4},{"trial_n":93,"min":89,"max":166,"target":"present","response":"present","rt":1034.5,"correct":true,"confidence":4},{"trial_n":94,"min":89,"max":166,"target":"present","response":"present","rt":581.20000000298,"correct":true,"confidence":4},{"trial_n":95,"min":93,"max":162,"target":"absent","response":"absent","rt":794.40000000596,"correct":true,"confidence":4},{"trial_n":96,"min":93,"max":162,"target":"present","response":"present","rt":1563.799999997,"correct":true,"confidence":2},{"trial_n":97,"min":97,"max":158,"target":"absent","response":"absent","rt":2241.799999997,"correct":true,"confidence":1},{"trial_n":98,"min":97,"max":158,"target":"absent","response":"present","rt":839.20000000298,"correct":false,"confidence":3},{"trial_n":99,"min":93,"max":162,"target":"present","response":"present","rt":523.90000000596,"correct":true,"confidence":3},{"trial_n":100,"min":93,"max":162,"target":"absent","response":"present","rt":697.29999999702,"correct":false,"confidence":3},{"trial_n":101,"min":91,"max":164,"target":"present","response":"present","rt":583.79999999702,"correct":true,"confidence":2},{"trial_n":102,"min":91,"max":164,"target":"absent","response":"absent","rt":1186.799999997,"correct":true,"confidence":1},{"trial_n":103,"min":93,"max":162,"target":"present","response":"present","rt":891.39999999106,"correct":true,"confidence":2},{"trial_n":104,"min":93,"max":162,"target":"absent","response":"present","rt":1600.5,"correct":false,"confidence":2},{"trial_n":105,"min":91,"max":164,"target":"present","response":"present","rt":576,"correct":true,"confidence":2},{"trial_n":106,"min":91,"max":164,"target":"present","response":"absent","rt":1045.900000006,"correct":false,"confidence":2},{"trial_n":107,"min":89,"max":166,"target":"present","response":"present","rt":425.70000000298,"correct":true,"confidence":2},{"trial_n":108,"min":89,"max":166,"target":"present","response":"present","rt":566.59999999404,"correct":true,"confidence":2},{"trial_n":109,"min":91,"max":164,"target":"present","response":"present","rt":1867.5,"correct":true,"confidence":2},{"trial_n":110,"min":91,"max":164,"target":"present","response":"present","rt":388.20000000298,"correct":true,"confidence":3},{"trial_n":111,"min":92,"max":163,"target":"absent","response":"present","rt":2235.5,"correct":false,"confidence":1},{"trial_n":112,"min":91,"max":164,"target":"absent","response":"absent","rt":1483.3999999911,"correct":true,"confidence":2},{"trial_n":113,"min":91,"max":164,"target":"present","response":"present","rt":933.20000000298,"correct":true,"confidence":2},{"trial_n":114,"min":92,"max":163,"target":"absent","response":"present","rt":1724.700000003,"correct":false,"confidence":1},{"trial_n":115,"min":91,"max":164,"target":"absent","response":"absent","rt":909.69999998808,"correct":true,"confidence":2},{"trial_n":116,"min":91,"max":164,"target":"absent","response":"absent","rt":1334.299999997,"correct":true,"confidence":2},{"trial_n":117,"min":92,"max":163,"target":"absent","response":"present","rt":458.59999999404,"correct":false,"confidence":2},{"trial_n":118,"min":91,"max":164,"target":"present","response":"present","rt":684.60000000894,"correct":true,"confidence":3},{"trial_n":119,"min":91,"max":164,"target":"present","response":"present","rt":1260.5,"correct":true,"confidence":3},{"trial_n":120,"min":92,"max":163,"target":"present","response":"present","rt":1174.299999997,"correct":true,"confidence":2},{"trial_n":121,"min":92,"max":163,"target":"absent","response":"present","rt":1854.700000003,"correct":false,"confidence":2},{"trial_n":122,"min":91,"max":164,"target":"present","response":"present","rt":1423.5,"correct":true,"confidence":2},{"trial_n":123,"min":91,"max":164,"target":"present","response":"absent","rt":1440.8999999911,"correct":false,"confidence":2},{"trial_n":124,"min":90,"max":165,"target":"absent","response":"present","rt":5487.900000006,"correct":false,"confidence":1},{"trial_n":125,"min":89,"max":166,"target":"present","response":"present","rt":573.40000000596,"correct":true,"confidence":1},{"trial_n":126,"min":89,"max":166,"target":"absent","response":"present","rt":779.60000000894,"correct":false,"confidence":1},{"trial_n":127,"min":88,"max":167,"target":"present","response":"present","rt":473,"correct":true,"confidence":1},{"trial_n":128,"min":88,"max":167,"target":"present","response":"absent","rt":2302,"correct":false,"confidence":1},{"trial_n":129,"min":87,"max":168,"target":"absent","response":"present","rt":388.30000001192,"correct":false,"confidence":3},{"trial_n":130,"min":86,"max":169,"target":"present","response":"present","rt":447.40000000596,"correct":true,"confidence":3},{"trial_n":131,"min":86,"max":169,"target":"absent","response":"present","rt":409.79999999702,"correct":false,"confidence":2},{"trial_n":132,"min":85,"max":170,"target":"present","response":"present","rt":664,"correct":true,"confidence":3},{"trial_n":133,"min":85,"max":170,"target":"absent","response":"present","rt":1259.900000006,"correct":false,"confidence":2},{"trial_n":134,"min":84,"max":171,"target":"present","response":"present","rt":537.80000001192,"correct":true,"confidence":2},{"trial_n":135,"min":84,"max":171,"target":"present","response":"present","rt":363.5,"correct":true,"confidence":3},{"trial_n":136,"min":85,"max":170,"target":"absent","response":"absent","rt":1399.400000006,"correct":true,"confidence":2},{"trial_n":137,"min":85,"max":170,"target":"absent","response":"present","rt":775.30000001192,"correct":false,"confidence":2},{"trial_n":138,"min":84,"max":171,"target":"absent","response":"absent","rt":1487.6000000089,"correct":true,"confidence":2},{"trial_n":139,"min":84,"max":171,"target":"present","response":"present","rt":385.79999999702,"correct":true,"confidence":3},{"trial_n":140,"min":85,"max":170,"target":"absent","response":"present","rt":1068.5,"correct":false,"confidence":2}]