[{"trial_n":1,"n_dots":4.25,"target":"right","response":"right","rt":3628.6000000238,"correct":true,"confidence":-1},{"trial_n":2,"n_dots":4.25,"target":"right","response":"left","rt":898.5,"correct":false,"confidence":-1},{"trial_n":3,"n_dots":4.65,"target":"left","response":"left","rt":685.10000002384,"correct":true,"confidence":-1},{"trial_n":4,"n_dots":4.65,"target":"right","response":"right","rt":634,"correct":true,"confidence":-1},{"trial_n":5,"n_dots":4.25,"target":"right","response":"right","rt":1341.2999999523,"correct":true,"confidence":-1},{"trial_n":6,"n_dots":4.25,"target":"right","response":"right","rt":388,"correct":true,"confidence":-1},{"trial_n":7,"n_dots":3.85,"target":"left","response":"left","rt":583.10000002384,"correct":true,"confidence":-1},{"trial_n":8,"n_dots":3.85,"target":"left","response":"left","rt":410.89999997616,"correct":true,"confidence":-1},{"trial_n":9,"n_dots":3.65,"target":"right","response":"right","rt":753.20000004768,"correct":true,"confidence":-1},{"trial_n":10,"n_dots":3.65,"target":"left","response":"left","rt":543.79999995232,"correct":true,"confidence":-1},{"trial_n":11,"n_dots":3.45,"target":"left","response":"left","rt":584.69999992847,"correct":true,"confidence":-1},{"trial_n":12,"n_dots":3.45,"target":"left","response":"left","rt":657.5,"correct":true,"confidence":-1},{"trial_n":13,"n_dots":3.35,"target":"right","response":"left","rt":643.69999992847,"correct":false,"confidence":-1},{"trial_n":14,"n_dots":3.45,"target":"left","response":"left","rt":374.70000004768,"correct":true,"confidence":-1},{"trial_n":15,"n_dots":3.45,"target":"left","response":"left","rt":561.79999995232,"correct":true,"confidence":-1},{"trial_n":16,"n_dots":3.35,"target":"right","response":"right","rt":740.5,"correct":true,"confidence":-1},{"trial_n":17,"n_dots":3.35,"target":"left","response":"left","rt":538,"correct":true,"confidence":-1},{"trial_n":18,"n_dots":3.25,"target":"right","response":"right","rt":839.60000002384,"correct":true,"confidence":-1},{"trial_n":19,"n_dots":3.25,"target":"right","response":"right","rt":1866.0999999046,"correct":true,"confidence":-1},{"trial_n":20,"n_dots":3.15,"target":"right","response":"right","rt":780.39999997616,"correct":true,"confidence":-1},{"trial_n":21,"n_dots":3.15,"target":"left","response":"left","rt":1076.3000000715,"correct":true,"confidence":4},{"trial_n":22,"n_dots":3.05,"target":"right","response":"left","rt":771.89999997616,"correct":false,"confidence":4},{"trial_n":23,"n_dots":3.15,"target":"right","response":"right","rt":389.39999997616,"correct":true,"confidence":3},{"trial_n":24,"n_dots":3.15,"target":"left","response":"left","rt":1028.7000000477,"correct":true,"confidence":3},{"trial_n":25,"n_dots":3.05,"target":"right","response":"right","rt":776.89999997616,"correct":true,"confidence":5},{"trial_n":26,"n_dots":3.05,"target":"left","response":"left","rt":1229.8000000715,"correct":true,"confidence":4},{"trial_n":27,"n_dots":2.95,"target":"right","response":"right","rt":528.19999992847,"correct":true,"confidence":4},{"trial_n":28,"n_dots":2.95,"target":"left","response":"right","rt":1027.6000000238,"correct":false,"confidence":3},{"trial_n":29,"n_dots":3.05,"target":"right","response":"left","rt":1250.7999999523,"correct":false,"confidence":3},{"trial_n":30,"n_dots":3.15,"target":"right","response":"right","rt":304,"correct":true,"confidence":5},{"trial_n":31,"n_dots":3.15,"target":"right","response":"right","rt":761.60000002384,"correct":true,"confidence":5},{"trial_n":32,"n_dots":3.05,"target":"right","response":"right","rt":942.69999992847,"correct":true,"confidence":4},{"trial_n":33,"n_dots":3.05,"target":"left","response":"left","rt":871.10000002384,"correct":true,"confidence":3},{"trial_n":34,"n_dots":2.95,"target":"right","response":"right","rt":768.59999990463,"correct":true,"confidence":3},{"trial_n":35,"n_dots":2.95,"target":"right","response":"right","rt":833.10000002384,"correct":true,"confidence":4},{"trial_n":36,"n_dots":2.85,"target":"right","response":"left","rt":422.89999997616,"correct":false,"confidence":5},{"trial_n":37,"n_dots":2.95,"target":"right","response":"left","rt":2761.8999999762,"correct":false,"confidence":2},{"trial_n":38,"n_dots":3.05,"target":"right","response":"right","rt":1084.1000000238,"correct":true,"confidence":2},{"trial_n":39,"n_dots":3.05,"target":"right","response":"right","rt":837.60000002384,"correct":true,"confidence":3},{"trial_n":40,"n_dots":2.95,"target":"left","response":"left","rt":867,"correct":true,"confidence":3},{"trial_n":41,"n_dots":2.95,"target":"right","response":"right","rt":931.60000002384,"correct":true,"confidence":4},{"trial_n":42,"n_dots":2.85,"target":"right","response":"right","rt":742.39999997616,"correct":true,"confidence":4},{"trial_n":43,"n_dots":2.85,"target":"right","response":"right","rt":760.90000009537,"correct":true,"confidence":4},{"trial_n":44,"n_dots":2.75,"target":"left","response":"left","rt":579.89999997616,"correct":true,"confidence":3},{"trial_n":45,"n_dots":2.75,"target":"right","response":"right","rt":1126.6000000238,"correct":true,"confidence":1},{"trial_n":46,"n_dots":2.65,"target":"right","response":"left","rt":814,"correct":false,"confidence":1},{"trial_n":47,"n_dots":2.75,"target":"left","response":"left","rt":1759,"correct":true,"confidence":1},{"trial_n":48,"n_dots":2.75,"target":"right","response":"left","rt":1603.3999999762,"correct":false,"confidence":1},{"trial_n":49,"n_dots":2.85,"target":"left","response":"right","rt":902,"correct":false,"confidence":3},{"trial_n":50,"n_dots":2.95,"target":"left","response":"left","rt":625.29999995232,"correct":true,"confidence":4},{"trial_n":51,"n_dots":2.95,"target":"right","response":"right","rt":1422.7000000477,"correct":true,"confidence":4},{"trial_n":52,"n_dots":2.85,"target":"left","response":"left","rt":543,"correct":true,"confidence":5},{"trial_n":53,"n_dots":2.85,"target":"right","response":"left","rt":1207.3999999762,"correct":false,"confidence":3},{"trial_n":54,"n_dots":2.95,"target":"right","response":"right","rt":1027.8999999762,"correct":true,"confidence":3},{"trial_n":55,"n_dots":2.95,"target":"left","response":"right","rt":1647.8000000715,"correct":false,"confidence":1},{"trial_n":56,"n_dots":3.05,"target":"right","response":"right","rt":974.10000002384,"correct":true,"confidence":4},{"trial_n":57,"n_dots":3.05,"target":"right","response":"right","rt":1169.3999999762,"correct":true,"confidence":3},{"trial_n":58,"n_dots":2.95,"target":"left","response":"left","rt":546.10000002384,"correct":true,"confidence":4},{"trial_n":59,"n_dots":2.95,"target":"left","response":"left","rt":913.10000002384,"correct":true,"confidence":2},{"trial_n":60,"n_dots":2.85,"target":"left","response":"left","rt":619.40000009537,"correct":true,"confidence":3},{"trial_n":61,"n_dots":2.85,"target":"left","response":"left","rt":603.5,"correct":true,"confidence":3},{"trial_n":62,"n_dots":2.75,"target":"right","response":"right","rt":411.5,"correct":true,"confidence":4},{"trial_n":63,"n_dots":2.75,"target":"left","response":"left","rt":835.10000002384,"correct":true,"confidence":3},{"trial_n":64,"n_dots":2.65,"target":"left","response":"right","rt":708.89999997616,"correct":false,"confidence":3},{"trial_n":65,"n_dots":2.75,"target":"left","response":"right","rt":881.39999997616,"correct":false,"confidence":1},{"trial_n":66,"n_dots":2.85,"target":"right","response":"left","rt":430.80000007153,"correct":false,"confidence":5},{"trial_n":67,"n_dots":2.95,"target":"left","response":"right","rt":1307.5,"correct":false,"confidence":3},{"trial_n":68,"n_dots":3.05,"target":"right","response":"right","rt":838.30000007153,"correct":true,"confidence":3},{"trial_n":69,"n_dots":3.05,"target":"left","response":"left","rt":1785.8000000715,"correct":true,"confidence":1},{"trial_n":70,"n_dots":2.95,"target":"left","response":"right","rt":915.40000009537,"correct":false,"confidence":4},{"trial_n":71,"n_dots":3.05,"target":"right","response":"right","rt":440.39999997616,"correct":true,"confidence":5},{"trial_n":72,"n_dots":3.05,"target":"left","response":"left","rt":891.19999992847,"correct":true,"confidence":4},{"trial_n":73,"n_dots":2.95,"target":"left","response":"right","rt":1680.3999999762,"correct":false,"confidence":3},{"trial_n":74,"n_dots":3.05,"target":"right","response":"right","rt":544.5,"correct":true,"confidence":3},{"trial_n":75,"n_dots":3.05,"target":"left","response":"left","rt":324.09999990463,"correct":true,"confidence":5},{"trial_n":76,"n_dots":2.95,"target":"right","response":"right","rt":658.80000007153,"correct":true,"confidence":5},{"trial_n":77,"n_dots":2.95,"target":"left","response":"left","rt":681.59999990463,"correct":true,"confidence":5},{"trial_n":78,"n_dots":2.85,"target":"right","response":"right","rt":660,"correct":true,"confidence":4},{"trial_n":79,"n_dots":2.85,"target":"right","response":"right","rt":419.69999992847,"correct":true,"confidence":4},{"trial_n":80,"n_dots":2.75,"target":"right","response":"right","rt":620.39999997616,"correct":true,"confidence":4},{"trial_n":81,"n_dots":2.75,"target":"left","response":"right","rt":448.5,"correct":false,"confidence":3},{"trial_n":82,"n_dots":2.85,"target":"right","response":"right","rt":355.69999992847,"correct":true,"confidence":4},{"trial_n":83,"n_dots":2.85,"target":"left","response":"left","rt":653.80000007153,"correct":true,"confidence":4},{"trial_n":84,"n_dots":2.75,"target":"right","response":"right","rt":425.69999992847,"correct":true,"confidence":5},{"trial_n":85,"n_dots":2.75,"target":"left","response":"right","rt":1316.0999999046,"correct":false,"confidence":2},{"trial_n":86,"n_dots":2.85,"target":"left","response":"right","rt":1060.3999999762,"correct":false,"confidence":2},{"trial_n":87,"n_dots":2.95,"target":"right","response":"right","rt":382.10000002384,"correct":true,"confidence":5},{"trial_n":88,"n_dots":2.95,"target":"left","response":"left","rt":522.39999997616,"correct":true,"confidence":5},{"trial_n":89,"n_dots":2.85,"target":"left","response":"left","rt":549.79999995232,"correct":true,"confidence":5},{"trial_n":90,"n_dots":2.85,"target":"left","response":"left","rt":743.30000007153,"correct":true,"confidence":4},{"trial_n":91,"n_dots":2.75,"target":"left","response":"left","rt":963.10000002384,"correct":true,"confidence":4},{"trial_n":92,"n_dots":2.75,"target":"right","response":"right","rt":556,"correct":true,"confidence":4},{"trial_n":93,"n_dots":2.65,"target":"right","response":"right","rt":649.30000007153,"correct":true,"confidence":4},{"trial_n":94,"n_dots":2.65,"target":"right","response":"right","rt":570.69999992847,"correct":true,"confidence":5},{"trial_n":95,"n_dots":2.55,"target":"left","response":"left","rt":990,"correct":true,"confidence":2},{"trial_n":96,"n_dots":2.55,"target":"right","response":"right","rt":564.80000007153,"correct":true,"confidence":3},{"trial_n":97,"n_dots":2.45,"target":"left","response":"left","rt":1029.5,"correct":true,"confidence":1},{"trial_n":98,"n_dots":2.45,"target":"right","response":"right","rt":796.10000002384,"correct":true,"confidence":2},{"trial_n":99,"n_dots":2.35,"target":"right","response":"left","rt":827.80000007153,"correct":false,"confidence":3},{"trial_n":100,"n_dots":2.45,"target":"left","response":"left","rt":867.10000002384,"correct":true,"confidence":2},{"trial_n":101,"n_dots":2.45,"target":"right","response":"right","rt":595,"correct":true,"confidence":4},{"trial_n":102,"n_dots":2.35,"target":"left","response":"left","rt":1347.2999999523,"correct":true,"confidence":2},{"trial_n":103,"n_dots":2.35,"target":"left","response":"left","rt":561.70000004768,"correct":true,"confidence":4},{"trial_n":104,"n_dots":2.25,"target":"left","response":"right","rt":989.19999992847,"correct":false,"confidence":1},{"trial_n":105,"n_dots":2.35,"target":"left","response":"left","rt":463.89999997616,"correct":true,"confidence":5},{"trial_n":106,"n_dots":2.35,"target":"left","response":"left","rt":1097.3000000715,"correct":true,"confidence":2},{"trial_n":107,"n_dots":2.25,"target":"left","response":"left","rt":331.5,"correct":true,"confidence":5},{"trial_n":108,"n_dots":2.25,"target":"right","response":"right","rt":749.89999997616,"correct":true,"confidence":5},{"trial_n":109,"n_dots":2.15,"target":"left","response":"left","rt":536.90000009537,"correct":true,"confidence":5},{"trial_n":110,"n_dots":2.15,"target":"left","response":"left","rt":726.79999995232,"correct":true,"confidence":4},{"trial_n":111,"n_dots":2.05,"target":"left","response":"left","rt":363.60000002384,"correct":true,"confidence":4},{"trial_n":112,"n_dots":2.05,"target":"left","response":"right","rt":710.29999995232,"correct":false,"confidence":4},{"trial_n":113,"n_dots":2.15,"target":"right","response":"right","rt":554.70000004768,"correct":true,"confidence":4},{"trial_n":114,"n_dots":2.15,"target":"left","response":"right","rt":921.40000009537,"correct":false,"confidence":4},{"trial_n":115,"n_dots":2.25,"target":"left","response":"right","rt":798.40000009537,"correct":false,"confidence":5},{"trial_n":116,"n_dots":2.35,"target":"right","response":"left","rt":1026.3999999762,"correct":false,"confidence":1},{"trial_n":117,"n_dots":2.45,"target":"right","response":"right","rt":1499.7000000477,"correct":true,"confidence":3},{"trial_n":118,"n_dots":2.45,"target":"left","response":"left","rt":526.79999995232,"correct":true,"confidence":4},{"trial_n":119,"n_dots":2.35,"target":"right","response":"right","rt":522.29999995232,"correct":true,"confidence":5},{"trial_n":120,"n_dots":2.35,"target":"left","response":"left","rt":1049.0999999046,"correct":true,"confidence":2}]