[{"trial_n":1,"min":25,"max":230,"target":"present","response":"present","rt":3767.700000003,"correct":true,"confidence":-1},{"trial_n":2,"min":25,"max":230,"target":"present","response":"present","rt":16116.5,"correct":true,"confidence":-1},{"trial_n":3,"min":41,"max":214,"target":"absent","response":"absent","rt":944.89999999851,"correct":true,"confidence":-1},{"trial_n":4,"min":41,"max":214,"target":"absent","response":"absent","rt":560.70000000298,"correct":true,"confidence":-1},{"trial_n":5,"min":57,"max":198,"target":"present","response":"present","rt":650,"correct":true,"confidence":-1},{"trial_n":6,"min":57,"max":198,"target":"absent","response":"absent","rt":498.59999999404,"correct":true,"confidence":-1},{"trial_n":7,"min":73,"max":182,"target":"absent","response":"absent","rt":290.30000000447,"correct":true,"confidence":-1},{"trial_n":8,"min":73,"max":182,"target":"present","response":"present","rt":512.5,"correct":true,"confidence":-1},{"trial_n":9,"min":89,"max":166,"target":"absent","response":"absent","rt":453.89999999851,"correct":true,"confidence":-1},{"trial_n":10,"min":89,"max":166,"target":"absent","response":"absent","rt":224.80000000447,"correct":true,"confidence":-1},{"trial_n":11,"min":97,"max":158,"target":"absent","response":"absent","rt":189.30000000447,"correct":true,"confidence":-1},{"trial_n":12,"min":97,"max":158,"target":"absent","response":"absent","rt":215.70000000298,"correct":true,"confidence":-1},{"trial_n":13,"min":105,"max":150,"target":"absent","response":"absent","rt":64.39999999851,"correct":true,"confidence":-1},{"trial_n":14,"min":105,"max":150,"target":"present","response":"absent","rt":96.5,"correct":false,"confidence":-1},{"trial_n":15,"min":97,"max":158,"target":"present","response":"absent","rt":505.70000000298,"correct":false,"confidence":-1},{"trial_n":16,"min":89,"max":166,"target":"absent","response":"absent","rt":484.30000000447,"correct":true,"confidence":-1},{"trial_n":17,"min":89,"max":166,"target":"absent","response":"present","rt":658.10000000149,"correct":false,"confidence":-1},{"trial_n":18,"min":81,"max":174,"target":"absent","response":"present","rt":529.69999999553,"correct":false,"confidence":-1},{"trial_n":19,"min":73,"max":182,"target":"present","response":"present","rt":364.69999999553,"correct":true,"confidence":-1},{"trial_n":20,"min":73,"max":182,"target":"absent","response":"present","rt":3737,"correct":false,"confidence":-1},{"trial_n":21,"min":69,"max":186,"target":"absent","response":"present","rt":1041.099999994,"correct":false,"confidence":5},{"trial_n":22,"min":65,"max":190,"target":"present","response":"present","rt":360.5,"correct":true,"confidence":1},{"trial_n":23,"min":65,"max":190,"target":"absent","response":"present","rt":3135.299999997,"correct":false,"confidence":4},{"trial_n":24,"min":61,"max":194,"target":"absent","response":"present","rt":332,"correct":false,"confidence":5},{"trial_n":25,"min":57,"max":198,"target":"present","response":"present","rt":245.5,"correct":true,"confidence":5},{"trial_n":26,"min":57,"max":198,"target":"absent","response":"present","rt":567.90000000596,"correct":false,"confidence":3},{"trial_n":27,"min":53,"max":202,"target":"present","response":"present","rt":351.5,"correct":true,"confidence":5},{"trial_n":28,"min":53,"max":202,"target":"present","response":"present","rt":505.5,"correct":true,"confidence":5},{"trial_n":29,"min":57,"max":198,"target":"present","response":"present","rt":293.19999999553,"correct":true,"confidence":5},{"trial_n":30,"min":57,"max":198,"target":"absent","response":"absent","rt":1606.5,"correct":true,"confidence":3},{"trial_n":31,"min":59,"max":196,"target":"present","response":"present","rt":446,"correct":true,"confidence":5},{"trial_n":32,"min":59,"max":196,"target":"absent","response":"present","rt":533,"correct":false,"confidence":3},{"trial_n":33,"min":57,"max":198,"target":"present","response":"present","rt":140,"correct":true,"confidence":2},{"trial_n":34,"min":57,"max":198,"target":"absent","response":"present","rt":1226.8999999985,"correct":false,"confidence":2},{"trial_n":35,"min":55,"max":200,"target":"absent","response":"absent","rt":1069.799999997,"correct":true,"confidence":3},{"trial_n":36,"min":55,"max":200,"target":"absent","response":"present","rt":225.29999999702,"correct":false,"confidence":5},{"trial_n":37,"min":53,"max":202,"target":"present","response":"present","rt":248.89999999851,"correct":true,"confidence":5},{"trial_n":38,"min":53,"max":202,"target":"absent","response":"absent","rt":558.20000000298,"correct":true,"confidence":3},{"trial_n":39,"min":55,"max":200,"target":"absent","response":"present","rt":691.69999999553,"correct":false,"confidence":2},{"trial_n":40,"min":53,"max":202,"target":"present","response":"present","rt":322.70000000298,"correct":true,"confidence":5},{"trial_n":41,"min":53,"max":202,"target":"present","response":"present","rt":278,"correct":true,"confidence":5},{"trial_n":42,"min":54,"max":201,"target":"absent","response":"present","rt":517.29999999702,"correct":false,"confidence":3},{"trial_n":43,"min":53,"max":202,"target":"present","response":"present","rt":91.70000000298,"correct":true,"confidence":5},{"trial_n":44,"min":53,"max":202,"target":"absent","response":"absent","rt":863.90000000596,"correct":true,"confidence":4},{"trial_n":45,"min":54,"max":201,"target":"present","response":"present","rt":276.5,"correct":true,"confidence":5},{"trial_n":46,"min":54,"max":201,"target":"present","response":"present","rt":208.80000000447,"correct":true,"confidence":5},{"trial_n":47,"min":55,"max":200,"target":"present","response":"present","rt":133.79999999702,"correct":true,"confidence":5},{"trial_n":48,"min":55,"max":200,"target":"present","response":"present","rt":170.5,"correct":true,"confidence":5},{"trial_n":49,"min":56,"max":199,"target":"absent","response":"absent","rt":393.39999999851,"correct":true,"confidence":2},{"trial_n":50,"min":56,"max":199,"target":"present","response":"present","rt":370.09999999404,"correct":true,"confidence":4},{"trial_n":51,"min":57,"max":198,"target":"present","response":"present","rt":636.70000000298,"correct":true,"confidence":5},{"trial_n":52,"min":57,"max":198,"target":"present","response":"present","rt":148,"correct":true,"confidence":5},{"trial_n":53,"min":58,"max":197,"target":"absent","response":"absent","rt":577.60000000149,"correct":true,"confidence":4},{"trial_n":54,"min":58,"max":197,"target":"present","response":"present","rt":49.70000000298,"correct":true,"confidence":5},{"trial_n":55,"min":59,"max":196,"target":"absent","response":"present","rt":792.60000000149,"correct":false,"confidence":3},{"trial_n":56,"min":58,"max":197,"target":"absent","response":"absent","rt":455.39999999851,"correct":true,"confidence":4},{"trial_n":57,"min":58,"max":197,"target":"present","response":"present","rt":380.5,"correct":true,"confidence":5},{"trial_n":58,"min":59,"max":196,"target":"absent","response":"absent","rt":315.10000000149,"correct":true,"confidence":3},{"trial_n":59,"min":59,"max":196,"target":"present","response":"present","rt":106.20000000298,"correct":true,"confidence":5},{"trial_n":60,"min":60,"max":195,"target":"absent","response":"absent","rt":539.39999999851,"correct":true,"confidence":3},{"trial_n":61,"min":60,"max":195,"target":"present","response":"present","rt":280.20000000298,"correct":true,"confidence":5},{"trial_n":62,"min":61,"max":194,"target":"present","response":"present","rt":200,"correct":true,"confidence":5},{"trial_n":63,"min":61,"max":194,"target":"present","response":"present","rt":84.89999999851,"correct":true,"confidence":5},{"trial_n":64,"min":62,"max":193,"target":"absent","response":"present","rt":200.89999999851,"correct":false,"confidence":3},{"trial_n":65,"min":61,"max":194,"target":"present","response":"present","rt":578.60000000149,"correct":true,"confidence":5},{"trial_n":66,"min":61,"max":194,"target":"present","response":"present","rt":189.70000000298,"correct":true,"confidence":5},{"trial_n":67,"min":62,"max":193,"target":"present","response":"present","rt":197.39999999851,"correct":true,"confidence":5},{"trial_n":68,"min":62,"max":193,"target":"present","response":"present","rt":147.60000000149,"correct":true,"confidence":5},{"trial_n":69,"min":63,"max":192,"target":"absent","response":"absent","rt":416.19999999553,"correct":true,"confidence":3},{"trial_n":70,"min":63,"max":192,"target":"present","response":"present","rt":101.89999999851,"correct":true,"confidence":5},{"trial_n":71,"min":41,"max":214,"target":"present","response":"present","rt":7680.5,"correct":true,"confidence":-1},{"trial_n":72,"min":41,"max":214,"target":"present","response":"present","rt":276,"correct":true,"confidence":-1},{"trial_n":73,"min":57,"max":198,"target":"absent","response":"absent","rt":333.60000000149,"correct":true,"confidence":-1},{"trial_n":74,"min":57,"max":198,"target":"absent","response":"absent","rt":295.29999999702,"correct":true,"confidence":-1},{"trial_n":75,"min":73,"max":182,"target":"present","response":"present","rt":161,"correct":true,"confidence":-1},{"trial_n":76,"min":73,"max":182,"target":"absent","response":"absent","rt":174,"correct":true,"confidence":-1},{"trial_n":77,"min":89,"max":166,"target":"absent","response":"absent","rt":1071.299999997,"correct":true,"confidence":-1},{"trial_n":78,"min":89,"max":166,"target":"absent","response":"absent","rt":440.10000000149,"correct":true,"confidence":-1},{"trial_n":79,"min":105,"max":150,"target":"present","response":"present","rt":542.40000000596,"correct":true,"confidence":-1},{"trial_n":80,"min":105,"max":150,"target":"absent","response":"present","rt":333.39999999851,"correct":false,"confidence":-1},{"trial_n":81,"min":97,"max":158,"target":"absent","response":"absent","rt":180.60000000149,"correct":true,"confidence":-1},{"trial_n":82,"min":97,"max":158,"target":"present","response":"absent","rt":68.39999999851,"correct":false,"confidence":-1},{"trial_n":83,"min":89,"max":166,"target":"present","response":"present","rt":322.40000000596,"correct":true,"confidence":-1},{"trial_n":84,"min":89,"max":166,"target":"absent","response":"absent","rt":441.19999999553,"correct":true,"confidence":-1},{"trial_n":85,"min":97,"max":158,"target":"present","response":"absent","rt":364,"correct":false,"confidence":-1},{"trial_n":86,"min":89,"max":166,"target":"present","response":"present","rt":254.19999999553,"correct":true,"confidence":-1},{"trial_n":87,"min":89,"max":166,"target":"absent","response":"absent","rt":203.79999999702,"correct":true,"confidence":-1},{"trial_n":88,"min":97,"max":158,"target":"absent","response":"present","rt":211.70000000298,"correct":false,"confidence":-1},{"trial_n":89,"min":89,"max":166,"target":"absent","response":"absent","rt":173.19999999553,"correct":true,"confidence":-1},{"trial_n":90,"min":89,"max":166,"target":"present","response":"absent","rt":55.89999999851,"correct":false,"confidence":-1},{"trial_n":91,"min":85,"max":170,"target":"absent","response":"present","rt":820.39999999851,"correct":false,"confidence":3},{"trial_n":92,"min":81,"max":174,"target":"present","response":"present","rt":296.19999999553,"correct":true,"confidence":5},{"trial_n":93,"min":81,"max":174,"target":"absent","response":"absent","rt":586.60000000149,"correct":true,"confidence":2},{"trial_n":94,"min":85,"max":170,"target":"present","response":"present","rt":212,"correct":true,"confidence":5},{"trial_n":95,"min":85,"max":170,"target":"present","response":"present","rt":122.5,"correct":true,"confidence":5},{"trial_n":96,"min":89,"max":166,"target":"present","response":"present","rt":129.60000000149,"correct":true,"confidence":5},{"trial_n":97,"min":89,"max":166,"target":"absent","response":"absent","rt":526.20000000298,"correct":true,"confidence":3},{"trial_n":98,"min":93,"max":162,"target":"present","response":"present","rt":978.89999999851,"correct":true,"confidence":3},{"trial_n":99,"min":93,"max":162,"target":"absent","response":"absent","rt":729.69999999553,"correct":true,"confidence":3},{"trial_n":100,"min":97,"max":158,"target":"present","response":"present","rt":68.20000000298,"correct":true,"confidence":1},{"trial_n":101,"min":97,"max":158,"target":"present","response":"present","rt":445.69999999553,"correct":true,"confidence":5},{"trial_n":102,"min":99,"max":156,"target":"absent","response":"present","rt":16.5,"correct":false,"confidence":5},{"trial_n":103,"min":97,"max":158,"target":"absent","response":"absent","rt":553.79999999702,"correct":true,"confidence":3},{"trial_n":104,"min":97,"max":158,"target":"absent","response":"present","rt":834.69999999553,"correct":false,"confidence":4},{"trial_n":105,"min":95,"max":160,"target":"absent","response":"present","rt":370.40000000596,"correct":false,"confidence":4},{"trial_n":106,"min":93,"max":162,"target":"absent","response":"absent","rt":347.60000000149,"correct":true,"confidence":3},{"trial_n":107,"min":93,"max":162,"target":"absent","response":"present","rt":226.20000000298,"correct":false,"confidence":3},{"trial_n":108,"min":91,"max":164,"target":"absent","response":"present","rt":153.89999999851,"correct":false,"confidence":3},{"trial_n":109,"min":89,"max":166,"target":"present","response":"present","rt":212.60000000149,"correct":true,"confidence":1},{"trial_n":110,"min":89,"max":166,"target":"absent","response":"absent","rt":661.89999999851,"correct":true,"confidence":5},{"trial_n":111,"min":90,"max":165,"target":"absent","response":"present","rt":1324.8999999985,"correct":false,"confidence":3},{"trial_n":112,"min":89,"max":166,"target":"present","response":"absent","rt":236.80000000447,"correct":false,"confidence":5},{"trial_n":113,"min":88,"max":167,"target":"absent","response":"present","rt":74.70000000298,"correct":false,"confidence":5},{"trial_n":114,"min":87,"max":168,"target":"absent","response":"present","rt":132.59999999404,"correct":false,"confidence":5},{"trial_n":115,"min":86,"max":169,"target":"present","response":"present","rt":31.60000000149,"correct":true,"confidence":5},{"trial_n":116,"min":86,"max":169,"target":"present","response":"present","rt":379.59999999404,"correct":true,"confidence":3},{"trial_n":117,"min":87,"max":168,"target":"absent","response":"absent","rt":329.59999999404,"correct":true,"confidence":4},{"trial_n":118,"min":87,"max":168,"target":"present","response":"present","rt":235.09999999404,"correct":true,"confidence":4},{"trial_n":119,"min":88,"max":167,"target":"present","response":"present","rt":295.30000000447,"correct":true,"confidence":4},{"trial_n":120,"min":88,"max":167,"target":"present","response":"present","rt":321,"correct":true,"confidence":4},{"trial_n":121,"min":89,"max":166,"target":"present","response":"present","rt":157.69999999553,"correct":true,"confidence":1},{"trial_n":122,"min":89,"max":166,"target":"absent","response":"present","rt":502.39999999851,"correct":false,"confidence":5},{"trial_n":123,"min":88,"max":167,"target":"absent","response":"present","rt":396.29999999702,"correct":false,"confidence":2},{"trial_n":124,"min":87,"max":168,"target":"absent","response":"absent","rt":283.10000000149,"correct":true,"confidence":4},{"trial_n":125,"min":87,"max":168,"target":"present","response":"present","rt":95.20000000298,"correct":true,"confidence":4},{"trial_n":126,"min":88,"max":167,"target":"present","response":"present","rt":106.60000000149,"correct":true,"confidence":5},{"trial_n":127,"min":88,"max":167,"target":"present","response":"absent","rt":346.39999999851,"correct":false,"confidence":5},{"trial_n":128,"min":87,"max":168,"target":"present","response":"present","rt":420.29999999702,"correct":true,"confidence":4},{"trial_n":129,"min":87,"max":168,"target":"present","response":"present","rt":138.69999999553,"correct":true,"confidence":5},{"trial_n":130,"min":88,"max":167,"target":"present","response":"present","rt":121.39999999851,"correct":true,"confidence":5},{"trial_n":131,"min":88,"max":167,"target":"absent","response":"present","rt":474.40000000596,"correct":false,"confidence":1},{"trial_n":132,"min":87,"max":168,"target":"present","response":"present","rt":385,"correct":true,"confidence":3},{"trial_n":133,"min":87,"max":168,"target":"present","response":"present","rt":61,"correct":true,"confidence":4},{"trial_n":134,"min":88,"max":167,"target":"present","response":"present","rt":519.79999999702,"correct":true,"confidence":4},{"trial_n":135,"min":88,"max":167,"target":"absent","response":"present","rt":75.59999999404,"correct":false,"confidence":5},{"trial_n":136,"min":87,"max":168,"target":"absent","response":"present","rt":90,"correct":false,"confidence":2},{"trial_n":137,"min":86,"max":169,"target":"present","response":"present","rt":124.60000000149,"correct":true,"confidence":5},{"trial_n":138,"min":86,"max":169,"target":"present","response":"present","rt":144.70000000298,"correct":true,"confidence":5},{"trial_n":139,"min":87,"max":168,"target":"absent","response":"absent","rt":378.19999999553,"correct":true,"confidence":3},{"trial_n":140,"min":87,"max":168,"target":"present","response":"present","rt":206.60000000149,"correct":true,"confidence":3}]