[{"trial_n":1,"n_dots":4.25,"target":"right","response":"left","rt":2881.099999994,"correct":false,"confidence":-1},{"trial_n":2,"n_dots":4.25,"target":"left","response":"left","rt":1075.5,"correct":true,"confidence":-1},{"trial_n":3,"n_dots":4.25,"target":"left","response":"left","rt":788.39999999851,"correct":true,"confidence":-1},{"trial_n":4,"n_dots":3.85,"target":"left","response":"left","rt":373,"correct":true,"confidence":-1},{"trial_n":5,"n_dots":3.85,"target":"right","response":"right","rt":384.09999999404,"correct":true,"confidence":-1},{"trial_n":6,"n_dots":3.45,"target":"right","response":"right","rt":453.79999999702,"correct":true,"confidence":-1},{"trial_n":7,"n_dots":3.45,"target":"left","response":"left","rt":457.5,"correct":true,"confidence":-1},{"trial_n":8,"n_dots":3.25,"target":"right","response":"right","rt":394.39999999851,"correct":true,"confidence":-1},{"trial_n":9,"n_dots":3.25,"target":"left","response":"left","rt":329.80000000447,"correct":true,"confidence":-1},{"trial_n":10,"n_dots":3.05,"target":"right","response":"right","rt":308.80000000447,"correct":true,"confidence":-1},{"trial_n":11,"n_dots":3.05,"target":"left","response":"left","rt":374.30000000447,"correct":true,"confidence":-1},{"trial_n":12,"n_dots":2.85,"target":"left","response":"left","rt":362.20000000298,"correct":true,"confidence":-1},{"trial_n":13,"n_dots":2.85,"target":"right","response":"right","rt":519.5,"correct":true,"confidence":-1},{"trial_n":14,"n_dots":2.75,"target":"left","response":"left","rt":406.30000000447,"correct":true,"confidence":-1},{"trial_n":15,"n_dots":2.75,"target":"right","response":"right","rt":379.10000000149,"correct":true,"confidence":-1},{"trial_n":16,"n_dots":2.65,"target":"left","response":"left","rt":313.69999999553,"correct":true,"confidence":-1},{"trial_n":17,"n_dots":2.65,"target":"right","response":"right","rt":318.10000000149,"correct":true,"confidence":-1},{"trial_n":18,"n_dots":2.55,"target":"right","response":"right","rt":346.10000000149,"correct":true,"confidence":-1},{"trial_n":19,"n_dots":2.55,"target":"right","response":"left","rt":305.39999999851,"correct":false,"confidence":-1},{"trial_n":20,"n_dots":2.65,"target":"right","response":"right","rt":1018.1000000015,"correct":true,"confidence":-1},{"trial_n":21,"n_dots":2.65,"target":"left","response":"right","rt":1041.8999999985,"correct":false,"confidence":5},{"trial_n":22,"n_dots":2.75,"target":"right","response":"right","rt":1375,"correct":true,"confidence":5},{"trial_n":23,"n_dots":2.75,"target":"right","response":"right","rt":1212.799999997,"correct":true,"confidence":4},{"trial_n":24,"n_dots":2.65,"target":"left","response":"left","rt":1337.3999999985,"correct":true,"confidence":4},{"trial_n":25,"n_dots":2.65,"target":"right","response":"right","rt":319.10000000149,"correct":true,"confidence":5},{"trial_n":26,"n_dots":2.55,"target":"left","response":"left","rt":1691,"correct":true,"confidence":5},{"trial_n":27,"n_dots":2.55,"target":"right","response":"left","rt":2957.3999999985,"correct":false,"confidence":4},{"trial_n":28,"n_dots":2.65,"target":"left","response":"right","rt":2406.6000000015,"correct":false,"confidence":5},{"trial_n":29,"n_dots":2.75,"target":"left","response":"left","rt":5203.200000003,"correct":true,"confidence":5},{"trial_n":30,"n_dots":2.75,"target":"right","response":"left","rt":4793.299999997,"correct":false,"confidence":5},{"trial_n":31,"n_dots":2.85,"target":"right","response":"right","rt":2653.8999999985,"correct":true,"confidence":5},{"trial_n":32,"n_dots":2.85,"target":"left","response":"left","rt":1422.200000003,"correct":true,"confidence":5},{"trial_n":33,"n_dots":2.75,"target":"left","response":"right","rt":2111.1000000015,"correct":false,"confidence":5},{"trial_n":34,"n_dots":2.85,"target":"left","response":"right","rt":2506.1999999955,"correct":false,"confidence":4},{"trial_n":35,"n_dots":2.95,"target":"left","response":"left","rt":1582.8999999985,"correct":true,"confidence":5},{"trial_n":36,"n_dots":2.95,"target":"right","response":"right","rt":1043.6000000015,"correct":true,"confidence":5},{"trial_n":37,"n_dots":2.85,"target":"right","response":"right","rt":443.70000000298,"correct":true,"confidence":5},{"trial_n":38,"n_dots":2.85,"target":"left","response":"left","rt":595.30000000447,"correct":true,"confidence":5},{"trial_n":39,"n_dots":2.75,"target":"left","response":"left","rt":947.5,"correct":true,"confidence":5},{"trial_n":40,"n_dots":2.75,"target":"right","response":"right","rt":713.60000000149,"correct":true,"confidence":5},{"trial_n":41,"n_dots":2.65,"target":"right","response":"right","rt":906.10000000149,"correct":true,"confidence":5},{"trial_n":42,"n_dots":2.65,"target":"right","response":"right","rt":698.30000000447,"correct":true,"confidence":5},{"trial_n":43,"n_dots":2.55,"target":"right","response":"left","rt":497.89999999851,"correct":false,"confidence":5},{"trial_n":44,"n_dots":2.65,"target":"right","response":"right","rt":414.79999999702,"correct":true,"confidence":5},{"trial_n":45,"n_dots":2.65,"target":"left","response":"right","rt":1381.299999997,"correct":false,"confidence":5},{"trial_n":46,"n_dots":2.75,"target":"right","response":"right","rt":1056.299999997,"correct":true,"confidence":5},{"trial_n":47,"n_dots":2.75,"target":"right","response":"left","rt":1727.1000000015,"correct":false,"confidence":5},{"trial_n":48,"n_dots":2.85,"target":"left","response":"right","rt":1807.299999997,"correct":false,"confidence":5},{"trial_n":49,"n_dots":2.95,"target":"right","response":"left","rt":1962.700000003,"correct":false,"confidence":5},{"trial_n":50,"n_dots":3.05,"target":"left","response":"right","rt":1196.700000003,"correct":false,"confidence":5},{"trial_n":51,"n_dots":3.15,"target":"left","response":"left","rt":3089.1999999955,"correct":true,"confidence":4},{"trial_n":52,"n_dots":3.15,"target":"right","response":"right","rt":467.70000000298,"correct":true,"confidence":5},{"trial_n":53,"n_dots":3.05,"target":"left","response":"right","rt":712.29999999702,"correct":false,"confidence":5},{"trial_n":54,"n_dots":3.15,"target":"left","response":"right","rt":323.60000000149,"correct":false,"confidence":5},{"trial_n":55,"n_dots":3.25,"target":"left","response":"right","rt":746.59999999404,"correct":false,"confidence":5},{"trial_n":56,"n_dots":3.35,"target":"left","response":"right","rt":389,"correct":false,"confidence":5},{"trial_n":57,"n_dots":3.45,"target":"right","response":"right","rt":1532.1999999955,"correct":true,"confidence":5},{"trial_n":58,"n_dots":3.45,"target":"right","response":"right","rt":3079.3000000045,"correct":true,"confidence":5},{"trial_n":59,"n_dots":3.35,"target":"left","response":"left","rt":1073.599999994,"correct":true,"confidence":5},{"trial_n":60,"n_dots":3.35,"target":"right","response":"right","rt":575,"correct":true,"confidence":5},{"trial_n":61,"n_dots":3.25,"target":"left","response":"left","rt":4027.1000000015,"correct":true,"confidence":5},{"trial_n":62,"n_dots":3.25,"target":"left","response":"left","rt":1184.8999999985,"correct":true,"confidence":5},{"trial_n":63,"n_dots":3.15,"target":"right","response":"right","rt":555.20000000298,"correct":true,"confidence":5},{"trial_n":64,"n_dots":3.15,"target":"left","response":"left","rt":826.60000000149,"correct":true,"confidence":5},{"trial_n":65,"n_dots":3.05,"target":"right","response":"right","rt":109.19999999553,"correct":true,"confidence":5},{"trial_n":66,"n_dots":3.05,"target":"right","response":"right","rt":294.90000000596,"correct":true,"confidence":5},{"trial_n":67,"n_dots":2.95,"target":"left","response":"left","rt":706.10000000149,"correct":true,"confidence":5},{"trial_n":68,"n_dots":2.95,"target":"right","response":"right","rt":399.60000000149,"correct":true,"confidence":5},{"trial_n":69,"n_dots":2.85,"target":"left","response":"right","rt":464,"correct":false,"confidence":5},{"trial_n":70,"n_dots":2.95,"target":"right","response":"left","rt":1056.8999999985,"correct":false,"confidence":4},{"trial_n":71,"n_dots":3.05,"target":"right","response":"right","rt":270.79999999702,"correct":true,"confidence":5},{"trial_n":72,"n_dots":3.05,"target":"left","response":"left","rt":489.20000000298,"correct":true,"confidence":5},{"trial_n":73,"n_dots":2.95,"target":"left","response":"left","rt":321.29999999702,"correct":true,"confidence":5},{"trial_n":74,"n_dots":2.95,"target":"left","response":"left","rt":271.19999999553,"correct":true,"confidence":5},{"trial_n":75,"n_dots":2.85,"target":"right","response":"right","rt":325,"correct":true,"confidence":5},{"trial_n":76,"n_dots":2.85,"target":"left","response":"left","rt":605.89999999851,"correct":true,"confidence":5},{"trial_n":77,"n_dots":2.75,"target":"right","response":"right","rt":290,"correct":true,"confidence":5},{"trial_n":78,"n_dots":2.75,"target":"right","response":"left","rt":280.80000000447,"correct":false,"confidence":5},{"trial_n":79,"n_dots":2.85,"target":"right","response":"right","rt":310.39999999851,"correct":true,"confidence":5},{"trial_n":80,"n_dots":2.85,"target":"left","response":"left","rt":317.79999999702,"correct":true,"confidence":5},{"trial_n":81,"n_dots":2.75,"target":"left","response":"right","rt":268.39999999851,"correct":false,"confidence":5},{"trial_n":82,"n_dots":2.85,"target":"right","response":"left","rt":416.60000000149,"correct":false,"confidence":5},{"trial_n":83,"n_dots":2.95,"target":"right","response":"right","rt":397.89999999851,"correct":true,"confidence":5},{"trial_n":84,"n_dots":2.95,"target":"left","response":"left","rt":413.60000000149,"correct":true,"confidence":5},{"trial_n":85,"n_dots":2.85,"target":"right","response":"right","rt":231.39999999851,"correct":true,"confidence":5},{"trial_n":86,"n_dots":2.85,"target":"left","response":"left","rt":354.20000000298,"correct":true,"confidence":2},{"trial_n":87,"n_dots":2.75,"target":"left","response":"right","rt":259.79999999702,"correct":false,"confidence":5},{"trial_n":88,"n_dots":2.85,"target":"left","response":"left","rt":464.89999999851,"correct":true,"confidence":4},{"trial_n":89,"n_dots":2.85,"target":"left","response":"right","rt":913.39999999851,"correct":false,"confidence":4},{"trial_n":90,"n_dots":2.95,"target":"left","response":"left","rt":299.29999999702,"correct":true,"confidence":5},{"trial_n":91,"n_dots":2.95,"target":"right","response":"right","rt":308.89999999851,"correct":true,"confidence":5},{"trial_n":92,"n_dots":2.85,"target":"left","response":"left","rt":351.10000000149,"correct":true,"confidence":5},{"trial_n":93,"n_dots":2.85,"target":"right","response":"right","rt":643.5,"correct":true,"confidence":5},{"trial_n":94,"n_dots":2.75,"target":"right","response":"right","rt":333.10000000149,"correct":true,"confidence":5},{"trial_n":95,"n_dots":2.75,"target":"left","response":"left","rt":584,"correct":true,"confidence":5},{"trial_n":96,"n_dots":2.65,"target":"right","response":"right","rt":282.5,"correct":true,"confidence":5},{"trial_n":97,"n_dots":2.65,"target":"left","response":"right","rt":550.29999999702,"correct":false,"confidence":5},{"trial_n":98,"n_dots":2.75,"target":"left","response":"right","rt":233.5,"correct":false,"confidence":5},{"trial_n":99,"n_dots":2.85,"target":"right","response":"right","rt":713.5,"correct":true,"confidence":5},{"trial_n":100,"n_dots":2.85,"target":"left","response":"right","rt":264.5,"correct":false,"confidence":5},{"trial_n":101,"n_dots":2.95,"target":"left","response":"left","rt":383.29999999702,"correct":true,"confidence":4},{"trial_n":102,"n_dots":2.95,"target":"left","response":"left","rt":327.19999999553,"correct":true,"confidence":5},{"trial_n":103,"n_dots":2.85,"target":"right","response":"right","rt":275,"correct":true,"confidence":4},{"trial_n":104,"n_dots":2.85,"target":"right","response":"right","rt":225.40000000596,"correct":true,"confidence":5},{"trial_n":105,"n_dots":2.75,"target":"left","response":"left","rt":278.70000000298,"correct":true,"confidence":5},{"trial_n":106,"n_dots":2.75,"target":"left","response":"right","rt":221.5,"correct":false,"confidence":5},{"trial_n":107,"n_dots":2.85,"target":"left","response":"left","rt":415,"correct":true,"confidence":4},{"trial_n":108,"n_dots":2.85,"target":"right","response":"right","rt":284.10000000149,"correct":true,"confidence":4},{"trial_n":109,"n_dots":2.75,"target":"right","response":"right","rt":124.60000000149,"correct":true,"confidence":5},{"trial_n":110,"n_dots":2.75,"target":"right","response":"left","rt":258.19999999553,"correct":false,"confidence":5},{"trial_n":111,"n_dots":2.85,"target":"right","response":"right","rt":316.90000000596,"correct":true,"confidence":5},{"trial_n":112,"n_dots":2.85,"target":"right","response":"right","rt":248.5,"correct":true,"confidence":4},{"trial_n":113,"n_dots":2.75,"target":"right","response":"left","rt":143,"correct":false,"confidence":4},{"trial_n":114,"n_dots":2.85,"target":"right","response":"right","rt":396.19999999553,"correct":true,"confidence":5},{"trial_n":115,"n_dots":2.85,"target":"left","response":"right","rt":764.5,"correct":false,"confidence":1},{"trial_n":116,"n_dots":2.95,"target":"left","response":"right","rt":681.70000000298,"correct":false,"confidence":5},{"trial_n":117,"n_dots":3.05,"target":"left","response":"left","rt":706.10000000149,"correct":true,"confidence":4},{"trial_n":118,"n_dots":3.05,"target":"left","response":"right","rt":296.90000000596,"correct":false,"confidence":5},{"trial_n":119,"n_dots":3.15,"target":"right","response":"right","rt":587.29999999702,"correct":true,"confidence":4},{"trial_n":120,"n_dots":3.15,"target":"right","response":"right","rt":226.39999999851,"correct":true,"confidence":5}]