[{"trial_n":1,"n_dots":4.25,"target":"left","response":"left","rt":6312,"correct":true,"confidence":-1},{"trial_n":2,"n_dots":4.25,"target":"left","response":"left","rt":2038.5,"correct":true,"confidence":-1},{"trial_n":3,"n_dots":3.85,"target":"left","response":"left","rt":1843.200000003,"correct":true,"confidence":-1},{"trial_n":4,"n_dots":3.85,"target":"right","response":"left","rt":3614,"correct":false,"confidence":-1},{"trial_n":5,"n_dots":4.25,"target":"right","response":"right","rt":1762.599999994,"correct":true,"confidence":-1},{"trial_n":6,"n_dots":4.25,"target":"right","response":"right","rt":446.5,"correct":true,"confidence":-1},{"trial_n":7,"n_dots":3.85,"target":"right","response":"right","rt":349.19999998808,"correct":true,"confidence":-1},{"trial_n":8,"n_dots":3.85,"target":"right","response":"right","rt":494.09999999404,"correct":true,"confidence":-1},{"trial_n":9,"n_dots":3.65,"target":"left","response":"left","rt":400.29999999702,"correct":true,"confidence":-1},{"trial_n":10,"n_dots":3.65,"target":"right","response":"right","rt":406.09999999404,"correct":true,"confidence":-1},{"trial_n":11,"n_dots":3.45,"target":"left","response":"left","rt":391,"correct":true,"confidence":-1},{"trial_n":12,"n_dots":3.45,"target":"right","response":"right","rt":457.29999999702,"correct":true,"confidence":-1},{"trial_n":13,"n_dots":3.35,"target":"left","response":"left","rt":348.59999999404,"correct":true,"confidence":-1},{"trial_n":14,"n_dots":3.35,"target":"left","response":"right","rt":651.60000000894,"correct":false,"confidence":-1},{"trial_n":15,"n_dots":3.45,"target":"right","response":"right","rt":290.89999999106,"correct":true,"confidence":-1},{"trial_n":16,"n_dots":3.45,"target":"left","response":"left","rt":730.70000000298,"correct":true,"confidence":-1},{"trial_n":17,"n_dots":3.35,"target":"right","response":"right","rt":291.19999998808,"correct":true,"confidence":-1},{"trial_n":18,"n_dots":3.35,"target":"right","response":"right","rt":318.60000000894,"correct":true,"confidence":-1},{"trial_n":19,"n_dots":3.25,"target":"left","response":"left","rt":416.70000000298,"correct":true,"confidence":-1},{"trial_n":20,"n_dots":3.25,"target":"left","response":"right","rt":557.19999998808,"correct":false,"confidence":-1},{"trial_n":21,"n_dots":3.35,"target":"right","response":"left","rt":376.5,"correct":false,"confidence":3},{"trial_n":22,"n_dots":3.45,"target":"right","response":"right","rt":315.40000000596,"correct":true,"confidence":4},{"trial_n":23,"n_dots":3.45,"target":"right","response":"right","rt":389.19999998808,"correct":true,"confidence":4},{"trial_n":24,"n_dots":3.35,"target":"left","response":"left","rt":348,"correct":true,"confidence":5},{"trial_n":25,"n_dots":3.35,"target":"right","response":"right","rt":628.5,"correct":true,"confidence":3},{"trial_n":26,"n_dots":3.25,"target":"right","response":"right","rt":942.40000000596,"correct":true,"confidence":1},{"trial_n":27,"n_dots":3.25,"target":"right","response":"right","rt":335.90000000596,"correct":true,"confidence":4},{"trial_n":28,"n_dots":3.15,"target":"right","response":"right","rt":392.5,"correct":true,"confidence":3},{"trial_n":29,"n_dots":3.15,"target":"right","response":"left","rt":502.29999999702,"correct":false,"confidence":3},{"trial_n":30,"n_dots":3.25,"target":"right","response":"right","rt":495.09999999404,"correct":true,"confidence":4},{"trial_n":31,"n_dots":3.25,"target":"right","response":"left","rt":1219.200000003,"correct":false,"confidence":4},{"trial_n":32,"n_dots":3.35,"target":"left","response":"left","rt":394.40000000596,"correct":true,"confidence":4},{"trial_n":33,"n_dots":3.35,"target":"left","response":"left","rt":331.29999999702,"correct":true,"confidence":5},{"trial_n":34,"n_dots":3.25,"target":"left","response":"left","rt":369.29999999702,"correct":true,"confidence":5},{"trial_n":35,"n_dots":3.25,"target":"left","response":"left","rt":351.5,"correct":true,"confidence":5},{"trial_n":36,"n_dots":3.15,"target":"left","response":"left","rt":636.29999999702,"correct":true,"confidence":5},{"trial_n":37,"n_dots":3.15,"target":"left","response":"left","rt":598,"correct":true,"confidence":5},{"trial_n":38,"n_dots":3.05,"target":"right","response":"left","rt":648.40000000596,"correct":false,"confidence":4},{"trial_n":39,"n_dots":3.15,"target":"right","response":"left","rt":500.20000000298,"correct":false,"confidence":3},{"trial_n":40,"n_dots":3.25,"target":"left","response":"left","rt":345.79999999702,"correct":true,"confidence":4},{"trial_n":41,"n_dots":3.25,"target":"right","response":"right","rt":773,"correct":true,"confidence":3},{"trial_n":42,"n_dots":3.15,"target":"left","response":"left","rt":740.89999999106,"correct":true,"confidence":2},{"trial_n":43,"n_dots":3.15,"target":"right","response":"left","rt":1422.200000003,"correct":false,"confidence":3},{"trial_n":44,"n_dots":3.25,"target":"left","response":"left","rt":392.80000001192,"correct":true,"confidence":5},{"trial_n":45,"n_dots":3.25,"target":"right","response":"left","rt":1424.700000003,"correct":false,"confidence":2},{"trial_n":46,"n_dots":3.35,"target":"right","response":"right","rt":566.59999999404,"correct":true,"confidence":4},{"trial_n":47,"n_dots":3.35,"target":"right","response":"left","rt":1244.700000003,"correct":false,"confidence":3},{"trial_n":48,"n_dots":3.45,"target":"right","response":"left","rt":690.79999999702,"correct":false,"confidence":2},{"trial_n":49,"n_dots":3.55,"target":"right","response":"left","rt":1183.5,"correct":false,"confidence":2},{"trial_n":50,"n_dots":3.65,"target":"left","response":"left","rt":424.09999999404,"correct":true,"confidence":4},{"trial_n":51,"n_dots":3.65,"target":"right","response":"right","rt":1371.1000000089,"correct":true,"confidence":2},{"trial_n":52,"n_dots":3.55,"target":"right","response":"left","rt":506.59999999404,"correct":false,"confidence":3},{"trial_n":53,"n_dots":3.65,"target":"right","response":"right","rt":489.20000000298,"correct":true,"confidence":3},{"trial_n":54,"n_dots":3.65,"target":"left","response":"left","rt":584.79999999702,"correct":true,"confidence":4},{"trial_n":55,"n_dots":3.55,"target":"right","response":"left","rt":909.89999999106,"correct":false,"confidence":2},{"trial_n":56,"n_dots":3.65,"target":"right","response":"left","rt":925.09999999404,"correct":false,"confidence":2},{"trial_n":57,"n_dots":3.75,"target":"left","response":"left","rt":522.5,"correct":true,"confidence":5},{"trial_n":58,"n_dots":3.75,"target":"right","response":"right","rt":708.89999999106,"correct":true,"confidence":3},{"trial_n":59,"n_dots":3.65,"target":"right","response":"left","rt":481.39999999106,"correct":false,"confidence":3},{"trial_n":60,"n_dots":3.75,"target":"left","response":"left","rt":371.69999998808,"correct":true,"confidence":4},{"trial_n":61,"n_dots":3.75,"target":"left","response":"left","rt":1985.099999994,"correct":true,"confidence":3},{"trial_n":62,"n_dots":3.65,"target":"right","response":"left","rt":684.70000000298,"correct":false,"confidence":4},{"trial_n":63,"n_dots":3.75,"target":"left","response":"left","rt":766.40000000596,"correct":true,"confidence":4},{"trial_n":64,"n_dots":3.75,"target":"right","response":"right","rt":1325.200000003,"correct":true,"confidence":3},{"trial_n":65,"n_dots":3.65,"target":"left","response":"left","rt":904.59999999404,"correct":true,"confidence":5},{"trial_n":66,"n_dots":3.65,"target":"right","response":"right","rt":838.40000000596,"correct":true,"confidence":4},{"trial_n":67,"n_dots":3.55,"target":"left","response":"left","rt":1030.8000000119,"correct":true,"confidence":5},{"trial_n":68,"n_dots":3.55,"target":"left","response":"left","rt":661.5,"correct":true,"confidence":5},{"trial_n":69,"n_dots":3.45,"target":"left","response":"left","rt":559.59999999404,"correct":true,"confidence":5},{"trial_n":70,"n_dots":3.45,"target":"left","response":"left","rt":695.89999999106,"correct":true,"confidence":5},{"trial_n":71,"n_dots":3.35,"target":"left","response":"right","rt":848.70000000298,"correct":false,"confidence":4},{"trial_n":72,"n_dots":3.45,"target":"right","response":"right","rt":1658.400000006,"correct":true,"confidence":2},{"trial_n":73,"n_dots":3.45,"target":"right","response":"right","rt":2356.099999994,"correct":true,"confidence":3},{"trial_n":74,"n_dots":3.35,"target":"right","response":"left","rt":1294.6999999881,"correct":false,"confidence":4},{"trial_n":75,"n_dots":3.45,"target":"right","response":"right","rt":878.70000000298,"correct":true,"confidence":5},{"trial_n":76,"n_dots":3.45,"target":"left","response":"left","rt":315.39999999106,"correct":true,"confidence":5},{"trial_n":77,"n_dots":3.35,"target":"left","response":"left","rt":665.29999999702,"correct":true,"confidence":5},{"trial_n":78,"n_dots":3.35,"target":"left","response":"left","rt":1242.099999994,"correct":true,"confidence":5},{"trial_n":79,"n_dots":3.25,"target":"left","response":"left","rt":1384.1999999881,"correct":true,"confidence":5},{"trial_n":80,"n_dots":3.25,"target":"right","response":"right","rt":1135.1999999881,"correct":true,"confidence":5},{"trial_n":81,"n_dots":3.15,"target":"right","response":"left","rt":833.39999999106,"correct":false,"confidence":5},{"trial_n":82,"n_dots":3.25,"target":"right","response":"left","rt":510.30000001192,"correct":false,"confidence":4},{"trial_n":83,"n_dots":3.35,"target":"left","response":"right","rt":1233.700000003,"correct":false,"confidence":2},{"trial_n":84,"n_dots":3.45,"target":"left","response":"left","rt":624.10000000894,"correct":true,"confidence":5},{"trial_n":85,"n_dots":3.45,"target":"left","response":"left","rt":728.10000000894,"correct":true,"confidence":5},{"trial_n":86,"n_dots":3.35,"target":"left","response":"left","rt":824.5,"correct":true,"confidence":5},{"trial_n":87,"n_dots":3.35,"target":"right","response":"right","rt":1381.299999997,"correct":true,"confidence":4},{"trial_n":88,"n_dots":3.25,"target":"left","response":"left","rt":1486.900000006,"correct":true,"confidence":4},{"trial_n":89,"n_dots":3.25,"target":"right","response":"right","rt":893.29999999702,"correct":true,"confidence":4},{"trial_n":90,"n_dots":3.15,"target":"left","response":"left","rt":523,"correct":true,"confidence":4},{"trial_n":91,"n_dots":3.15,"target":"left","response":"left","rt":713.20000000298,"correct":true,"confidence":5},{"trial_n":92,"n_dots":3.05,"target":"left","response":"left","rt":855,"correct":true,"confidence":4},{"trial_n":93,"n_dots":3.05,"target":"left","response":"right","rt":810.19999998808,"correct":false,"confidence":3},{"trial_n":94,"n_dots":3.15,"target":"right","response":"right","rt":1129.1999999881,"correct":true,"confidence":5},{"trial_n":95,"n_dots":3.15,"target":"left","response":"left","rt":867.20000000298,"correct":true,"confidence":5},{"trial_n":96,"n_dots":3.05,"target":"right","response":"right","rt":2348.5,"correct":true,"confidence":2},{"trial_n":97,"n_dots":3.05,"target":"left","response":"left","rt":914,"correct":true,"confidence":3},{"trial_n":98,"n_dots":2.95,"target":"left","response":"left","rt":871,"correct":true,"confidence":4},{"trial_n":99,"n_dots":2.95,"target":"left","response":"left","rt":830.90000000596,"correct":true,"confidence":3},{"trial_n":100,"n_dots":2.85,"target":"right","response":"right","rt":1703,"correct":true,"confidence":4},{"trial_n":101,"n_dots":2.85,"target":"right","response":"right","rt":1033.3999999911,"correct":true,"confidence":4},{"trial_n":102,"n_dots":2.75,"target":"left","response":"left","rt":885.90000000596,"correct":true,"confidence":4},{"trial_n":103,"n_dots":2.75,"target":"left","response":"left","rt":912.60000000894,"correct":true,"confidence":4},{"trial_n":104,"n_dots":2.65,"target":"right","response":"left","rt":1762.200000003,"correct":false,"confidence":2},{"trial_n":105,"n_dots":2.75,"target":"left","response":"left","rt":806.59999999404,"correct":true,"confidence":4},{"trial_n":106,"n_dots":2.75,"target":"left","response":"right","rt":1652.700000003,"correct":false,"confidence":2},{"trial_n":107,"n_dots":2.85,"target":"left","response":"left","rt":998.59999999404,"correct":true,"confidence":5},{"trial_n":108,"n_dots":2.85,"target":"right","response":"right","rt":792,"correct":true,"confidence":4},{"trial_n":109,"n_dots":2.75,"target":"left","response":"right","rt":1270.1999999881,"correct":false,"confidence":4},{"trial_n":110,"n_dots":2.85,"target":"left","response":"left","rt":649,"correct":true,"confidence":5},{"trial_n":111,"n_dots":2.85,"target":"left","response":"left","rt":911.19999998808,"correct":true,"confidence":2},{"trial_n":112,"n_dots":2.75,"target":"right","response":"right","rt":1691.1000000089,"correct":true,"confidence":2},{"trial_n":113,"n_dots":2.75,"target":"right","response":"left","rt":732.39999999106,"correct":false,"confidence":3},{"trial_n":114,"n_dots":2.85,"target":"right","response":"right","rt":1456.299999997,"correct":true,"confidence":3},{"trial_n":115,"n_dots":2.85,"target":"right","response":"left","rt":725.60000000894,"correct":false,"confidence":3},{"trial_n":116,"n_dots":2.95,"target":"left","response":"right","rt":750.09999999404,"correct":false,"confidence":4},{"trial_n":117,"n_dots":3.05,"target":"left","response":"right","rt":1205.400000006,"correct":false,"confidence":4},{"trial_n":118,"n_dots":3.15,"target":"right","response":"right","rt":671.89999999106,"correct":true,"confidence":4},{"trial_n":119,"n_dots":3.15,"target":"right","response":"right","rt":2677.099999994,"correct":true,"confidence":4},{"trial_n":120,"n_dots":3.05,"target":"left","response":"left","rt":586.10000000894,"correct":true,"confidence":4}]