[{"trial_n":1,"min":25,"max":230,"target":"present","response":"absent","rt":2449.900000006,"correct":false,"confidence":-1},{"trial_n":2,"min":25,"max":230,"target":"present","response":"present","rt":1793.7000000179,"correct":true,"confidence":-1},{"trial_n":3,"min":25,"max":230,"target":"absent","response":"absent","rt":1138.599999994,"correct":true,"confidence":-1},{"trial_n":4,"min":41,"max":214,"target":"absent","response":"absent","rt":607.40000000596,"correct":true,"confidence":-1},{"trial_n":5,"min":41,"max":214,"target":"present","response":"present","rt":795.90000000596,"correct":true,"confidence":-1},{"trial_n":6,"min":57,"max":198,"target":"absent","response":"absent","rt":634.20000001788,"correct":true,"confidence":-1},{"trial_n":7,"min":57,"max":198,"target":"absent","response":"absent","rt":533.80000001192,"correct":true,"confidence":-1},{"trial_n":8,"min":73,"max":182,"target":"present","response":"present","rt":784.5,"correct":true,"confidence":-1},{"trial_n":9,"min":73,"max":182,"target":"present","response":"present","rt":591.90000000596,"correct":true,"confidence":-1},{"trial_n":10,"min":89,"max":166,"target":"absent","response":"absent","rt":726.20000001788,"correct":true,"confidence":-1},{"trial_n":11,"min":89,"max":166,"target":"present","response":"present","rt":706.5,"correct":true,"confidence":-1},{"trial_n":12,"min":97,"max":158,"target":"present","response":"absent","rt":628.19999998808,"correct":false,"confidence":-1},{"trial_n":13,"min":89,"max":166,"target":"present","response":"absent","rt":522.5,"correct":false,"confidence":-1},{"trial_n":14,"min":81,"max":174,"target":"present","response":"absent","rt":650,"correct":false,"confidence":-1},{"trial_n":15,"min":73,"max":182,"target":"absent","response":"absent","rt":591.59999999404,"correct":true,"confidence":-1},{"trial_n":16,"min":73,"max":182,"target":"absent","response":"absent","rt":532.40000000596,"correct":true,"confidence":-1},{"trial_n":17,"min":81,"max":174,"target":"present","response":"present","rt":681,"correct":true,"confidence":-1},{"trial_n":18,"min":81,"max":174,"target":"absent","response":"absent","rt":634.30000001192,"correct":true,"confidence":-1},{"trial_n":19,"min":89,"max":166,"target":"present","response":"absent","rt":411.80000001192,"correct":false,"confidence":-1},{"trial_n":20,"min":81,"max":174,"target":"present","response":"absent","rt":359.19999998808,"correct":false,"confidence":-1},{"trial_n":21,"min":77,"max":178,"target":"absent","response":"absent","rt":2010.599999994,"correct":true,"confidence":2},{"trial_n":22,"min":77,"max":178,"target":"present","response":"present","rt":871.10000002384,"correct":true,"confidence":3},{"trial_n":23,"min":81,"max":174,"target":"absent","response":"absent","rt":1173.099999994,"correct":true,"confidence":5},{"trial_n":24,"min":81,"max":174,"target":"absent","response":"absent","rt":841.5,"correct":true,"confidence":5},{"trial_n":25,"min":85,"max":170,"target":"present","response":"absent","rt":624.59999999404,"correct":false,"confidence":5},{"trial_n":26,"min":81,"max":174,"target":"absent","response":"present","rt":989.30000001192,"correct":false,"confidence":3},{"trial_n":27,"min":77,"max":178,"target":"present","response":"present","rt":1007.900000006,"correct":true,"confidence":2},{"trial_n":28,"min":77,"max":178,"target":"absent","response":"absent","rt":815.69999998808,"correct":true,"confidence":4},{"trial_n":29,"min":81,"max":174,"target":"present","response":"present","rt":1334.2000000179,"correct":true,"confidence":4},{"trial_n":30,"min":81,"max":174,"target":"absent","response":"absent","rt":1215.599999994,"correct":true,"confidence":3},{"trial_n":31,"min":83,"max":172,"target":"absent","response":"absent","rt":990.29999998212,"correct":true,"confidence":2},{"trial_n":32,"min":83,"max":172,"target":"present","response":"present","rt":899.59999999404,"correct":true,"confidence":2},{"trial_n":33,"min":85,"max":170,"target":"present","response":"absent","rt":864.5,"correct":false,"confidence":2},{"trial_n":34,"min":83,"max":172,"target":"present","response":"present","rt":1047.900000006,"correct":true,"confidence":3},{"trial_n":35,"min":83,"max":172,"target":"absent","response":"present","rt":1340.3999999762,"correct":false,"confidence":3},{"trial_n":36,"min":81,"max":174,"target":"absent","response":"absent","rt":911.40000000596,"correct":true,"confidence":3},{"trial_n":37,"min":81,"max":174,"target":"present","response":"present","rt":1030.1999999881,"correct":true,"confidence":5},{"trial_n":38,"min":83,"max":172,"target":"absent","response":"absent","rt":1229.099999994,"correct":true,"confidence":3},{"trial_n":39,"min":83,"max":172,"target":"absent","response":"absent","rt":948.09999999404,"correct":true,"confidence":2},{"trial_n":40,"min":85,"max":170,"target":"absent","response":"absent","rt":809.5,"correct":true,"confidence":2},{"trial_n":41,"min":85,"max":170,"target":"absent","response":"absent","rt":3248.1999999881,"correct":true,"confidence":2},{"trial_n":42,"min":86,"max":169,"target":"present","response":"present","rt":862.80000001192,"correct":true,"confidence":4},{"trial_n":43,"min":86,"max":169,"target":"absent","response":"absent","rt":1075.5,"correct":true,"confidence":3},{"trial_n":44,"min":87,"max":168,"target":"present","response":"present","rt":2009.8000000119,"correct":true,"confidence":4},{"trial_n":45,"min":87,"max":168,"target":"present","response":"present","rt":874.5,"correct":true,"confidence":2},{"trial_n":46,"min":88,"max":167,"target":"present","response":"present","rt":1480.6999999881,"correct":true,"confidence":2},{"trial_n":47,"min":88,"max":167,"target":"absent","response":"absent","rt":1006.1999999881,"correct":true,"confidence":4},{"trial_n":48,"min":89,"max":166,"target":"absent","response":"absent","rt":780.10000002384,"correct":true,"confidence":4},{"trial_n":49,"min":89,"max":166,"target":"present","response":"present","rt":800.80000001192,"correct":true,"confidence":4},{"trial_n":50,"min":90,"max":165,"target":"absent","response":"present","rt":2187.8000000119,"correct":false,"confidence":3},{"trial_n":51,"min":89,"max":166,"target":"present","response":"present","rt":1071.2000000179,"correct":true,"confidence":3},{"trial_n":52,"min":89,"max":166,"target":"present","response":"present","rt":923.40000000596,"correct":true,"confidence":3},{"trial_n":53,"min":90,"max":165,"target":"absent","response":"absent","rt":836.39999997616,"correct":true,"confidence":2},{"trial_n":54,"min":90,"max":165,"target":"present","response":"absent","rt":1087.1999999881,"correct":false,"confidence":1},{"trial_n":55,"min":89,"max":166,"target":"present","response":"present","rt":990.40000000596,"correct":true,"confidence":2},{"trial_n":56,"min":89,"max":166,"target":"absent","response":"absent","rt":1264.099999994,"correct":true,"confidence":2},{"trial_n":57,"min":90,"max":165,"target":"present","response":"present","rt":1469.7000000179,"correct":true,"confidence":3},{"trial_n":58,"min":90,"max":165,"target":"present","response":"absent","rt":792.5,"correct":false,"confidence":2},{"trial_n":59,"min":89,"max":166,"target":"absent","response":"absent","rt":1090.2000000179,"correct":true,"confidence":1},{"trial_n":60,"min":89,"max":166,"target":"absent","response":"absent","rt":1274.599999994,"correct":true,"confidence":1},{"trial_n":61,"min":90,"max":165,"target":"present","response":"present","rt":1472.2999999821,"correct":true,"confidence":2},{"trial_n":62,"min":90,"max":165,"target":"present","response":"absent","rt":887.5,"correct":false,"confidence":2},{"trial_n":63,"min":89,"max":166,"target":"absent","response":"present","rt":1662.599999994,"correct":false,"confidence":1},{"trial_n":64,"min":88,"max":167,"target":"present","response":"absent","rt":819.19999998808,"correct":false,"confidence":4},{"trial_n":65,"min":87,"max":168,"target":"present","response":"present","rt":831.90000000596,"correct":true,"confidence":5},{"trial_n":66,"min":87,"max":168,"target":"absent","response":"absent","rt":874.59999999404,"correct":true,"confidence":3},{"trial_n":67,"min":88,"max":167,"target":"absent","response":"absent","rt":828.80000001192,"correct":true,"confidence":3},{"trial_n":68,"min":88,"max":167,"target":"absent","response":"absent","rt":710,"correct":true,"confidence":4},{"trial_n":69,"min":89,"max":166,"target":"present","response":"present","rt":869.79999998212,"correct":true,"confidence":3},{"trial_n":70,"min":89,"max":166,"target":"absent","response":"present","rt":1103.6999999881,"correct":false,"confidence":3},{"trial_n":71,"min":41,"max":214,"target":"present","response":"present","rt":5161.099999994,"correct":true,"confidence":-1},{"trial_n":72,"min":41,"max":214,"target":"present","response":"present","rt":547.40000000596,"correct":true,"confidence":-1},{"trial_n":73,"min":57,"max":198,"target":"absent","response":"absent","rt":772.29999998212,"correct":true,"confidence":-1},{"trial_n":74,"min":57,"max":198,"target":"absent","response":"absent","rt":539.90000000596,"correct":true,"confidence":-1},{"trial_n":75,"min":73,"max":182,"target":"present","response":"present","rt":448.39999997616,"correct":true,"confidence":-1},{"trial_n":76,"min":73,"max":182,"target":"absent","response":"absent","rt":606.80000001192,"correct":true,"confidence":-1},{"trial_n":77,"min":89,"max":166,"target":"present","response":"absent","rt":790.19999998808,"correct":false,"confidence":-1},{"trial_n":78,"min":73,"max":182,"target":"present","response":"present","rt":198,"correct":true,"confidence":-1},{"trial_n":79,"min":73,"max":182,"target":"present","response":"present","rt":789.30000001192,"correct":true,"confidence":-1},{"trial_n":80,"min":89,"max":166,"target":"present","response":"present","rt":161.19999998808,"correct":true,"confidence":-1},{"trial_n":81,"min":89,"max":166,"target":"absent","response":"absent","rt":356,"correct":true,"confidence":-1},{"trial_n":82,"min":97,"max":158,"target":"present","response":"absent","rt":583.19999998808,"correct":false,"confidence":-1},{"trial_n":83,"min":89,"max":166,"target":"absent","response":"absent","rt":516,"correct":true,"confidence":-1},{"trial_n":84,"min":89,"max":166,"target":"absent","response":"absent","rt":1110.900000006,"correct":true,"confidence":-1},{"trial_n":85,"min":97,"max":158,"target":"absent","response":"absent","rt":334.80000001192,"correct":true,"confidence":-1},{"trial_n":86,"min":97,"max":158,"target":"present","response":"present","rt":172.59999999404,"correct":true,"confidence":-1},{"trial_n":87,"min":105,"max":150,"target":"present","response":"present","rt":402.70000001788,"correct":true,"confidence":-1},{"trial_n":88,"min":105,"max":150,"target":"present","response":"absent","rt":706.09999999404,"correct":false,"confidence":-1},{"trial_n":89,"min":97,"max":158,"target":"absent","response":"absent","rt":764.5,"correct":true,"confidence":-1},{"trial_n":90,"min":97,"max":158,"target":"absent","response":"absent","rt":454.90000000596,"correct":true,"confidence":-1},{"trial_n":91,"min":101,"max":154,"target":"present","response":"present","rt":1231.5,"correct":true,"confidence":1},{"trial_n":92,"min":101,"max":154,"target":"absent","response":"absent","rt":950,"correct":true,"confidence":2},{"trial_n":93,"min":105,"max":150,"target":"absent","response":"present","rt":761.09999999404,"correct":false,"confidence":4},{"trial_n":94,"min":101,"max":154,"target":"absent","response":"absent","rt":1101.7000000179,"correct":true,"confidence":3},{"trial_n":95,"min":101,"max":154,"target":"present","response":"present","rt":2004.3000000119,"correct":true,"confidence":1},{"trial_n":96,"min":105,"max":150,"target":"present","response":"absent","rt":836.90000000596,"correct":false,"confidence":4},{"trial_n":97,"min":101,"max":154,"target":"present","response":"absent","rt":2390,"correct":false,"confidence":3},{"trial_n":98,"min":97,"max":158,"target":"present","response":"absent","rt":1312.2999999821,"correct":false,"confidence":2},{"trial_n":99,"min":93,"max":162,"target":"absent","response":"present","rt":905.59999999404,"correct":false,"confidence":2},{"trial_n":100,"min":89,"max":166,"target":"absent","response":"absent","rt":1083.6999999881,"correct":true,"confidence":1},{"trial_n":101,"min":89,"max":166,"target":"absent","response":"absent","rt":1416.6999999881,"correct":true,"confidence":1},{"trial_n":102,"min":91,"max":164,"target":"absent","response":"absent","rt":992.39999997616,"correct":true,"confidence":2},{"trial_n":103,"min":91,"max":164,"target":"absent","response":"absent","rt":835.80000001192,"correct":true,"confidence":1},{"trial_n":104,"min":93,"max":162,"target":"absent","response":"present","rt":887.5,"correct":false,"confidence":1},{"trial_n":105,"min":91,"max":164,"target":"present","response":"present","rt":721,"correct":true,"confidence":1},{"trial_n":106,"min":91,"max":164,"target":"present","response":"present","rt":1490.1999999881,"correct":true,"confidence":1},{"trial_n":107,"min":93,"max":162,"target":"present","response":"absent","rt":736.29999998212,"correct":false,"confidence":1},{"trial_n":108,"min":91,"max":164,"target":"absent","response":"absent","rt":1249.7999999821,"correct":true,"confidence":1},{"trial_n":109,"min":91,"max":164,"target":"present","response":"absent","rt":1352.5,"correct":false,"confidence":2},{"trial_n":110,"min":89,"max":166,"target":"present","response":"present","rt":1405.5,"correct":true,"confidence":5},{"trial_n":111,"min":89,"max":166,"target":"present","response":"present","rt":741.5,"correct":true,"confidence":5},{"trial_n":112,"min":90,"max":165,"target":"absent","response":"absent","rt":1168.900000006,"correct":true,"confidence":4},{"trial_n":113,"min":90,"max":165,"target":"present","response":"present","rt":1039.599999994,"correct":true,"confidence":3},{"trial_n":114,"min":91,"max":164,"target":"present","response":"absent","rt":1435,"correct":false,"confidence":1},{"trial_n":115,"min":90,"max":165,"target":"present","response":"present","rt":373.70000001788,"correct":true,"confidence":4},{"trial_n":116,"min":90,"max":165,"target":"absent","response":"absent","rt":1058.2999999821,"correct":true,"confidence":4},{"trial_n":117,"min":91,"max":164,"target":"absent","response":"absent","rt":1623.1000000238,"correct":true,"confidence":4},{"trial_n":118,"min":91,"max":164,"target":"present","response":"present","rt":809.19999998808,"correct":true,"confidence":3},{"trial_n":119,"min":92,"max":163,"target":"present","response":"present","rt":349.80000001192,"correct":true,"confidence":4},{"trial_n":120,"min":92,"max":163,"target":"absent","response":"absent","rt":1239.1999999881,"correct":true,"confidence":3},{"trial_n":121,"min":93,"max":162,"target":"absent","response":"present","rt":935.19999998808,"correct":false,"confidence":4},{"trial_n":122,"min":92,"max":163,"target":"present","response":"absent","rt":1034,"correct":false,"confidence":3},{"trial_n":123,"min":91,"max":164,"target":"absent","response":"absent","rt":1041.099999994,"correct":true,"confidence":3},{"trial_n":124,"min":91,"max":164,"target":"absent","response":"absent","rt":892.90000000596,"correct":true,"confidence":4},{"trial_n":125,"min":92,"max":163,"target":"absent","response":"absent","rt":762.90000000596,"correct":true,"confidence":4},{"trial_n":126,"min":92,"max":163,"target":"present","response":"present","rt":835.30000001192,"correct":true,"confidence":5},{"trial_n":127,"min":93,"max":162,"target":"present","response":"present","rt":1910.7999999821,"correct":true,"confidence":1},{"trial_n":128,"min":93,"max":162,"target":"present","response":"present","rt":2644.8000000119,"correct":true,"confidence":1},{"trial_n":129,"min":94,"max":161,"target":"present","response":"absent","rt":6002.400000006,"correct":false,"confidence":1},{"trial_n":130,"min":93,"max":162,"target":"absent","response":"absent","rt":944.29999998212,"correct":true,"confidence":3},{"trial_n":131,"min":93,"max":162,"target":"absent","response":"present","rt":1195.8000000119,"correct":false,"confidence":4},{"trial_n":132,"min":92,"max":163,"target":"present","response":"absent","rt":1532.1999999881,"correct":false,"confidence":1},{"trial_n":133,"min":91,"max":164,"target":"absent","response":"absent","rt":1091,"correct":true,"confidence":3},{"trial_n":134,"min":91,"max":164,"target":"absent","response":"absent","rt":1165,"correct":true,"confidence":4},{"trial_n":135,"min":92,"max":163,"target":"absent","response":"absent","rt":2037.900000006,"correct":true,"confidence":3},{"trial_n":136,"min":92,"max":163,"target":"present","response":"absent","rt":1251.6999999881,"correct":false,"confidence":1},{"trial_n":137,"min":91,"max":164,"target":"absent","response":"absent","rt":1796.400000006,"correct":true,"confidence":1},{"trial_n":138,"min":91,"max":164,"target":"present","response":"absent","rt":1098.5,"correct":false,"confidence":2},{"trial_n":139,"min":90,"max":165,"target":"absent","response":"absent","rt":1095.400000006,"correct":true,"confidence":3},{"trial_n":140,"min":90,"max":165,"target":"present","response":"present","rt":796,"correct":true,"confidence":5}]