[{"trial_n":1,"min":25,"max":230,"target":"present","response":"present","rt":8228.799999997,"correct":true,"confidence":-1},{"trial_n":2,"min":25,"max":230,"target":"present","response":"present","rt":2957.200000003,"correct":true,"confidence":-1},{"trial_n":3,"min":41,"max":214,"target":"absent","response":"absent","rt":1053.5,"correct":true,"confidence":-1},{"trial_n":4,"min":41,"max":214,"target":"absent","response":"absent","rt":590.69999998808,"correct":true,"confidence":-1},{"trial_n":5,"min":57,"max":198,"target":"present","response":"present","rt":1113.400000006,"correct":true,"confidence":-1},{"trial_n":6,"min":57,"max":198,"target":"absent","response":"present","rt":1100.5,"correct":false,"confidence":-1},{"trial_n":7,"min":41,"max":214,"target":"present","response":"present","rt":410.40000000596,"correct":true,"confidence":-1},{"trial_n":8,"min":41,"max":214,"target":"absent","response":"absent","rt":259.59999999404,"correct":true,"confidence":-1},{"trial_n":9,"min":57,"max":198,"target":"absent","response":"absent","rt":278.79999999702,"correct":true,"confidence":-1},{"trial_n":10,"min":57,"max":198,"target":"absent","response":"absent","rt":700.09999999404,"correct":true,"confidence":-1},{"trial_n":11,"min":65,"max":190,"target":"absent","response":"absent","rt":238.40000000596,"correct":true,"confidence":-1},{"trial_n":12,"min":65,"max":190,"target":"absent","response":"absent","rt":279,"correct":true,"confidence":-1},{"trial_n":13,"min":73,"max":182,"target":"absent","response":"absent","rt":244.29999999702,"correct":true,"confidence":-1},{"trial_n":14,"min":73,"max":182,"target":"absent","response":"absent","rt":319.90000000596,"correct":true,"confidence":-1},{"trial_n":15,"min":81,"max":174,"target":"present","response":"present","rt":451.09999999404,"correct":true,"confidence":-1},{"trial_n":16,"min":81,"max":174,"target":"absent","response":"absent","rt":257.40000000596,"correct":true,"confidence":-1},{"trial_n":17,"min":89,"max":166,"target":"present","response":"absent","rt":271,"correct":false,"confidence":-1},{"trial_n":18,"min":81,"max":174,"target":"present","response":"absent","rt":754.10000000894,"correct":false,"confidence":-1},{"trial_n":19,"min":73,"max":182,"target":"absent","response":"absent","rt":631.5,"correct":true,"confidence":-1},{"trial_n":20,"min":73,"max":182,"target":"present","response":"present","rt":273.60000000894,"correct":true,"confidence":-1},{"trial_n":21,"min":77,"max":178,"target":"absent","response":"absent","rt":657.10000000894,"correct":true,"confidence":3},{"trial_n":22,"min":77,"max":178,"target":"absent","response":"absent","rt":714.09999999404,"correct":true,"confidence":3},{"trial_n":23,"min":81,"max":174,"target":"present","response":"absent","rt":1907.1999999881,"correct":false,"confidence":3},{"trial_n":24,"min":77,"max":178,"target":"absent","response":"absent","rt":507.39999999106,"correct":true,"confidence":3},{"trial_n":25,"min":77,"max":178,"target":"absent","response":"absent","rt":921.40000000596,"correct":true,"confidence":3},{"trial_n":26,"min":81,"max":174,"target":"absent","response":"absent","rt":839.40000000596,"correct":true,"confidence":3},{"trial_n":27,"min":81,"max":174,"target":"absent","response":"absent","rt":743.29999999702,"correct":true,"confidence":3},{"trial_n":28,"min":85,"max":170,"target":"absent","response":"absent","rt":747.90000000596,"correct":true,"confidence":3},{"trial_n":29,"min":85,"max":170,"target":"present","response":"present","rt":1260.5,"correct":true,"confidence":3},{"trial_n":30,"min":89,"max":166,"target":"absent","response":"absent","rt":1083.299999997,"correct":true,"confidence":2},{"trial_n":31,"min":89,"max":166,"target":"absent","response":"absent","rt":1006.6000000089,"correct":true,"confidence":3},{"trial_n":32,"min":91,"max":164,"target":"absent","response":"absent","rt":891.5,"correct":true,"confidence":2},{"trial_n":33,"min":91,"max":164,"target":"present","response":"present","rt":1000.200000003,"correct":true,"confidence":4},{"trial_n":34,"min":93,"max":162,"target":"absent","response":"present","rt":1533.700000003,"correct":false,"confidence":3},{"trial_n":35,"min":91,"max":164,"target":"present","response":"absent","rt":828.20000000298,"correct":false,"confidence":4},{"trial_n":36,"min":89,"max":166,"target":"present","response":"present","rt":1512.200000003,"correct":true,"confidence":2},{"trial_n":37,"min":89,"max":166,"target":"present","response":"absent","rt":1143.5,"correct":false,"confidence":2},{"trial_n":38,"min":87,"max":168,"target":"present","response":"present","rt":1191.900000006,"correct":true,"confidence":2},{"trial_n":39,"min":87,"max":168,"target":"absent","response":"absent","rt":1281.200000003,"correct":true,"confidence":2},{"trial_n":40,"min":89,"max":166,"target":"absent","response":"absent","rt":810.39999999106,"correct":true,"confidence":3},{"trial_n":41,"min":89,"max":166,"target":"present","response":"present","rt":911.79999999702,"correct":true,"confidence":3},{"trial_n":42,"min":90,"max":165,"target":"absent","response":"absent","rt":1071.8000000119,"correct":true,"confidence":3},{"trial_n":43,"min":90,"max":165,"target":"present","response":"present","rt":999.79999999702,"correct":true,"confidence":4},{"trial_n":44,"min":91,"max":164,"target":"present","response":"absent","rt":2486.3000000119,"correct":false,"confidence":2},{"trial_n":45,"min":90,"max":165,"target":"absent","response":"absent","rt":900.90000000596,"correct":true,"confidence":3},{"trial_n":46,"min":90,"max":165,"target":"absent","response":"absent","rt":7177.700000003,"correct":true,"confidence":2},{"trial_n":47,"min":91,"max":164,"target":"absent","response":"absent","rt":859,"correct":true,"confidence":3},{"trial_n":48,"min":91,"max":164,"target":"present","response":"present","rt":1036.200000003,"correct":true,"confidence":4},{"trial_n":49,"min":92,"max":163,"target":"present","response":"absent","rt":866.39999999106,"correct":false,"confidence":3},{"trial_n":50,"min":91,"max":164,"target":"present","response":"absent","rt":1189.3000000119,"correct":false,"confidence":2},{"trial_n":51,"min":90,"max":165,"target":"present","response":"present","rt":1227.299999997,"correct":true,"confidence":3},{"trial_n":52,"min":90,"max":165,"target":"absent","response":"absent","rt":707.59999999404,"correct":true,"confidence":3},{"trial_n":53,"min":91,"max":164,"target":"absent","response":"present","rt":947.5,"correct":false,"confidence":2},{"trial_n":54,"min":90,"max":165,"target":"present","response":"present","rt":938.5,"correct":true,"confidence":3},{"trial_n":55,"min":90,"max":165,"target":"present","response":"absent","rt":2460.599999994,"correct":false,"confidence":2},{"trial_n":56,"min":89,"max":166,"target":"present","response":"absent","rt":1377.200000003,"correct":false,"confidence":2},{"trial_n":57,"min":88,"max":167,"target":"present","response":"absent","rt":1177.799999997,"correct":false,"confidence":3},{"trial_n":58,"min":87,"max":168,"target":"present","response":"present","rt":1443.799999997,"correct":true,"confidence":2},{"trial_n":59,"min":87,"max":168,"target":"absent","response":"absent","rt":15456.299999997,"correct":true,"confidence":1},{"trial_n":60,"min":88,"max":167,"target":"present","response":"absent","rt":790.39999999106,"correct":false,"confidence":3},{"trial_n":61,"min":87,"max":168,"target":"present","response":"absent","rt":856.5,"correct":false,"confidence":2},{"trial_n":62,"min":86,"max":169,"target":"present","response":"present","rt":1108.400000006,"correct":true,"confidence":3},{"trial_n":63,"min":86,"max":169,"target":"present","response":"present","rt":1001.299999997,"correct":true,"confidence":4},{"trial_n":64,"min":87,"max":168,"target":"absent","response":"absent","rt":832,"correct":true,"confidence":3},{"trial_n":65,"min":87,"max":168,"target":"present","response":"absent","rt":940.89999999106,"correct":false,"confidence":2},{"trial_n":66,"min":86,"max":169,"target":"present","response":"present","rt":3304.5,"correct":true,"confidence":2},{"trial_n":67,"min":86,"max":169,"target":"present","response":"present","rt":908.70000000298,"correct":true,"confidence":3},{"trial_n":68,"min":87,"max":168,"target":"present","response":"absent","rt":1611.599999994,"correct":false,"confidence":3},{"trial_n":69,"min":86,"max":169,"target":"present","response":"absent","rt":882.20000000298,"correct":false,"confidence":4},{"trial_n":70,"min":85,"max":170,"target":"absent","response":"absent","rt":1180.700000003,"correct":true,"confidence":2},{"trial_n":71,"min":41,"max":214,"target":"present","response":"absent","rt":4425,"correct":false,"confidence":-1},{"trial_n":72,"min":41,"max":214,"target":"present","response":"present","rt":921.09999999404,"correct":true,"confidence":-1},{"trial_n":73,"min":41,"max":214,"target":"absent","response":"absent","rt":831.79999999702,"correct":true,"confidence":-1},{"trial_n":74,"min":57,"max":198,"target":"absent","response":"absent","rt":846.10000000894,"correct":true,"confidence":-1},{"trial_n":75,"min":57,"max":198,"target":"present","response":"present","rt":695.20000000298,"correct":true,"confidence":-1},{"trial_n":76,"min":73,"max":182,"target":"present","response":"present","rt":604.90000000596,"correct":true,"confidence":-1},{"trial_n":77,"min":73,"max":182,"target":"absent","response":"absent","rt":1052.6000000089,"correct":true,"confidence":-1},{"trial_n":78,"min":89,"max":166,"target":"absent","response":"present","rt":1620,"correct":false,"confidence":-1},{"trial_n":79,"min":73,"max":182,"target":"present","response":"present","rt":1352.5,"correct":true,"confidence":-1},{"trial_n":80,"min":73,"max":182,"target":"absent","response":"absent","rt":1458.599999994,"correct":true,"confidence":-1},{"trial_n":81,"min":81,"max":174,"target":"absent","response":"absent","rt":615.60000000894,"correct":true,"confidence":-1},{"trial_n":82,"min":81,"max":174,"target":"present","response":"present","rt":789.79999999702,"correct":true,"confidence":-1},{"trial_n":83,"min":89,"max":166,"target":"absent","response":"present","rt":1624.6000000089,"correct":false,"confidence":-1},{"trial_n":84,"min":81,"max":174,"target":"present","response":"present","rt":726.70000000298,"correct":true,"confidence":-1},{"trial_n":85,"min":81,"max":174,"target":"absent","response":"present","rt":906,"correct":false,"confidence":-1},{"trial_n":86,"min":73,"max":182,"target":"absent","response":"absent","rt":824.20000000298,"correct":true,"confidence":-1},{"trial_n":87,"min":73,"max":182,"target":"absent","response":"absent","rt":884.09999999404,"correct":true,"confidence":-1},{"trial_n":88,"min":81,"max":174,"target":"absent","response":"absent","rt":1021.5,"correct":true,"confidence":-1},{"trial_n":89,"min":81,"max":174,"target":"present","response":"present","rt":813.29999999702,"correct":true,"confidence":-1},{"trial_n":90,"min":89,"max":166,"target":"present","response":"present","rt":1280.299999997,"correct":true,"confidence":-1},{"trial_n":91,"min":89,"max":166,"target":"present","response":"present","rt":1032.099999994,"correct":true,"confidence":2},{"trial_n":92,"min":93,"max":162,"target":"present","response":"present","rt":635.59999999404,"correct":true,"confidence":4},{"trial_n":93,"min":93,"max":162,"target":"present","response":"present","rt":1379.400000006,"correct":true,"confidence":3},{"trial_n":94,"min":97,"max":158,"target":"present","response":"present","rt":1142.599999994,"correct":true,"confidence":3},{"trial_n":95,"min":97,"max":158,"target":"absent","response":"absent","rt":1026.700000003,"correct":true,"confidence":3},{"trial_n":96,"min":101,"max":154,"target":"present","response":"absent","rt":938.59999999404,"correct":false,"confidence":2},{"trial_n":97,"min":97,"max":158,"target":"present","response":"absent","rt":1027.599999994,"correct":false,"confidence":2},{"trial_n":98,"min":93,"max":162,"target":"absent","response":"present","rt":1054.8999999911,"correct":false,"confidence":3},{"trial_n":99,"min":89,"max":166,"target":"present","response":"present","rt":960.79999999702,"correct":true,"confidence":3},{"trial_n":100,"min":89,"max":166,"target":"present","response":"present","rt":1083.200000003,"correct":true,"confidence":3},{"trial_n":101,"min":91,"max":164,"target":"present","response":"present","rt":915.79999999702,"correct":true,"confidence":3},{"trial_n":102,"min":91,"max":164,"target":"present","response":"present","rt":798.90000000596,"correct":true,"confidence":4},{"trial_n":103,"min":93,"max":162,"target":"present","response":"present","rt":897.40000000596,"correct":true,"confidence":3},{"trial_n":104,"min":93,"max":162,"target":"present","response":"present","rt":812.79999999702,"correct":true,"confidence":4},{"trial_n":105,"min":95,"max":160,"target":"present","response":"present","rt":848.10000000894,"correct":true,"confidence":4},{"trial_n":106,"min":95,"max":160,"target":"absent","response":"absent","rt":1786,"correct":true,"confidence":3},{"trial_n":107,"min":97,"max":158,"target":"absent","response":"present","rt":985.79999999702,"correct":false,"confidence":3},{"trial_n":108,"min":95,"max":160,"target":"absent","response":"present","rt":940.30000001192,"correct":false,"confidence":2},{"trial_n":109,"min":93,"max":162,"target":"absent","response":"present","rt":1455.5,"correct":false,"confidence":2},{"trial_n":110,"min":91,"max":164,"target":"absent","response":"absent","rt":1102.700000003,"correct":true,"confidence":2},{"trial_n":111,"min":91,"max":164,"target":"present","response":"present","rt":718.70000000298,"correct":true,"confidence":3},{"trial_n":112,"min":92,"max":163,"target":"present","response":"present","rt":1040.099999994,"correct":true,"confidence":3},{"trial_n":113,"min":92,"max":163,"target":"absent","response":"present","rt":986,"correct":false,"confidence":2},{"trial_n":114,"min":91,"max":164,"target":"present","response":"present","rt":750.80000001192,"correct":true,"confidence":3},{"trial_n":115,"min":91,"max":164,"target":"present","response":"present","rt":941.20000000298,"correct":true,"confidence":3},{"trial_n":116,"min":92,"max":163,"target":"absent","response":"absent","rt":1805.400000006,"correct":true,"confidence":3},{"trial_n":117,"min":92,"max":163,"target":"absent","response":"absent","rt":1058.900000006,"correct":true,"confidence":3},{"trial_n":118,"min":93,"max":162,"target":"absent","response":"present","rt":1066.299999997,"correct":false,"confidence":3},{"trial_n":119,"min":92,"max":163,"target":"present","response":"present","rt":1027.599999994,"correct":true,"confidence":2},{"trial_n":120,"min":92,"max":163,"target":"absent","response":"absent","rt":1064.8000000119,"correct":true,"confidence":3},{"trial_n":121,"min":93,"max":162,"target":"absent","response":"absent","rt":798.40000000596,"correct":true,"confidence":2},{"trial_n":122,"min":93,"max":162,"target":"present","response":"absent","rt":1427.900000006,"correct":false,"confidence":2},{"trial_n":123,"min":92,"max":163,"target":"present","response":"present","rt":939.90000000596,"correct":true,"confidence":3},{"trial_n":124,"min":92,"max":163,"target":"present","response":"present","rt":862.79999999702,"correct":true,"confidence":4},{"trial_n":125,"min":93,"max":162,"target":"absent","response":"present","rt":954.70000000298,"correct":false,"confidence":2},{"trial_n":126,"min":92,"max":163,"target":"absent","response":"absent","rt":793.70000000298,"correct":true,"confidence":3},{"trial_n":127,"min":92,"max":163,"target":"absent","response":"absent","rt":1646.200000003,"correct":true,"confidence":2},{"trial_n":128,"min":93,"max":162,"target":"present","response":"present","rt":967.40000000596,"correct":true,"confidence":2},{"trial_n":129,"min":93,"max":162,"target":"absent","response":"absent","rt":929.89999999106,"correct":true,"confidence":1},{"trial_n":130,"min":94,"max":161,"target":"present","response":"present","rt":1138.6000000089,"correct":true,"confidence":2},{"trial_n":131,"min":94,"max":161,"target":"present","response":"present","rt":967.79999999702,"correct":true,"confidence":2},{"trial_n":132,"min":95,"max":160,"target":"absent","response":"absent","rt":846.5,"correct":true,"confidence":3},{"trial_n":133,"min":95,"max":160,"target":"present","response":"present","rt":917.69999998808,"correct":true,"confidence":2},{"trial_n":134,"min":96,"max":159,"target":"absent","response":"present","rt":812.70000000298,"correct":false,"confidence":2},{"trial_n":135,"min":95,"max":160,"target":"present","response":"present","rt":953.5,"correct":true,"confidence":2},{"trial_n":136,"min":95,"max":160,"target":"absent","response":"absent","rt":1002.599999994,"correct":true,"confidence":2},{"trial_n":137,"min":96,"max":159,"target":"absent","response":"present","rt":1250,"correct":false,"confidence":1},{"trial_n":138,"min":95,"max":160,"target":"absent","response":"absent","rt":932.09999999404,"correct":true,"confidence":5},{"trial_n":139,"min":95,"max":160,"target":"absent","response":"absent","rt":929.70000000298,"correct":true,"confidence":5},{"trial_n":140,"min":96,"max":159,"target":"present","response":"present","rt":1447.799999997,"correct":true,"confidence":1}]