[{"trial_n":1,"span":8,"encoder":"04691104","distractor":"04671104","target":"present","response":"present","rt":"4073.1000000238","correct":true,"confidence":-1},{"trial_n":2,"span":8,"encoder":"75428553","distractor":"25428553","target":"present","response":"absent","rt":"3288","correct":false,"confidence":-1},{"trial_n":3,"span":6,"encoder":"138129","distractor":"438129","target":"absent","response":"absent","rt":"1850.1000000238","correct":true,"confidence":-1},{"trial_n":4,"span":6,"encoder":"083401","distractor":"083406","target":"absent","response":"absent","rt":"1288.2999999523","correct":true,"confidence":-1},{"trial_n":5,"span":8,"encoder":"36062121","distractor":"36063121","target":"present","response":"present","rt":"1510.9000000358","correct":true,"confidence":-1},{"trial_n":6,"span":8,"encoder":"12110179","distractor":"12119179","target":"present","response":"present","rt":"1648.1000000238","correct":true,"confidence":-1},{"trial_n":7,"span":10,"encoder":"7291139176","distractor":"7271139176","target":"present","response":"present","rt":"1467.1999999881","correct":true,"confidence":-1},{"trial_n":8,"span":10,"encoder":"5425311705","distractor":"5525311705","target":"absent","response":"present","rt":"1439.8999999762","correct":false,"confidence":-1},{"trial_n":9,"span":8,"encoder":"96356551","distractor":"26356551","target":"absent","response":"absent","rt":"2412.5","correct":true,"confidence":-1},{"trial_n":10,"span":8,"encoder":"80561324","distractor":"83561324","target":"absent","response":"present","rt":"1566","correct":false,"confidence":-1},{"trial_n":11,"span":6,"encoder":"600685","distractor":"600285","target":"present","response":"present","rt":"1196.3000000119","correct":true,"confidence":-1},{"trial_n":12,"span":6,"encoder":"892411","distractor":"898411","target":"present","response":"present","rt":"1283.5","correct":true,"confidence":-1},{"trial_n":13,"span":7,"encoder":"1542282","distractor":"1542280","target":"absent","response":"absent","rt":"2936.5","correct":true,"confidence":-1},{"trial_n":14,"span":7,"encoder":"5738496","distractor":"5738296","target":"absent","response":"present","rt":"1332.3000000119","correct":false,"confidence":-1},{"trial_n":15,"span":6,"encoder":"476343","distractor":"472343","target":"present","response":"present","rt":"2133.5","correct":true,"confidence":-1},{"trial_n":16,"span":6,"encoder":"510351","distractor":"510851","target":"absent","response":"absent","rt":"1632.5","correct":true,"confidence":-1},{"trial_n":17,"span":7,"encoder":"2341579","distractor":"2341575","target":"absent","response":"absent","rt":"1140.3999999762","correct":true,"confidence":-1},{"trial_n":18,"span":7,"encoder":"7194138","distractor":"7194118","target":"absent","response":"absent","rt":"1906.8000000119","correct":true,"confidence":-1},{"trial_n":19,"span":8,"encoder":"70055326","distractor":"70055526","target":"absent","response":"absent","rt":"1652.3000000119","correct":true,"confidence":-1},{"trial_n":20,"span":8,"encoder":"12112243","distractor":"12117243","target":"present","response":"present","rt":"2252.9000000358","correct":true,"confidence":-1},{"trial_n":21,"span":9,"encoder":"824061048","distractor":"824060048","target":"present","response":"absent","rt":"1968.6999999881","correct":false,"confidence":3},{"trial_n":22,"span":8,"encoder":"01315403","distractor":"01315473","target":"absent","response":"absent","rt":"2615.8999999762","correct":true,"confidence":4},{"trial_n":23,"span":8,"encoder":"54486931","distractor":"54488931","target":"absent","response":"absent","rt":"2204.2999999523","correct":true,"confidence":5},{"trial_n":24,"span":9,"encoder":"284723753","distractor":"284723453","target":"present","response":"absent","rt":"4844.8999999762","correct":false,"confidence":3},{"trial_n":25,"span":8,"encoder":"62045739","distractor":"62045639","target":"absent","response":"absent","rt":"3703.6999999881","correct":true,"confidence":3},{"trial_n":26,"span":8,"encoder":"88682228","distractor":"88682628","target":"present","response":"present","rt":"1792.5","correct":true,"confidence":4},{"trial_n":27,"span":9,"encoder":"352929540","distractor":"355929540","target":"absent","response":"absent","rt":"3710.6000000238","correct":true,"confidence":3},{"trial_n":28,"span":9,"encoder":"315810175","distractor":"315810177","target":"present","response":"present","rt":"2739.5999999642","correct":true,"confidence":3},{"trial_n":29,"span":10,"encoder":"0246221093","distractor":"0246221091","target":"present","response":"absent","rt":"3993","correct":false,"confidence":2},{"trial_n":30,"span":9,"encoder":"876983617","distractor":"876883617","target":"present","response":"present","rt":"2770.5","correct":true,"confidence":3},{"trial_n":31,"span":9,"encoder":"272678836","distractor":"272671836","target":"present","response":"absent","rt":"2656","correct":false,"confidence":3},{"trial_n":32,"span":8,"encoder":"71239500","distractor":"71239505","target":"absent","response":"absent","rt":"3054","correct":true,"confidence":4},{"trial_n":33,"span":8,"encoder":"10203634","distractor":"00203634","target":"present","response":"present","rt":"1834","correct":true,"confidence":5},{"trial_n":34,"span":9,"encoder":"126560340","distractor":"126520340","target":"present","response":"present","rt":"4144.1000000238","correct":true,"confidence":3},{"trial_n":35,"span":9,"encoder":"583253950","distractor":"583273950","target":"absent","response":"absent","rt":"2376.8000000119","correct":true,"confidence":4},{"trial_n":36,"span":10,"encoder":"4461645487","distractor":"4411645487","target":"absent","response":"absent","rt":"3176.3000000119","correct":true,"confidence":4},{"trial_n":37,"span":10,"encoder":"3173008737","distractor":"3173008937","target":"present","response":"present","rt":"2398.9000000358","correct":true,"confidence":3},{"trial_n":38,"span":11,"encoder":"33308430047","distractor":"33308433047","target":"absent","response":"present","rt":"6449.1000000238","correct":false,"confidence":3},{"trial_n":39,"span":10,"encoder":"3110422931","distractor":"3110422531","target":"present","response":"present","rt":"3008.5","correct":true,"confidence":3},{"trial_n":40,"span":10,"encoder":"2657991527","distractor":"2656991527","target":"absent","response":"present","rt":"5013.1000000238","correct":false,"confidence":3},{"trial_n":41,"span":9,"encoder":"063813076","distractor":"064813076","target":"present","response":"present","rt":"3757.4000000358","correct":true,"confidence":3},{"trial_n":42,"span":9,"encoder":"585005442","distractor":"585004442","target":"absent","response":"absent","rt":"1637.1000000238","correct":true,"confidence":5},{"trial_n":43,"span":10,"encoder":"6440148202","distractor":"6440648202","target":"present","response":"absent","rt":"4815.6000000238","correct":false,"confidence":3},{"trial_n":44,"span":9,"encoder":"360812514","distractor":"370812514","target":"present","response":"present","rt":"3935.5999999642","correct":true,"confidence":3},{"trial_n":45,"span":9,"encoder":"197467611","distractor":"197463611","target":"absent","response":"absent","rt":"3638.6999999881","correct":true,"confidence":5},{"trial_n":46,"span":10,"encoder":"5579914251","distractor":"4579914251","target":"present","response":"present","rt":"6278.5","correct":true,"confidence":2},{"trial_n":47,"span":10,"encoder":"7907214822","distractor":"7907214828","target":"absent","response":"absent","rt":"1505.6999999881","correct":true,"confidence":5},{"trial_n":48,"span":11,"encoder":"94437926879","distractor":"98437926879","target":"present","response":"absent","rt":"4242.8000000119","correct":false,"confidence":2},{"trial_n":49,"span":10,"encoder":"2866522109","distractor":"2866522101","target":"absent","response":"absent","rt":"1242.5","correct":true,"confidence":5},{"trial_n":50,"span":10,"encoder":"5218433608","distractor":"5218433108","target":"absent","response":"present","rt":"4597.1000000238","correct":false,"confidence":2},{"trial_n":51,"span":9,"encoder":"273855795","distractor":"273856795","target":"present","response":"present","rt":"2178.1000000238","correct":true,"confidence":3},{"trial_n":52,"span":9,"encoder":"042681369","distractor":"042681349","target":"absent","response":"absent","rt":"5620.1000000238","correct":true,"confidence":2},{"trial_n":53,"span":10,"encoder":"7064854102","distractor":"7014854102","target":"present","response":"absent","rt":"1655.6000000238","correct":false,"confidence":1},{"trial_n":54,"span":9,"encoder":"666617803","distractor":"666617809","target":"absent","response":"present","rt":"2332.2999999523","correct":false,"confidence":3},{"trial_n":55,"span":8,"encoder":"87957155","distractor":"81957155","target":"absent","response":"present","rt":"4234.6999999881","correct":false,"confidence":4},{"trial_n":56,"span":7,"encoder":"4741736","distractor":"4744736","target":"absent","response":"absent","rt":"2037.5","correct":true,"confidence":5},{"trial_n":57,"span":7,"encoder":"6923709","distractor":"6623709","target":"present","response":"present","rt":"3110","correct":true,"confidence":5},{"trial_n":58,"span":8,"encoder":"75038935","distractor":"75038934","target":"present","response":"present","rt":"3392.5","correct":true,"confidence":4},{"trial_n":59,"span":8,"encoder":"23094830","distractor":"23094730","target":"present","response":"present","rt":"5022.6000000238","correct":true,"confidence":3},{"trial_n":60,"span":9,"encoder":"000202362","distractor":"000200362","target":"present","response":"present","rt":"3926.1999999881","correct":true,"confidence":4},{"trial_n":61,"span":9,"encoder":"180335760","distractor":"180335761","target":"present","response":"absent","rt":"3854.6999999881","correct":false,"confidence":3},{"trial_n":62,"span":8,"encoder":"18037142","distractor":"78037142","target":"absent","response":"present","rt":"3270.5","correct":false,"confidence":3},{"trial_n":63,"span":7,"encoder":"2789420","distractor":"2789423","target":"present","response":"present","rt":"2236.9000000358","correct":true,"confidence":4},{"trial_n":64,"span":7,"encoder":"7263121","distractor":"7265121","target":"present","response":"present","rt":"2240.5","correct":true,"confidence":4},{"trial_n":65,"span":8,"encoder":"76346675","distractor":"76246675","target":"absent","response":"present","rt":"3124.5999999642","correct":false,"confidence":5},{"trial_n":66,"span":7,"encoder":"3342159","distractor":"2342159","target":"present","response":"present","rt":"1858.1000000238","correct":true,"confidence":5},{"trial_n":67,"span":7,"encoder":"1789048","distractor":"1780048","target":"absent","response":"absent","rt":"1585.6000000238","correct":true,"confidence":5},{"trial_n":68,"span":8,"encoder":"30102992","distractor":"30802992","target":"present","response":"present","rt":"2332.3999999762","correct":true,"confidence":5},{"trial_n":69,"span":8,"encoder":"44248351","distractor":"44448351","target":"absent","response":"absent","rt":"1416.9000000358","correct":true,"confidence":5},{"trial_n":70,"span":9,"encoder":"166185414","distractor":"166165414","target":"absent","response":"absent","rt":"3700.6999999881","correct":true,"confidence":3},{"trial_n":71,"span":8,"encoder":"09916951","distractor":"69916951","target":"present","response":"present","rt":"3258.1000000238","correct":true,"confidence":-1},{"trial_n":72,"span":8,"encoder":"20105905","distractor":"20105900","target":"present","response":"present","rt":"2778.2999999523","correct":true,"confidence":-1},{"trial_n":73,"span":9,"encoder":"129182518","distractor":"129182517","target":"absent","response":"absent","rt":"1144.6000000238","correct":true,"confidence":-1},{"trial_n":74,"span":9,"encoder":"334819934","distractor":"334819933","target":"absent","response":"absent","rt":"1154","correct":true,"confidence":-1},{"trial_n":75,"span":10,"encoder":"8082972040","distractor":"8082972060","target":"present","response":"present","rt":"1239.8999999762","correct":true,"confidence":-1},{"trial_n":76,"span":10,"encoder":"1717752640","distractor":"0717752640","target":"present","response":"present","rt":"3895.3000000119","correct":true,"confidence":-1},{"trial_n":77,"span":11,"encoder":"52505709164","distractor":"54505709164","target":"absent","response":"present","rt":"4221.6000000238","correct":false,"confidence":-1},{"trial_n":78,"span":10,"encoder":"9251195793","distractor":"9251198793","target":"present","response":"present","rt":"3772.6000000238","correct":true,"confidence":-1},{"trial_n":79,"span":10,"encoder":"5901412595","distractor":"5909412595","target":"present","response":"absent","rt":"6149.5","correct":false,"confidence":-1},{"trial_n":80,"span":9,"encoder":"532285179","distractor":"332285179","target":"absent","response":"absent","rt":"2209.6999999881","correct":true,"confidence":-1},{"trial_n":81,"span":9,"encoder":"092536357","distractor":"092536057","target":"present","response":"present","rt":"4935.5","correct":true,"confidence":-1},{"trial_n":82,"span":10,"encoder":"1678743968","distractor":"1678743868","target":"absent","response":"absent","rt":"6824.3000000119","correct":true,"confidence":-1},{"trial_n":83,"span":10,"encoder":"3678535381","distractor":"8678535381","target":"present","response":"present","rt":"6624","correct":true,"confidence":-1},{"trial_n":84,"span":11,"encoder":"47263919754","distractor":"47363919754","target":"absent","response":"absent","rt":"5250","correct":true,"confidence":-1},{"trial_n":85,"span":11,"encoder":"18240801741","distractor":"18240801541","target":"present","response":"present","rt":"5066.0999999642","correct":true,"confidence":-1},{"trial_n":86,"span":12,"encoder":"142429715103","distractor":"142489715103","target":"absent","response":"present","rt":"2981","correct":false,"confidence":-1},{"trial_n":87,"span":11,"encoder":"81548296909","distractor":"81548296906","target":"present","response":"absent","rt":"3744.2999999523","correct":false,"confidence":-1},{"trial_n":88,"span":10,"encoder":"3013874513","distractor":"3013874573","target":"absent","response":"absent","rt":"2403.6000000238","correct":true,"confidence":-1},{"trial_n":89,"span":10,"encoder":"6607124011","distractor":"6601124011","target":"absent","response":"absent","rt":"2972.9000000358","correct":true,"confidence":-1},{"trial_n":90,"span":11,"encoder":"47255567695","distractor":"47255567645","target":"absent","response":"present","rt":"3089.6999999881","correct":false,"confidence":-1},{"trial_n":91,"span":10,"encoder":"8279610774","distractor":"8279600774","target":"absent","response":"present","rt":"5817.1999999881","correct":false,"confidence":3},{"trial_n":92,"span":9,"encoder":"343828661","distractor":"393828661","target":"absent","response":"absent","rt":"4191.3999999762","correct":true,"confidence":3},{"trial_n":93,"span":9,"encoder":"659141114","distractor":"659741114","target":"present","response":"present","rt":"5697.3999999762","correct":true,"confidence":3},{"trial_n":94,"span":10,"encoder":"9046250927","distractor":"9046270927","target":"present","response":"absent","rt":"10376.599999964","correct":false,"confidence":2},{"trial_n":95,"span":9,"encoder":"760789868","distractor":"760789866","target":"present","response":"present","rt":"6291.9000000358","correct":true,"confidence":4},{"trial_n":96,"span":9,"encoder":"916064971","distractor":"916062971","target":"present","response":"present","rt":"3289.3000000119","correct":true,"confidence":5},{"trial_n":97,"span":10,"encoder":"7029350997","distractor":"7029380997","target":"present","response":"absent","rt":"4550.9000000358","correct":false,"confidence":4},{"trial_n":98,"span":9,"encoder":"704297810","distractor":"704296810","target":"absent","response":"absent","rt":"4955.5","correct":true,"confidence":4},{"trial_n":99,"span":9,"encoder":"500831119","distractor":"500431119","target":"absent","response":"absent","rt":"2607.3000000119","correct":true,"confidence":5},{"trial_n":100,"span":10,"encoder":"3012567631","distractor":"3012577631","target":"absent","response":"absent","rt":"2567.8999999762","correct":true,"confidence":5},{"trial_n":101,"span":10,"encoder":"0884188742","distractor":"0884188542","target":"present","response":"present","rt":"4426.1000000238","correct":true,"confidence":5},{"trial_n":102,"span":11,"encoder":"03172548483","distractor":"03172548493","target":"absent","response":"absent","rt":"1809.6000000238","correct":true,"confidence":5},{"trial_n":103,"span":11,"encoder":"97068566555","distractor":"97068536555","target":"present","response":"present","rt":"3674.8999999762","correct":true,"confidence":4},{"trial_n":104,"span":12,"encoder":"276438210405","distractor":"276438910405","target":"absent","response":"present","rt":"7166.8000000119","correct":false,"confidence":2},{"trial_n":105,"span":11,"encoder":"19103392779","distractor":"15103392779","target":"absent","response":"absent","rt":"2724.4000000358","correct":true,"confidence":3},{"trial_n":106,"span":11,"encoder":"00670795140","distractor":"00670797140","target":"present","response":"present","rt":"5207.3999999762","correct":true,"confidence":3},{"trial_n":107,"span":12,"encoder":"758991405022","distractor":"758999405022","target":"absent","response":"absent","rt":"4530.6999999881","correct":true,"confidence":3},{"trial_n":108,"span":12,"encoder":"226591797566","distractor":"226591791566","target":"absent","response":"present","rt":"10225.800000012","correct":false,"confidence":2},{"trial_n":109,"span":11,"encoder":"57771317121","distractor":"58771317121","target":"absent","response":"absent","rt":"1806.7000000477","correct":true,"confidence":5},{"trial_n":110,"span":11,"encoder":"67174706826","distractor":"67174706846","target":"present","response":"present","rt":"5273.1999999881","correct":true,"confidence":5},{"trial_n":111,"span":12,"encoder":"875002982047","distractor":"875002981047","target":"absent","response":"absent","rt":"2821.7000000477","correct":true,"confidence":5},{"trial_n":112,"span":12,"encoder":"177819683860","distractor":"177819683460","target":"present","response":"present","rt":"2115.7999999523","correct":true,"confidence":5},{"trial_n":113,"span":13,"encoder":"3106546231078","distractor":"3106542231078","target":"present","response":"present","rt":"5919.6999999881","correct":true,"confidence":4},{"trial_n":114,"span":13,"encoder":"0483329725904","distractor":"0483329625904","target":"present","response":"present","rt":"6981.9000000358","correct":true,"confidence":3},{"trial_n":115,"span":14,"encoder":"39935755398216","distractor":"39955755398216","target":"present","response":"present","rt":"7536.9000000358","correct":true,"confidence":1},{"trial_n":116,"span":14,"encoder":"21866556245797","distractor":"21866556245790","target":"absent","response":"absent","rt":"4008.5","correct":true,"confidence":5},{"trial_n":117,"span":15,"encoder":"847075978073882","distractor":"847075971073882","target":"absent","response":"absent","rt":"9439.5999999642","correct":true,"confidence":4},{"trial_n":118,"span":15,"encoder":"331984390303545","distractor":"331984340303545","target":"present","response":"present","rt":"8941.8999999762","correct":true,"confidence":3},{"trial_n":119,"span":16,"encoder":"5306108296347937","distractor":"5306708296347937","target":"absent","response":"present","rt":"8391.8000000119","correct":false,"confidence":2},{"trial_n":120,"span":15,"encoder":"384072772458914","distractor":"384072770458914","target":"absent","response":"absent","rt":"6517.6000000238","correct":true,"confidence":2},{"trial_n":121,"span":15,"encoder":"077365544822582","distractor":"077325544822582","target":"absent","response":"absent","rt":"8012.3999999762","correct":true,"confidence":3},{"trial_n":122,"span":16,"encoder":"2073780718947557","distractor":"2073780718949557","target":"absent","response":"absent","rt":"2732.5","correct":true,"confidence":5},{"trial_n":123,"span":16,"encoder":"5103086796002438","distractor":"0103086796002438","target":"present","response":"present","rt":"7409.5","correct":true,"confidence":2},{"trial_n":124,"span":17,"encoder":"09077079915565712","distractor":"09077079915565702","target":"absent","response":"absent","rt":"1563.8999999762","correct":true,"confidence":5},{"trial_n":125,"span":17,"encoder":"41830270486806758","distractor":"41830270486806458","target":"present","response":"present","rt":"2077.7000000477","correct":true,"confidence":4},{"trial_n":126,"span":18,"encoder":"962157407227629564","distractor":"962157402227629564","target":"present","response":"present","rt":"6600.3000000119","correct":true,"confidence":1},{"trial_n":127,"span":18,"encoder":"781899385629262417","distractor":"781895385629262417","target":"absent","response":"present","rt":"3545.8000000119","correct":false,"confidence":1},{"trial_n":128,"span":17,"encoder":"95665366146152263","distractor":"95665366146152163","target":"present","response":"present","rt":"3640.3000000119","correct":true,"confidence":4},{"trial_n":129,"span":17,"encoder":"24003693349962236","distractor":"24003696349962236","target":"absent","response":"absent","rt":"11364.5","correct":true,"confidence":2},{"trial_n":130,"span":18,"encoder":"672813097549660010","distractor":"672713097549660010","target":"present","response":"absent","rt":"3963.3000000119","correct":false,"confidence":1},{"trial_n":131,"span":17,"encoder":"25114767174553748","distractor":"25114765174553748","target":"present","response":"present","rt":"4817.1999999881","correct":true,"confidence":1},{"trial_n":132,"span":17,"encoder":"98158014729982469","distractor":"98152014729982469","target":"present","response":"absent","rt":"6986.9000000358","correct":false,"confidence":2},{"trial_n":133,"span":16,"encoder":"9586631228703088","distractor":"9586631220703088","target":"present","response":"absent","rt":"4998","correct":false,"confidence":2},{"trial_n":134,"span":15,"encoder":"622938577748014","distractor":"622938577748019","target":"present","response":"present","rt":"2731.8999999762","correct":true,"confidence":5},{"trial_n":135,"span":15,"encoder":"222270430932652","distractor":"222270430922652","target":"present","response":"present","rt":"5310.1999999881","correct":true,"confidence":4},{"trial_n":136,"span":16,"encoder":"7445677629097068","distractor":"7445677029097068","target":"absent","response":"absent","rt":"4306","correct":true,"confidence":2},{"trial_n":137,"span":16,"encoder":"6884254324596199","distractor":"6885254324596199","target":"absent","response":"absent","rt":"7007.8999999762","correct":true,"confidence":2},{"trial_n":138,"span":17,"encoder":"40528222877426638","distractor":"40528222877421638","target":"present","response":"present","rt":"3438.3000000119","correct":true,"confidence":5},{"trial_n":139,"span":17,"encoder":"97010794046604897","distractor":"97010794076604897","target":"present","response":"absent","rt":"8373","correct":false,"confidence":2},{"trial_n":140,"span":16,"encoder":"7943213672442651","distractor":"7942213672442651","target":"absent","response":"present","rt":"4074.4000000358","correct":false,"confidence":1}]