[{"trial_n":1,"span":8,"encoder":"33586329","distractor":"35586329","target":"present","response":"present","rt":"10369.100000024","correct":true,"confidence":-1},{"trial_n":2,"span":8,"encoder":"24019161","distractor":"24069161","target":"present","response":"present","rt":"2818.6000000238","correct":true,"confidence":-1},{"trial_n":3,"span":10,"encoder":"1067760683","distractor":"1067764683","target":"absent","response":"present","rt":"2941.5","correct":false,"confidence":-1},{"trial_n":4,"span":8,"encoder":"45389650","distractor":"45309650","target":"absent","response":"present","rt":"1969","correct":false,"confidence":-1},{"trial_n":5,"span":6,"encoder":"660632","distractor":"660612","target":"present","response":"present","rt":"1473.0999999046","correct":true,"confidence":-1},{"trial_n":6,"span":6,"encoder":"049040","distractor":"089040","target":"absent","response":"present","rt":"1132.5","correct":false,"confidence":-1},{"trial_n":7,"span":4,"encoder":"9079","distractor":"9029","target":"absent","response":"absent","rt":"4715.8999999762","correct":true,"confidence":-1},{"trial_n":8,"span":4,"encoder":"4094","distractor":"4084","target":"absent","response":"absent","rt":"1561","correct":true,"confidence":-1},{"trial_n":9,"span":6,"encoder":"645774","distractor":"648774","target":"absent","response":"absent","rt":"2934.8999999762","correct":true,"confidence":-1},{"trial_n":10,"span":6,"encoder":"598780","distractor":"538780","target":"present","response":"present","rt":"1501.6000000238","correct":true,"confidence":-1},{"trial_n":11,"span":8,"encoder":"23398909","distractor":"23398409","target":"present","response":"absent","rt":"2802.5999999046","correct":false,"confidence":-1},{"trial_n":12,"span":7,"encoder":"4594206","distractor":"4591206","target":"absent","response":"present","rt":"1621.1999999285","correct":false,"confidence":-1},{"trial_n":13,"span":6,"encoder":"699207","distractor":"699707","target":"absent","response":"absent","rt":"1910.7000000477","correct":true,"confidence":-1},{"trial_n":14,"span":6,"encoder":"593263","distractor":"583263","target":"present","response":"present","rt":"1578","correct":true,"confidence":-1},{"trial_n":15,"span":7,"encoder":"6195343","distractor":"6195843","target":"absent","response":"present","rt":"1951.0999999046","correct":false,"confidence":-1},{"trial_n":16,"span":6,"encoder":"090329","distractor":"790329","target":"absent","response":"present","rt":"5161.8999999762","correct":false,"confidence":-1},{"trial_n":17,"span":5,"encoder":"63650","distractor":"73650","target":"absent","response":"absent","rt":"1684.2000000477","correct":true,"confidence":-1},{"trial_n":18,"span":5,"encoder":"52612","distractor":"82612","target":"present","response":"present","rt":"1234.7999999523","correct":true,"confidence":-1},{"trial_n":19,"span":6,"encoder":"218059","distractor":"218099","target":"absent","response":"absent","rt":"1643.2000000477","correct":true,"confidence":-1},{"trial_n":20,"span":6,"encoder":"901164","distractor":"906164","target":"absent","response":"absent","rt":"1280.7000000477","correct":true,"confidence":-1},{"trial_n":21,"span":7,"encoder":"2656803","distractor":"2256803","target":"present","response":"present","rt":"3446.6000000238","correct":true,"confidence":3},{"trial_n":22,"span":7,"encoder":"8593210","distractor":"8593710","target":"present","response":"absent","rt":"2768.1000000238","correct":false,"confidence":4},{"trial_n":23,"span":6,"encoder":"224963","distractor":"724963","target":"present","response":"present","rt":"2926","correct":true,"confidence":5},{"trial_n":24,"span":6,"encoder":"247026","distractor":"247029","target":"absent","response":"absent","rt":"3083.8999999762","correct":true,"confidence":5},{"trial_n":25,"span":7,"encoder":"5072349","distractor":"5072348","target":"present","response":"present","rt":"2088","correct":true,"confidence":4},{"trial_n":26,"span":7,"encoder":"4401907","distractor":"4201907","target":"present","response":"absent","rt":"2413.2000000477","correct":false,"confidence":5},{"trial_n":27,"span":6,"encoder":"132229","distractor":"432229","target":"present","response":"present","rt":"2313","correct":true,"confidence":4},{"trial_n":28,"span":6,"encoder":"990969","distractor":"920969","target":"present","response":"present","rt":"3461.7000000477","correct":true,"confidence":5},{"trial_n":29,"span":7,"encoder":"3956377","distractor":"3956777","target":"present","response":"absent","rt":"2548.6000000238","correct":false,"confidence":4},{"trial_n":30,"span":6,"encoder":"334830","distractor":"333830","target":"absent","response":"absent","rt":"4936.1000000238","correct":true,"confidence":1},{"trial_n":31,"span":6,"encoder":"924740","distractor":"224740","target":"absent","response":"absent","rt":"2482.5","correct":true,"confidence":5},{"trial_n":32,"span":7,"encoder":"3099112","distractor":"3099102","target":"present","response":"absent","rt":"3239.5","correct":false,"confidence":5},{"trial_n":33,"span":6,"encoder":"151802","distractor":"151804","target":"present","response":"present","rt":"3893.2000000477","correct":true,"confidence":5},{"trial_n":34,"span":6,"encoder":"709993","distractor":"709933","target":"absent","response":"absent","rt":"6634.5","correct":true,"confidence":5},{"trial_n":35,"span":7,"encoder":"2649259","distractor":"2649959","target":"absent","response":"absent","rt":"3215.8999999762","correct":true,"confidence":5},{"trial_n":36,"span":7,"encoder":"5951149","distractor":"5951139","target":"absent","response":"absent","rt":"1582.3999999762","correct":true,"confidence":5},{"trial_n":37,"span":8,"encoder":"74389110","distractor":"74389210","target":"absent","response":"absent","rt":"1916.3999999762","correct":true,"confidence":5},{"trial_n":38,"span":8,"encoder":"12391168","distractor":"12391118","target":"present","response":"absent","rt":"5741.8999999762","correct":false,"confidence":4},{"trial_n":39,"span":7,"encoder":"8385612","distractor":"8365612","target":"present","response":"present","rt":"4136.5","correct":true,"confidence":2},{"trial_n":40,"span":7,"encoder":"1160998","distractor":"1161998","target":"present","response":"present","rt":"2929.2000000477","correct":true,"confidence":4},{"trial_n":41,"span":8,"encoder":"56055220","distractor":"56055120","target":"absent","response":"absent","rt":"3503","correct":true,"confidence":4},{"trial_n":42,"span":8,"encoder":"67793637","distractor":"17793637","target":"present","response":"present","rt":"2805","correct":true,"confidence":4},{"trial_n":43,"span":9,"encoder":"236240173","distractor":"236640173","target":"present","response":"present","rt":"4293.0999999046","correct":true,"confidence":4},{"trial_n":44,"span":9,"encoder":"595150750","distractor":"575150750","target":"present","response":"present","rt":"9130.2999999523","correct":true,"confidence":2},{"trial_n":45,"span":10,"encoder":"4953317518","distractor":"4953317508","target":"present","response":"absent","rt":"4075","correct":false,"confidence":3},{"trial_n":46,"span":9,"encoder":"175554387","distractor":"975554387","target":"absent","response":"present","rt":"4637","correct":false,"confidence":3},{"trial_n":47,"span":8,"encoder":"13169447","distractor":"13189447","target":"absent","response":"present","rt":"2378","correct":false,"confidence":4},{"trial_n":48,"span":7,"encoder":"9622041","distractor":"9122041","target":"absent","response":"absent","rt":"2534.7999999523","correct":true,"confidence":5},{"trial_n":49,"span":7,"encoder":"7447576","distractor":"4447576","target":"absent","response":"absent","rt":"1467.5","correct":true,"confidence":5},{"trial_n":50,"span":8,"encoder":"87236633","distractor":"67236633","target":"present","response":"present","rt":"2442","correct":true,"confidence":4},{"trial_n":51,"span":8,"encoder":"75958073","distractor":"72958073","target":"present","response":"present","rt":"3951.3000000715","correct":true,"confidence":1},{"trial_n":52,"span":9,"encoder":"248891128","distractor":"245891128","target":"present","response":"present","rt":"3231.2000000477","correct":true,"confidence":3},{"trial_n":53,"span":9,"encoder":"129667428","distractor":"029667428","target":"present","response":"present","rt":"5827.7000000477","correct":true,"confidence":4},{"trial_n":54,"span":10,"encoder":"8447818860","distractor":"8447898860","target":"absent","response":"present","rt":"2526.2999999523","correct":false,"confidence":4},{"trial_n":55,"span":9,"encoder":"467254139","distractor":"467284139","target":"absent","response":"absent","rt":"2012.5999999046","correct":true,"confidence":2},{"trial_n":56,"span":9,"encoder":"188044174","distractor":"188044374","target":"present","response":"absent","rt":"4040.3999999762","correct":false,"confidence":5},{"trial_n":57,"span":8,"encoder":"03171933","distractor":"13171933","target":"present","response":"present","rt":"2325.7000000477","correct":true,"confidence":4},{"trial_n":58,"span":8,"encoder":"68363233","distractor":"68363253","target":"absent","response":"absent","rt":"2134.6000000238","correct":true,"confidence":5},{"trial_n":59,"span":9,"encoder":"164688136","distractor":"164988136","target":"present","response":"present","rt":"1612.1999999285","correct":true,"confidence":4},{"trial_n":60,"span":9,"encoder":"271214867","distractor":"271213867","target":"present","response":"present","rt":"2481.7000000477","correct":true,"confidence":4},{"trial_n":61,"span":10,"encoder":"3847963218","distractor":"7847963218","target":"absent","response":"present","rt":"2814.6999999285","correct":false,"confidence":3},{"trial_n":62,"span":9,"encoder":"030708646","distractor":"010708646","target":"present","response":"present","rt":"2230.3999999762","correct":true,"confidence":2},{"trial_n":63,"span":9,"encoder":"239049047","distractor":"239049042","target":"present","response":"present","rt":"2500.1000000238","correct":true,"confidence":4},{"trial_n":64,"span":10,"encoder":"8121468138","distractor":"8121468132","target":"present","response":"present","rt":"3822.3999999762","correct":true,"confidence":4},{"trial_n":65,"span":10,"encoder":"7250161353","distractor":"7250161323","target":"absent","response":"absent","rt":"3707.2000000477","correct":true,"confidence":4},{"trial_n":66,"span":11,"encoder":"10940090487","distractor":"10140090487","target":"absent","response":"present","rt":"3465.8999999762","correct":false,"confidence":4},{"trial_n":67,"span":10,"encoder":"8309284641","distractor":"8309284241","target":"absent","response":"present","rt":"1992.1000000238","correct":false,"confidence":1},{"trial_n":68,"span":9,"encoder":"555165133","distractor":"555165733","target":"absent","response":"present","rt":"3179.6000000238","correct":false,"confidence":4},{"trial_n":69,"span":8,"encoder":"37102931","distractor":"37702931","target":"present","response":"absent","rt":"2420.8999999762","correct":false,"confidence":1},{"trial_n":70,"span":7,"encoder":"1114796","distractor":"1014796","target":"absent","response":"absent","rt":"1694.3999999762","correct":true,"confidence":5},{"trial_n":71,"span":8,"encoder":"26300870","distractor":"26300880","target":"present","response":"present","rt":"3632.6999999285","correct":true,"confidence":-1},{"trial_n":72,"span":8,"encoder":"67405485","distractor":"67405885","target":"present","response":"present","rt":"6819.6000000238","correct":true,"confidence":-1},{"trial_n":73,"span":9,"encoder":"745327200","distractor":"045327200","target":"absent","response":"absent","rt":"6861.2000000477","correct":true,"confidence":-1},{"trial_n":74,"span":9,"encoder":"187021460","distractor":"287021460","target":"absent","response":"absent","rt":"3395.3999999762","correct":true,"confidence":-1},{"trial_n":75,"span":10,"encoder":"9297637766","distractor":"9297687766","target":"present","response":"absent","rt":"7008.5","correct":false,"confidence":-1},{"trial_n":76,"span":9,"encoder":"820140494","distractor":"820147494","target":"present","response":"absent","rt":"6657.6000000238","correct":false,"confidence":-1},{"trial_n":77,"span":8,"encoder":"08478402","distractor":"08473402","target":"present","response":"present","rt":"6096","correct":true,"confidence":-1},{"trial_n":78,"span":8,"encoder":"93502978","distractor":"93505978","target":"absent","response":"absent","rt":"2915","correct":true,"confidence":-1},{"trial_n":79,"span":9,"encoder":"852709266","distractor":"852709267","target":"present","response":"present","rt":"4770.8000000715","correct":true,"confidence":-1},{"trial_n":80,"span":9,"encoder":"809463891","distractor":"209463891","target":"present","response":"present","rt":"4800.2000000477","correct":true,"confidence":-1},{"trial_n":81,"span":10,"encoder":"9142100715","distractor":"9142190715","target":"absent","response":"absent","rt":"2965.8000000715","correct":true,"confidence":-1},{"trial_n":82,"span":10,"encoder":"1765325237","distractor":"1765125237","target":"present","response":"absent","rt":"6635.7999999523","correct":false,"confidence":-1},{"trial_n":83,"span":9,"encoder":"926936027","distractor":"926935027","target":"present","response":"absent","rt":"996.69999992847","correct":false,"confidence":-1},{"trial_n":84,"span":8,"encoder":"14755069","distractor":"14155069","target":"present","response":"present","rt":"6411.7000000477","correct":true,"confidence":-1},{"trial_n":85,"span":8,"encoder":"50468320","distractor":"50478320","target":"present","response":"present","rt":"3013.6999999285","correct":true,"confidence":-1},{"trial_n":86,"span":9,"encoder":"843850153","distractor":"843850653","target":"absent","response":"present","rt":"1447.1999999285","correct":false,"confidence":-1},{"trial_n":87,"span":8,"encoder":"05589799","distractor":"05509799","target":"absent","response":"absent","rt":"2774.9000000954","correct":true,"confidence":-1},{"trial_n":88,"span":8,"encoder":"03946195","distractor":"03946125","target":"absent","response":"absent","rt":"3362.1000000238","correct":true,"confidence":-1},{"trial_n":89,"span":9,"encoder":"821411769","distractor":"821411669","target":"absent","response":"absent","rt":"5876.6000000238","correct":true,"confidence":-1},{"trial_n":90,"span":9,"encoder":"262592997","distractor":"262892997","target":"absent","response":"absent","rt":"4325.2999999523","correct":true,"confidence":-1},{"trial_n":91,"span":10,"encoder":"2929086068","distractor":"2929086061","target":"absent","response":"absent","rt":"1985","correct":true,"confidence":5},{"trial_n":92,"span":10,"encoder":"8128381204","distractor":"3128381204","target":"present","response":"present","rt":"2875.5","correct":true,"confidence":4},{"trial_n":93,"span":11,"encoder":"97153112797","distractor":"97153112795","target":"absent","response":"absent","rt":"2148.1000000238","correct":true,"confidence":5},{"trial_n":94,"span":11,"encoder":"39894323666","distractor":"39854323666","target":"absent","response":"present","rt":"8639.4000000954","correct":false,"confidence":4},{"trial_n":95,"span":10,"encoder":"3662816867","distractor":"3562816867","target":"present","response":"present","rt":"5838.6000000238","correct":true,"confidence":5},{"trial_n":96,"span":10,"encoder":"3213011686","distractor":"3216011686","target":"absent","response":"present","rt":"6193.7999999523","correct":false,"confidence":3},{"trial_n":97,"span":9,"encoder":"287581868","distractor":"287581866","target":"present","response":"present","rt":"6178","correct":true,"confidence":4},{"trial_n":98,"span":9,"encoder":"946230291","distractor":"986230291","target":"absent","response":"present","rt":"8520.6999999285","correct":false,"confidence":3},{"trial_n":99,"span":8,"encoder":"16844208","distractor":"06844208","target":"absent","response":"absent","rt":"2838.6999999285","correct":true,"confidence":4},{"trial_n":100,"span":8,"encoder":"02783236","distractor":"02733236","target":"absent","response":"present","rt":"5051.2999999523","correct":false,"confidence":2},{"trial_n":101,"span":7,"encoder":"2591491","distractor":"2291491","target":"absent","response":"absent","rt":"6488.8000000715","correct":true,"confidence":5},{"trial_n":102,"span":7,"encoder":"9307134","distractor":"9357134","target":"absent","response":"absent","rt":"3208.8999999762","correct":true,"confidence":5},{"trial_n":103,"span":8,"encoder":"72065225","distractor":"72065235","target":"present","response":"present","rt":"1712.5","correct":true,"confidence":5},{"trial_n":104,"span":8,"encoder":"96354383","distractor":"86354383","target":"absent","response":"absent","rt":"2454.5","correct":true,"confidence":5},{"trial_n":105,"span":9,"encoder":"275200377","distractor":"275200277","target":"present","response":"present","rt":"4874.2000000477","correct":true,"confidence":5},{"trial_n":106,"span":9,"encoder":"030499563","distractor":"030496563","target":"absent","response":"absent","rt":"2774.5","correct":true,"confidence":5},{"trial_n":107,"span":10,"encoder":"6692298814","distractor":"6692298812","target":"present","response":"absent","rt":"5185.0999999046","correct":false,"confidence":4},{"trial_n":108,"span":9,"encoder":"028213228","distractor":"026213228","target":"absent","response":"absent","rt":"4545.0999999046","correct":true,"confidence":1},{"trial_n":109,"span":9,"encoder":"383204995","distractor":"383201995","target":"absent","response":"present","rt":"3809.3999999762","correct":false,"confidence":3},{"trial_n":110,"span":8,"encoder":"48646015","distractor":"18646015","target":"present","response":"present","rt":"3770.5","correct":true,"confidence":3},{"trial_n":111,"span":8,"encoder":"79527417","distractor":"79557417","target":"absent","response":"absent","rt":"2676.3000000715","correct":true,"confidence":5},{"trial_n":112,"span":9,"encoder":"507367366","distractor":"567367366","target":"absent","response":"present","rt":"997.70000004768","correct":false,"confidence":1},{"trial_n":113,"span":8,"encoder":"04303451","distractor":"04303455","target":"present","response":"present","rt":"1800.9000000954","correct":true,"confidence":5},{"trial_n":114,"span":8,"encoder":"78453556","distractor":"74453556","target":"present","response":"absent","rt":"4431.3999999762","correct":false,"confidence":3},{"trial_n":115,"span":7,"encoder":"5990860","distractor":"5950860","target":"present","response":"present","rt":"1546.5","correct":true,"confidence":5},{"trial_n":116,"span":7,"encoder":"6504804","distractor":"6544804","target":"absent","response":"absent","rt":"5343.6000000238","correct":true,"confidence":4},{"trial_n":117,"span":8,"encoder":"91975604","distractor":"91975674","target":"absent","response":"absent","rt":"2227","correct":true,"confidence":4},{"trial_n":118,"span":8,"encoder":"51108098","distractor":"51108998","target":"absent","response":"absent","rt":"5507.6000000238","correct":true,"confidence":3},{"trial_n":119,"span":9,"encoder":"696293346","distractor":"696293846","target":"present","response":"present","rt":"1831.1999999285","correct":true,"confidence":5},{"trial_n":120,"span":9,"encoder":"116031802","distractor":"146031802","target":"present","response":"present","rt":"6458.6000000238","correct":true,"confidence":5},{"trial_n":121,"span":10,"encoder":"6077285376","distractor":"6077205376","target":"present","response":"present","rt":"5157.8000000715","correct":true,"confidence":4},{"trial_n":122,"span":10,"encoder":"4828161393","distractor":"4228161393","target":"present","response":"present","rt":"5089.1000000238","correct":true,"confidence":4},{"trial_n":123,"span":11,"encoder":"67377157132","distractor":"07377157132","target":"present","response":"present","rt":"7359.7000000477","correct":true,"confidence":5},{"trial_n":124,"span":11,"encoder":"07009158495","distractor":"00009158495","target":"present","response":"present","rt":"6760.8000000715","correct":true,"confidence":5},{"trial_n":125,"span":12,"encoder":"016150389179","distractor":"016150387179","target":"present","response":"present","rt":"1637.8999999762","correct":true,"confidence":1},{"trial_n":126,"span":12,"encoder":"249959894208","distractor":"249959894708","target":"present","response":"present","rt":"1088.1999999285","correct":true,"confidence":1},{"trial_n":127,"span":13,"encoder":"2881172005322","distractor":"2881192005322","target":"absent","response":"present","rt":"4083.8999999762","correct":false,"confidence":2},{"trial_n":128,"span":12,"encoder":"597139212930","distractor":"597939212930","target":"absent","response":"absent","rt":"5190.3999999762","correct":true,"confidence":3},{"trial_n":129,"span":12,"encoder":"439685054639","distractor":"439685004639","target":"present","response":"absent","rt":"5612","correct":false,"confidence":3},{"trial_n":130,"span":11,"encoder":"16575034763","distractor":"19575034763","target":"present","response":"present","rt":"1954","correct":true,"confidence":5},{"trial_n":131,"span":11,"encoder":"96716803222","distractor":"96776803222","target":"present","response":"absent","rt":"4671.1000000238","correct":false,"confidence":4},{"trial_n":132,"span":10,"encoder":"0137398056","distractor":"0837398056","target":"absent","response":"absent","rt":"1783.7999999523","correct":true,"confidence":5},{"trial_n":133,"span":10,"encoder":"8069199365","distractor":"8069199395","target":"absent","response":"absent","rt":"6071.5999999046","correct":true,"confidence":2},{"trial_n":134,"span":11,"encoder":"62732187700","distractor":"62734187700","target":"present","response":"present","rt":"5579.8000000715","correct":true,"confidence":3},{"trial_n":135,"span":11,"encoder":"16670362995","distractor":"26670362995","target":"absent","response":"absent","rt":"5383.2999999523","correct":true,"confidence":4},{"trial_n":136,"span":12,"encoder":"199240850036","distractor":"199440850036","target":"present","response":"present","rt":"7038.2000000477","correct":true,"confidence":3},{"trial_n":137,"span":12,"encoder":"731223899906","distractor":"731223899900","target":"absent","response":"absent","rt":"4166.5","correct":true,"confidence":3},{"trial_n":138,"span":13,"encoder":"0016595172668","distractor":"0016595174668","target":"present","response":"present","rt":"3430.6999999285","correct":true,"confidence":1},{"trial_n":139,"span":13,"encoder":"6520826321551","distractor":"6520826327551","target":"absent","response":"present","rt":"3486.7000000477","correct":false,"confidence":2},{"trial_n":140,"span":12,"encoder":"061594037193","distractor":"061594027193","target":"present","response":"present","rt":"3804.2000000477","correct":true,"confidence":2}]