[{"trial_n":1,"span":8,"encoder":"87219817","distractor":"87219877","target":"present","response":"present","rt":"3408","correct":true,"confidence":-1},{"trial_n":2,"span":8,"encoder":"19335850","distractor":"19335856","target":"present","response":"present","rt":"2672.5","correct":true,"confidence":-1},{"trial_n":3,"span":10,"encoder":"5864594961","distractor":"5864194961","target":"absent","response":"present","rt":"2385.1999999881","correct":false,"confidence":-1},{"trial_n":4,"span":8,"encoder":"58116868","distractor":"58136868","target":"absent","response":"present","rt":"1627.3000000119","correct":false,"confidence":-1},{"trial_n":5,"span":6,"encoder":"571436","distractor":"571536","target":"present","response":"present","rt":"2737.6999999881","correct":true,"confidence":-1},{"trial_n":6,"span":6,"encoder":"270391","distractor":"670391","target":"absent","response":"absent","rt":"2234.5","correct":true,"confidence":-1},{"trial_n":7,"span":8,"encoder":"24569834","distractor":"24569839","target":"absent","response":"absent","rt":"2009.2000000179","correct":true,"confidence":-1},{"trial_n":8,"span":8,"encoder":"18394961","distractor":"16394961","target":"present","response":"present","rt":"2175.8999999762","correct":true,"confidence":-1},{"trial_n":9,"span":10,"encoder":"8059678885","distractor":"8059674885","target":"present","response":"absent","rt":"2475.099999994","correct":false,"confidence":-1},{"trial_n":10,"span":8,"encoder":"24972881","distractor":"54972881","target":"present","response":"absent","rt":"1717.2999999821","correct":false,"confidence":-1},{"trial_n":11,"span":6,"encoder":"939892","distractor":"939992","target":"absent","response":"present","rt":"1824.1999999881","correct":false,"confidence":-1},{"trial_n":12,"span":5,"encoder":"66185","distractor":"66285","target":"absent","response":"present","rt":"1436.7000000179","correct":false,"confidence":-1},{"trial_n":13,"span":4,"encoder":"2713","distractor":"0713","target":"present","response":"absent","rt":"2173.7000000179","correct":false,"confidence":-1},{"trial_n":14,"span":3,"encoder":"146","distractor":"546","target":"present","response":"present","rt":"1484.7000000179","correct":true,"confidence":-1},{"trial_n":15,"span":3,"encoder":"249","distractor":"279","target":"present","response":"present","rt":"1031.1999999881","correct":true,"confidence":-1},{"trial_n":16,"span":4,"encoder":"7911","distractor":"7971","target":"absent","response":"absent","rt":"2015.599999994","correct":true,"confidence":-1},{"trial_n":17,"span":4,"encoder":"1645","distractor":"1615","target":"present","response":"present","rt":"1814.400000006","correct":true,"confidence":-1},{"trial_n":18,"span":5,"encoder":"40462","distractor":"40412","target":"absent","response":"absent","rt":"3274.3999999762","correct":true,"confidence":-1},{"trial_n":19,"span":5,"encoder":"36004","distractor":"16004","target":"absent","response":"absent","rt":"1311.2000000179","correct":true,"confidence":-1},{"trial_n":20,"span":6,"encoder":"479118","distractor":"449118","target":"absent","response":"absent","rt":"2850.1999999881","correct":true,"confidence":-1},{"trial_n":21,"span":6,"encoder":"824491","distractor":"824441","target":"present","response":"present","rt":"1996.599999994","correct":true,"confidence":5},{"trial_n":22,"span":7,"encoder":"1765578","distractor":"1705578","target":"present","response":"present","rt":"3061.1000000238","correct":true,"confidence":4},{"trial_n":23,"span":7,"encoder":"0072282","distractor":"0072212","target":"absent","response":"absent","rt":"2669.900000006","correct":true,"confidence":5},{"trial_n":24,"span":8,"encoder":"06339601","distractor":"06339608","target":"present","response":"present","rt":"2273.400000006","correct":true,"confidence":3},{"trial_n":25,"span":8,"encoder":"43819149","distractor":"43869149","target":"present","response":"absent","rt":"3080.5","correct":false,"confidence":2},{"trial_n":26,"span":7,"encoder":"5340292","distractor":"7340292","target":"present","response":"present","rt":"1768.599999994","correct":true,"confidence":3},{"trial_n":27,"span":7,"encoder":"9354816","distractor":"9354216","target":"absent","response":"absent","rt":"1955.900000006","correct":true,"confidence":4},{"trial_n":28,"span":8,"encoder":"89341041","distractor":"99341041","target":"absent","response":"absent","rt":"3524.2999999821","correct":true,"confidence":3},{"trial_n":29,"span":8,"encoder":"13812681","distractor":"13812081","target":"absent","response":"absent","rt":"2486.599999994","correct":true,"confidence":2},{"trial_n":30,"span":9,"encoder":"179441870","distractor":"179941870","target":"absent","response":"absent","rt":"2726.099999994","correct":true,"confidence":2},{"trial_n":31,"span":9,"encoder":"491866450","distractor":"471866450","target":"absent","response":"present","rt":"2012.6000000238","correct":false,"confidence":3},{"trial_n":32,"span":8,"encoder":"77163291","distractor":"77163691","target":"present","response":"present","rt":"2115","correct":true,"confidence":5},{"trial_n":33,"span":8,"encoder":"33310525","distractor":"33310505","target":"present","response":"present","rt":"1956.7999999821","correct":true,"confidence":4},{"trial_n":34,"span":9,"encoder":"208721672","distractor":"201721672","target":"absent","response":"absent","rt":"2002.900000006","correct":true,"confidence":3},{"trial_n":35,"span":9,"encoder":"011336545","distractor":"011336541","target":"present","response":"present","rt":"2491.5","correct":true,"confidence":3},{"trial_n":36,"span":10,"encoder":"3409083361","distractor":"8409083361","target":"absent","response":"absent","rt":"1948.8000000119","correct":true,"confidence":3},{"trial_n":37,"span":10,"encoder":"6869357870","distractor":"6869355870","target":"present","response":"absent","rt":"1993.5","correct":false,"confidence":1},{"trial_n":38,"span":9,"encoder":"151112483","distractor":"151112493","target":"absent","response":"absent","rt":"3585.2000000179","correct":true,"confidence":2},{"trial_n":39,"span":9,"encoder":"789808327","distractor":"789898327","target":"absent","response":"absent","rt":"2484.099999994","correct":true,"confidence":2},{"trial_n":40,"span":10,"encoder":"2453656788","distractor":"2453656718","target":"present","response":"present","rt":"2601.099999994","correct":true,"confidence":3},{"trial_n":41,"span":10,"encoder":"9271676010","distractor":"9276676010","target":"absent","response":"absent","rt":"2865.1000000238","correct":true,"confidence":2},{"trial_n":42,"span":11,"encoder":"10961394610","distractor":"10961394510","target":"present","response":"present","rt":"1911.5","correct":true,"confidence":3},{"trial_n":43,"span":11,"encoder":"68261430768","distractor":"68261480768","target":"present","response":"present","rt":"2939.900000006","correct":true,"confidence":3},{"trial_n":44,"span":12,"encoder":"934067406676","distractor":"934067206676","target":"present","response":"present","rt":"1815.400000006","correct":true,"confidence":4},{"trial_n":45,"span":12,"encoder":"414220850558","distractor":"314220850558","target":"present","response":"present","rt":"3410.5","correct":true,"confidence":1},{"trial_n":46,"span":13,"encoder":"0673578511388","distractor":"0673578518388","target":"absent","response":"present","rt":"1960.8999999762","correct":false,"confidence":2},{"trial_n":47,"span":12,"encoder":"706321487707","distractor":"702321487707","target":"present","response":"absent","rt":"2767.3000000119","correct":false,"confidence":3},{"trial_n":48,"span":11,"encoder":"94604163885","distractor":"94604163888","target":"present","response":"present","rt":"1928","correct":true,"confidence":2},{"trial_n":49,"span":11,"encoder":"59990525493","distractor":"59990545493","target":"absent","response":"present","rt":"2123.3000000119","correct":false,"confidence":4},{"trial_n":50,"span":10,"encoder":"2104398324","distractor":"2104498324","target":"absent","response":"absent","rt":"3478.400000006","correct":true,"confidence":2},{"trial_n":51,"span":10,"encoder":"5486214501","distractor":"5486216501","target":"absent","response":"present","rt":"2127.8999999762","correct":false,"confidence":3},{"trial_n":52,"span":9,"encoder":"393141733","distractor":"393140733","target":"absent","response":"present","rt":"2334.900000006","correct":false,"confidence":4},{"trial_n":53,"span":8,"encoder":"89868743","distractor":"85868743","target":"present","response":"present","rt":"1794.8000000119","correct":true,"confidence":5},{"trial_n":54,"span":8,"encoder":"53924265","distractor":"53927265","target":"present","response":"absent","rt":"2796.599999994","correct":false,"confidence":2},{"trial_n":55,"span":7,"encoder":"0436813","distractor":"0636813","target":"present","response":"present","rt":"1966.8000000119","correct":true,"confidence":2},{"trial_n":56,"span":7,"encoder":"7990866","distractor":"7910866","target":"absent","response":"absent","rt":"1902.099999994","correct":true,"confidence":4},{"trial_n":57,"span":8,"encoder":"87355442","distractor":"87354442","target":"present","response":"present","rt":"1790.2000000179","correct":true,"confidence":4},{"trial_n":58,"span":8,"encoder":"63645797","distractor":"63645707","target":"present","response":"present","rt":"1961.1999999881","correct":true,"confidence":4},{"trial_n":59,"span":9,"encoder":"682812864","distractor":"282812864","target":"absent","response":"present","rt":"11267.200000018","correct":false,"confidence":3},{"trial_n":60,"span":8,"encoder":"40656235","distractor":"40056235","target":"absent","response":"present","rt":"2477.2999999821","correct":false,"confidence":2},{"trial_n":61,"span":7,"encoder":"2311714","distractor":"2310714","target":"present","response":"present","rt":"1720.3000000119","correct":true,"confidence":3},{"trial_n":62,"span":7,"encoder":"6610559","distractor":"6610552","target":"absent","response":"absent","rt":"1867.099999994","correct":true,"confidence":5},{"trial_n":63,"span":8,"encoder":"55652333","distractor":"55653333","target":"present","response":"present","rt":"2186.3000000119","correct":true,"confidence":4},{"trial_n":64,"span":8,"encoder":"17059998","distractor":"17359998","target":"absent","response":"absent","rt":"2032.900000006","correct":true,"confidence":5},{"trial_n":65,"span":9,"encoder":"430496169","distractor":"430796169","target":"present","response":"present","rt":"3403.5","correct":true,"confidence":2},{"trial_n":66,"span":9,"encoder":"946952630","distractor":"906952630","target":"present","response":"absent","rt":"2008.099999994","correct":false,"confidence":2},{"trial_n":67,"span":8,"encoder":"76599323","distractor":"76599325","target":"present","response":"absent","rt":"2161.900000006","correct":false,"confidence":3},{"trial_n":68,"span":7,"encoder":"3592193","distractor":"3292193","target":"absent","response":"present","rt":"2604","correct":false,"confidence":4},{"trial_n":69,"span":6,"encoder":"493552","distractor":"493252","target":"absent","response":"absent","rt":"1789.099999994","correct":true,"confidence":4},{"trial_n":70,"span":6,"encoder":"919688","distractor":"919648","target":"absent","response":"absent","rt":"1600.900000006","correct":true,"confidence":5},{"trial_n":71,"span":8,"encoder":"43694566","distractor":"43664566","target":"present","response":"present","rt":"3220.599999994","correct":true,"confidence":-1},{"trial_n":72,"span":8,"encoder":"08486646","distractor":"08486656","target":"present","response":"present","rt":"2948.400000006","correct":true,"confidence":-1},{"trial_n":73,"span":9,"encoder":"131407373","distractor":"191407373","target":"absent","response":"absent","rt":"2281.599999994","correct":true,"confidence":-1},{"trial_n":74,"span":9,"encoder":"185571357","distractor":"184571357","target":"absent","response":"absent","rt":"2735","correct":true,"confidence":-1},{"trial_n":75,"span":10,"encoder":"2439888095","distractor":"2439868095","target":"present","response":"present","rt":"2018.400000006","correct":true,"confidence":-1},{"trial_n":76,"span":10,"encoder":"0243189251","distractor":"0243089251","target":"present","response":"present","rt":"3028","correct":true,"confidence":-1},{"trial_n":77,"span":11,"encoder":"95563267582","distractor":"95563267585","target":"present","response":"present","rt":"1443.2000000179","correct":true,"confidence":-1},{"trial_n":78,"span":11,"encoder":"12181271689","distractor":"12181278689","target":"absent","response":"present","rt":"3023.8000000119","correct":false,"confidence":-1},{"trial_n":79,"span":10,"encoder":"1661527392","distractor":"1861527392","target":"present","response":"present","rt":"1856.400000006","correct":true,"confidence":-1},{"trial_n":80,"span":10,"encoder":"6651247413","distractor":"6651217413","target":"absent","response":"present","rt":"1589.900000006","correct":false,"confidence":-1},{"trial_n":81,"span":9,"encoder":"649761635","distractor":"449761635","target":"absent","response":"absent","rt":"3284","correct":true,"confidence":-1},{"trial_n":82,"span":9,"encoder":"480353547","distractor":"490353547","target":"present","response":"absent","rt":"2477.599999994","correct":false,"confidence":-1},{"trial_n":83,"span":8,"encoder":"59507360","distractor":"59507260","target":"absent","response":"present","rt":"4059.8000000119","correct":false,"confidence":-1},{"trial_n":84,"span":7,"encoder":"5064573","distractor":"5064575","target":"present","response":"present","rt":"1358.099999994","correct":true,"confidence":-1},{"trial_n":85,"span":7,"encoder":"8735407","distractor":"8735447","target":"present","response":"present","rt":"1609.900000006","correct":true,"confidence":-1},{"trial_n":86,"span":8,"encoder":"32344844","distractor":"32364844","target":"present","response":"present","rt":"1436.2000000179","correct":true,"confidence":-1},{"trial_n":87,"span":8,"encoder":"18368391","distractor":"18368399","target":"absent","response":"absent","rt":"2126.5","correct":true,"confidence":-1},{"trial_n":88,"span":9,"encoder":"737318214","distractor":"737318254","target":"present","response":"present","rt":"1823.900000006","correct":true,"confidence":-1},{"trial_n":89,"span":9,"encoder":"691244900","distractor":"691294900","target":"absent","response":"present","rt":"1228.400000006","correct":false,"confidence":-1},{"trial_n":90,"span":8,"encoder":"05281402","distractor":"05281802","target":"absent","response":"absent","rt":"1675.5","correct":true,"confidence":-1},{"trial_n":91,"span":8,"encoder":"23378444","distractor":"28378444","target":"present","response":"absent","rt":"4514","correct":false,"confidence":2},{"trial_n":92,"span":7,"encoder":"0214704","distractor":"0274704","target":"present","response":"present","rt":"2162.599999994","correct":true,"confidence":5},{"trial_n":93,"span":7,"encoder":"0858526","distractor":"0858426","target":"present","response":"present","rt":"2916.400000006","correct":true,"confidence":5},{"trial_n":94,"span":8,"encoder":"51679242","distractor":"51675242","target":"absent","response":"absent","rt":"3281.1999999881","correct":true,"confidence":4},{"trial_n":95,"span":8,"encoder":"10884512","distractor":"10824512","target":"present","response":"absent","rt":"4401.7000000179","correct":false,"confidence":2},{"trial_n":96,"span":7,"encoder":"9777550","distractor":"6777550","target":"absent","response":"absent","rt":"2444","correct":true,"confidence":5},{"trial_n":97,"span":7,"encoder":"3092089","distractor":"3002089","target":"absent","response":"absent","rt":"3066.3000000119","correct":true,"confidence":3},{"trial_n":98,"span":8,"encoder":"30839000","distractor":"30836000","target":"present","response":"present","rt":"2565.400000006","correct":true,"confidence":5},{"trial_n":99,"span":8,"encoder":"10921534","distractor":"10321534","target":"present","response":"present","rt":"2555.1000000238","correct":true,"confidence":4},{"trial_n":100,"span":9,"encoder":"367533839","distractor":"367533879","target":"present","response":"absent","rt":"4745.7000000179","correct":false,"confidence":1},{"trial_n":101,"span":8,"encoder":"44391082","distractor":"44391087","target":"absent","response":"absent","rt":"1699.400000006","correct":true,"confidence":5},{"trial_n":102,"span":8,"encoder":"05717557","distractor":"07717557","target":"absent","response":"absent","rt":"2645.3000000119","correct":true,"confidence":2},{"trial_n":103,"span":9,"encoder":"356923959","distractor":"356923951","target":"present","response":"present","rt":"1769.599999994","correct":true,"confidence":4},{"trial_n":104,"span":9,"encoder":"932420886","distractor":"932429886","target":"present","response":"present","rt":"3070.5","correct":true,"confidence":3},{"trial_n":105,"span":10,"encoder":"1212879929","distractor":"9212879929","target":"absent","response":"present","rt":"1734.900000006","correct":false,"confidence":2},{"trial_n":106,"span":9,"encoder":"279659997","distractor":"270659997","target":"present","response":"absent","rt":"3773.8999999762","correct":false,"confidence":3},{"trial_n":107,"span":8,"encoder":"69834487","distractor":"69834482","target":"absent","response":"absent","rt":"1806.099999994","correct":true,"confidence":4},{"trial_n":108,"span":8,"encoder":"33537485","distractor":"33537480","target":"present","response":"present","rt":"4030.2000000179","correct":true,"confidence":1},{"trial_n":109,"span":9,"encoder":"977892777","distractor":"977892677","target":"present","response":"present","rt":"1690","correct":true,"confidence":5},{"trial_n":110,"span":9,"encoder":"884251859","distractor":"834251859","target":"present","response":"absent","rt":"3386.2999999821","correct":false,"confidence":2},{"trial_n":111,"span":8,"encoder":"20642630","distractor":"20602630","target":"present","response":"absent","rt":"2770.1999999881","correct":false,"confidence":2},{"trial_n":112,"span":7,"encoder":"8403693","distractor":"8403691","target":"absent","response":"present","rt":"3512","correct":false,"confidence":1},{"trial_n":113,"span":6,"encoder":"369740","distractor":"969740","target":"present","response":"present","rt":"2262.3999999762","correct":true,"confidence":1},{"trial_n":114,"span":6,"encoder":"364310","distractor":"364313","target":"absent","response":"absent","rt":"4285.900000006","correct":true,"confidence":3},{"trial_n":115,"span":7,"encoder":"2062456","distractor":"2062455","target":"present","response":"present","rt":"55251.599999994","correct":true,"confidence":1},{"trial_n":116,"span":7,"encoder":"8377524","distractor":"8374524","target":"absent","response":"present","rt":"4965.1000000238","correct":false,"confidence":2},{"trial_n":117,"span":6,"encoder":"851046","distractor":"251046","target":"absent","response":"absent","rt":"3737.900000006","correct":true,"confidence":2},{"trial_n":118,"span":6,"encoder":"081618","distractor":"681618","target":"present","response":"present","rt":"2054","correct":true,"confidence":3},{"trial_n":119,"span":7,"encoder":"5541908","distractor":"5541308","target":"absent","response":"present","rt":"2287.8999999762","correct":false,"confidence":3},{"trial_n":120,"span":6,"encoder":"928962","distractor":"928362","target":"absent","response":"present","rt":"2697.099999994","correct":false,"confidence":1},{"trial_n":121,"span":5,"encoder":"34527","distractor":"34327","target":"absent","response":"absent","rt":"2467.400000006","correct":true,"confidence":5},{"trial_n":122,"span":5,"encoder":"22803","distractor":"22804","target":"present","response":"present","rt":"1465.7999999821","correct":true,"confidence":5},{"trial_n":123,"span":6,"encoder":"874086","distractor":"674086","target":"absent","response":"absent","rt":"1847.6999999881","correct":true,"confidence":5},{"trial_n":124,"span":6,"encoder":"833374","distractor":"833373","target":"present","response":"present","rt":"2162.1999999881","correct":true,"confidence":5},{"trial_n":125,"span":7,"encoder":"2939818","distractor":"2639818","target":"present","response":"present","rt":"2289.8000000119","correct":true,"confidence":5},{"trial_n":126,"span":7,"encoder":"3123879","distractor":"3123849","target":"present","response":"present","rt":"1590.400000006","correct":true,"confidence":5},{"trial_n":127,"span":8,"encoder":"43744120","distractor":"43744128","target":"present","response":"present","rt":"1365.5","correct":true,"confidence":5},{"trial_n":128,"span":8,"encoder":"08274780","distractor":"08272780","target":"absent","response":"absent","rt":"2283.599999994","correct":true,"confidence":5},{"trial_n":129,"span":9,"encoder":"633218161","distractor":"630218161","target":"present","response":"absent","rt":"2408.3000000119","correct":false,"confidence":2},{"trial_n":130,"span":8,"encoder":"73924955","distractor":"73914955","target":"absent","response":"absent","rt":"2826.5","correct":true,"confidence":5},{"trial_n":131,"span":8,"encoder":"99852349","distractor":"99552349","target":"present","response":"present","rt":"1863","correct":true,"confidence":3},{"trial_n":132,"span":9,"encoder":"312437145","distractor":"612437145","target":"present","response":"absent","rt":"1519.1999999881","correct":false,"confidence":1},{"trial_n":133,"span":8,"encoder":"62252524","distractor":"62252523","target":"absent","response":"absent","rt":"1629.099999994","correct":true,"confidence":5},{"trial_n":134,"span":8,"encoder":"75746414","distractor":"75746444","target":"absent","response":"absent","rt":"1636","correct":true,"confidence":5},{"trial_n":135,"span":9,"encoder":"229701451","distractor":"229761451","target":"absent","response":"absent","rt":"1720.1999999881","correct":true,"confidence":2},{"trial_n":136,"span":9,"encoder":"892258014","distractor":"192258014","target":"absent","response":"absent","rt":"2083.400000006","correct":true,"confidence":1},{"trial_n":137,"span":10,"encoder":"6484893578","distractor":"6484853578","target":"absent","response":"absent","rt":"2434.7999999821","correct":true,"confidence":5},{"trial_n":138,"span":10,"encoder":"4471092279","distractor":"4478092279","target":"absent","response":"absent","rt":"3375.5","correct":true,"confidence":2},{"trial_n":139,"span":11,"encoder":"11988430313","distractor":"11981430313","target":"absent","response":"absent","rt":"1710.8000000119","correct":true,"confidence":3},{"trial_n":140,"span":11,"encoder":"01010454687","distractor":"01010454682","target":"absent","response":"absent","rt":"1607.6000000238","correct":true,"confidence":5}]