[{"trial_n":1,"span":8,"encoder":"59637240","distractor":"59637250","target":"present","response":"absent","rt":"3552.1000000089","correct":false,"confidence":-1},{"trial_n":2,"span":6,"encoder":"479848","distractor":"979848","target":"present","response":"absent","rt":"7712.200000003","correct":false,"confidence":-1},{"trial_n":3,"span":4,"encoder":"3532","distractor":"3562","target":"absent","response":"present","rt":"1415.6000000089","correct":false,"confidence":-1},{"trial_n":4,"span":2,"encoder":"19","distractor":"16","target":"absent","response":"absent","rt":"1107.900000006","correct":true,"confidence":-1},{"trial_n":5,"span":2,"encoder":"21","distractor":"27","target":"present","response":"present","rt":"875.29999999702","correct":true,"confidence":-1},{"trial_n":6,"span":4,"encoder":"7022","distractor":"7023","target":"absent","response":"absent","rt":"910","correct":true,"confidence":-1},{"trial_n":7,"span":4,"encoder":"1620","distractor":"1621","target":"present","response":"present","rt":"1045.8999999911","correct":true,"confidence":-1},{"trial_n":8,"span":6,"encoder":"204535","distractor":"234535","target":"present","response":"present","rt":"1030.900000006","correct":true,"confidence":-1},{"trial_n":9,"span":6,"encoder":"994130","distractor":"964130","target":"present","response":"present","rt":"870.20000000298","correct":true,"confidence":-1},{"trial_n":10,"span":8,"encoder":"59955350","distractor":"59975350","target":"absent","response":"absent","rt":"463.40000000596","correct":true,"confidence":-1},{"trial_n":11,"span":8,"encoder":"78041149","distractor":"78941149","target":"absent","response":"present","rt":"978.90000000596","correct":false,"confidence":-1},{"trial_n":12,"span":7,"encoder":"0387273","distractor":"0387373","target":"present","response":"present","rt":"1194.5","correct":true,"confidence":-1},{"trial_n":13,"span":7,"encoder":"0595232","distractor":"4595232","target":"absent","response":"present","rt":"2458.700000003","correct":false,"confidence":-1},{"trial_n":14,"span":6,"encoder":"307682","distractor":"304682","target":"absent","response":"present","rt":"14503.799999997","correct":false,"confidence":-1},{"trial_n":15,"span":5,"encoder":"36811","distractor":"36871","target":"present","response":"present","rt":"2117.6999999881","correct":true,"confidence":-1},{"trial_n":16,"span":5,"encoder":"00186","distractor":"00886","target":"present","response":"present","rt":"921.09999999404","correct":true,"confidence":-1},{"trial_n":17,"span":6,"encoder":"970632","distractor":"990632","target":"absent","response":"present","rt":"1258.799999997","correct":false,"confidence":-1},{"trial_n":18,"span":5,"encoder":"36824","distractor":"36829","target":"absent","response":"absent","rt":"1010.3999999911","correct":true,"confidence":-1},{"trial_n":19,"span":5,"encoder":"63106","distractor":"63406","target":"present","response":"present","rt":"2726.3000000119","correct":true,"confidence":-1},{"trial_n":20,"span":6,"encoder":"011775","distractor":"011776","target":"absent","response":"absent","rt":"888.20000000298","correct":true,"confidence":-1},{"trial_n":21,"span":6,"encoder":"564568","distractor":"564508","target":"absent","response":"absent","rt":"1641.299999997","correct":true,"confidence":2},{"trial_n":22,"span":7,"encoder":"0040324","distractor":"0240324","target":"absent","response":"absent","rt":"3193.200000003","correct":true,"confidence":4},{"trial_n":23,"span":7,"encoder":"0119730","distractor":"0111730","target":"present","response":"present","rt":"4559","correct":true,"confidence":3},{"trial_n":24,"span":8,"encoder":"52728315","distractor":"52728915","target":"absent","response":"absent","rt":"4451.799999997","correct":true,"confidence":3},{"trial_n":25,"span":8,"encoder":"02231073","distractor":"02235073","target":"absent","response":"absent","rt":"1858.599999994","correct":true,"confidence":3},{"trial_n":26,"span":9,"encoder":"542642441","distractor":"542642401","target":"present","response":"present","rt":"2859.700000003","correct":true,"confidence":3},{"trial_n":27,"span":9,"encoder":"142422402","distractor":"142422422","target":"present","response":"present","rt":"1864.099999994","correct":true,"confidence":1},{"trial_n":28,"span":10,"encoder":"7453081521","distractor":"7450081521","target":"present","response":"present","rt":"3926.5","correct":true,"confidence":2},{"trial_n":29,"span":10,"encoder":"3181345100","distractor":"3181845100","target":"absent","response":"present","rt":"2256.5","correct":false,"confidence":3},{"trial_n":30,"span":9,"encoder":"000704827","distractor":"000704837","target":"present","response":"present","rt":"2908.1000000089","correct":true,"confidence":4},{"trial_n":31,"span":9,"encoder":"428411148","distractor":"428411140","target":"present","response":"present","rt":"2636.8999999911","correct":true,"confidence":4},{"trial_n":32,"span":10,"encoder":"5490737005","distractor":"4490737005","target":"present","response":"present","rt":"4962.200000003","correct":true,"confidence":2},{"trial_n":33,"span":10,"encoder":"0356392521","distractor":"0356392321","target":"absent","response":"absent","rt":"3021.900000006","correct":true,"confidence":3},{"trial_n":34,"span":11,"encoder":"14025344727","distractor":"14025444727","target":"absent","response":"present","rt":"3602.799999997","correct":false,"confidence":2},{"trial_n":35,"span":10,"encoder":"6843612811","distractor":"6843612819","target":"present","response":"present","rt":"1713.299999997","correct":true,"confidence":2},{"trial_n":36,"span":10,"encoder":"8114025764","distractor":"8114022764","target":"absent","response":"present","rt":"3422.5","correct":false,"confidence":3},{"trial_n":37,"span":9,"encoder":"562809603","distractor":"562009603","target":"present","response":"present","rt":"2423.1000000089","correct":true,"confidence":3},{"trial_n":38,"span":9,"encoder":"040135516","distractor":"040135316","target":"present","response":"present","rt":"2654.400000006","correct":true,"confidence":3},{"trial_n":39,"span":10,"encoder":"8971931784","distractor":"8171931784","target":"absent","response":"present","rt":"2374.799999997","correct":false,"confidence":3},{"trial_n":40,"span":9,"encoder":"828222968","distractor":"898222968","target":"present","response":"present","rt":"3616.099999994","correct":true,"confidence":3},{"trial_n":41,"span":9,"encoder":"495511955","distractor":"491511955","target":"absent","response":"present","rt":"2751.900000006","correct":false,"confidence":3},{"trial_n":42,"span":8,"encoder":"19284482","distractor":"79284482","target":"absent","response":"absent","rt":"3187","correct":true,"confidence":4},{"trial_n":43,"span":8,"encoder":"20078588","distractor":"50078588","target":"present","response":"present","rt":"2072.5","correct":true,"confidence":3},{"trial_n":44,"span":9,"encoder":"239302526","distractor":"239302926","target":"present","response":"present","rt":"5217.1999999881","correct":true,"confidence":4},{"trial_n":45,"span":9,"encoder":"396424423","distractor":"396424429","target":"absent","response":"absent","rt":"2087.5","correct":true,"confidence":4},{"trial_n":46,"span":10,"encoder":"1931707703","distractor":"1931707603","target":"absent","response":"absent","rt":"4301.6000000089","correct":true,"confidence":2},{"trial_n":47,"span":10,"encoder":"2962963294","distractor":"2963963294","target":"present","response":"absent","rt":"5412.299999997","correct":false,"confidence":3},{"trial_n":48,"span":9,"encoder":"397032855","distractor":"397022855","target":"present","response":"present","rt":"5140.299999997","correct":true,"confidence":3},{"trial_n":49,"span":9,"encoder":"471862846","distractor":"471862841","target":"absent","response":"absent","rt":"2173.200000003","correct":true,"confidence":5},{"trial_n":50,"span":10,"encoder":"0183541088","distractor":"0183541087","target":"absent","response":"absent","rt":"1752.299999997","correct":true,"confidence":5},{"trial_n":51,"span":10,"encoder":"0804376979","distractor":"0804376970","target":"present","response":"present","rt":"2234.299999997","correct":true,"confidence":3},{"trial_n":52,"span":11,"encoder":"46891828091","distractor":"46891828071","target":"absent","response":"absent","rt":"2032.6000000089","correct":true,"confidence":4},{"trial_n":53,"span":11,"encoder":"15671869179","distractor":"15671869679","target":"present","response":"present","rt":"2107.299999997","correct":true,"confidence":3},{"trial_n":54,"span":12,"encoder":"419801045732","distractor":"419891045732","target":"present","response":"present","rt":"3358.599999994","correct":true,"confidence":4},{"trial_n":55,"span":12,"encoder":"671472836333","distractor":"671473836333","target":"present","response":"absent","rt":"2243.599999994","correct":false,"confidence":3},{"trial_n":56,"span":11,"encoder":"86242457928","distractor":"86242457328","target":"absent","response":"present","rt":"3339.099999994","correct":false,"confidence":3},{"trial_n":57,"span":10,"encoder":"3616231281","distractor":"3616251281","target":"present","response":"present","rt":"3321.700000003","correct":true,"confidence":3},{"trial_n":58,"span":10,"encoder":"0280411432","distractor":"0580411432","target":"present","response":"present","rt":"2878","correct":true,"confidence":3},{"trial_n":59,"span":11,"encoder":"28241826345","distractor":"38241826345","target":"present","response":"absent","rt":"5481.200000003","correct":false,"confidence":2},{"trial_n":60,"span":10,"encoder":"8727356280","distractor":"8727356080","target":"present","response":"present","rt":"4363.799999997","correct":true,"confidence":3},{"trial_n":61,"span":10,"encoder":"8447979336","distractor":"8447989336","target":"absent","response":"absent","rt":"2619.099999994","correct":true,"confidence":4},{"trial_n":62,"span":11,"encoder":"02052581421","distractor":"08052581421","target":"absent","response":"present","rt":"6185.200000003","correct":false,"confidence":4},{"trial_n":63,"span":10,"encoder":"1682804582","distractor":"0682804582","target":"absent","response":"present","rt":"3852.1000000089","correct":false,"confidence":3},{"trial_n":64,"span":9,"encoder":"043361994","distractor":"343361994","target":"absent","response":"absent","rt":"4305.700000003","correct":true,"confidence":4},{"trial_n":65,"span":9,"encoder":"985732900","distractor":"985733900","target":"absent","response":"present","rt":"3328.200000003","correct":false,"confidence":3},{"trial_n":66,"span":8,"encoder":"43634867","distractor":"43634807","target":"absent","response":"present","rt":"3181.3999999911","correct":false,"confidence":4},{"trial_n":67,"span":7,"encoder":"6770637","distractor":"6770337","target":"present","response":"absent","rt":"5973.1999999881","correct":false,"confidence":3},{"trial_n":68,"span":6,"encoder":"043081","distractor":"043071","target":"absent","response":"absent","rt":"2958","correct":true,"confidence":5},{"trial_n":69,"span":6,"encoder":"317406","distractor":"317506","target":"present","response":"present","rt":"2571.6999999881","correct":true,"confidence":5},{"trial_n":70,"span":7,"encoder":"6929090","distractor":"6929098","target":"present","response":"absent","rt":"2853.900000006","correct":false,"confidence":1},{"trial_n":71,"span":8,"encoder":"21535350","distractor":"21535352","target":"present","response":"present","rt":"2887.299999997","correct":true,"confidence":-1},{"trial_n":72,"span":8,"encoder":"91263637","distractor":"99263637","target":"present","response":"present","rt":"5397.5","correct":true,"confidence":-1},{"trial_n":73,"span":9,"encoder":"764013290","distractor":"760013290","target":"absent","response":"absent","rt":"5580.8999999911","correct":true,"confidence":-1},{"trial_n":74,"span":9,"encoder":"092040943","distractor":"092040945","target":"absent","response":"absent","rt":"3344.1999999881","correct":true,"confidence":-1},{"trial_n":75,"span":10,"encoder":"0449009154","distractor":"0409009154","target":"present","response":"present","rt":"8151","correct":true,"confidence":-1},{"trial_n":76,"span":10,"encoder":"9370627132","distractor":"9070627132","target":"present","response":"absent","rt":"6009.400000006","correct":false,"confidence":-1},{"trial_n":77,"span":9,"encoder":"683874475","distractor":"683874075","target":"absent","response":"absent","rt":"3902.5","correct":true,"confidence":-1},{"trial_n":78,"span":9,"encoder":"396145983","distractor":"396145973","target":"present","response":"present","rt":"4926","correct":true,"confidence":-1},{"trial_n":79,"span":10,"encoder":"3495274290","distractor":"3495274291","target":"absent","response":"absent","rt":"1247.5","correct":true,"confidence":-1},{"trial_n":80,"span":10,"encoder":"8917941081","distractor":"8917941001","target":"absent","response":"absent","rt":"1427.5","correct":true,"confidence":-1},{"trial_n":81,"span":11,"encoder":"49445007500","distractor":"49445002500","target":"absent","response":"absent","rt":"2702.5","correct":true,"confidence":-1},{"trial_n":82,"span":11,"encoder":"44158151311","distractor":"44158150311","target":"present","response":"present","rt":"1757.299999997","correct":true,"confidence":-1},{"trial_n":83,"span":12,"encoder":"907798037305","distractor":"957798037305","target":"absent","response":"present","rt":"4165.099999994","correct":false,"confidence":-1},{"trial_n":84,"span":11,"encoder":"40203264874","distractor":"40203284874","target":"absent","response":"absent","rt":"4134.400000006","correct":true,"confidence":-1},{"trial_n":85,"span":11,"encoder":"14736554285","distractor":"14736554288","target":"present","response":"present","rt":"2013.599999994","correct":true,"confidence":-1},{"trial_n":86,"span":12,"encoder":"901964662855","distractor":"971964662855","target":"absent","response":"absent","rt":"4860.799999997","correct":true,"confidence":-1},{"trial_n":87,"span":12,"encoder":"648108265551","distractor":"848108265551","target":"present","response":"present","rt":"3028.200000003","correct":true,"confidence":-1},{"trial_n":88,"span":13,"encoder":"7574479234775","distractor":"7564479234775","target":"absent","response":"present","rt":"7554.1999999881","correct":false,"confidence":-1},{"trial_n":89,"span":12,"encoder":"535011275495","distractor":"535011295495","target":"absent","response":"present","rt":"5478.400000006","correct":false,"confidence":-1},{"trial_n":90,"span":11,"encoder":"47971302070","distractor":"47971702070","target":"present","response":"absent","rt":"6626.3000000119","correct":false,"confidence":-1},{"trial_n":91,"span":10,"encoder":"6012545099","distractor":"6212545099","target":"present","response":"present","rt":"2841.3000000119","correct":true,"confidence":5},{"trial_n":92,"span":10,"encoder":"9533333125","distractor":"3533333125","target":"present","response":"present","rt":"3267.1999999881","correct":true,"confidence":5},{"trial_n":93,"span":11,"encoder":"03546623951","distractor":"03846623951","target":"present","response":"present","rt":"6395.700000003","correct":true,"confidence":2},{"trial_n":94,"span":11,"encoder":"59599488914","distractor":"59799488914","target":"absent","response":"present","rt":"2543.700000003","correct":false,"confidence":4},{"trial_n":95,"span":10,"encoder":"6611599167","distractor":"6611399167","target":"present","response":"present","rt":"2948.3000000119","correct":true,"confidence":4},{"trial_n":96,"span":10,"encoder":"6986815499","distractor":"2986815499","target":"absent","response":"absent","rt":"2619.5","correct":true,"confidence":4},{"trial_n":97,"span":11,"encoder":"19867553396","distractor":"19867553096","target":"absent","response":"absent","rt":"2423.799999997","correct":true,"confidence":3},{"trial_n":98,"span":11,"encoder":"55327094049","distractor":"55327094044","target":"present","response":"absent","rt":"1751.5","correct":false,"confidence":1},{"trial_n":99,"span":10,"encoder":"0565387634","distractor":"0565387624","target":"present","response":"present","rt":"2110.400000006","correct":true,"confidence":4},{"trial_n":100,"span":10,"encoder":"4628855274","distractor":"4628815274","target":"absent","response":"absent","rt":"2528.299999997","correct":true,"confidence":4},{"trial_n":101,"span":11,"encoder":"27627625325","distractor":"27627665325","target":"absent","response":"present","rt":"7013.5","correct":false,"confidence":2},{"trial_n":102,"span":10,"encoder":"6754115195","distractor":"6724115195","target":"absent","response":"present","rt":"5603.200000003","correct":false,"confidence":3},{"trial_n":103,"span":9,"encoder":"960737364","distractor":"960737361","target":"absent","response":"absent","rt":"3127.700000003","correct":true,"confidence":5},{"trial_n":104,"span":9,"encoder":"405332311","distractor":"405332371","target":"present","response":"present","rt":"1451.099999994","correct":true,"confidence":5},{"trial_n":105,"span":10,"encoder":"8487716757","distractor":"8487716754","target":"present","response":"present","rt":"7251.1000000089","correct":true,"confidence":3},{"trial_n":106,"span":10,"encoder":"3798923362","distractor":"3799923362","target":"absent","response":"absent","rt":"6417.1000000089","correct":true,"confidence":3},{"trial_n":107,"span":11,"encoder":"28835814385","distractor":"28835819385","target":"absent","response":"absent","rt":"3810.400000006","correct":true,"confidence":5},{"trial_n":108,"span":11,"encoder":"18746322336","distractor":"18746342336","target":"present","response":"absent","rt":"3377.799999997","correct":false,"confidence":4},{"trial_n":109,"span":10,"encoder":"9303686699","distractor":"9003686699","target":"present","response":"present","rt":"4463.099999994","correct":true,"confidence":4},{"trial_n":110,"span":10,"encoder":"1489479994","distractor":"1489479996","target":"present","response":"present","rt":"2343.5","correct":true,"confidence":5},{"trial_n":111,"span":11,"encoder":"50094866559","distractor":"50094866459","target":"present","response":"present","rt":"2876.5","correct":true,"confidence":5},{"trial_n":112,"span":11,"encoder":"00878516920","distractor":"00478516920","target":"absent","response":"present","rt":"5278.299999997","correct":false,"confidence":3},{"trial_n":113,"span":10,"encoder":"9935033668","distractor":"9935037668","target":"present","response":"present","rt":"2319.400000006","correct":true,"confidence":5},{"trial_n":114,"span":10,"encoder":"7493163652","distractor":"7493163658","target":"absent","response":"absent","rt":"3330.299999997","correct":true,"confidence":5},{"trial_n":115,"span":11,"encoder":"18516369913","distractor":"18516319913","target":"absent","response":"absent","rt":"3137.200000003","correct":true,"confidence":4},{"trial_n":116,"span":11,"encoder":"75643607665","distractor":"75743607665","target":"present","response":"absent","rt":"6038.400000006","correct":false,"confidence":2},{"trial_n":117,"span":10,"encoder":"0050299666","distractor":"0050249666","target":"present","response":"present","rt":"3775.3999999911","correct":true,"confidence":5},{"trial_n":118,"span":10,"encoder":"5357954214","distractor":"5357951214","target":"absent","response":"absent","rt":"3014.6000000089","correct":true,"confidence":5},{"trial_n":119,"span":11,"encoder":"35664873020","distractor":"35624873020","target":"absent","response":"absent","rt":"3639.700000003","correct":true,"confidence":5},{"trial_n":120,"span":11,"encoder":"43020063125","distractor":"43020063325","target":"present","response":"absent","rt":"3295.5","correct":false,"confidence":5},{"trial_n":121,"span":10,"encoder":"2579279417","distractor":"2579279467","target":"absent","response":"absent","rt":"2695.900000006","correct":true,"confidence":5},{"trial_n":122,"span":10,"encoder":"7282950524","distractor":"4282950524","target":"present","response":"present","rt":"4251.8000000119","correct":true,"confidence":5},{"trial_n":123,"span":11,"encoder":"55081686127","distractor":"55081626127","target":"absent","response":"absent","rt":"2616.400000006","correct":true,"confidence":5},{"trial_n":124,"span":11,"encoder":"38000362102","distractor":"38000862102","target":"absent","response":"absent","rt":"3435.099999994","correct":true,"confidence":5},{"trial_n":125,"span":12,"encoder":"606117070113","distractor":"606817070113","target":"present","response":"present","rt":"5892.900000006","correct":true,"confidence":4},{"trial_n":126,"span":12,"encoder":"433737100855","distractor":"433737100825","target":"present","response":"present","rt":"5548.599999994","correct":true,"confidence":5},{"trial_n":127,"span":13,"encoder":"6970500444271","distractor":"6970501444271","target":"present","response":"absent","rt":"7150","correct":false,"confidence":2},{"trial_n":128,"span":12,"encoder":"158376362080","distractor":"158376362081","target":"present","response":"present","rt":"1825.1000000089","correct":true,"confidence":5},{"trial_n":129,"span":12,"encoder":"812571580325","distractor":"812071580325","target":"absent","response":"absent","rt":"7116.700000003","correct":true,"confidence":3},{"trial_n":130,"span":13,"encoder":"9365034848098","distractor":"9365074848098","target":"absent","response":"absent","rt":"14412.599999994","correct":true,"confidence":2},{"trial_n":131,"span":13,"encoder":"0920104592231","distractor":"0920184592231","target":"present","response":"present","rt":"5916.3999999911","correct":true,"confidence":1},{"trial_n":132,"span":14,"encoder":"52179543502099","distractor":"52179343502099","target":"present","response":"present","rt":"7151.5","correct":true,"confidence":2},{"trial_n":133,"span":14,"encoder":"94407930529881","distractor":"94406930529881","target":"absent","response":"absent","rt":"4847.5","correct":true,"confidence":1},{"trial_n":134,"span":15,"encoder":"997035355271570","distractor":"967035355271570","target":"present","response":"present","rt":"3587","correct":true,"confidence":2},{"trial_n":135,"span":15,"encoder":"363195169187182","distractor":"363195169187162","target":"present","response":"present","rt":"3658","correct":true,"confidence":5},{"trial_n":136,"span":16,"encoder":"6155234034831232","distractor":"6155234094831232","target":"absent","response":"present","rt":"8723.1999999881","correct":false,"confidence":2},{"trial_n":137,"span":15,"encoder":"254281940438533","distractor":"254681940438533","target":"present","response":"present","rt":"9657","correct":true,"confidence":2},{"trial_n":138,"span":15,"encoder":"147107423098593","distractor":"147107423092593","target":"present","response":"present","rt":"4167.799999997","correct":true,"confidence":4},{"trial_n":139,"span":16,"encoder":"7278654612407175","distractor":"7278654612507175","target":"absent","response":"absent","rt":"8015","correct":true,"confidence":2},{"trial_n":140,"span":16,"encoder":"7510554627800443","distractor":"7510554127800443","target":"absent","response":"present","rt":"10432.200000003","correct":false,"confidence":1}]