[{"trial_n":1,"n_dots":4.25,"target":"left","response":"right","rt":3811,"correct":false,"confidence":-1},{"trial_n":2,"n_dots":4.25,"target":"right","response":"right","rt":794.39999997616,"correct":true,"confidence":-1},{"trial_n":3,"n_dots":4.25,"target":"right","response":"right","rt":410.30000001192,"correct":true,"confidence":-1},{"trial_n":4,"n_dots":3.85,"target":"left","response":"left","rt":333,"correct":true,"confidence":-1},{"trial_n":5,"n_dots":3.85,"target":"left","response":"left","rt":291,"correct":true,"confidence":-1},{"trial_n":6,"n_dots":3.45,"target":"right","response":"right","rt":419.19999998808,"correct":true,"confidence":-1},{"trial_n":7,"n_dots":3.45,"target":"right","response":"right","rt":329.29999995232,"correct":true,"confidence":-1},{"trial_n":8,"n_dots":3.25,"target":"left","response":"left","rt":579.69999998808,"correct":true,"confidence":-1},{"trial_n":9,"n_dots":3.25,"target":"right","response":"right","rt":372.5,"correct":true,"confidence":-1},{"trial_n":10,"n_dots":3.05,"target":"left","response":"left","rt":343.5,"correct":true,"confidence":-1},{"trial_n":11,"n_dots":3.05,"target":"right","response":"right","rt":322.40000003576,"correct":true,"confidence":-1},{"trial_n":12,"n_dots":2.85,"target":"left","response":"left","rt":552.70000004768,"correct":true,"confidence":-1},{"trial_n":13,"n_dots":2.85,"target":"right","response":"right","rt":405.89999997616,"correct":true,"confidence":-1},{"trial_n":14,"n_dots":2.75,"target":"right","response":"left","rt":372.5,"correct":false,"confidence":-1},{"trial_n":15,"n_dots":2.85,"target":"right","response":"right","rt":405.69999998808,"correct":true,"confidence":-1},{"trial_n":16,"n_dots":2.85,"target":"right","response":"right","rt":325.39999997616,"correct":true,"confidence":-1},{"trial_n":17,"n_dots":2.75,"target":"left","response":"left","rt":334.30000001192,"correct":true,"confidence":-1},{"trial_n":18,"n_dots":2.75,"target":"right","response":"right","rt":474.10000002384,"correct":true,"confidence":-1},{"trial_n":19,"n_dots":2.65,"target":"right","response":"right","rt":343.10000002384,"correct":true,"confidence":-1},{"trial_n":20,"n_dots":2.65,"target":"right","response":"right","rt":349.59999996424,"correct":true,"confidence":-1},{"trial_n":21,"n_dots":2.55,"target":"right","response":"right","rt":328.39999997616,"correct":true,"confidence":4},{"trial_n":22,"n_dots":2.55,"target":"left","response":"right","rt":1189.9000000358,"correct":false,"confidence":3},{"trial_n":23,"n_dots":2.65,"target":"left","response":"right","rt":1558.5,"correct":false,"confidence":2},{"trial_n":24,"n_dots":2.75,"target":"left","response":"left","rt":1103.6999999881,"correct":true,"confidence":3},{"trial_n":25,"n_dots":2.75,"target":"right","response":"right","rt":1590.5,"correct":true,"confidence":3},{"trial_n":26,"n_dots":2.65,"target":"right","response":"right","rt":818.60000002384,"correct":true,"confidence":3},{"trial_n":27,"n_dots":2.65,"target":"left","response":"right","rt":526.29999995232,"correct":false,"confidence":4},{"trial_n":28,"n_dots":2.75,"target":"left","response":"right","rt":509,"correct":false,"confidence":4},{"trial_n":29,"n_dots":2.85,"target":"left","response":"left","rt":760.69999998808,"correct":true,"confidence":4},{"trial_n":30,"n_dots":2.85,"target":"left","response":"left","rt":520.30000001192,"correct":true,"confidence":4},{"trial_n":31,"n_dots":2.75,"target":"right","response":"right","rt":493.69999998808,"correct":true,"confidence":3},{"trial_n":32,"n_dots":2.75,"target":"left","response":"right","rt":369.90000003576,"correct":false,"confidence":4},{"trial_n":33,"n_dots":2.85,"target":"left","response":"right","rt":1501.6000000238,"correct":false,"confidence":2},{"trial_n":34,"n_dots":2.95,"target":"left","response":"left","rt":373.10000002384,"correct":true,"confidence":3},{"trial_n":35,"n_dots":2.95,"target":"right","response":"right","rt":271.69999998808,"correct":true,"confidence":3},{"trial_n":36,"n_dots":2.85,"target":"left","response":"left","rt":558.09999996424,"correct":true,"confidence":3},{"trial_n":37,"n_dots":2.85,"target":"right","response":"right","rt":279.90000003576,"correct":true,"confidence":4},{"trial_n":38,"n_dots":2.75,"target":"right","response":"left","rt":770.19999998808,"correct":false,"confidence":3},{"trial_n":39,"n_dots":2.85,"target":"right","response":"right","rt":386.79999995232,"correct":true,"confidence":2},{"trial_n":40,"n_dots":2.85,"target":"left","response":"left","rt":317.09999996424,"correct":true,"confidence":3},{"trial_n":41,"n_dots":2.75,"target":"left","response":"left","rt":2215.0999999642,"correct":true,"confidence":1},{"trial_n":42,"n_dots":2.75,"target":"right","response":"right","rt":372.19999998808,"correct":true,"confidence":2},{"trial_n":43,"n_dots":2.65,"target":"left","response":"right","rt":2636.6999999881,"correct":false,"confidence":1},{"trial_n":44,"n_dots":2.75,"target":"right","response":"right","rt":686.10000002384,"correct":true,"confidence":4},{"trial_n":45,"n_dots":2.75,"target":"left","response":"left","rt":328.19999998808,"correct":true,"confidence":3},{"trial_n":46,"n_dots":2.65,"target":"left","response":"right","rt":341.39999997616,"correct":false,"confidence":2},{"trial_n":47,"n_dots":2.75,"target":"left","response":"right","rt":507.5,"correct":false,"confidence":2},{"trial_n":48,"n_dots":2.85,"target":"left","response":"left","rt":334.5,"correct":true,"confidence":3},{"trial_n":49,"n_dots":2.85,"target":"right","response":"right","rt":271.09999996424,"correct":true,"confidence":4},{"trial_n":50,"n_dots":2.75,"target":"right","response":"right","rt":363.40000003576,"correct":true,"confidence":3},{"trial_n":51,"n_dots":2.75,"target":"left","response":"left","rt":277.5,"correct":true,"confidence":4},{"trial_n":52,"n_dots":2.65,"target":"right","response":"right","rt":300.10000002384,"correct":true,"confidence":3},{"trial_n":53,"n_dots":2.65,"target":"left","response":"left","rt":317.30000001192,"correct":true,"confidence":3},{"trial_n":54,"n_dots":2.55,"target":"left","response":"left","rt":1304.3999999762,"correct":true,"confidence":2},{"trial_n":55,"n_dots":2.55,"target":"right","response":"right","rt":316.80000001192,"correct":true,"confidence":3},{"trial_n":56,"n_dots":2.45,"target":"left","response":"left","rt":234.40000003576,"correct":true,"confidence":4},{"trial_n":57,"n_dots":2.45,"target":"right","response":"left","rt":876,"correct":false,"confidence":2},{"trial_n":58,"n_dots":2.55,"target":"right","response":"right","rt":806.80000001192,"correct":true,"confidence":4},{"trial_n":59,"n_dots":2.55,"target":"left","response":"left","rt":305.09999996424,"correct":true,"confidence":4},{"trial_n":60,"n_dots":2.45,"target":"right","response":"right","rt":860.10000002384,"correct":true,"confidence":3},{"trial_n":61,"n_dots":2.45,"target":"left","response":"left","rt":2225.6999999881,"correct":true,"confidence":2},{"trial_n":62,"n_dots":2.35,"target":"left","response":"left","rt":668,"correct":true,"confidence":2},{"trial_n":63,"n_dots":2.35,"target":"right","response":"left","rt":330.90000003576,"correct":false,"confidence":2},{"trial_n":64,"n_dots":2.45,"target":"right","response":"left","rt":540.80000001192,"correct":false,"confidence":3},{"trial_n":65,"n_dots":2.55,"target":"left","response":"left","rt":697.89999997616,"correct":true,"confidence":3},{"trial_n":66,"n_dots":2.55,"target":"left","response":"left","rt":1905,"correct":true,"confidence":2},{"trial_n":67,"n_dots":2.45,"target":"left","response":"left","rt":365.80000001192,"correct":true,"confidence":2},{"trial_n":68,"n_dots":2.45,"target":"left","response":"right","rt":690.5,"correct":false,"confidence":2},{"trial_n":69,"n_dots":2.55,"target":"right","response":"right","rt":829,"correct":true,"confidence":3},{"trial_n":70,"n_dots":2.55,"target":"right","response":"right","rt":793.39999997616,"correct":true,"confidence":2},{"trial_n":71,"n_dots":2.45,"target":"left","response":"left","rt":335.30000001192,"correct":true,"confidence":3},{"trial_n":72,"n_dots":2.45,"target":"right","response":"left","rt":974.60000002384,"correct":false,"confidence":2},{"trial_n":73,"n_dots":2.55,"target":"right","response":"right","rt":318.69999998808,"correct":true,"confidence":3},{"trial_n":74,"n_dots":2.55,"target":"right","response":"right","rt":1186.8999999762,"correct":true,"confidence":2},{"trial_n":75,"n_dots":2.45,"target":"left","response":"left","rt":398.5,"correct":true,"confidence":3},{"trial_n":76,"n_dots":2.45,"target":"left","response":"right","rt":351,"correct":false,"confidence":3},{"trial_n":77,"n_dots":2.55,"target":"left","response":"left","rt":361.80000001192,"correct":true,"confidence":3},{"trial_n":78,"n_dots":2.55,"target":"left","response":"right","rt":424.69999998808,"correct":false,"confidence":2},{"trial_n":79,"n_dots":2.65,"target":"right","response":"right","rt":126.30000001192,"correct":true,"confidence":3},{"trial_n":80,"n_dots":2.65,"target":"right","response":"right","rt":366.30000001192,"correct":true,"confidence":2},{"trial_n":81,"n_dots":2.55,"target":"right","response":"right","rt":521.30000001192,"correct":true,"confidence":4},{"trial_n":82,"n_dots":2.55,"target":"left","response":"left","rt":307.5,"correct":true,"confidence":4},{"trial_n":83,"n_dots":2.45,"target":"right","response":"right","rt":271.89999997616,"correct":true,"confidence":4},{"trial_n":84,"n_dots":2.45,"target":"right","response":"right","rt":392.10000002384,"correct":true,"confidence":3},{"trial_n":85,"n_dots":2.35,"target":"left","response":"right","rt":515,"correct":false,"confidence":3},{"trial_n":86,"n_dots":2.45,"target":"right","response":"right","rt":402.80000001192,"correct":true,"confidence":3},{"trial_n":87,"n_dots":2.45,"target":"left","response":"left","rt":782.70000004768,"correct":true,"confidence":2},{"trial_n":88,"n_dots":2.35,"target":"right","response":"left","rt":438.39999997616,"correct":false,"confidence":2},{"trial_n":89,"n_dots":2.45,"target":"right","response":"left","rt":606.70000004768,"correct":false,"confidence":3},{"trial_n":90,"n_dots":2.55,"target":"right","response":"right","rt":884.69999998808,"correct":true,"confidence":2},{"trial_n":91,"n_dots":2.55,"target":"left","response":"right","rt":1194.8999999762,"correct":false,"confidence":2},{"trial_n":92,"n_dots":2.65,"target":"right","response":"right","rt":402.90000003576,"correct":true,"confidence":3},{"trial_n":93,"n_dots":2.65,"target":"left","response":"left","rt":352,"correct":true,"confidence":2},{"trial_n":94,"n_dots":2.55,"target":"right","response":"right","rt":624.10000002384,"correct":true,"confidence":2},{"trial_n":95,"n_dots":2.55,"target":"left","response":"right","rt":825.80000001192,"correct":false,"confidence":2},{"trial_n":96,"n_dots":2.65,"target":"left","response":"left","rt":964.10000002384,"correct":true,"confidence":3},{"trial_n":97,"n_dots":2.65,"target":"right","response":"left","rt":399.60000002384,"correct":false,"confidence":2},{"trial_n":98,"n_dots":2.75,"target":"right","response":"right","rt":562.69999998808,"correct":true,"confidence":2},{"trial_n":99,"n_dots":2.75,"target":"left","response":"left","rt":318.69999998808,"correct":true,"confidence":4},{"trial_n":100,"n_dots":2.65,"target":"left","response":"left","rt":381.69999998808,"correct":true,"confidence":3},{"trial_n":101,"n_dots":2.65,"target":"right","response":"left","rt":344.80000001192,"correct":false,"confidence":3},{"trial_n":102,"n_dots":2.75,"target":"left","response":"left","rt":334.89999997616,"correct":true,"confidence":4},{"trial_n":103,"n_dots":2.75,"target":"right","response":"right","rt":408.39999997616,"correct":true,"confidence":3},{"trial_n":104,"n_dots":2.65,"target":"left","response":"left","rt":327.09999996424,"correct":true,"confidence":4},{"trial_n":105,"n_dots":2.65,"target":"left","response":"left","rt":509.39999997616,"correct":true,"confidence":5},{"trial_n":106,"n_dots":2.55,"target":"right","response":"right","rt":304.10000002384,"correct":true,"confidence":3},{"trial_n":107,"n_dots":2.55,"target":"left","response":"left","rt":855.60000002384,"correct":true,"confidence":4},{"trial_n":108,"n_dots":2.45,"target":"right","response":"left","rt":335,"correct":false,"confidence":5},{"trial_n":109,"n_dots":2.55,"target":"left","response":"left","rt":389.30000001192,"correct":true,"confidence":5},{"trial_n":110,"n_dots":2.55,"target":"left","response":"left","rt":407.5,"correct":true,"confidence":5},{"trial_n":111,"n_dots":2.45,"target":"left","response":"left","rt":418.39999997616,"correct":true,"confidence":5},{"trial_n":112,"n_dots":2.45,"target":"right","response":"left","rt":368.40000003576,"correct":false,"confidence":4},{"trial_n":113,"n_dots":2.55,"target":"right","response":"left","rt":457.80000001192,"correct":false,"confidence":4},{"trial_n":114,"n_dots":2.65,"target":"left","response":"left","rt":345.30000001192,"correct":true,"confidence":3},{"trial_n":115,"n_dots":2.65,"target":"left","response":"left","rt":405.30000001192,"correct":true,"confidence":3},{"trial_n":116,"n_dots":2.55,"target":"right","response":"left","rt":481,"correct":false,"confidence":2},{"trial_n":117,"n_dots":2.65,"target":"left","response":"left","rt":307.89999997616,"correct":true,"confidence":3},{"trial_n":118,"n_dots":2.65,"target":"right","response":"right","rt":435.59999996424,"correct":true,"confidence":2},{"trial_n":119,"n_dots":2.55,"target":"right","response":"left","rt":286.69999998808,"correct":false,"confidence":3},{"trial_n":120,"n_dots":2.65,"target":"right","response":"right","rt":657.80000001192,"correct":true,"confidence":3}]