[{"trial_n":1,"n_dots":4.25,"target":"left","response":"left","rt":3134,"correct":true,"confidence":-1},{"trial_n":2,"n_dots":4.25,"target":"left","response":"left","rt":1230.3000000119,"correct":true,"confidence":-1},{"trial_n":3,"n_dots":3.85,"target":"right","response":"right","rt":1497.2000000179,"correct":true,"confidence":-1},{"trial_n":4,"n_dots":3.85,"target":"right","response":"left","rt":1144.7999999821,"correct":false,"confidence":-1},{"trial_n":5,"n_dots":4.25,"target":"right","response":"left","rt":1938,"correct":false,"confidence":-1},{"trial_n":6,"n_dots":4.65,"target":"left","response":"left","rt":848.5,"correct":true,"confidence":-1},{"trial_n":7,"n_dots":4.65,"target":"left","response":"left","rt":619.19999998808,"correct":true,"confidence":-1},{"trial_n":8,"n_dots":4.45,"target":"left","response":"left","rt":635.19999998808,"correct":true,"confidence":-1},{"trial_n":9,"n_dots":4.45,"target":"left","response":"left","rt":632.20000001788,"correct":true,"confidence":-1},{"trial_n":10,"n_dots":4.25,"target":"left","response":"left","rt":664.19999998808,"correct":true,"confidence":-1},{"trial_n":11,"n_dots":4.25,"target":"left","response":"left","rt":714.40000000596,"correct":true,"confidence":-1},{"trial_n":12,"n_dots":4.05,"target":"left","response":"left","rt":519.5,"correct":true,"confidence":-1},{"trial_n":13,"n_dots":4.05,"target":"right","response":"right","rt":847.59999999404,"correct":true,"confidence":-1},{"trial_n":14,"n_dots":3.95,"target":"left","response":"right","rt":1342.3000000119,"correct":false,"confidence":-1},{"trial_n":15,"n_dots":4.05,"target":"left","response":"left","rt":470.29999998212,"correct":true,"confidence":-1},{"trial_n":16,"n_dots":4.05,"target":"right","response":"right","rt":486.70000001788,"correct":true,"confidence":-1},{"trial_n":17,"n_dots":3.95,"target":"left","response":"left","rt":533.09999999404,"correct":true,"confidence":-1},{"trial_n":18,"n_dots":3.95,"target":"right","response":"left","rt":653.09999999404,"correct":false,"confidence":-1},{"trial_n":19,"n_dots":4.05,"target":"right","response":"right","rt":831.69999998808,"correct":true,"confidence":-1},{"trial_n":20,"n_dots":4.05,"target":"left","response":"left","rt":596.39999997616,"correct":true,"confidence":-1},{"trial_n":21,"n_dots":3.95,"target":"right","response":"right","rt":657.59999999404,"correct":true,"confidence":4},{"trial_n":22,"n_dots":3.95,"target":"left","response":"left","rt":569.40000000596,"correct":true,"confidence":5},{"trial_n":23,"n_dots":3.85,"target":"right","response":"right","rt":1502.3000000119,"correct":true,"confidence":2},{"trial_n":24,"n_dots":3.85,"target":"left","response":"left","rt":580.40000000596,"correct":true,"confidence":5},{"trial_n":25,"n_dots":3.75,"target":"right","response":"left","rt":1196.099999994,"correct":false,"confidence":4},{"trial_n":26,"n_dots":3.85,"target":"left","response":"left","rt":471.09999999404,"correct":true,"confidence":4},{"trial_n":27,"n_dots":3.85,"target":"right","response":"right","rt":1160.7000000179,"correct":true,"confidence":2},{"trial_n":28,"n_dots":3.75,"target":"left","response":"left","rt":1093.7000000179,"correct":true,"confidence":3},{"trial_n":29,"n_dots":3.75,"target":"right","response":"right","rt":610.30000001192,"correct":true,"confidence":3},{"trial_n":30,"n_dots":3.65,"target":"right","response":"right","rt":778.69999998808,"correct":true,"confidence":4},{"trial_n":31,"n_dots":3.65,"target":"right","response":"right","rt":1123.1999999881,"correct":true,"confidence":2},{"trial_n":32,"n_dots":3.55,"target":"right","response":"left","rt":1207.7000000179,"correct":false,"confidence":1},{"trial_n":33,"n_dots":3.65,"target":"right","response":"right","rt":731.59999999404,"correct":true,"confidence":3},{"trial_n":34,"n_dots":3.65,"target":"right","response":"right","rt":1133.900000006,"correct":true,"confidence":1},{"trial_n":35,"n_dots":3.55,"target":"right","response":"left","rt":938.5,"correct":false,"confidence":2},{"trial_n":36,"n_dots":3.65,"target":"left","response":"left","rt":800.40000000596,"correct":true,"confidence":3},{"trial_n":37,"n_dots":3.65,"target":"left","response":"right","rt":999.30000001192,"correct":false,"confidence":2},{"trial_n":38,"n_dots":3.75,"target":"left","response":"left","rt":610.40000000596,"correct":true,"confidence":2},{"trial_n":39,"n_dots":3.75,"target":"right","response":"right","rt":810,"correct":true,"confidence":4},{"trial_n":40,"n_dots":3.65,"target":"left","response":"left","rt":1603.099999994,"correct":true,"confidence":1},{"trial_n":41,"n_dots":3.65,"target":"left","response":"left","rt":799.80000001192,"correct":true,"confidence":4},{"trial_n":42,"n_dots":3.55,"target":"left","response":"left","rt":560.29999998212,"correct":true,"confidence":3},{"trial_n":43,"n_dots":3.55,"target":"left","response":"left","rt":322.60000002384,"correct":true,"confidence":5},{"trial_n":44,"n_dots":3.45,"target":"right","response":"left","rt":345.19999998808,"correct":false,"confidence":5},{"trial_n":45,"n_dots":3.55,"target":"left","response":"left","rt":344.29999998212,"correct":true,"confidence":5},{"trial_n":46,"n_dots":3.55,"target":"left","response":"left","rt":371.69999998808,"correct":true,"confidence":4},{"trial_n":47,"n_dots":3.45,"target":"left","response":"left","rt":267.29999998212,"correct":true,"confidence":4},{"trial_n":48,"n_dots":3.45,"target":"left","response":"left","rt":640.39999997616,"correct":true,"confidence":5},{"trial_n":49,"n_dots":3.35,"target":"right","response":"right","rt":978.29999998212,"correct":true,"confidence":2},{"trial_n":50,"n_dots":3.35,"target":"right","response":"right","rt":1662.7999999821,"correct":true,"confidence":3},{"trial_n":51,"n_dots":3.25,"target":"left","response":"left","rt":464.59999999404,"correct":true,"confidence":4},{"trial_n":52,"n_dots":3.25,"target":"left","response":"left","rt":752,"correct":true,"confidence":3},{"trial_n":53,"n_dots":3.15,"target":"right","response":"left","rt":548.79999998212,"correct":false,"confidence":2},{"trial_n":54,"n_dots":3.25,"target":"left","response":"left","rt":1152.2000000179,"correct":true,"confidence":3},{"trial_n":55,"n_dots":3.25,"target":"left","response":"left","rt":690.70000001788,"correct":true,"confidence":3},{"trial_n":56,"n_dots":3.15,"target":"right","response":"left","rt":747.80000001192,"correct":false,"confidence":2},{"trial_n":57,"n_dots":3.25,"target":"right","response":"right","rt":1537.1000000238,"correct":true,"confidence":1},{"trial_n":58,"n_dots":3.25,"target":"right","response":"right","rt":1131.900000006,"correct":true,"confidence":3},{"trial_n":59,"n_dots":3.15,"target":"right","response":"left","rt":705,"correct":false,"confidence":2},{"trial_n":60,"n_dots":3.25,"target":"right","response":"left","rt":1311.599999994,"correct":false,"confidence":1},{"trial_n":61,"n_dots":3.35,"target":"left","response":"left","rt":660.29999998212,"correct":true,"confidence":5},{"trial_n":62,"n_dots":3.35,"target":"left","response":"left","rt":732.79999998212,"correct":true,"confidence":4},{"trial_n":63,"n_dots":3.25,"target":"right","response":"right","rt":671.69999998808,"correct":true,"confidence":4},{"trial_n":64,"n_dots":3.25,"target":"left","response":"left","rt":589.30000001192,"correct":true,"confidence":5},{"trial_n":65,"n_dots":3.15,"target":"right","response":"left","rt":1075.5,"correct":false,"confidence":2},{"trial_n":66,"n_dots":3.25,"target":"left","response":"left","rt":623.59999999404,"correct":true,"confidence":4},{"trial_n":67,"n_dots":3.25,"target":"right","response":"left","rt":748.10000002384,"correct":false,"confidence":2},{"trial_n":68,"n_dots":3.35,"target":"left","response":"left","rt":483.90000000596,"correct":true,"confidence":5},{"trial_n":69,"n_dots":3.35,"target":"left","response":"left","rt":395.69999998808,"correct":true,"confidence":5},{"trial_n":70,"n_dots":3.25,"target":"right","response":"left","rt":271.80000001192,"correct":false,"confidence":3},{"trial_n":71,"n_dots":3.35,"target":"left","response":"left","rt":408.29999998212,"correct":true,"confidence":4},{"trial_n":72,"n_dots":3.35,"target":"left","response":"left","rt":225.90000000596,"correct":true,"confidence":5},{"trial_n":73,"n_dots":3.25,"target":"left","response":"left","rt":322.90000000596,"correct":true,"confidence":5},{"trial_n":74,"n_dots":3.25,"target":"right","response":"right","rt":495.39999997616,"correct":true,"confidence":5},{"trial_n":75,"n_dots":3.15,"target":"left","response":"left","rt":434.30000001192,"correct":true,"confidence":4},{"trial_n":76,"n_dots":3.15,"target":"left","response":"left","rt":212.09999999404,"correct":true,"confidence":5},{"trial_n":77,"n_dots":3.05,"target":"right","response":"left","rt":1128.6999999881,"correct":false,"confidence":1},{"trial_n":78,"n_dots":3.15,"target":"left","response":"left","rt":443.70000001788,"correct":true,"confidence":3},{"trial_n":79,"n_dots":3.15,"target":"left","response":"left","rt":242.5,"correct":true,"confidence":3},{"trial_n":80,"n_dots":3.05,"target":"left","response":"left","rt":556.19999998808,"correct":true,"confidence":3},{"trial_n":81,"n_dots":3.05,"target":"left","response":"left","rt":302.60000002384,"correct":true,"confidence":3},{"trial_n":82,"n_dots":2.95,"target":"right","response":"right","rt":873.19999998808,"correct":true,"confidence":3},{"trial_n":83,"n_dots":2.95,"target":"right","response":"left","rt":841.89999997616,"correct":false,"confidence":2},{"trial_n":84,"n_dots":3.05,"target":"right","response":"left","rt":894.5,"correct":false,"confidence":2},{"trial_n":85,"n_dots":3.15,"target":"right","response":"right","rt":1182.400000006,"correct":true,"confidence":3},{"trial_n":86,"n_dots":3.15,"target":"right","response":"left","rt":1431.3000000119,"correct":false,"confidence":1},{"trial_n":87,"n_dots":3.25,"target":"right","response":"right","rt":1057.5,"correct":true,"confidence":2},{"trial_n":88,"n_dots":3.25,"target":"left","response":"left","rt":322.5,"correct":true,"confidence":3},{"trial_n":89,"n_dots":3.15,"target":"right","response":"right","rt":845.40000000596,"correct":true,"confidence":2},{"trial_n":90,"n_dots":3.15,"target":"right","response":"left","rt":1387.3999999762,"correct":false,"confidence":1},{"trial_n":91,"n_dots":3.25,"target":"left","response":"left","rt":821.5,"correct":true,"confidence":1},{"trial_n":92,"n_dots":3.25,"target":"right","response":"right","rt":928.90000000596,"correct":true,"confidence":2},{"trial_n":93,"n_dots":3.15,"target":"right","response":"left","rt":656.19999998808,"correct":false,"confidence":3},{"trial_n":94,"n_dots":3.25,"target":"right","response":"left","rt":965.5,"correct":false,"confidence":3},{"trial_n":95,"n_dots":3.35,"target":"right","response":"right","rt":2317.400000006,"correct":true,"confidence":3},{"trial_n":96,"n_dots":3.35,"target":"left","response":"left","rt":582,"correct":true,"confidence":4},{"trial_n":97,"n_dots":3.25,"target":"left","response":"left","rt":651.29999998212,"correct":true,"confidence":5},{"trial_n":98,"n_dots":3.25,"target":"left","response":"left","rt":850.40000000596,"correct":true,"confidence":5},{"trial_n":99,"n_dots":3.15,"target":"left","response":"left","rt":714.20000001788,"correct":true,"confidence":5},{"trial_n":100,"n_dots":3.15,"target":"right","response":"right","rt":1138.6999999881,"correct":true,"confidence":2},{"trial_n":101,"n_dots":3.05,"target":"right","response":"right","rt":765.40000000596,"correct":true,"confidence":4},{"trial_n":102,"n_dots":3.05,"target":"right","response":"right","rt":598.59999999404,"correct":true,"confidence":5},{"trial_n":103,"n_dots":2.95,"target":"right","response":"left","rt":455.09999999404,"correct":false,"confidence":2},{"trial_n":104,"n_dots":3.05,"target":"left","response":"left","rt":649.5,"correct":true,"confidence":2},{"trial_n":105,"n_dots":3.05,"target":"left","response":"left","rt":775.5,"correct":true,"confidence":2},{"trial_n":106,"n_dots":2.95,"target":"left","response":"left","rt":599.40000000596,"correct":true,"confidence":2},{"trial_n":107,"n_dots":2.95,"target":"left","response":"left","rt":574.5,"correct":true,"confidence":4},{"trial_n":108,"n_dots":2.85,"target":"left","response":"left","rt":629.69999998808,"correct":true,"confidence":3},{"trial_n":109,"n_dots":2.85,"target":"right","response":"right","rt":825.5,"correct":true,"confidence":3},{"trial_n":110,"n_dots":2.75,"target":"right","response":"left","rt":763.70000001788,"correct":false,"confidence":2},{"trial_n":111,"n_dots":2.85,"target":"left","response":"left","rt":543.30000001192,"correct":true,"confidence":5},{"trial_n":112,"n_dots":2.85,"target":"right","response":"left","rt":785.79999998212,"correct":false,"confidence":2},{"trial_n":113,"n_dots":2.95,"target":"right","response":"left","rt":419.89999997616,"correct":false,"confidence":4},{"trial_n":114,"n_dots":3.05,"target":"right","response":"left","rt":715.29999998212,"correct":false,"confidence":3},{"trial_n":115,"n_dots":3.15,"target":"right","response":"left","rt":646.29999998212,"correct":false,"confidence":2},{"trial_n":116,"n_dots":3.25,"target":"right","response":"right","rt":1041.1999999881,"correct":true,"confidence":2},{"trial_n":117,"n_dots":3.25,"target":"right","response":"right","rt":959.29999998212,"correct":true,"confidence":2},{"trial_n":118,"n_dots":3.15,"target":"right","response":"left","rt":861.40000000596,"correct":false,"confidence":2},{"trial_n":119,"n_dots":3.25,"target":"right","response":"right","rt":1240.7999999821,"correct":true,"confidence":3},{"trial_n":120,"n_dots":3.25,"target":"left","response":"left","rt":950.80000001192,"correct":true,"confidence":4}]