[{"trial_n":1,"min":25,"max":230,"target":"present","response":"present","rt":4983,"correct":true,"confidence":-1},{"trial_n":2,"min":25,"max":230,"target":"present","response":"present","rt":2787,"correct":true,"confidence":-1},{"trial_n":3,"min":41,"max":214,"target":"absent","response":"absent","rt":1412,"correct":true,"confidence":-1},{"trial_n":4,"min":41,"max":214,"target":"absent","response":"absent","rt":1080,"correct":true,"confidence":-1},{"trial_n":5,"min":57,"max":198,"target":"present","response":"present","rt":1123,"correct":true,"confidence":-1},{"trial_n":6,"min":57,"max":198,"target":"present","response":"present","rt":906.99999999999,"correct":true,"confidence":-1},{"trial_n":7,"min":73,"max":182,"target":"absent","response":"absent","rt":1064,"correct":true,"confidence":-1},{"trial_n":8,"min":73,"max":182,"target":"present","response":"present","rt":873,"correct":true,"confidence":-1},{"trial_n":9,"min":89,"max":166,"target":"absent","response":"absent","rt":931,"correct":true,"confidence":-1},{"trial_n":10,"min":89,"max":166,"target":"present","response":"present","rt":959,"correct":true,"confidence":-1},{"trial_n":11,"min":97,"max":158,"target":"absent","response":"absent","rt":963,"correct":true,"confidence":-1},{"trial_n":12,"min":97,"max":158,"target":"absent","response":"absent","rt":764,"correct":true,"confidence":-1},{"trial_n":13,"min":105,"max":150,"target":"absent","response":"absent","rt":1279,"correct":true,"confidence":-1},{"trial_n":14,"min":105,"max":150,"target":"present","response":"absent","rt":2115,"correct":false,"confidence":-1},{"trial_n":15,"min":97,"max":158,"target":"present","response":"absent","rt":1537,"correct":false,"confidence":-1},{"trial_n":16,"min":89,"max":166,"target":"absent","response":"present","rt":698,"correct":false,"confidence":-1},{"trial_n":17,"min":81,"max":174,"target":"absent","response":"absent","rt":732,"correct":true,"confidence":-1},{"trial_n":18,"min":81,"max":174,"target":"absent","response":"absent","rt":818,"correct":true,"confidence":-1},{"trial_n":19,"min":89,"max":166,"target":"present","response":"present","rt":1096,"correct":true,"confidence":-1},{"trial_n":20,"min":89,"max":166,"target":"absent","response":"present","rt":659.00000000001,"correct":false,"confidence":-1},{"trial_n":21,"min":85,"max":170,"target":"absent","response":"absent","rt":617,"correct":true,"confidence":2},{"trial_n":22,"min":85,"max":170,"target":"present","response":"present","rt":1257,"correct":true,"confidence":3},{"trial_n":23,"min":89,"max":166,"target":"absent","response":"absent","rt":1675,"correct":true,"confidence":1},{"trial_n":24,"min":89,"max":166,"target":"absent","response":"absent","rt":1461,"correct":true,"confidence":4},{"trial_n":25,"min":93,"max":162,"target":"absent","response":"absent","rt":7068,"correct":true,"confidence":1},{"trial_n":26,"min":93,"max":162,"target":"present","response":"present","rt":1362,"correct":true,"confidence":1},{"trial_n":27,"min":97,"max":158,"target":"absent","response":"present","rt":1740,"correct":false,"confidence":3},{"trial_n":28,"min":93,"max":162,"target":"present","response":"present","rt":3027,"correct":true,"confidence":3},{"trial_n":29,"min":93,"max":162,"target":"present","response":"present","rt":1446,"correct":true,"confidence":1},{"trial_n":30,"min":97,"max":158,"target":"absent","response":"absent","rt":1454,"correct":true,"confidence":3},{"trial_n":31,"min":97,"max":158,"target":"present","response":"absent","rt":4801,"correct":false,"confidence":1},{"trial_n":32,"min":95,"max":160,"target":"present","response":"present","rt":1264,"correct":true,"confidence":3},{"trial_n":33,"min":95,"max":160,"target":"present","response":"absent","rt":1765,"correct":false,"confidence":2},{"trial_n":34,"min":93,"max":162,"target":"present","response":"absent","rt":7082,"correct":false,"confidence":1},{"trial_n":35,"min":91,"max":164,"target":"present","response":"absent","rt":2466,"correct":false,"confidence":2},{"trial_n":36,"min":89,"max":166,"target":"present","response":"absent","rt":6181,"correct":false,"confidence":1},{"trial_n":37,"min":87,"max":168,"target":"absent","response":"present","rt":1220,"correct":false,"confidence":2},{"trial_n":38,"min":85,"max":170,"target":"absent","response":"present","rt":2540,"correct":false,"confidence":2},{"trial_n":39,"min":83,"max":172,"target":"absent","response":"present","rt":3123,"correct":false,"confidence":2},{"trial_n":40,"min":81,"max":174,"target":"absent","response":"absent","rt":1207,"correct":true,"confidence":3},{"trial_n":41,"min":81,"max":174,"target":"absent","response":"absent","rt":1778,"correct":true,"confidence":3},{"trial_n":42,"min":82,"max":173,"target":"absent","response":"absent","rt":1654,"correct":true,"confidence":2},{"trial_n":43,"min":82,"max":173,"target":"absent","response":"absent","rt":1488,"correct":true,"confidence":3},{"trial_n":44,"min":83,"max":172,"target":"present","response":"present","rt":1033,"correct":true,"confidence":4},{"trial_n":45,"min":83,"max":172,"target":"absent","response":"absent","rt":1675,"correct":true,"confidence":2},{"trial_n":46,"min":84,"max":171,"target":"present","response":"present","rt":1266,"correct":true,"confidence":3},{"trial_n":47,"min":84,"max":171,"target":"present","response":"present","rt":2219,"correct":true,"confidence":2},{"trial_n":48,"min":85,"max":170,"target":"present","response":"present","rt":1802,"correct":true,"confidence":3},{"trial_n":49,"min":85,"max":170,"target":"absent","response":"absent","rt":1110,"correct":true,"confidence":4},{"trial_n":50,"min":86,"max":169,"target":"present","response":"present","rt":1319.0000000001,"correct":true,"confidence":2},{"trial_n":51,"min":86,"max":169,"target":"present","response":"present","rt":1338,"correct":true,"confidence":4},{"trial_n":52,"min":87,"max":168,"target":"absent","response":"absent","rt":1228,"correct":true,"confidence":4},{"trial_n":53,"min":87,"max":168,"target":"present","response":"present","rt":1303,"correct":true,"confidence":3},{"trial_n":54,"min":88,"max":167,"target":"present","response":"absent","rt":4087,"correct":false,"confidence":1},{"trial_n":55,"min":87,"max":168,"target":"absent","response":"absent","rt":1030,"correct":true,"confidence":3},{"trial_n":56,"min":87,"max":168,"target":"absent","response":"absent","rt":1246,"correct":true,"confidence":3},{"trial_n":57,"min":88,"max":167,"target":"present","response":"present","rt":1472,"correct":true,"confidence":2},{"trial_n":58,"min":88,"max":167,"target":"absent","response":"absent","rt":3063,"correct":true,"confidence":2},{"trial_n":59,"min":89,"max":166,"target":"present","response":"present","rt":1203.9999999999,"correct":true,"confidence":5},{"trial_n":60,"min":89,"max":166,"target":"present","response":"present","rt":1220,"correct":true,"confidence":3},{"trial_n":61,"min":90,"max":165,"target":"present","response":"absent","rt":943.00000000006,"correct":false,"confidence":3},{"trial_n":62,"min":89,"max":166,"target":"absent","response":"absent","rt":3331.0000000001,"correct":true,"confidence":1},{"trial_n":63,"min":89,"max":166,"target":"absent","response":"absent","rt":1480,"correct":true,"confidence":3},{"trial_n":64,"min":90,"max":165,"target":"present","response":"present","rt":1741.0000000001,"correct":true,"confidence":2},{"trial_n":65,"min":90,"max":165,"target":"absent","response":"present","rt":2948,"correct":false,"confidence":1},{"trial_n":66,"min":89,"max":166,"target":"present","response":"absent","rt":2016.0000000001,"correct":false,"confidence":2},{"trial_n":67,"min":88,"max":167,"target":"absent","response":"absent","rt":1366,"correct":true,"confidence":3},{"trial_n":68,"min":88,"max":167,"target":"present","response":"absent","rt":2425,"correct":false,"confidence":2},{"trial_n":69,"min":87,"max":168,"target":"present","response":"absent","rt":1425.0000000001,"correct":false,"confidence":3},{"trial_n":70,"min":86,"max":169,"target":"present","response":"present","rt":1058,"correct":true,"confidence":5},{"trial_n":71,"min":41,"max":214,"target":"present","response":"present","rt":2666.0000000001,"correct":true,"confidence":-1},{"trial_n":72,"min":41,"max":214,"target":"present","response":"present","rt":957,"correct":true,"confidence":-1},{"trial_n":73,"min":57,"max":198,"target":"absent","response":"absent","rt":858,"correct":true,"confidence":-1},{"trial_n":74,"min":57,"max":198,"target":"absent","response":"absent","rt":1090,"correct":true,"confidence":-1},{"trial_n":75,"min":73,"max":182,"target":"present","response":"present","rt":1376,"correct":true,"confidence":-1},{"trial_n":76,"min":73,"max":182,"target":"absent","response":"absent","rt":1341.9999999999,"correct":true,"confidence":-1},{"trial_n":77,"min":89,"max":166,"target":"absent","response":"absent","rt":1259,"correct":true,"confidence":-1},{"trial_n":78,"min":89,"max":166,"target":"absent","response":"absent","rt":2242.9999999999,"correct":true,"confidence":-1},{"trial_n":79,"min":105,"max":150,"target":"absent","response":"present","rt":1177,"correct":false,"confidence":-1},{"trial_n":80,"min":89,"max":166,"target":"present","response":"absent","rt":4210,"correct":false,"confidence":-1},{"trial_n":81,"min":81,"max":174,"target":"present","response":"present","rt":891.99999999994,"correct":true,"confidence":-1},{"trial_n":82,"min":81,"max":174,"target":"absent","response":"absent","rt":2260,"correct":true,"confidence":-1},{"trial_n":83,"min":89,"max":166,"target":"present","response":"present","rt":1192.0000000001,"correct":true,"confidence":-1},{"trial_n":84,"min":89,"max":166,"target":"present","response":"present","rt":2043,"correct":true,"confidence":-1},{"trial_n":85,"min":97,"max":158,"target":"present","response":"present","rt":960.99999999994,"correct":true,"confidence":-1},{"trial_n":86,"min":97,"max":158,"target":"absent","response":"present","rt":1359,"correct":false,"confidence":-1},{"trial_n":87,"min":89,"max":166,"target":"absent","response":"absent","rt":977.00000000006,"correct":true,"confidence":-1},{"trial_n":88,"min":89,"max":166,"target":"present","response":"present","rt":1595,"correct":true,"confidence":-1},{"trial_n":89,"min":97,"max":158,"target":"absent","response":"present","rt":1144,"correct":false,"confidence":-1},{"trial_n":90,"min":89,"max":166,"target":"absent","response":"absent","rt":1863,"correct":true,"confidence":-1},{"trial_n":91,"min":89,"max":166,"target":"absent","response":"absent","rt":2366,"correct":true,"confidence":2},{"trial_n":92,"min":93,"max":162,"target":"present","response":"present","rt":1945,"correct":true,"confidence":3},{"trial_n":93,"min":93,"max":162,"target":"present","response":"present","rt":1112,"correct":true,"confidence":4},{"trial_n":94,"min":97,"max":158,"target":"present","response":"present","rt":1745.9999999999,"correct":true,"confidence":2},{"trial_n":95,"min":97,"max":158,"target":"absent","response":"absent","rt":1411.9999999999,"correct":true,"confidence":2},{"trial_n":96,"min":101,"max":154,"target":"present","response":"present","rt":4412,"correct":true,"confidence":1},{"trial_n":97,"min":101,"max":154,"target":"present","response":"present","rt":1247,"correct":true,"confidence":3},{"trial_n":98,"min":105,"max":150,"target":"present","response":"present","rt":1528.9999999999,"correct":true,"confidence":2},{"trial_n":99,"min":105,"max":150,"target":"present","response":"present","rt":2430,"correct":true,"confidence":3},{"trial_n":100,"min":109,"max":146,"target":"absent","response":"absent","rt":1131,"correct":true,"confidence":4},{"trial_n":101,"min":109,"max":146,"target":"absent","response":"present","rt":1290,"correct":false,"confidence":3},{"trial_n":102,"min":107,"max":148,"target":"absent","response":"present","rt":1065,"correct":false,"confidence":3},{"trial_n":103,"min":105,"max":150,"target":"present","response":"present","rt":1581,"correct":true,"confidence":4},{"trial_n":104,"min":105,"max":150,"target":"absent","response":"present","rt":4333,"correct":false,"confidence":3},{"trial_n":105,"min":103,"max":152,"target":"absent","response":"present","rt":1035,"correct":false,"confidence":4},{"trial_n":106,"min":101,"max":154,"target":"absent","response":"present","rt":1999,"correct":false,"confidence":1},{"trial_n":107,"min":99,"max":156,"target":"present","response":"present","rt":1065,"correct":true,"confidence":3},{"trial_n":108,"min":99,"max":156,"target":"absent","response":"present","rt":1216,"correct":false,"confidence":2},{"trial_n":109,"min":97,"max":158,"target":"absent","response":"present","rt":1769,"correct":false,"confidence":3},{"trial_n":110,"min":95,"max":160,"target":"absent","response":"present","rt":1200,"correct":false,"confidence":2},{"trial_n":111,"min":94,"max":161,"target":"absent","response":"absent","rt":2014,"correct":true,"confidence":1},{"trial_n":112,"min":94,"max":161,"target":"present","response":"present","rt":1122,"correct":true,"confidence":2},{"trial_n":113,"min":95,"max":160,"target":"absent","response":"absent","rt":2251,"correct":true,"confidence":1},{"trial_n":114,"min":95,"max":160,"target":"absent","response":"present","rt":1634,"correct":false,"confidence":2},{"trial_n":115,"min":94,"max":161,"target":"present","response":"present","rt":2000,"correct":true,"confidence":2},{"trial_n":116,"min":94,"max":161,"target":"present","response":"present","rt":1300,"correct":true,"confidence":1},{"trial_n":117,"min":95,"max":160,"target":"present","response":"present","rt":1436,"correct":true,"confidence":3},{"trial_n":118,"min":95,"max":160,"target":"present","response":"present","rt":2001.9999999999,"correct":true,"confidence":2},{"trial_n":119,"min":96,"max":159,"target":"absent","response":"present","rt":2068,"correct":false,"confidence":2},{"trial_n":120,"min":95,"max":160,"target":"present","response":"absent","rt":1503,"correct":false,"confidence":1},{"trial_n":121,"min":94,"max":161,"target":"absent","response":"present","rt":1389,"correct":false,"confidence":1},{"trial_n":122,"min":93,"max":162,"target":"present","response":"absent","rt":1855,"correct":false,"confidence":2},{"trial_n":123,"min":92,"max":163,"target":"absent","response":"absent","rt":1620.0000000001,"correct":true,"confidence":3},{"trial_n":124,"min":92,"max":163,"target":"present","response":"present","rt":1836.9999999999,"correct":true,"confidence":2},{"trial_n":125,"min":93,"max":162,"target":"absent","response":"present","rt":1219,"correct":false,"confidence":1},{"trial_n":126,"min":92,"max":163,"target":"present","response":"present","rt":4101,"correct":true,"confidence":1},{"trial_n":127,"min":92,"max":163,"target":"present","response":"absent","rt":2654,"correct":false,"confidence":1},{"trial_n":128,"min":91,"max":164,"target":"present","response":"present","rt":3321,"correct":true,"confidence":1},{"trial_n":129,"min":91,"max":164,"target":"absent","response":"absent","rt":1920,"correct":true,"confidence":1},{"trial_n":130,"min":92,"max":163,"target":"absent","response":"present","rt":5822,"correct":false,"confidence":1},{"trial_n":131,"min":91,"max":164,"target":"present","response":"present","rt":1337,"correct":true,"confidence":3},{"trial_n":132,"min":91,"max":164,"target":"present","response":"absent","rt":1522.9999999999,"correct":false,"confidence":2},{"trial_n":133,"min":90,"max":165,"target":"present","response":"present","rt":1022,"correct":true,"confidence":4},{"trial_n":134,"min":90,"max":165,"target":"present","response":"absent","rt":2007,"correct":false,"confidence":1},{"trial_n":135,"min":89,"max":166,"target":"present","response":"present","rt":2341,"correct":true,"confidence":2},{"trial_n":136,"min":89,"max":166,"target":"present","response":"present","rt":5792,"correct":true,"confidence":1},{"trial_n":137,"min":90,"max":165,"target":"present","response":"present","rt":1422,"correct":true,"confidence":5},{"trial_n":138,"min":90,"max":165,"target":"absent","response":"present","rt":1705,"correct":false,"confidence":3},{"trial_n":139,"min":89,"max":166,"target":"absent","response":"absent","rt":1559,"correct":true,"confidence":4},{"trial_n":140,"min":89,"max":166,"target":"absent","response":"absent","rt":1924,"correct":true,"confidence":3}]