[{"trial_n":1,"n_dots":4.25,"target":"right","response":"left","rt":2916.1000003815,"correct":false,"confidence":-1},{"trial_n":2,"n_dots":4.25,"target":"right","response":"right","rt":1341.9000000954,"correct":true,"confidence":-1},{"trial_n":3,"n_dots":4.25,"target":"left","response":"right","rt":679,"correct":false,"confidence":-1},{"trial_n":4,"n_dots":4.65,"target":"right","response":"left","rt":949.19999980927,"correct":false,"confidence":-1},{"trial_n":5,"n_dots":5.05,"target":"left","response":"left","rt":571.69999980927,"correct":true,"confidence":-1},{"trial_n":6,"n_dots":5.05,"target":"right","response":"right","rt":765.39999961853,"correct":true,"confidence":-1},{"trial_n":7,"n_dots":4.65,"target":"right","response":"right","rt":596.80000019073,"correct":true,"confidence":-1},{"trial_n":8,"n_dots":4.65,"target":"left","response":"left","rt":236.40000009537,"correct":true,"confidence":-1},{"trial_n":9,"n_dots":4.45,"target":"right","response":"right","rt":1381.7000002861,"correct":true,"confidence":-1},{"trial_n":10,"n_dots":4.45,"target":"left","response":"left","rt":78.89999961853,"correct":true,"confidence":-1},{"trial_n":11,"n_dots":4.25,"target":"right","response":"right","rt":528.69999980927,"correct":true,"confidence":-1},{"trial_n":12,"n_dots":4.25,"target":"left","response":"left","rt":355.69999980927,"correct":true,"confidence":-1},{"trial_n":13,"n_dots":4.15,"target":"right","response":"right","rt":459.90000009537,"correct":true,"confidence":-1},{"trial_n":14,"n_dots":4.15,"target":"left","response":"left","rt":1904.5999999046,"correct":true,"confidence":-1},{"trial_n":15,"n_dots":4.05,"target":"left","response":"left","rt":503.09999990463,"correct":true,"confidence":-1},{"trial_n":16,"n_dots":4.05,"target":"right","response":"right","rt":570.40000009537,"correct":true,"confidence":-1},{"trial_n":17,"n_dots":3.95,"target":"left","response":"left","rt":346.80000019073,"correct":true,"confidence":-1},{"trial_n":18,"n_dots":3.95,"target":"left","response":"left","rt":452.40000009537,"correct":true,"confidence":-1},{"trial_n":19,"n_dots":3.85,"target":"left","response":"left","rt":831.59999990463,"correct":true,"confidence":-1},{"trial_n":20,"n_dots":3.85,"target":"left","response":"left","rt":359.10000038147,"correct":true,"confidence":-1},{"trial_n":21,"n_dots":3.75,"target":"left","response":"left","rt":492.7999997139,"correct":true,"confidence":3},{"trial_n":22,"n_dots":3.75,"target":"left","response":"left","rt":426.10000038147,"correct":true,"confidence":5},{"trial_n":23,"n_dots":3.65,"target":"left","response":"left","rt":1275,"correct":true,"confidence":5},{"trial_n":24,"n_dots":3.65,"target":"right","response":"right","rt":734.69999980927,"correct":true,"confidence":2},{"trial_n":25,"n_dots":3.55,"target":"right","response":"left","rt":717,"correct":false,"confidence":3},{"trial_n":26,"n_dots":3.65,"target":"right","response":"right","rt":1352.8000001907,"correct":true,"confidence":4},{"trial_n":27,"n_dots":3.65,"target":"left","response":"left","rt":472.30000019073,"correct":true,"confidence":5},{"trial_n":28,"n_dots":3.55,"target":"left","response":"left","rt":1139.1999998093,"correct":true,"confidence":2},{"trial_n":29,"n_dots":3.55,"target":"right","response":"right","rt":1221.3000001907,"correct":true,"confidence":3},{"trial_n":30,"n_dots":3.45,"target":"left","response":"left","rt":322.5,"correct":true,"confidence":3},{"trial_n":31,"n_dots":3.45,"target":"left","response":"left","rt":319.69999980927,"correct":true,"confidence":4},{"trial_n":32,"n_dots":3.35,"target":"right","response":"right","rt":251.09999990463,"correct":true,"confidence":3},{"trial_n":33,"n_dots":3.35,"target":"right","response":"right","rt":1070.6000003815,"correct":true,"confidence":4},{"trial_n":34,"n_dots":3.25,"target":"left","response":"left","rt":1276.9000000954,"correct":true,"confidence":1},{"trial_n":35,"n_dots":3.25,"target":"right","response":"right","rt":817.69999980927,"correct":true,"confidence":2},{"trial_n":36,"n_dots":3.15,"target":"right","response":"right","rt":1148.7000002861,"correct":true,"confidence":3},{"trial_n":37,"n_dots":3.15,"target":"right","response":"right","rt":684.09999990463,"correct":true,"confidence":3},{"trial_n":38,"n_dots":3.05,"target":"left","response":"left","rt":755.40000009537,"correct":true,"confidence":2},{"trial_n":39,"n_dots":3.05,"target":"right","response":"left","rt":523.59999990463,"correct":false,"confidence":3},{"trial_n":40,"n_dots":3.15,"target":"left","response":"left","rt":451.7999997139,"correct":true,"confidence":1},{"trial_n":41,"n_dots":3.15,"target":"right","response":"right","rt":597.69999980927,"correct":true,"confidence":5},{"trial_n":42,"n_dots":3.05,"target":"right","response":"right","rt":908.69999980927,"correct":true,"confidence":3},{"trial_n":43,"n_dots":3.05,"target":"left","response":"right","rt":702.90000009537,"correct":false,"confidence":1},{"trial_n":44,"n_dots":3.15,"target":"right","response":"left","rt":590.90000009537,"correct":false,"confidence":1},{"trial_n":45,"n_dots":3.25,"target":"right","response":"left","rt":943,"correct":false,"confidence":3},{"trial_n":46,"n_dots":3.35,"target":"left","response":"left","rt":437.59999990463,"correct":true,"confidence":3},{"trial_n":47,"n_dots":3.35,"target":"right","response":"left","rt":1359.4000000954,"correct":false,"confidence":1},{"trial_n":48,"n_dots":3.45,"target":"left","response":"left","rt":549.5,"correct":true,"confidence":2},{"trial_n":49,"n_dots":3.45,"target":"right","response":"right","rt":1311.3000001907,"correct":true,"confidence":4},{"trial_n":50,"n_dots":3.35,"target":"right","response":"left","rt":522.40000009537,"correct":false,"confidence":1},{"trial_n":51,"n_dots":3.45,"target":"left","response":"left","rt":301.69999980927,"correct":true,"confidence":1},{"trial_n":52,"n_dots":3.45,"target":"right","response":"right","rt":1038,"correct":true,"confidence":3},{"trial_n":53,"n_dots":3.35,"target":"right","response":"left","rt":580.60000038147,"correct":false,"confidence":1},{"trial_n":54,"n_dots":3.45,"target":"right","response":"left","rt":1013.5999999046,"correct":false,"confidence":1},{"trial_n":55,"n_dots":3.55,"target":"right","response":"right","rt":1972.0999999046,"correct":true,"confidence":2},{"trial_n":56,"n_dots":3.55,"target":"left","response":"left","rt":715.5,"correct":true,"confidence":4},{"trial_n":57,"n_dots":3.45,"target":"left","response":"left","rt":775,"correct":true,"confidence":3},{"trial_n":58,"n_dots":3.45,"target":"left","response":"left","rt":437.40000009537,"correct":true,"confidence":4},{"trial_n":59,"n_dots":3.35,"target":"left","response":"left","rt":29.800000190735,"correct":true,"confidence":4},{"trial_n":60,"n_dots":3.35,"target":"left","response":"left","rt":334,"correct":true,"confidence":1},{"trial_n":61,"n_dots":3.25,"target":"left","response":"right","rt":1569.9000000954,"correct":false,"confidence":3},{"trial_n":62,"n_dots":3.35,"target":"left","response":"left","rt":79.300000190735,"correct":true,"confidence":5},{"trial_n":63,"n_dots":3.35,"target":"right","response":"right","rt":794.69999980927,"correct":true,"confidence":4},{"trial_n":64,"n_dots":3.25,"target":"left","response":"left","rt":438.09999990463,"correct":true,"confidence":5},{"trial_n":65,"n_dots":3.25,"target":"right","response":"left","rt":422.7000002861,"correct":false,"confidence":5},{"trial_n":66,"n_dots":3.35,"target":"left","response":"left","rt":495.59999990463,"correct":true,"confidence":5},{"trial_n":67,"n_dots":3.35,"target":"left","response":"left","rt":241.59999990463,"correct":true,"confidence":4},{"trial_n":68,"n_dots":3.25,"target":"right","response":"left","rt":505.60000038147,"correct":false,"confidence":1},{"trial_n":69,"n_dots":3.35,"target":"right","response":"right","rt":787.10000038147,"correct":true,"confidence":2},{"trial_n":70,"n_dots":3.35,"target":"right","response":"right","rt":663,"correct":true,"confidence":4},{"trial_n":71,"n_dots":3.25,"target":"right","response":"right","rt":414.2000002861,"correct":true,"confidence":5},{"trial_n":72,"n_dots":3.25,"target":"left","response":"left","rt":635.40000009537,"correct":true,"confidence":3},{"trial_n":73,"n_dots":3.15,"target":"left","response":"left","rt":496.2999997139,"correct":true,"confidence":3},{"trial_n":74,"n_dots":3.15,"target":"left","response":"left","rt":342.7999997139,"correct":true,"confidence":5},{"trial_n":75,"n_dots":3.05,"target":"right","response":"left","rt":290.69999980927,"correct":false,"confidence":5},{"trial_n":76,"n_dots":3.15,"target":"left","response":"left","rt":891.89999961853,"correct":true,"confidence":3},{"trial_n":77,"n_dots":3.15,"target":"right","response":"right","rt":323,"correct":true,"confidence":4},{"trial_n":78,"n_dots":3.05,"target":"right","response":"left","rt":732,"correct":false,"confidence":1},{"trial_n":79,"n_dots":3.15,"target":"left","response":"left","rt":808,"correct":true,"confidence":3},{"trial_n":80,"n_dots":3.15,"target":"right","response":"right","rt":1456.8000001907,"correct":true,"confidence":1},{"trial_n":81,"n_dots":3.05,"target":"right","response":"right","rt":401.69999980927,"correct":true,"confidence":3},{"trial_n":82,"n_dots":3.05,"target":"right","response":"left","rt":46.099999904633,"correct":false,"confidence":1},{"trial_n":83,"n_dots":3.15,"target":"right","response":"right","rt":365.09999990463,"correct":true,"confidence":3},{"trial_n":84,"n_dots":3.15,"target":"left","response":"left","rt":663.5,"correct":true,"confidence":5},{"trial_n":85,"n_dots":3.05,"target":"right","response":"right","rt":343.5,"correct":true,"confidence":3},{"trial_n":86,"n_dots":3.05,"target":"right","response":"right","rt":710.69999980927,"correct":true,"confidence":3},{"trial_n":87,"n_dots":2.95,"target":"right","response":"right","rt":266.19999980927,"correct":true,"confidence":3},{"trial_n":88,"n_dots":2.95,"target":"left","response":"left","rt":72,"correct":true,"confidence":4},{"trial_n":89,"n_dots":2.85,"target":"right","response":"right","rt":599.39999961853,"correct":true,"confidence":4},{"trial_n":90,"n_dots":2.85,"target":"right","response":"left","rt":61.900000095367,"correct":false,"confidence":3},{"trial_n":91,"n_dots":2.95,"target":"left","response":"left","rt":420.2999997139,"correct":true,"confidence":4},{"trial_n":92,"n_dots":2.95,"target":"right","response":"left","rt":483.90000009537,"correct":false,"confidence":4},{"trial_n":93,"n_dots":3.05,"target":"right","response":"right","rt":632.5,"correct":true,"confidence":3},{"trial_n":94,"n_dots":3.05,"target":"right","response":"left","rt":435.40000009537,"correct":false,"confidence":1},{"trial_n":95,"n_dots":3.15,"target":"right","response":"left","rt":417.90000009537,"correct":false,"confidence":3},{"trial_n":96,"n_dots":3.25,"target":"right","response":"left","rt":312.59999990463,"correct":false,"confidence":1},{"trial_n":97,"n_dots":3.35,"target":"left","response":"right","rt":1161.3000001907,"correct":false,"confidence":4},{"trial_n":98,"n_dots":3.45,"target":"left","response":"left","rt":338,"correct":true,"confidence":1},{"trial_n":99,"n_dots":3.45,"target":"left","response":"left","rt":360.2999997139,"correct":true,"confidence":4},{"trial_n":100,"n_dots":3.35,"target":"right","response":"left","rt":927.59999990463,"correct":false,"confidence":4},{"trial_n":101,"n_dots":3.45,"target":"right","response":"left","rt":508.7999997139,"correct":false,"confidence":4},{"trial_n":102,"n_dots":3.55,"target":"left","response":"left","rt":695.69999980927,"correct":true,"confidence":3},{"trial_n":103,"n_dots":3.55,"target":"right","response":"right","rt":356.7000002861,"correct":true,"confidence":4},{"trial_n":104,"n_dots":3.45,"target":"right","response":"right","rt":646.90000009537,"correct":true,"confidence":1},{"trial_n":105,"n_dots":3.45,"target":"left","response":"left","rt":831.80000019073,"correct":true,"confidence":4},{"trial_n":106,"n_dots":3.35,"target":"left","response":"left","rt":699.19999980927,"correct":true,"confidence":2},{"trial_n":107,"n_dots":3.35,"target":"left","response":"left","rt":427.30000019073,"correct":true,"confidence":1},{"trial_n":108,"n_dots":3.25,"target":"left","response":"left","rt":373.30000019073,"correct":true,"confidence":3},{"trial_n":109,"n_dots":3.25,"target":"left","response":"left","rt":296,"correct":true,"confidence":4},{"trial_n":110,"n_dots":3.15,"target":"left","response":"left","rt":274.09999990463,"correct":true,"confidence":4},{"trial_n":111,"n_dots":3.15,"target":"left","response":"left","rt":314.30000019073,"correct":true,"confidence":4},{"trial_n":112,"n_dots":3.05,"target":"left","response":"left","rt":439.89999961853,"correct":true,"confidence":4},{"trial_n":113,"n_dots":3.05,"target":"right","response":"right","rt":1526.8999996185,"correct":true,"confidence":4},{"trial_n":114,"n_dots":2.95,"target":"left","response":"left","rt":259.09999990463,"correct":true,"confidence":4},{"trial_n":115,"n_dots":2.95,"target":"left","response":"right","rt":612.10000038147,"correct":false,"confidence":3},{"trial_n":116,"n_dots":3.05,"target":"left","response":"left","rt":771.69999980927,"correct":true,"confidence":3},{"trial_n":117,"n_dots":3.05,"target":"left","response":"right","rt":798.09999990463,"correct":false,"confidence":4},{"trial_n":118,"n_dots":3.15,"target":"right","response":"right","rt":401.19999980927,"correct":true,"confidence":5},{"trial_n":119,"n_dots":3.15,"target":"right","response":"left","rt":1680.7000002861,"correct":false,"confidence":1},{"trial_n":120,"n_dots":3.25,"target":"left","response":"right","rt":472.80000019073,"correct":false,"confidence":5}]