[{"trial_n":1,"min":25,"max":230,"target":"present","response":"absent","rt":3822,"correct":false,"confidence":-1},{"trial_n":2,"min":25,"max":230,"target":"present","response":"present","rt":1425,"correct":true,"confidence":-1},{"trial_n":3,"min":25,"max":230,"target":"absent","response":"absent","rt":1215,"correct":true,"confidence":-1},{"trial_n":4,"min":41,"max":214,"target":"absent","response":"absent","rt":917.00000000001,"correct":true,"confidence":-1},{"trial_n":5,"min":41,"max":214,"target":"present","response":"present","rt":1343,"correct":true,"confidence":-1},{"trial_n":6,"min":57,"max":198,"target":"absent","response":"absent","rt":1001,"correct":true,"confidence":-1},{"trial_n":7,"min":57,"max":198,"target":"absent","response":"absent","rt":1051,"correct":true,"confidence":-1},{"trial_n":8,"min":73,"max":182,"target":"absent","response":"absent","rt":866.99999999999,"correct":true,"confidence":-1},{"trial_n":9,"min":73,"max":182,"target":"absent","response":"absent","rt":834,"correct":true,"confidence":-1},{"trial_n":10,"min":89,"max":166,"target":"present","response":"present","rt":1092,"correct":true,"confidence":-1},{"trial_n":11,"min":89,"max":166,"target":"absent","response":"absent","rt":916,"correct":true,"confidence":-1},{"trial_n":12,"min":97,"max":158,"target":"present","response":"absent","rt":878,"correct":false,"confidence":-1},{"trial_n":13,"min":89,"max":166,"target":"present","response":"absent","rt":944,"correct":false,"confidence":-1},{"trial_n":14,"min":81,"max":174,"target":"absent","response":"present","rt":1183,"correct":false,"confidence":-1},{"trial_n":15,"min":73,"max":182,"target":"present","response":"present","rt":1780,"correct":true,"confidence":-1},{"trial_n":16,"min":73,"max":182,"target":"absent","response":"present","rt":1202,"correct":false,"confidence":-1},{"trial_n":17,"min":65,"max":190,"target":"present","response":"absent","rt":2413,"correct":false,"confidence":-1},{"trial_n":18,"min":57,"max":198,"target":"present","response":"present","rt":1062,"correct":true,"confidence":-1},{"trial_n":19,"min":57,"max":198,"target":"absent","response":"absent","rt":1184,"correct":true,"confidence":-1},{"trial_n":20,"min":65,"max":190,"target":"absent","response":"absent","rt":1118,"correct":true,"confidence":-1},{"trial_n":21,"min":65,"max":190,"target":"present","response":"present","rt":1311,"correct":true,"confidence":4},{"trial_n":22,"min":69,"max":186,"target":"present","response":"present","rt":1194,"correct":true,"confidence":5},{"trial_n":23,"min":69,"max":186,"target":"present","response":"present","rt":1346,"correct":true,"confidence":5},{"trial_n":24,"min":73,"max":182,"target":"present","response":"present","rt":1664,"correct":true,"confidence":5},{"trial_n":25,"min":73,"max":182,"target":"present","response":"present","rt":1729,"correct":true,"confidence":5},{"trial_n":26,"min":77,"max":178,"target":"present","response":"present","rt":1214,"correct":true,"confidence":4},{"trial_n":27,"min":77,"max":178,"target":"present","response":"absent","rt":1697,"correct":false,"confidence":2},{"trial_n":28,"min":73,"max":182,"target":"present","response":"present","rt":1163,"correct":true,"confidence":3},{"trial_n":29,"min":73,"max":182,"target":"present","response":"present","rt":1497,"correct":true,"confidence":3},{"trial_n":30,"min":77,"max":178,"target":"absent","response":"present","rt":1387,"correct":false,"confidence":3},{"trial_n":31,"min":75,"max":180,"target":"absent","response":"present","rt":1773,"correct":false,"confidence":3},{"trial_n":32,"min":73,"max":182,"target":"absent","response":"absent","rt":2256,"correct":true,"confidence":1},{"trial_n":33,"min":73,"max":182,"target":"present","response":"present","rt":1100,"correct":true,"confidence":2},{"trial_n":34,"min":75,"max":180,"target":"present","response":"present","rt":1102,"correct":true,"confidence":2},{"trial_n":35,"min":75,"max":180,"target":"present","response":"present","rt":1117,"correct":true,"confidence":1},{"trial_n":36,"min":77,"max":178,"target":"present","response":"present","rt":1301,"correct":true,"confidence":3},{"trial_n":37,"min":77,"max":178,"target":"absent","response":"present","rt":1073,"correct":false,"confidence":3},{"trial_n":38,"min":75,"max":180,"target":"present","response":"present","rt":1184,"correct":true,"confidence":3},{"trial_n":39,"min":75,"max":180,"target":"absent","response":"present","rt":1108,"correct":false,"confidence":3},{"trial_n":40,"min":73,"max":182,"target":"absent","response":"absent","rt":1291,"correct":true,"confidence":1},{"trial_n":41,"min":73,"max":182,"target":"absent","response":"absent","rt":1107,"correct":true,"confidence":1},{"trial_n":42,"min":74,"max":181,"target":"present","response":"present","rt":1101,"correct":true,"confidence":3},{"trial_n":43,"min":74,"max":181,"target":"present","response":"present","rt":1518,"correct":true,"confidence":4},{"trial_n":44,"min":75,"max":180,"target":"present","response":"present","rt":1469,"correct":true,"confidence":4},{"trial_n":45,"min":75,"max":180,"target":"absent","response":"present","rt":1259,"correct":false,"confidence":5},{"trial_n":46,"min":74,"max":181,"target":"absent","response":"present","rt":1075,"correct":false,"confidence":3},{"trial_n":47,"min":73,"max":182,"target":"present","response":"present","rt":1203,"correct":true,"confidence":4},{"trial_n":48,"min":73,"max":182,"target":"absent","response":"present","rt":1060,"correct":false,"confidence":3},{"trial_n":49,"min":72,"max":183,"target":"absent","response":"absent","rt":1060,"correct":true,"confidence":1},{"trial_n":50,"min":72,"max":183,"target":"absent","response":"absent","rt":1091.9999999999,"correct":true,"confidence":1},{"trial_n":51,"min":73,"max":182,"target":"present","response":"present","rt":1186,"correct":true,"confidence":3},{"trial_n":52,"min":73,"max":182,"target":"absent","response":"present","rt":1259,"correct":false,"confidence":3},{"trial_n":53,"min":72,"max":183,"target":"absent","response":"present","rt":1176,"correct":false,"confidence":2},{"trial_n":54,"min":71,"max":184,"target":"absent","response":"absent","rt":1409.9999999999,"correct":true,"confidence":1},{"trial_n":55,"min":71,"max":184,"target":"present","response":"present","rt":1053,"correct":true,"confidence":5},{"trial_n":56,"min":72,"max":183,"target":"present","response":"present","rt":1037,"correct":true,"confidence":4},{"trial_n":57,"min":72,"max":183,"target":"absent","response":"absent","rt":1643,"correct":true,"confidence":3},{"trial_n":58,"min":73,"max":182,"target":"present","response":"present","rt":1237,"correct":true,"confidence":3},{"trial_n":59,"min":73,"max":182,"target":"absent","response":"present","rt":1226,"correct":false,"confidence":3},{"trial_n":60,"min":72,"max":183,"target":"absent","response":"present","rt":1010,"correct":false,"confidence":3},{"trial_n":61,"min":71,"max":184,"target":"absent","response":"absent","rt":1542,"correct":true,"confidence":3},{"trial_n":62,"min":71,"max":184,"target":"absent","response":"absent","rt":1012,"correct":true,"confidence":3},{"trial_n":63,"min":72,"max":183,"target":"absent","response":"absent","rt":1028,"correct":true,"confidence":3},{"trial_n":64,"min":72,"max":183,"target":"absent","response":"absent","rt":2279,"correct":true,"confidence":3},{"trial_n":65,"min":73,"max":182,"target":"absent","response":"absent","rt":1128,"correct":true,"confidence":1},{"trial_n":66,"min":73,"max":182,"target":"present","response":"present","rt":1272,"correct":true,"confidence":4},{"trial_n":67,"min":74,"max":181,"target":"present","response":"present","rt":1372,"correct":true,"confidence":4},{"trial_n":68,"min":74,"max":181,"target":"present","response":"present","rt":1422,"correct":true,"confidence":4},{"trial_n":69,"min":75,"max":180,"target":"present","response":"present","rt":1071.0000000001,"correct":true,"confidence":5},{"trial_n":70,"min":75,"max":180,"target":"present","response":"present","rt":1754.0000000001,"correct":true,"confidence":1},{"trial_n":71,"min":41,"max":214,"target":"present","response":"present","rt":3802,"correct":true,"confidence":-1},{"trial_n":72,"min":41,"max":214,"target":"present","response":"present","rt":1184.0000000001,"correct":true,"confidence":-1},{"trial_n":73,"min":57,"max":198,"target":"absent","response":"absent","rt":1270,"correct":true,"confidence":-1},{"trial_n":74,"min":57,"max":198,"target":"absent","response":"absent","rt":1003,"correct":true,"confidence":-1},{"trial_n":75,"min":73,"max":182,"target":"present","response":"present","rt":1102,"correct":true,"confidence":-1},{"trial_n":76,"min":73,"max":182,"target":"present","response":"present","rt":1204,"correct":true,"confidence":-1},{"trial_n":77,"min":89,"max":166,"target":"present","response":"absent","rt":1118.9999999999,"correct":false,"confidence":-1},{"trial_n":78,"min":73,"max":182,"target":"present","response":"present","rt":1270,"correct":true,"confidence":-1},{"trial_n":79,"min":73,"max":182,"target":"absent","response":"absent","rt":1205,"correct":true,"confidence":-1},{"trial_n":80,"min":89,"max":166,"target":"absent","response":"present","rt":1372,"correct":false,"confidence":-1},{"trial_n":81,"min":81,"max":174,"target":"absent","response":"absent","rt":1153,"correct":true,"confidence":-1},{"trial_n":82,"min":81,"max":174,"target":"present","response":"present","rt":1019.0000000001,"correct":true,"confidence":-1},{"trial_n":83,"min":89,"max":166,"target":"present","response":"present","rt":1657,"correct":true,"confidence":-1},{"trial_n":84,"min":89,"max":166,"target":"absent","response":"present","rt":1054,"correct":false,"confidence":-1},{"trial_n":85,"min":81,"max":174,"target":"present","response":"present","rt":1256,"correct":true,"confidence":-1},{"trial_n":86,"min":81,"max":174,"target":"present","response":"absent","rt":1089,"correct":false,"confidence":-1},{"trial_n":87,"min":73,"max":182,"target":"absent","response":"present","rt":1020,"correct":false,"confidence":-1},{"trial_n":88,"min":65,"max":190,"target":"absent","response":"absent","rt":1171,"correct":true,"confidence":-1},{"trial_n":89,"min":65,"max":190,"target":"absent","response":"absent","rt":902.00000000006,"correct":true,"confidence":-1},{"trial_n":90,"min":73,"max":182,"target":"absent","response":"absent","rt":970,"correct":true,"confidence":-1},{"trial_n":91,"min":73,"max":182,"target":"present","response":"present","rt":1221,"correct":true,"confidence":5},{"trial_n":92,"min":77,"max":178,"target":"present","response":"present","rt":1755,"correct":true,"confidence":4},{"trial_n":93,"min":77,"max":178,"target":"absent","response":"absent","rt":1003,"correct":true,"confidence":3},{"trial_n":94,"min":81,"max":174,"target":"present","response":"present","rt":2055,"correct":true,"confidence":5},{"trial_n":95,"min":81,"max":174,"target":"present","response":"present","rt":1289,"correct":true,"confidence":5},{"trial_n":96,"min":85,"max":170,"target":"absent","response":"absent","rt":1390,"correct":true,"confidence":1},{"trial_n":97,"min":85,"max":170,"target":"absent","response":"present","rt":1257,"correct":false,"confidence":3},{"trial_n":98,"min":81,"max":174,"target":"absent","response":"present","rt":1038.9999999999,"correct":false,"confidence":2},{"trial_n":99,"min":77,"max":178,"target":"present","response":"present","rt":1007,"correct":true,"confidence":2},{"trial_n":100,"min":77,"max":178,"target":"present","response":"present","rt":1373.0000000001,"correct":true,"confidence":3},{"trial_n":101,"min":79,"max":176,"target":"present","response":"present","rt":1192,"correct":true,"confidence":4},{"trial_n":102,"min":79,"max":176,"target":"absent","response":"absent","rt":1257,"correct":true,"confidence":4},{"trial_n":103,"min":81,"max":174,"target":"absent","response":"absent","rt":875.99999999994,"correct":true,"confidence":5},{"trial_n":104,"min":81,"max":174,"target":"absent","response":"absent","rt":974,"correct":true,"confidence":5},{"trial_n":105,"min":83,"max":172,"target":"present","response":"present","rt":1292,"correct":true,"confidence":4},{"trial_n":106,"min":83,"max":172,"target":"absent","response":"absent","rt":1324.0000000001,"correct":true,"confidence":1},{"trial_n":107,"min":85,"max":170,"target":"present","response":"present","rt":890.99999999994,"correct":true,"confidence":5},{"trial_n":108,"min":85,"max":170,"target":"present","response":"present","rt":1274,"correct":true,"confidence":4},{"trial_n":109,"min":87,"max":168,"target":"absent","response":"absent","rt":1125,"correct":true,"confidence":5},{"trial_n":110,"min":87,"max":168,"target":"present","response":"present","rt":13475,"correct":true,"confidence":1},{"trial_n":111,"min":88,"max":167,"target":"present","response":"present","rt":975,"correct":true,"confidence":5},{"trial_n":112,"min":88,"max":167,"target":"present","response":"present","rt":1175.9999999999,"correct":true,"confidence":5},{"trial_n":113,"min":89,"max":166,"target":"absent","response":"absent","rt":1144,"correct":true,"confidence":5},{"trial_n":114,"min":89,"max":166,"target":"present","response":"absent","rt":977.00000000006,"correct":false,"confidence":3},{"trial_n":115,"min":88,"max":167,"target":"present","response":"present","rt":1143,"correct":true,"confidence":5},{"trial_n":116,"min":88,"max":167,"target":"present","response":"present","rt":1126,"correct":true,"confidence":4},{"trial_n":117,"min":89,"max":166,"target":"absent","response":"absent","rt":1643,"correct":true,"confidence":1},{"trial_n":118,"min":89,"max":166,"target":"absent","response":"absent","rt":1127,"correct":true,"confidence":1},{"trial_n":119,"min":90,"max":165,"target":"absent","response":"present","rt":1325.9999999999,"correct":false,"confidence":1},{"trial_n":120,"min":89,"max":166,"target":"present","response":"present","rt":977,"correct":true,"confidence":3},{"trial_n":121,"min":89,"max":166,"target":"present","response":"present","rt":909,"correct":true,"confidence":5},{"trial_n":122,"min":90,"max":165,"target":"absent","response":"present","rt":1013.0000000001,"correct":false,"confidence":4},{"trial_n":123,"min":89,"max":166,"target":"absent","response":"present","rt":1561,"correct":false,"confidence":1},{"trial_n":124,"min":88,"max":167,"target":"absent","response":"absent","rt":1894,"correct":true,"confidence":3},{"trial_n":125,"min":88,"max":167,"target":"absent","response":"present","rt":845,"correct":false,"confidence":2},{"trial_n":126,"min":87,"max":168,"target":"absent","response":"present","rt":1061,"correct":false,"confidence":3},{"trial_n":127,"min":86,"max":169,"target":"absent","response":"absent","rt":1194,"correct":true,"confidence":2},{"trial_n":128,"min":86,"max":169,"target":"absent","response":"absent","rt":1711,"correct":true,"confidence":3},{"trial_n":129,"min":87,"max":168,"target":"absent","response":"present","rt":946.00000000012,"correct":false,"confidence":2},{"trial_n":130,"min":86,"max":169,"target":"absent","response":"present","rt":1393,"correct":false,"confidence":1},{"trial_n":131,"min":85,"max":170,"target":"absent","response":"present","rt":1311,"correct":false,"confidence":1},{"trial_n":132,"min":84,"max":171,"target":"present","response":"absent","rt":1028,"correct":false,"confidence":1},{"trial_n":133,"min":83,"max":172,"target":"present","response":"present","rt":861.00000000012,"correct":true,"confidence":5},{"trial_n":134,"min":83,"max":172,"target":"present","response":"present","rt":1045,"correct":true,"confidence":5},{"trial_n":135,"min":84,"max":171,"target":"present","response":"present","rt":929,"correct":true,"confidence":4},{"trial_n":136,"min":84,"max":171,"target":"present","response":"present","rt":927.99999999988,"correct":true,"confidence":5},{"trial_n":137,"min":85,"max":170,"target":"present","response":"present","rt":1028.0000000001,"correct":true,"confidence":5},{"trial_n":138,"min":85,"max":170,"target":"present","response":"present","rt":1596,"correct":true,"confidence":5},{"trial_n":139,"min":86,"max":169,"target":"present","response":"present","rt":1328,"correct":true,"confidence":3},{"trial_n":140,"min":86,"max":169,"target":"absent","response":"absent","rt":1212.9999999999,"correct":true,"confidence":5}]