[{"trial_n":1,"n_dots":4.25,"target":"right","response":"left","rt":2772,"correct":false,"confidence":-1},{"trial_n":2,"n_dots":4.25,"target":"right","response":"right","rt":775,"correct":true,"confidence":-1},{"trial_n":3,"n_dots":4.25,"target":"left","response":"right","rt":690,"correct":false,"confidence":-1},{"trial_n":4,"n_dots":4.65,"target":"right","response":"right","rt":441,"correct":true,"confidence":-1},{"trial_n":5,"n_dots":4.65,"target":"left","response":"left","rt":657,"correct":true,"confidence":-1},{"trial_n":6,"n_dots":4.25,"target":"left","response":"left","rt":674,"correct":true,"confidence":-1},{"trial_n":7,"n_dots":4.25,"target":"right","response":"right","rt":290,"correct":true,"confidence":-1},{"trial_n":8,"n_dots":4.05,"target":"right","response":"right","rt":691,"correct":true,"confidence":-1},{"trial_n":9,"n_dots":4.05,"target":"right","response":"left","rt":926,"correct":false,"confidence":-1},{"trial_n":10,"n_dots":4.25,"target":"left","response":"left","rt":391,"correct":true,"confidence":-1},{"trial_n":11,"n_dots":4.25,"target":"right","response":"right","rt":191,"correct":true,"confidence":-1},{"trial_n":12,"n_dots":4.05,"target":"left","response":"left","rt":1241,"correct":true,"confidence":-1},{"trial_n":13,"n_dots":4.05,"target":"right","response":"right","rt":343,"correct":true,"confidence":-1},{"trial_n":14,"n_dots":3.95,"target":"right","response":"left","rt":429,"correct":false,"confidence":-1},{"trial_n":15,"n_dots":4.05,"target":"right","response":"right","rt":826,"correct":true,"confidence":-1},{"trial_n":16,"n_dots":4.05,"target":"left","response":"left","rt":660,"correct":true,"confidence":-1},{"trial_n":17,"n_dots":3.95,"target":"right","response":"right","rt":677,"correct":true,"confidence":-1},{"trial_n":18,"n_dots":3.95,"target":"right","response":"left","rt":691,"correct":false,"confidence":-1},{"trial_n":19,"n_dots":4.05,"target":"left","response":"left","rt":642,"correct":true,"confidence":-1},{"trial_n":20,"n_dots":4.05,"target":"right","response":"right","rt":726,"correct":true,"confidence":-1},{"trial_n":21,"n_dots":3.95,"target":"left","response":"left","rt":496,"correct":true,"confidence":4},{"trial_n":22,"n_dots":3.95,"target":"left","response":"left","rt":510.99999999999,"correct":true,"confidence":4},{"trial_n":23,"n_dots":3.85,"target":"left","response":"right","rt":1028,"correct":false,"confidence":3},{"trial_n":24,"n_dots":3.95,"target":"right","response":"right","rt":860,"correct":true,"confidence":3},{"trial_n":25,"n_dots":3.95,"target":"left","response":"left","rt":627,"correct":true,"confidence":5},{"trial_n":26,"n_dots":3.85,"target":"right","response":"right","rt":413,"correct":true,"confidence":4},{"trial_n":27,"n_dots":3.85,"target":"right","response":"left","rt":945.00000000001,"correct":false,"confidence":1},{"trial_n":28,"n_dots":3.95,"target":"left","response":"left","rt":610.99999999999,"correct":true,"confidence":2},{"trial_n":29,"n_dots":3.95,"target":"left","response":"left","rt":495,"correct":true,"confidence":3},{"trial_n":30,"n_dots":3.85,"target":"left","response":"left","rt":711.99999999999,"correct":true,"confidence":1},{"trial_n":31,"n_dots":3.85,"target":"left","response":"left","rt":696.99999999999,"correct":true,"confidence":4},{"trial_n":32,"n_dots":3.75,"target":"right","response":"right","rt":896,"correct":true,"confidence":4},{"trial_n":33,"n_dots":3.75,"target":"left","response":"left","rt":827.99999999999,"correct":true,"confidence":5},{"trial_n":34,"n_dots":3.65,"target":"right","response":"right","rt":898,"correct":true,"confidence":3},{"trial_n":35,"n_dots":3.65,"target":"left","response":"left","rt":713,"correct":true,"confidence":2},{"trial_n":36,"n_dots":3.55,"target":"left","response":"right","rt":780,"correct":false,"confidence":4},{"trial_n":37,"n_dots":3.65,"target":"right","response":"left","rt":381,"correct":false,"confidence":1},{"trial_n":38,"n_dots":3.75,"target":"left","response":"left","rt":750,"correct":true,"confidence":3},{"trial_n":39,"n_dots":3.75,"target":"right","response":"right","rt":563,"correct":true,"confidence":5},{"trial_n":40,"n_dots":3.65,"target":"right","response":"right","rt":716,"correct":true,"confidence":4},{"trial_n":41,"n_dots":3.65,"target":"left","response":"left","rt":611,"correct":true,"confidence":2},{"trial_n":42,"n_dots":3.55,"target":"left","response":"left","rt":867,"correct":true,"confidence":2},{"trial_n":43,"n_dots":3.55,"target":"left","response":"right","rt":1048,"correct":false,"confidence":1},{"trial_n":44,"n_dots":3.65,"target":"right","response":"left","rt":1498,"correct":false,"confidence":1},{"trial_n":45,"n_dots":3.75,"target":"left","response":"left","rt":947.99999999997,"correct":true,"confidence":5},{"trial_n":46,"n_dots":3.75,"target":"right","response":"right","rt":684,"correct":true,"confidence":5},{"trial_n":47,"n_dots":3.65,"target":"right","response":"right","rt":785.00000000003,"correct":true,"confidence":5},{"trial_n":48,"n_dots":3.65,"target":"right","response":"right","rt":600,"correct":true,"confidence":5},{"trial_n":49,"n_dots":3.55,"target":"right","response":"right","rt":700.00000000003,"correct":true,"confidence":5},{"trial_n":50,"n_dots":3.55,"target":"left","response":"left","rt":618,"correct":true,"confidence":1},{"trial_n":51,"n_dots":3.45,"target":"right","response":"right","rt":1367,"correct":true,"confidence":1},{"trial_n":52,"n_dots":3.45,"target":"right","response":"right","rt":534,"correct":true,"confidence":2},{"trial_n":53,"n_dots":3.35,"target":"right","response":"left","rt":1217,"correct":false,"confidence":2},{"trial_n":54,"n_dots":3.45,"target":"left","response":"left","rt":816,"correct":true,"confidence":3},{"trial_n":55,"n_dots":3.45,"target":"right","response":"right","rt":535,"correct":true,"confidence":4},{"trial_n":56,"n_dots":3.35,"target":"left","response":"left","rt":584,"correct":true,"confidence":5},{"trial_n":57,"n_dots":3.35,"target":"left","response":"left","rt":985.00000000003,"correct":true,"confidence":3},{"trial_n":58,"n_dots":3.25,"target":"right","response":"right","rt":1418,"correct":true,"confidence":3},{"trial_n":59,"n_dots":3.25,"target":"right","response":"right","rt":685.00000000006,"correct":true,"confidence":4},{"trial_n":60,"n_dots":3.15,"target":"left","response":"left","rt":488,"correct":true,"confidence":3},{"trial_n":61,"n_dots":3.15,"target":"right","response":"left","rt":522.00000000006,"correct":false,"confidence":1},{"trial_n":62,"n_dots":3.25,"target":"left","response":"right","rt":1052,"correct":false,"confidence":3},{"trial_n":63,"n_dots":3.35,"target":"left","response":"right","rt":203,"correct":false,"confidence":4},{"trial_n":64,"n_dots":3.45,"target":"right","response":"right","rt":354,"correct":true,"confidence":3},{"trial_n":65,"n_dots":3.45,"target":"left","response":"right","rt":855,"correct":false,"confidence":2},{"trial_n":66,"n_dots":3.55,"target":"left","response":"left","rt":1420,"correct":true,"confidence":2},{"trial_n":67,"n_dots":3.55,"target":"right","response":"right","rt":204,"correct":true,"confidence":4},{"trial_n":68,"n_dots":3.45,"target":"left","response":"left","rt":733,"correct":true,"confidence":5},{"trial_n":69,"n_dots":3.45,"target":"right","response":"right","rt":353,"correct":true,"confidence":4},{"trial_n":70,"n_dots":3.35,"target":"left","response":"left","rt":605,"correct":true,"confidence":3},{"trial_n":71,"n_dots":3.35,"target":"right","response":"right","rt":372,"correct":true,"confidence":2},{"trial_n":72,"n_dots":3.25,"target":"right","response":"right","rt":339,"correct":true,"confidence":3},{"trial_n":73,"n_dots":3.25,"target":"right","response":"right","rt":389,"correct":true,"confidence":2},{"trial_n":74,"n_dots":3.15,"target":"left","response":"right","rt":288,"correct":false,"confidence":3},{"trial_n":75,"n_dots":3.25,"target":"left","response":"left","rt":406,"correct":true,"confidence":4},{"trial_n":76,"n_dots":3.25,"target":"right","response":"right","rt":772,"correct":true,"confidence":1},{"trial_n":77,"n_dots":3.15,"target":"right","response":"right","rt":1173,"correct":true,"confidence":3},{"trial_n":78,"n_dots":3.15,"target":"left","response":"left","rt":505,"correct":true,"confidence":5},{"trial_n":79,"n_dots":3.05,"target":"left","response":"left","rt":457,"correct":true,"confidence":1},{"trial_n":80,"n_dots":3.05,"target":"right","response":"right","rt":1456,"correct":true,"confidence":1},{"trial_n":81,"n_dots":2.95,"target":"left","response":"left","rt":1006,"correct":true,"confidence":4},{"trial_n":82,"n_dots":2.95,"target":"right","response":"right","rt":1458,"correct":true,"confidence":1},{"trial_n":83,"n_dots":2.85,"target":"right","response":"right","rt":1039,"correct":true,"confidence":3},{"trial_n":84,"n_dots":2.85,"target":"right","response":"right","rt":972,"correct":true,"confidence":2},{"trial_n":85,"n_dots":2.75,"target":"right","response":"left","rt":723,"correct":false,"confidence":3},{"trial_n":86,"n_dots":2.85,"target":"left","response":"right","rt":1090,"correct":false,"confidence":2},{"trial_n":87,"n_dots":2.95,"target":"left","response":"left","rt":3224,"correct":true,"confidence":3},{"trial_n":88,"n_dots":2.95,"target":"right","response":"right","rt":15324,"correct":true,"confidence":4},{"trial_n":89,"n_dots":2.85,"target":"right","response":"right","rt":890,"correct":true,"confidence":4},{"trial_n":90,"n_dots":2.85,"target":"left","response":"left","rt":263,"correct":true,"confidence":2},{"trial_n":91,"n_dots":2.75,"target":"left","response":"left","rt":1523.9999999999,"correct":true,"confidence":4},{"trial_n":92,"n_dots":2.75,"target":"left","response":"right","rt":443,"correct":false,"confidence":2},{"trial_n":93,"n_dots":2.85,"target":"right","response":"left","rt":1160,"correct":false,"confidence":2},{"trial_n":94,"n_dots":2.95,"target":"left","response":"left","rt":2143,"correct":true,"confidence":3},{"trial_n":95,"n_dots":2.95,"target":"left","response":"left","rt":761,"correct":true,"confidence":4},{"trial_n":96,"n_dots":2.85,"target":"left","response":"left","rt":809,"correct":true,"confidence":2},{"trial_n":97,"n_dots":2.85,"target":"right","response":"right","rt":429,"correct":true,"confidence":1},{"trial_n":98,"n_dots":2.75,"target":"left","response":"left","rt":829,"correct":true,"confidence":2},{"trial_n":99,"n_dots":2.75,"target":"right","response":"right","rt":860,"correct":true,"confidence":2},{"trial_n":100,"n_dots":2.65,"target":"left","response":"left","rt":396,"correct":true,"confidence":2},{"trial_n":101,"n_dots":2.65,"target":"left","response":"right","rt":712.00000000006,"correct":false,"confidence":2},{"trial_n":102,"n_dots":2.75,"target":"right","response":"right","rt":779.99999999994,"correct":true,"confidence":4},{"trial_n":103,"n_dots":2.75,"target":"left","response":"left","rt":526.99999999994,"correct":true,"confidence":3},{"trial_n":104,"n_dots":2.65,"target":"left","response":"left","rt":481,"correct":true,"confidence":4},{"trial_n":105,"n_dots":2.65,"target":"right","response":"right","rt":614,"correct":true,"confidence":2},{"trial_n":106,"n_dots":2.55,"target":"left","response":"left","rt":698,"correct":true,"confidence":1},{"trial_n":107,"n_dots":2.55,"target":"left","response":"right","rt":949,"correct":false,"confidence":1},{"trial_n":108,"n_dots":2.65,"target":"right","response":"right","rt":513,"correct":true,"confidence":1},{"trial_n":109,"n_dots":2.65,"target":"right","response":"right","rt":614,"correct":true,"confidence":1},{"trial_n":110,"n_dots":2.55,"target":"left","response":"left","rt":730,"correct":true,"confidence":2},{"trial_n":111,"n_dots":2.55,"target":"right","response":"right","rt":446,"correct":true,"confidence":3},{"trial_n":112,"n_dots":2.45,"target":"right","response":"right","rt":250,"correct":true,"confidence":3},{"trial_n":113,"n_dots":2.45,"target":"left","response":"right","rt":232,"correct":false,"confidence":3},{"trial_n":114,"n_dots":2.55,"target":"left","response":"left","rt":448,"correct":true,"confidence":3},{"trial_n":115,"n_dots":2.55,"target":"left","response":"right","rt":332,"correct":false,"confidence":3},{"trial_n":116,"n_dots":2.65,"target":"right","response":"left","rt":216.00000000012,"correct":false,"confidence":2},{"trial_n":117,"n_dots":2.75,"target":"right","response":"left","rt":848,"correct":false,"confidence":1},{"trial_n":118,"n_dots":2.85,"target":"left","response":"left","rt":515,"correct":true,"confidence":3},{"trial_n":119,"n_dots":2.85,"target":"left","response":"right","rt":249,"correct":false,"confidence":2},{"trial_n":120,"n_dots":2.95,"target":"right","response":"left","rt":498,"correct":false,"confidence":1}]