[{"trial_n":1,"n_dots":4.25,"target":"right","response":"left","rt":3325,"correct":false,"confidence":-1},{"trial_n":2,"n_dots":4.25,"target":"right","response":"right","rt":913.99999999997,"correct":true,"confidence":-1},{"trial_n":3,"n_dots":4.25,"target":"left","response":"left","rt":826,"correct":true,"confidence":-1},{"trial_n":4,"n_dots":3.85,"target":"right","response":"right","rt":810,"correct":true,"confidence":-1},{"trial_n":5,"n_dots":3.85,"target":"right","response":"right","rt":832.00000000003,"correct":true,"confidence":-1},{"trial_n":6,"n_dots":3.45,"target":"left","response":"left","rt":1061,"correct":true,"confidence":-1},{"trial_n":7,"n_dots":3.45,"target":"right","response":"right","rt":612,"correct":true,"confidence":-1},{"trial_n":8,"n_dots":3.25,"target":"right","response":"right","rt":744,"correct":true,"confidence":-1},{"trial_n":9,"n_dots":3.25,"target":"left","response":"left","rt":777,"correct":true,"confidence":-1},{"trial_n":10,"n_dots":3.05,"target":"left","response":"left","rt":761,"correct":true,"confidence":-1},{"trial_n":11,"n_dots":3.05,"target":"left","response":"right","rt":681,"correct":false,"confidence":-1},{"trial_n":12,"n_dots":3.25,"target":"left","response":"left","rt":680.00000000003,"correct":true,"confidence":-1},{"trial_n":13,"n_dots":3.25,"target":"left","response":"left","rt":582,"correct":true,"confidence":-1},{"trial_n":14,"n_dots":3.15,"target":"left","response":"right","rt":897,"correct":false,"confidence":-1},{"trial_n":15,"n_dots":3.25,"target":"right","response":"right","rt":596,"correct":true,"confidence":-1},{"trial_n":16,"n_dots":3.25,"target":"left","response":"right","rt":698.99999999997,"correct":false,"confidence":-1},{"trial_n":17,"n_dots":3.35,"target":"left","response":"left","rt":580.00000000003,"correct":true,"confidence":-1},{"trial_n":18,"n_dots":3.35,"target":"right","response":"right","rt":698.00000000003,"correct":true,"confidence":-1},{"trial_n":19,"n_dots":3.25,"target":"left","response":"left","rt":566,"correct":true,"confidence":-1},{"trial_n":20,"n_dots":3.25,"target":"left","response":"right","rt":797,"correct":false,"confidence":-1},{"trial_n":21,"n_dots":3.35,"target":"right","response":"right","rt":899,"correct":true,"confidence":2},{"trial_n":22,"n_dots":3.35,"target":"right","response":"left","rt":2883,"correct":false,"confidence":2},{"trial_n":23,"n_dots":3.45,"target":"right","response":"right","rt":1066,"correct":true,"confidence":3},{"trial_n":24,"n_dots":3.45,"target":"right","response":"right","rt":698.99999999997,"correct":true,"confidence":3},{"trial_n":25,"n_dots":3.35,"target":"right","response":"right","rt":884.00000000003,"correct":true,"confidence":4},{"trial_n":26,"n_dots":3.35,"target":"right","response":"left","rt":1650,"correct":false,"confidence":2},{"trial_n":27,"n_dots":3.45,"target":"right","response":"right","rt":717,"correct":true,"confidence":3},{"trial_n":28,"n_dots":3.45,"target":"right","response":"right","rt":2067,"correct":true,"confidence":2},{"trial_n":29,"n_dots":3.35,"target":"right","response":"left","rt":1201,"correct":false,"confidence":3},{"trial_n":30,"n_dots":3.45,"target":"left","response":"left","rt":783.99999999997,"correct":true,"confidence":4},{"trial_n":31,"n_dots":3.45,"target":"left","response":"left","rt":653,"correct":true,"confidence":5},{"trial_n":32,"n_dots":3.35,"target":"right","response":"right","rt":1601,"correct":true,"confidence":2},{"trial_n":33,"n_dots":3.35,"target":"right","response":"left","rt":884,"correct":false,"confidence":2},{"trial_n":34,"n_dots":3.45,"target":"right","response":"right","rt":1435,"correct":true,"confidence":1},{"trial_n":35,"n_dots":3.45,"target":"right","response":"right","rt":1453,"correct":true,"confidence":2},{"trial_n":36,"n_dots":3.35,"target":"right","response":"left","rt":1236,"correct":false,"confidence":3},{"trial_n":37,"n_dots":3.45,"target":"left","response":"left","rt":718,"correct":true,"confidence":2},{"trial_n":38,"n_dots":3.45,"target":"left","response":"left","rt":670,"correct":true,"confidence":5},{"trial_n":39,"n_dots":3.35,"target":"right","response":"right","rt":1188,"correct":true,"confidence":2},{"trial_n":40,"n_dots":3.35,"target":"left","response":"left","rt":621,"correct":true,"confidence":4},{"trial_n":41,"n_dots":3.25,"target":"right","response":"left","rt":870,"correct":false,"confidence":2},{"trial_n":42,"n_dots":3.35,"target":"left","response":"left","rt":738,"correct":true,"confidence":4},{"trial_n":43,"n_dots":3.35,"target":"right","response":"left","rt":872,"correct":false,"confidence":3},{"trial_n":44,"n_dots":3.45,"target":"right","response":"right","rt":1572,"correct":true,"confidence":2},{"trial_n":45,"n_dots":3.45,"target":"right","response":"left","rt":907,"correct":false,"confidence":2},{"trial_n":46,"n_dots":3.55,"target":"left","response":"left","rt":609,"correct":true,"confidence":4},{"trial_n":47,"n_dots":3.55,"target":"left","response":"left","rt":1904.9999999999,"correct":true,"confidence":2},{"trial_n":48,"n_dots":3.45,"target":"right","response":"left","rt":1773,"correct":false,"confidence":1},{"trial_n":49,"n_dots":3.55,"target":"left","response":"left","rt":756.99999999994,"correct":true,"confidence":5},{"trial_n":50,"n_dots":3.55,"target":"left","response":"left","rt":841,"correct":true,"confidence":4},{"trial_n":51,"n_dots":3.45,"target":"left","response":"left","rt":739.99999999994,"correct":true,"confidence":4},{"trial_n":52,"n_dots":3.45,"target":"left","response":"left","rt":674,"correct":true,"confidence":4},{"trial_n":53,"n_dots":3.35,"target":"left","response":"left","rt":860,"correct":true,"confidence":3},{"trial_n":54,"n_dots":3.35,"target":"left","response":"left","rt":1643,"correct":true,"confidence":3},{"trial_n":55,"n_dots":3.25,"target":"right","response":"right","rt":724.99999999994,"correct":true,"confidence":3},{"trial_n":56,"n_dots":3.25,"target":"right","response":"right","rt":693.00000000006,"correct":true,"confidence":4},{"trial_n":57,"n_dots":3.15,"target":"right","response":"left","rt":1259,"correct":false,"confidence":2},{"trial_n":58,"n_dots":3.25,"target":"right","response":"right","rt":744,"correct":true,"confidence":3},{"trial_n":59,"n_dots":3.25,"target":"left","response":"left","rt":962,"correct":true,"confidence":2},{"trial_n":60,"n_dots":3.15,"target":"left","response":"left","rt":1409.9999999999,"correct":true,"confidence":4},{"trial_n":61,"n_dots":3.15,"target":"left","response":"right","rt":745,"correct":false,"confidence":2},{"trial_n":62,"n_dots":3.25,"target":"right","response":"left","rt":811.00000000006,"correct":false,"confidence":3},{"trial_n":63,"n_dots":3.35,"target":"left","response":"left","rt":1579.0000000001,"correct":true,"confidence":2},{"trial_n":64,"n_dots":3.35,"target":"left","response":"left","rt":661.99999999994,"correct":true,"confidence":4},{"trial_n":65,"n_dots":3.25,"target":"left","response":"left","rt":1079,"correct":true,"confidence":4},{"trial_n":66,"n_dots":3.25,"target":"left","response":"left","rt":813,"correct":true,"confidence":3},{"trial_n":67,"n_dots":3.15,"target":"left","response":"left","rt":1263.9999999999,"correct":true,"confidence":2},{"trial_n":68,"n_dots":3.15,"target":"right","response":"right","rt":782,"correct":true,"confidence":4},{"trial_n":69,"n_dots":3.05,"target":"left","response":"left","rt":613,"correct":true,"confidence":4},{"trial_n":70,"n_dots":3.05,"target":"right","response":"left","rt":1912.9999999999,"correct":false,"confidence":2},{"trial_n":71,"n_dots":3.15,"target":"right","response":"left","rt":797,"correct":false,"confidence":3},{"trial_n":72,"n_dots":3.25,"target":"right","response":"right","rt":1797,"correct":true,"confidence":1},{"trial_n":73,"n_dots":3.25,"target":"left","response":"left","rt":796,"correct":true,"confidence":2},{"trial_n":74,"n_dots":3.15,"target":"right","response":"right","rt":899.99999999994,"correct":true,"confidence":2},{"trial_n":75,"n_dots":3.15,"target":"left","response":"left","rt":764.99999999994,"correct":true,"confidence":3},{"trial_n":76,"n_dots":3.05,"target":"right","response":"right","rt":2184.0000000001,"correct":true,"confidence":1},{"trial_n":77,"n_dots":3.05,"target":"left","response":"left","rt":615,"correct":true,"confidence":3},{"trial_n":78,"n_dots":2.95,"target":"right","response":"left","rt":1716,"correct":false,"confidence":1},{"trial_n":79,"n_dots":3.05,"target":"right","response":"left","rt":833,"correct":false,"confidence":2},{"trial_n":80,"n_dots":3.15,"target":"right","response":"right","rt":1002,"correct":true,"confidence":2},{"trial_n":81,"n_dots":3.15,"target":"left","response":"left","rt":670,"correct":true,"confidence":1},{"trial_n":82,"n_dots":3.05,"target":"right","response":"right","rt":3253,"correct":true,"confidence":1},{"trial_n":83,"n_dots":3.05,"target":"left","response":"left","rt":768,"correct":true,"confidence":3},{"trial_n":84,"n_dots":2.95,"target":"left","response":"left","rt":1620,"correct":true,"confidence":1},{"trial_n":85,"n_dots":2.95,"target":"right","response":"right","rt":2904,"correct":true,"confidence":2},{"trial_n":86,"n_dots":2.85,"target":"left","response":"left","rt":703,"correct":true,"confidence":3},{"trial_n":87,"n_dots":2.85,"target":"right","response":"right","rt":755,"correct":true,"confidence":4},{"trial_n":88,"n_dots":2.75,"target":"right","response":"right","rt":2270,"correct":true,"confidence":2},{"trial_n":89,"n_dots":2.75,"target":"left","response":"left","rt":705,"correct":true,"confidence":3},{"trial_n":90,"n_dots":2.65,"target":"right","response":"right","rt":1788,"correct":true,"confidence":3},{"trial_n":91,"n_dots":2.65,"target":"left","response":"right","rt":822,"correct":false,"confidence":2},{"trial_n":92,"n_dots":2.75,"target":"left","response":"left","rt":1421,"correct":true,"confidence":1},{"trial_n":93,"n_dots":2.75,"target":"right","response":"right","rt":888,"correct":true,"confidence":3},{"trial_n":94,"n_dots":2.65,"target":"left","response":"left","rt":2058.0000000001,"correct":true,"confidence":1},{"trial_n":95,"n_dots":2.65,"target":"right","response":"right","rt":737,"correct":true,"confidence":3},{"trial_n":96,"n_dots":2.55,"target":"right","response":"right","rt":1456,"correct":true,"confidence":2},{"trial_n":97,"n_dots":2.55,"target":"left","response":"left","rt":556.00000000012,"correct":true,"confidence":2},{"trial_n":98,"n_dots":2.45,"target":"right","response":"left","rt":1022,"correct":false,"confidence":3},{"trial_n":99,"n_dots":2.55,"target":"left","response":"left","rt":959,"correct":true,"confidence":2},{"trial_n":100,"n_dots":2.55,"target":"left","response":"right","rt":1023,"correct":false,"confidence":3},{"trial_n":101,"n_dots":2.65,"target":"right","response":"right","rt":790,"correct":true,"confidence":2},{"trial_n":102,"n_dots":2.65,"target":"left","response":"right","rt":908,"correct":false,"confidence":3},{"trial_n":103,"n_dots":2.75,"target":"left","response":"left","rt":1059,"correct":true,"confidence":4},{"trial_n":104,"n_dots":2.75,"target":"left","response":"right","rt":974.99999999988,"correct":false,"confidence":3},{"trial_n":105,"n_dots":2.85,"target":"left","response":"left","rt":857.99999999988,"correct":true,"confidence":3},{"trial_n":106,"n_dots":2.85,"target":"right","response":"left","rt":1008,"correct":false,"confidence":2},{"trial_n":107,"n_dots":2.95,"target":"left","response":"left","rt":1526,"correct":true,"confidence":3},{"trial_n":108,"n_dots":2.95,"target":"right","response":"right","rt":626,"correct":true,"confidence":3},{"trial_n":109,"n_dots":2.85,"target":"left","response":"left","rt":843.99999999988,"correct":true,"confidence":3},{"trial_n":110,"n_dots":2.85,"target":"right","response":"right","rt":644,"correct":true,"confidence":4},{"trial_n":111,"n_dots":2.75,"target":"left","response":"left","rt":1046,"correct":true,"confidence":3},{"trial_n":112,"n_dots":2.75,"target":"right","response":"right","rt":694,"correct":true,"confidence":3},{"trial_n":113,"n_dots":2.65,"target":"left","response":"right","rt":776,"correct":false,"confidence":4},{"trial_n":114,"n_dots":2.75,"target":"left","response":"left","rt":577,"correct":true,"confidence":5},{"trial_n":115,"n_dots":2.75,"target":"right","response":"right","rt":610.99999999988,"correct":true,"confidence":5},{"trial_n":116,"n_dots":2.65,"target":"right","response":"right","rt":1862,"correct":true,"confidence":2},{"trial_n":117,"n_dots":2.65,"target":"right","response":"right","rt":832,"correct":true,"confidence":2},{"trial_n":118,"n_dots":2.55,"target":"right","response":"right","rt":961.99999999988,"correct":true,"confidence":2},{"trial_n":119,"n_dots":2.55,"target":"left","response":"right","rt":996,"correct":false,"confidence":2},{"trial_n":120,"n_dots":2.65,"target":"left","response":"left","rt":1232,"correct":true,"confidence":1}]