[{"trial_n":1,"span":8,"encoder":"95524600","distractor":"95524800","target":"present","response":"absent","rt":"5552","correct":false,"confidence":-1},{"trial_n":2,"span":6,"encoder":"769691","distractor":"369691","target":"present","response":"present","rt":"2111","correct":true,"confidence":-1},{"trial_n":3,"span":6,"encoder":"184782","distractor":"184762","target":"absent","response":"present","rt":"1882","correct":false,"confidence":-1},{"trial_n":4,"span":4,"encoder":"2825","distractor":"2225","target":"absent","response":"absent","rt":"1635","correct":true,"confidence":-1},{"trial_n":5,"span":4,"encoder":"6624","distractor":"6724","target":"present","response":"present","rt":"2207","correct":true,"confidence":-1},{"trial_n":6,"span":6,"encoder":"168149","distractor":"468149","target":"absent","response":"absent","rt":"3111","correct":true,"confidence":-1},{"trial_n":7,"span":6,"encoder":"969349","distractor":"969649","target":"present","response":"present","rt":"2264","correct":true,"confidence":-1},{"trial_n":8,"span":8,"encoder":"05359526","distractor":"75359526","target":"present","response":"present","rt":"1658","correct":true,"confidence":-1},{"trial_n":9,"span":8,"encoder":"05447275","distractor":"05444275","target":"absent","response":"present","rt":"1743","correct":false,"confidence":-1},{"trial_n":10,"span":6,"encoder":"908010","distractor":"908060","target":"absent","response":"absent","rt":"1562","correct":true,"confidence":-1},{"trial_n":11,"span":6,"encoder":"697677","distractor":"694677","target":"present","response":"present","rt":"1896","correct":true,"confidence":-1},{"trial_n":12,"span":7,"encoder":"0816469","distractor":"0616469","target":"present","response":"absent","rt":"1671","correct":false,"confidence":-1},{"trial_n":13,"span":6,"encoder":"246950","distractor":"206950","target":"absent","response":"present","rt":"2386","correct":false,"confidence":-1},{"trial_n":14,"span":5,"encoder":"39130","distractor":"49130","target":"present","response":"present","rt":"1863","correct":true,"confidence":-1},{"trial_n":15,"span":5,"encoder":"07234","distractor":"07244","target":"absent","response":"absent","rt":"3530","correct":true,"confidence":-1},{"trial_n":16,"span":6,"encoder":"265451","distractor":"261451","target":"absent","response":"absent","rt":"3120","correct":true,"confidence":-1},{"trial_n":17,"span":6,"encoder":"954654","distractor":"964654","target":"present","response":"present","rt":"3268","correct":true,"confidence":-1},{"trial_n":18,"span":7,"encoder":"9939395","distractor":"9939495","target":"present","response":"present","rt":"4106","correct":true,"confidence":-1},{"trial_n":19,"span":7,"encoder":"6645575","distractor":"6645577","target":"absent","response":"present","rt":"1972","correct":false,"confidence":-1},{"trial_n":20,"span":6,"encoder":"128900","distractor":"148900","target":"absent","response":"absent","rt":"3919","correct":true,"confidence":-1},{"trial_n":21,"span":6,"encoder":"023392","distractor":"023394","target":"absent","response":"present","rt":"2047","correct":false,"confidence":5},{"trial_n":22,"span":5,"encoder":"42990","distractor":"42996","target":"present","response":"present","rt":"1849","correct":true,"confidence":4},{"trial_n":23,"span":5,"encoder":"34482","distractor":"34489","target":"absent","response":"absent","rt":"2900","correct":true,"confidence":5},{"trial_n":24,"span":6,"encoder":"293559","distractor":"293359","target":"present","response":"present","rt":"3039","correct":true,"confidence":4},{"trial_n":25,"span":6,"encoder":"359371","distractor":"359771","target":"present","response":"present","rt":"2755","correct":true,"confidence":3},{"trial_n":26,"span":7,"encoder":"1407572","distractor":"1807572","target":"absent","response":"absent","rt":"2910","correct":true,"confidence":3},{"trial_n":27,"span":7,"encoder":"2881693","distractor":"2881393","target":"present","response":"present","rt":"2878","correct":true,"confidence":4},{"trial_n":28,"span":8,"encoder":"87146554","distractor":"97146554","target":"present","response":"present","rt":"3850.0000000001","correct":true,"confidence":2},{"trial_n":29,"span":8,"encoder":"93467335","distractor":"93067335","target":"absent","response":"absent","rt":"6217","correct":true,"confidence":3},{"trial_n":30,"span":9,"encoder":"613442309","distractor":"613442304","target":"present","response":"present","rt":"8889","correct":true,"confidence":1},{"trial_n":31,"span":9,"encoder":"158220590","distractor":"158220190","target":"present","response":"present","rt":"4242","correct":true,"confidence":4},{"trial_n":32,"span":10,"encoder":"6911606113","distractor":"6911006113","target":"present","response":"present","rt":"5845","correct":true,"confidence":3},{"trial_n":33,"span":10,"encoder":"2727202554","distractor":"2727202534","target":"present","response":"present","rt":"3110","correct":true,"confidence":5},{"trial_n":34,"span":11,"encoder":"37058802512","distractor":"37858802512","target":"absent","response":"present","rt":"4548","correct":false,"confidence":2},{"trial_n":35,"span":10,"encoder":"5300513189","distractor":"5390513189","target":"present","response":"present","rt":"1377.9999999999","correct":true,"confidence":1},{"trial_n":36,"span":10,"encoder":"1420892801","distractor":"1426892801","target":"present","response":"present","rt":"3965","correct":true,"confidence":4},{"trial_n":37,"span":11,"encoder":"74451946701","distractor":"74451946901","target":"absent","response":"absent","rt":"1917.9999999999","correct":true,"confidence":2},{"trial_n":38,"span":11,"encoder":"78046028162","distractor":"78006028162","target":"present","response":"present","rt":"2019","correct":true,"confidence":3},{"trial_n":39,"span":12,"encoder":"677198668156","distractor":"677598668156","target":"present","response":"present","rt":"2338","correct":true,"confidence":4},{"trial_n":40,"span":12,"encoder":"577839790030","distractor":"577839730030","target":"absent","response":"absent","rt":"2288","correct":true,"confidence":1},{"trial_n":41,"span":13,"encoder":"2775773127668","distractor":"2775773127665","target":"absent","response":"absent","rt":"4349","correct":true,"confidence":2},{"trial_n":42,"span":13,"encoder":"4404198234706","distractor":"4404298234706","target":"present","response":"absent","rt":"1579","correct":false,"confidence":2},{"trial_n":43,"span":12,"encoder":"409065483485","distractor":"409065433485","target":"present","response":"present","rt":"7324","correct":true,"confidence":3},{"trial_n":44,"span":12,"encoder":"951197075989","distractor":"951197075969","target":"absent","response":"present","rt":"3747","correct":false,"confidence":3},{"trial_n":45,"span":11,"encoder":"06806892554","distractor":"06809892554","target":"absent","response":"present","rt":"9889","correct":false,"confidence":4},{"trial_n":46,"span":10,"encoder":"0323040431","distractor":"0328040431","target":"absent","response":"absent","rt":"3884","correct":true,"confidence":4},{"trial_n":47,"span":10,"encoder":"9044734269","distractor":"9042734269","target":"present","response":"present","rt":"4833.9999999999","correct":true,"confidence":4},{"trial_n":48,"span":11,"encoder":"00293908178","distractor":"40293908178","target":"absent","response":"absent","rt":"2721","correct":true,"confidence":5},{"trial_n":49,"span":11,"encoder":"75058820570","distractor":"75053820570","target":"absent","response":"absent","rt":"4323","correct":true,"confidence":3},{"trial_n":50,"span":12,"encoder":"069791739636","distractor":"769791739636","target":"present","response":"present","rt":"8011","correct":true,"confidence":3},{"trial_n":51,"span":12,"encoder":"535238461840","distractor":"535238469840","target":"present","response":"absent","rt":"7583","correct":false,"confidence":3},{"trial_n":52,"span":11,"encoder":"44357282473","distractor":"44457282473","target":"present","response":"present","rt":"3391","correct":true,"confidence":3},{"trial_n":53,"span":11,"encoder":"79491681240","distractor":"79493681240","target":"present","response":"present","rt":"6378","correct":true,"confidence":3},{"trial_n":54,"span":12,"encoder":"324747135261","distractor":"324747135661","target":"absent","response":"absent","rt":"4497.9999999999","correct":true,"confidence":2},{"trial_n":55,"span":12,"encoder":"578553008795","distractor":"538553008795","target":"absent","response":"absent","rt":"5018","correct":true,"confidence":2},{"trial_n":56,"span":13,"encoder":"8849613521499","distractor":"8849813521499","target":"absent","response":"absent","rt":"3037","correct":true,"confidence":1},{"trial_n":57,"span":13,"encoder":"5214778945329","distractor":"5214778045329","target":"absent","response":"absent","rt":"5073","correct":true,"confidence":2},{"trial_n":58,"span":14,"encoder":"93657003657497","distractor":"93654003657497","target":"present","response":"absent","rt":"2361.9999999999","correct":false,"confidence":1},{"trial_n":59,"span":13,"encoder":"2518327784566","distractor":"2518325784566","target":"present","response":"present","rt":"3391","correct":true,"confidence":1},{"trial_n":60,"span":13,"encoder":"8277083657436","distractor":"8677083657436","target":"absent","response":"absent","rt":"2170","correct":true,"confidence":1},{"trial_n":61,"span":14,"encoder":"83208015492406","distractor":"83208015492404","target":"present","response":"present","rt":"2235","correct":true,"confidence":2},{"trial_n":62,"span":14,"encoder":"80771815473723","distractor":"80771816473723","target":"absent","response":"present","rt":"1218","correct":false,"confidence":1},{"trial_n":63,"span":13,"encoder":"5524576052574","distractor":"5524576052074","target":"absent","response":"absent","rt":"13108","correct":true,"confidence":4},{"trial_n":64,"span":13,"encoder":"7782542395694","distractor":"7782142395694","target":"present","response":"present","rt":"8482.0000000001","correct":true,"confidence":5},{"trial_n":65,"span":14,"encoder":"79933868546953","distractor":"79933868246953","target":"present","response":"present","rt":"2019.9999999999","correct":true,"confidence":3},{"trial_n":66,"span":14,"encoder":"04617862743894","distractor":"04817862743894","target":"absent","response":"absent","rt":"5116","correct":true,"confidence":4},{"trial_n":67,"span":15,"encoder":"468738260172593","distractor":"468738360172593","target":"absent","response":"absent","rt":"7545","correct":true,"confidence":3},{"trial_n":68,"span":15,"encoder":"961552372537204","distractor":"961552371537204","target":"absent","response":"present","rt":"3311","correct":false,"confidence":2},{"trial_n":69,"span":14,"encoder":"74307542811580","distractor":"74907542811580","target":"present","response":"present","rt":"2586","correct":true,"confidence":3},{"trial_n":70,"span":14,"encoder":"23548295580092","distractor":"23548395580092","target":"absent","response":"absent","rt":"2602","correct":true,"confidence":2},{"trial_n":71,"span":8,"encoder":"10567595","distractor":"10567515","target":"present","response":"absent","rt":"3863.9999999999","correct":false,"confidence":-1},{"trial_n":72,"span":7,"encoder":"5455181","distractor":"5455180","target":"present","response":"present","rt":"2191","correct":true,"confidence":-1},{"trial_n":73,"span":7,"encoder":"3853033","distractor":"3853031","target":"absent","response":"absent","rt":"3738.0000000001","correct":true,"confidence":-1},{"trial_n":74,"span":8,"encoder":"05296131","distractor":"05896131","target":"absent","response":"absent","rt":"2126","correct":true,"confidence":-1},{"trial_n":75,"span":8,"encoder":"35901713","distractor":"35901773","target":"present","response":"present","rt":"3846.0000000001","correct":true,"confidence":-1},{"trial_n":76,"span":9,"encoder":"076325262","distractor":"076324262","target":"present","response":"present","rt":"1893","correct":true,"confidence":-1},{"trial_n":77,"span":9,"encoder":"431398155","distractor":"431392155","target":"present","response":"absent","rt":"12319","correct":false,"confidence":-1},{"trial_n":78,"span":8,"encoder":"84561747","distractor":"88561747","target":"absent","response":"absent","rt":"2597","correct":true,"confidence":-1},{"trial_n":79,"span":8,"encoder":"99831425","distractor":"91831425","target":"present","response":"present","rt":"4866","correct":true,"confidence":-1},{"trial_n":80,"span":9,"encoder":"608024589","distractor":"608034589","target":"absent","response":"absent","rt":"2470","correct":true,"confidence":-1},{"trial_n":81,"span":9,"encoder":"585662092","distractor":"585662095","target":"present","response":"absent","rt":"2169","correct":false,"confidence":-1},{"trial_n":82,"span":8,"encoder":"79428404","distractor":"79425404","target":"absent","response":"absent","rt":"1780","correct":true,"confidence":-1},{"trial_n":83,"span":8,"encoder":"39924451","distractor":"39914451","target":"present","response":"present","rt":"2582.9999999998","correct":true,"confidence":-1},{"trial_n":84,"span":9,"encoder":"580452133","distractor":"580454133","target":"present","response":"absent","rt":"1038","correct":false,"confidence":-1},{"trial_n":85,"span":8,"encoder":"50166745","distractor":"50166742","target":"absent","response":"present","rt":"786.00000000023","correct":false,"confidence":-1},{"trial_n":86,"span":7,"encoder":"6312365","distractor":"2312365","target":"present","response":"absent","rt":"846","correct":false,"confidence":-1},{"trial_n":87,"span":6,"encoder":"082869","distractor":"882869","target":"absent","response":"absent","rt":"1292","correct":true,"confidence":-1},{"trial_n":88,"span":6,"encoder":"270018","distractor":"670018","target":"present","response":"present","rt":"945","correct":true,"confidence":-1},{"trial_n":89,"span":7,"encoder":"3604357","distractor":"3624357","target":"present","response":"absent","rt":"697.00000000023","correct":false,"confidence":-1},{"trial_n":90,"span":6,"encoder":"267504","distractor":"267501","target":"absent","response":"absent","rt":"636","correct":true,"confidence":-1},{"trial_n":91,"span":6,"encoder":"929425","distractor":"729425","target":"absent","response":"absent","rt":"3660","correct":true,"confidence":5},{"trial_n":92,"span":7,"encoder":"8291716","distractor":"0291716","target":"present","response":"present","rt":"2982","correct":true,"confidence":5},{"trial_n":93,"span":7,"encoder":"0409600","distractor":"0409630","target":"present","response":"present","rt":"4165.9999999998","correct":true,"confidence":3},{"trial_n":94,"span":8,"encoder":"09124238","distractor":"09124248","target":"present","response":"present","rt":"2552","correct":true,"confidence":4},{"trial_n":95,"span":8,"encoder":"77807976","distractor":"74807976","target":"present","response":"present","rt":"7154.9999999998","correct":true,"confidence":3},{"trial_n":96,"span":9,"encoder":"658028227","distractor":"658028217","target":"present","response":"absent","rt":"5559","correct":false,"confidence":2},{"trial_n":97,"span":8,"encoder":"04957399","distractor":"04457399","target":"absent","response":"absent","rt":"5557","correct":true,"confidence":4},{"trial_n":98,"span":8,"encoder":"56006518","distractor":"56006558","target":"present","response":"present","rt":"6257.0000000002","correct":true,"confidence":3},{"trial_n":99,"span":9,"encoder":"689175801","distractor":"689105801","target":"present","response":"absent","rt":"2361","correct":false,"confidence":2},{"trial_n":100,"span":8,"encoder":"02822031","distractor":"02822331","target":"absent","response":"absent","rt":"12059","correct":true,"confidence":4},{"trial_n":101,"span":8,"encoder":"20027781","distractor":"29027781","target":"absent","response":"present","rt":"2265.0000000002","correct":false,"confidence":2},{"trial_n":102,"span":7,"encoder":"9273015","distractor":"9373015","target":"absent","response":"absent","rt":"4706.9999999998","correct":true,"confidence":4},{"trial_n":103,"span":7,"encoder":"6130512","distractor":"8130512","target":"present","response":"present","rt":"2823.0000000002","correct":true,"confidence":5},{"trial_n":104,"span":8,"encoder":"46172387","distractor":"86172387","target":"present","response":"present","rt":"5246","correct":true,"confidence":5},{"trial_n":105,"span":8,"encoder":"12861717","distractor":"13861717","target":"absent","response":"absent","rt":"3832","correct":true,"confidence":5},{"trial_n":106,"span":9,"encoder":"095815244","distractor":"095815844","target":"absent","response":"absent","rt":"3434","correct":true,"confidence":4},{"trial_n":107,"span":9,"encoder":"311082870","distractor":"311082878","target":"present","response":"absent","rt":"3121","correct":false,"confidence":4},{"trial_n":108,"span":8,"encoder":"10628135","distractor":"10698135","target":"absent","response":"absent","rt":"8599","correct":true,"confidence":4},{"trial_n":109,"span":8,"encoder":"98197636","distractor":"98197634","target":"present","response":"absent","rt":"4964","correct":false,"confidence":1},{"trial_n":110,"span":7,"encoder":"0307695","distractor":"0307195","target":"absent","response":"absent","rt":"3979","correct":true,"confidence":5},{"trial_n":111,"span":7,"encoder":"8164216","distractor":"8165216","target":"present","response":"present","rt":"4145","correct":true,"confidence":3},{"trial_n":112,"span":8,"encoder":"64631677","distractor":"64631577","target":"absent","response":"absent","rt":"10334","correct":true,"confidence":4},{"trial_n":113,"span":8,"encoder":"87125007","distractor":"87125004","target":"absent","response":"absent","rt":"2083","correct":true,"confidence":4},{"trial_n":114,"span":9,"encoder":"733566806","distractor":"733565806","target":"absent","response":"absent","rt":"3088","correct":true,"confidence":4},{"trial_n":115,"span":9,"encoder":"172057193","distractor":"172059193","target":"present","response":"absent","rt":"3877","correct":false,"confidence":2},{"trial_n":116,"span":8,"encoder":"48874067","distractor":"48874087","target":"absent","response":"absent","rt":"4521","correct":true,"confidence":2},{"trial_n":117,"span":8,"encoder":"12162293","distractor":"12162793","target":"present","response":"absent","rt":"5371","correct":false,"confidence":3},{"trial_n":118,"span":7,"encoder":"3291451","distractor":"3211451","target":"absent","response":"present","rt":"6132.9999999998","correct":false,"confidence":2},{"trial_n":119,"span":6,"encoder":"650560","distractor":"630560","target":"absent","response":"absent","rt":"4398","correct":true,"confidence":5},{"trial_n":120,"span":6,"encoder":"302146","distractor":"332146","target":"absent","response":"absent","rt":"3180.9999999998","correct":true,"confidence":5},{"trial_n":121,"span":7,"encoder":"9255431","distractor":"9256431","target":"present","response":"present","rt":"3419","correct":true,"confidence":5},{"trial_n":122,"span":7,"encoder":"5449938","distractor":"5449338","target":"present","response":"present","rt":"3820","correct":true,"confidence":3},{"trial_n":123,"span":8,"encoder":"18293109","distractor":"12293109","target":"present","response":"present","rt":"2342","correct":true,"confidence":2},{"trial_n":124,"span":8,"encoder":"17114870","distractor":"17194870","target":"present","response":"present","rt":"4142","correct":true,"confidence":3},{"trial_n":125,"span":9,"encoder":"739904353","distractor":"739909353","target":"present","response":"present","rt":"7082","correct":true,"confidence":2},{"trial_n":126,"span":9,"encoder":"217035705","distractor":"217035775","target":"present","response":"absent","rt":"3731","correct":false,"confidence":3},{"trial_n":127,"span":8,"encoder":"67429132","distractor":"67421132","target":"absent","response":"present","rt":"1756","correct":false,"confidence":1},{"trial_n":128,"span":7,"encoder":"1513049","distractor":"1512049","target":"present","response":"absent","rt":"5369","correct":false,"confidence":2},{"trial_n":129,"span":6,"encoder":"730060","distractor":"730063","target":"present","response":"absent","rt":"3196.0000000002","correct":false,"confidence":3},{"trial_n":130,"span":5,"encoder":"51865","distractor":"51860","target":"present","response":"absent","rt":"2275","correct":false,"confidence":4},{"trial_n":131,"span":4,"encoder":"3612","distractor":"3618","target":"absent","response":"absent","rt":"2705","correct":true,"confidence":4},{"trial_n":132,"span":4,"encoder":"2584","distractor":"3584","target":"absent","response":"absent","rt":"2238.0000000002","correct":true,"confidence":5},{"trial_n":133,"span":5,"encoder":"93357","distractor":"93355","target":"absent","response":"absent","rt":"1993","correct":true,"confidence":5},{"trial_n":134,"span":5,"encoder":"38388","distractor":"38389","target":"present","response":"present","rt":"1709","correct":true,"confidence":5},{"trial_n":135,"span":6,"encoder":"156444","distractor":"756444","target":"absent","response":"present","rt":"3181","correct":false,"confidence":3},{"trial_n":136,"span":5,"encoder":"79549","distractor":"79539","target":"absent","response":"present","rt":"1977.0000000002","correct":false,"confidence":4},{"trial_n":137,"span":4,"encoder":"2183","distractor":"3183","target":"absent","response":"absent","rt":"1606","correct":true,"confidence":5},{"trial_n":138,"span":4,"encoder":"7576","distractor":"7526","target":"absent","response":"absent","rt":"1289","correct":true,"confidence":5},{"trial_n":139,"span":5,"encoder":"51514","distractor":"51914","target":"absent","response":"absent","rt":"1210","correct":true,"confidence":5},{"trial_n":140,"span":5,"encoder":"43404","distractor":"63404","target":"absent","response":"absent","rt":"1345","correct":true,"confidence":5}]