[{"trial_n":1,"min":25,"max":230,"target":"present","response":"present","rt":3854.6000003815,"correct":true,"confidence":-1},{"trial_n":2,"min":25,"max":230,"target":"present","response":"present","rt":1630.4000000954,"correct":true,"confidence":-1},{"trial_n":3,"min":41,"max":214,"target":"absent","response":"absent","rt":447.89999961853,"correct":true,"confidence":-1},{"trial_n":4,"min":41,"max":214,"target":"absent","response":"absent","rt":417.7000002861,"correct":true,"confidence":-1},{"trial_n":5,"min":57,"max":198,"target":"present","response":"present","rt":350.7999997139,"correct":true,"confidence":-1},{"trial_n":6,"min":57,"max":198,"target":"present","response":"absent","rt":1631.5999999046,"correct":false,"confidence":-1},{"trial_n":7,"min":41,"max":214,"target":"absent","response":"absent","rt":463.09999990463,"correct":true,"confidence":-1},{"trial_n":8,"min":41,"max":214,"target":"absent","response":"absent","rt":373.7999997139,"correct":true,"confidence":-1},{"trial_n":9,"min":57,"max":198,"target":"present","response":"present","rt":210.5,"correct":true,"confidence":-1},{"trial_n":10,"min":57,"max":198,"target":"absent","response":"absent","rt":297.40000009537,"correct":true,"confidence":-1},{"trial_n":11,"min":65,"max":190,"target":"present","response":"present","rt":729.10000038147,"correct":true,"confidence":-1},{"trial_n":12,"min":65,"max":190,"target":"present","response":"absent","rt":366,"correct":false,"confidence":-1},{"trial_n":13,"min":57,"max":198,"target":"present","response":"present","rt":487.2000002861,"correct":true,"confidence":-1},{"trial_n":14,"min":57,"max":198,"target":"present","response":"present","rt":315.69999980927,"correct":true,"confidence":-1},{"trial_n":15,"min":65,"max":190,"target":"absent","response":"absent","rt":411.80000019073,"correct":true,"confidence":-1},{"trial_n":16,"min":65,"max":190,"target":"absent","response":"absent","rt":383.5,"correct":true,"confidence":-1},{"trial_n":17,"min":73,"max":182,"target":"absent","response":"absent","rt":357.2000002861,"correct":true,"confidence":-1},{"trial_n":18,"min":73,"max":182,"target":"present","response":"absent","rt":385,"correct":false,"confidence":-1},{"trial_n":19,"min":65,"max":190,"target":"absent","response":"absent","rt":471.90000009537,"correct":true,"confidence":-1},{"trial_n":20,"min":65,"max":190,"target":"present","response":"present","rt":277.60000038147,"correct":true,"confidence":-1},{"trial_n":21,"min":69,"max":186,"target":"present","response":"absent","rt":3071.7999997139,"correct":false,"confidence":1},{"trial_n":22,"min":65,"max":190,"target":"absent","response":"absent","rt":399.19999980927,"correct":true,"confidence":5},{"trial_n":23,"min":65,"max":190,"target":"absent","response":"absent","rt":908.2999997139,"correct":true,"confidence":5},{"trial_n":24,"min":69,"max":186,"target":"present","response":"present","rt":1306.5,"correct":true,"confidence":5},{"trial_n":25,"min":69,"max":186,"target":"present","response":"present","rt":237.5,"correct":true,"confidence":5},{"trial_n":26,"min":73,"max":182,"target":"present","response":"present","rt":231.59999990463,"correct":true,"confidence":5},{"trial_n":27,"min":73,"max":182,"target":"absent","response":"absent","rt":640.2000002861,"correct":true,"confidence":4},{"trial_n":28,"min":77,"max":178,"target":"present","response":"present","rt":529.7000002861,"correct":true,"confidence":5},{"trial_n":29,"min":77,"max":178,"target":"absent","response":"absent","rt":650.30000019073,"correct":true,"confidence":4},{"trial_n":30,"min":81,"max":174,"target":"present","response":"present","rt":551.2999997139,"correct":true,"confidence":4},{"trial_n":31,"min":81,"max":174,"target":"present","response":"present","rt":317.5,"correct":true,"confidence":4},{"trial_n":32,"min":83,"max":172,"target":"absent","response":"absent","rt":442.5,"correct":true,"confidence":3},{"trial_n":33,"min":83,"max":172,"target":"absent","response":"present","rt":405.09999990463,"correct":false,"confidence":2},{"trial_n":34,"min":81,"max":174,"target":"present","response":"present","rt":430.90000009537,"correct":true,"confidence":4},{"trial_n":35,"min":81,"max":174,"target":"absent","response":"absent","rt":482.19999980927,"correct":true,"confidence":4},{"trial_n":36,"min":83,"max":172,"target":"absent","response":"absent","rt":957.59999990463,"correct":true,"confidence":1},{"trial_n":37,"min":83,"max":172,"target":"present","response":"absent","rt":1743,"correct":false,"confidence":3},{"trial_n":38,"min":81,"max":174,"target":"absent","response":"absent","rt":562.80000019073,"correct":true,"confidence":4},{"trial_n":39,"min":81,"max":174,"target":"absent","response":"absent","rt":731.19999980927,"correct":true,"confidence":5},{"trial_n":40,"min":83,"max":172,"target":"absent","response":"absent","rt":487.80000019073,"correct":true,"confidence":5},{"trial_n":41,"min":83,"max":172,"target":"absent","response":"absent","rt":1496.5,"correct":true,"confidence":5},{"trial_n":42,"min":84,"max":171,"target":"present","response":"absent","rt":909.2000002861,"correct":false,"confidence":3},{"trial_n":43,"min":83,"max":172,"target":"present","response":"present","rt":530.5,"correct":true,"confidence":4},{"trial_n":44,"min":83,"max":172,"target":"absent","response":"absent","rt":376.09999990463,"correct":true,"confidence":3},{"trial_n":45,"min":84,"max":171,"target":"present","response":"absent","rt":834.59999990463,"correct":false,"confidence":4},{"trial_n":46,"min":83,"max":172,"target":"present","response":"absent","rt":665,"correct":false,"confidence":4},{"trial_n":47,"min":82,"max":173,"target":"present","response":"present","rt":927.2000002861,"correct":true,"confidence":3},{"trial_n":48,"min":82,"max":173,"target":"absent","response":"absent","rt":366.5,"correct":true,"confidence":4},{"trial_n":49,"min":83,"max":172,"target":"absent","response":"absent","rt":1738.9000000954,"correct":true,"confidence":3},{"trial_n":50,"min":83,"max":172,"target":"present","response":"present","rt":687.89999961853,"correct":true,"confidence":3},{"trial_n":51,"min":84,"max":171,"target":"absent","response":"absent","rt":439.09999990463,"correct":true,"confidence":4},{"trial_n":52,"min":84,"max":171,"target":"absent","response":"absent","rt":271,"correct":true,"confidence":4},{"trial_n":53,"min":85,"max":170,"target":"absent","response":"absent","rt":399.90000009537,"correct":true,"confidence":5},{"trial_n":54,"min":85,"max":170,"target":"absent","response":"absent","rt":205.59999990463,"correct":true,"confidence":5},{"trial_n":55,"min":86,"max":169,"target":"present","response":"present","rt":394.90000009537,"correct":true,"confidence":4},{"trial_n":56,"min":86,"max":169,"target":"present","response":"absent","rt":300.59999990463,"correct":false,"confidence":5},{"trial_n":57,"min":85,"max":170,"target":"absent","response":"present","rt":500.30000019073,"correct":false,"confidence":4},{"trial_n":58,"min":84,"max":171,"target":"present","response":"absent","rt":351.5,"correct":false,"confidence":2},{"trial_n":59,"min":83,"max":172,"target":"present","response":"present","rt":337,"correct":true,"confidence":1},{"trial_n":60,"min":83,"max":172,"target":"absent","response":"absent","rt":873.60000038147,"correct":true,"confidence":3},{"trial_n":61,"min":84,"max":171,"target":"present","response":"present","rt":321.7999997139,"correct":true,"confidence":4},{"trial_n":62,"min":84,"max":171,"target":"present","response":"present","rt":656.90000009537,"correct":true,"confidence":5},{"trial_n":63,"min":85,"max":170,"target":"present","response":"present","rt":564.10000038147,"correct":true,"confidence":5},{"trial_n":64,"min":85,"max":170,"target":"absent","response":"present","rt":701.5,"correct":false,"confidence":1},{"trial_n":65,"min":84,"max":171,"target":"present","response":"absent","rt":514,"correct":false,"confidence":3},{"trial_n":66,"min":83,"max":172,"target":"absent","response":"absent","rt":244.19999980927,"correct":true,"confidence":4},{"trial_n":67,"min":83,"max":172,"target":"absent","response":"absent","rt":642.10000038147,"correct":true,"confidence":4},{"trial_n":68,"min":84,"max":171,"target":"present","response":"present","rt":516.09999990463,"correct":true,"confidence":3},{"trial_n":69,"min":84,"max":171,"target":"absent","response":"absent","rt":524.40000009537,"correct":true,"confidence":4},{"trial_n":70,"min":85,"max":170,"target":"present","response":"absent","rt":521.40000009537,"correct":false,"confidence":4},{"trial_n":71,"min":41,"max":214,"target":"present","response":"present","rt":2374.7999997139,"correct":true,"confidence":-1},{"trial_n":72,"min":41,"max":214,"target":"present","response":"present","rt":401.69999980927,"correct":true,"confidence":-1},{"trial_n":73,"min":57,"max":198,"target":"absent","response":"absent","rt":280.5,"correct":true,"confidence":-1},{"trial_n":74,"min":57,"max":198,"target":"absent","response":"present","rt":546.59999990463,"correct":false,"confidence":-1},{"trial_n":75,"min":41,"max":214,"target":"present","response":"present","rt":385.80000019073,"correct":true,"confidence":-1},{"trial_n":76,"min":41,"max":214,"target":"absent","response":"absent","rt":265.30000019073,"correct":true,"confidence":-1},{"trial_n":77,"min":57,"max":198,"target":"absent","response":"absent","rt":287.69999980927,"correct":true,"confidence":-1},{"trial_n":78,"min":57,"max":198,"target":"absent","response":"present","rt":349.09999990463,"correct":false,"confidence":-1},{"trial_n":79,"min":41,"max":214,"target":"present","response":"present","rt":380.90000009537,"correct":true,"confidence":-1},{"trial_n":80,"min":41,"max":214,"target":"present","response":"present","rt":334.7999997139,"correct":true,"confidence":-1},{"trial_n":81,"min":49,"max":206,"target":"present","response":"present","rt":240.7000002861,"correct":true,"confidence":-1},{"trial_n":82,"min":49,"max":206,"target":"absent","response":"absent","rt":375.69999980927,"correct":true,"confidence":-1},{"trial_n":83,"min":57,"max":198,"target":"absent","response":"absent","rt":319.39999961853,"correct":true,"confidence":-1},{"trial_n":84,"min":57,"max":198,"target":"present","response":"absent","rt":232.5,"correct":false,"confidence":-1},{"trial_n":85,"min":49,"max":206,"target":"absent","response":"absent","rt":432.19999980927,"correct":true,"confidence":-1},{"trial_n":86,"min":49,"max":206,"target":"present","response":"present","rt":293.59999990463,"correct":true,"confidence":-1},{"trial_n":87,"min":57,"max":198,"target":"absent","response":"absent","rt":293.7999997139,"correct":true,"confidence":-1},{"trial_n":88,"min":57,"max":198,"target":"absent","response":"present","rt":284,"correct":false,"confidence":-1},{"trial_n":89,"min":49,"max":206,"target":"present","response":"present","rt":397.7999997139,"correct":true,"confidence":-1},{"trial_n":90,"min":49,"max":206,"target":"absent","response":"absent","rt":536.59999990463,"correct":true,"confidence":-1},{"trial_n":91,"min":53,"max":202,"target":"present","response":"present","rt":595.30000019073,"correct":true,"confidence":5},{"trial_n":92,"min":53,"max":202,"target":"present","response":"present","rt":2211.4000000954,"correct":true,"confidence":3},{"trial_n":93,"min":57,"max":198,"target":"present","response":"present","rt":190.5,"correct":true,"confidence":3},{"trial_n":94,"min":57,"max":198,"target":"absent","response":"absent","rt":356.90000009537,"correct":true,"confidence":4},{"trial_n":95,"min":61,"max":194,"target":"absent","response":"present","rt":309,"correct":false,"confidence":1},{"trial_n":96,"min":57,"max":198,"target":"absent","response":"present","rt":329,"correct":false,"confidence":1},{"trial_n":97,"min":53,"max":202,"target":"absent","response":"absent","rt":445.80000019073,"correct":true,"confidence":5},{"trial_n":98,"min":53,"max":202,"target":"absent","response":"absent","rt":578.2000002861,"correct":true,"confidence":4},{"trial_n":99,"min":57,"max":198,"target":"present","response":"present","rt":424.09999990463,"correct":true,"confidence":3},{"trial_n":100,"min":57,"max":198,"target":"absent","response":"absent","rt":985.2000002861,"correct":true,"confidence":4},{"trial_n":101,"min":59,"max":196,"target":"absent","response":"present","rt":781.7999997139,"correct":false,"confidence":1},{"trial_n":102,"min":57,"max":198,"target":"absent","response":"absent","rt":733.30000019073,"correct":true,"confidence":4},{"trial_n":103,"min":57,"max":198,"target":"present","response":"present","rt":351.5,"correct":true,"confidence":3},{"trial_n":104,"min":59,"max":196,"target":"present","response":"present","rt":425.2999997139,"correct":true,"confidence":3},{"trial_n":105,"min":59,"max":196,"target":"absent","response":"absent","rt":642.30000019073,"correct":true,"confidence":4},{"trial_n":106,"min":61,"max":194,"target":"absent","response":"present","rt":1042.0999999046,"correct":false,"confidence":2},{"trial_n":107,"min":59,"max":196,"target":"present","response":"present","rt":273.19999980927,"correct":true,"confidence":3},{"trial_n":108,"min":59,"max":196,"target":"absent","response":"absent","rt":870.09999990463,"correct":true,"confidence":4},{"trial_n":109,"min":61,"max":194,"target":"present","response":"present","rt":410,"correct":true,"confidence":5},{"trial_n":110,"min":61,"max":194,"target":"present","response":"present","rt":528.59999990463,"correct":true,"confidence":3},{"trial_n":111,"min":62,"max":193,"target":"present","response":"present","rt":405.7999997139,"correct":true,"confidence":3},{"trial_n":112,"min":62,"max":193,"target":"present","response":"present","rt":300.7000002861,"correct":true,"confidence":4},{"trial_n":113,"min":63,"max":192,"target":"absent","response":"absent","rt":944.5,"correct":true,"confidence":4},{"trial_n":114,"min":63,"max":192,"target":"present","response":"present","rt":368,"correct":true,"confidence":5},{"trial_n":115,"min":64,"max":191,"target":"present","response":"present","rt":316.80000019073,"correct":true,"confidence":5},{"trial_n":116,"min":64,"max":191,"target":"absent","response":"absent","rt":770.09999990463,"correct":true,"confidence":4},{"trial_n":117,"min":65,"max":190,"target":"absent","response":"absent","rt":595,"correct":true,"confidence":4},{"trial_n":118,"min":65,"max":190,"target":"present","response":"present","rt":1815.5999999046,"correct":true,"confidence":3},{"trial_n":119,"min":66,"max":189,"target":"present","response":"present","rt":299,"correct":true,"confidence":4},{"trial_n":120,"min":66,"max":189,"target":"absent","response":"absent","rt":412.80000019073,"correct":true,"confidence":5},{"trial_n":121,"min":67,"max":188,"target":"absent","response":"absent","rt":475.59999990463,"correct":true,"confidence":1},{"trial_n":122,"min":67,"max":188,"target":"present","response":"present","rt":243.09999990463,"correct":true,"confidence":3},{"trial_n":123,"min":68,"max":187,"target":"present","response":"present","rt":287,"correct":true,"confidence":3},{"trial_n":124,"min":68,"max":187,"target":"present","response":"present","rt":222,"correct":true,"confidence":3},{"trial_n":125,"min":69,"max":186,"target":"absent","response":"absent","rt":620.2000002861,"correct":true,"confidence":4},{"trial_n":126,"min":69,"max":186,"target":"absent","response":"present","rt":509.5,"correct":false,"confidence":1},{"trial_n":127,"min":68,"max":187,"target":"present","response":"present","rt":259.89999961853,"correct":true,"confidence":3},{"trial_n":128,"min":68,"max":187,"target":"present","response":"present","rt":249.40000009537,"correct":true,"confidence":3},{"trial_n":129,"min":69,"max":186,"target":"present","response":"present","rt":596.60000038147,"correct":true,"confidence":4},{"trial_n":130,"min":69,"max":186,"target":"present","response":"present","rt":257.09999990463,"correct":true,"confidence":3},{"trial_n":131,"min":70,"max":185,"target":"present","response":"present","rt":396,"correct":true,"confidence":3},{"trial_n":132,"min":70,"max":185,"target":"absent","response":"present","rt":998.80000019073,"correct":false,"confidence":1},{"trial_n":133,"min":69,"max":186,"target":"absent","response":"present","rt":809.09999990463,"correct":false,"confidence":1},{"trial_n":134,"min":68,"max":187,"target":"absent","response":"present","rt":1104.3000001907,"correct":false,"confidence":1},{"trial_n":135,"min":67,"max":188,"target":"present","response":"present","rt":414.40000009537,"correct":true,"confidence":3},{"trial_n":136,"min":67,"max":188,"target":"present","response":"present","rt":460.5,"correct":true,"confidence":3},{"trial_n":137,"min":68,"max":187,"target":"present","response":"present","rt":326,"correct":true,"confidence":4},{"trial_n":138,"min":68,"max":187,"target":"present","response":"present","rt":1186.5,"correct":true,"confidence":1},{"trial_n":139,"min":69,"max":186,"target":"absent","response":"present","rt":749,"correct":false,"confidence":1},{"trial_n":140,"min":68,"max":187,"target":"absent","response":"absent","rt":895.59999990463,"correct":true,"confidence":1}]