[{"trial_n":1,"span":8,"encoder":"02248457","distractor":"02298457","target":"present","response":"present","rt":"3162","correct":true,"confidence":-1},{"trial_n":2,"span":8,"encoder":"47308269","distractor":"47308969","target":"present","response":"present","rt":"2392","correct":true,"confidence":-1},{"trial_n":3,"span":10,"encoder":"4139021304","distractor":"4132021304","target":"absent","response":"absent","rt":"3262","correct":true,"confidence":-1},{"trial_n":4,"span":10,"encoder":"5088246747","distractor":"5088346747","target":"absent","response":"absent","rt":"2999","correct":true,"confidence":-1},{"trial_n":5,"span":12,"encoder":"999911791001","distractor":"999918791001","target":"present","response":"present","rt":"3333","correct":true,"confidence":-1},{"trial_n":6,"span":12,"encoder":"160988084101","distractor":"160088084101","target":"present","response":"present","rt":"2568","correct":true,"confidence":-1},{"trial_n":7,"span":14,"encoder":"72423731659264","distractor":"72473731659264","target":"absent","response":"present","rt":"2697","correct":false,"confidence":-1},{"trial_n":8,"span":12,"encoder":"004780587049","distractor":"004780588049","target":"present","response":"absent","rt":"2159","correct":false,"confidence":-1},{"trial_n":9,"span":10,"encoder":"1034056350","distractor":"1034056358","target":"absent","response":"absent","rt":"4594","correct":true,"confidence":-1},{"trial_n":10,"span":10,"encoder":"2429896987","distractor":"2429896988","target":"present","response":"present","rt":"1596","correct":true,"confidence":-1},{"trial_n":11,"span":12,"encoder":"804668961015","distractor":"804664961015","target":"present","response":"present","rt":"2191","correct":true,"confidence":-1},{"trial_n":12,"span":12,"encoder":"933209722457","distractor":"933249722457","target":"present","response":"absent","rt":"10450","correct":false,"confidence":-1},{"trial_n":13,"span":11,"encoder":"46183948276","distractor":"46183945276","target":"absent","response":"present","rt":"3536","correct":false,"confidence":-1},{"trial_n":14,"span":10,"encoder":"8888047345","distractor":"8888047245","target":"present","response":"present","rt":"2633","correct":true,"confidence":-1},{"trial_n":15,"span":10,"encoder":"0005506836","distractor":"0004506836","target":"present","response":"absent","rt":"4363","correct":false,"confidence":-1},{"trial_n":16,"span":9,"encoder":"470560278","distractor":"070560278","target":"absent","response":"absent","rt":"2807","correct":true,"confidence":-1},{"trial_n":17,"span":9,"encoder":"182304646","distractor":"132304646","target":"present","response":"absent","rt":"3869","correct":false,"confidence":-1},{"trial_n":18,"span":8,"encoder":"53610622","distractor":"53610602","target":"present","response":"present","rt":"3072","correct":true,"confidence":-1},{"trial_n":19,"span":8,"encoder":"67085879","distractor":"47085879","target":"present","response":"present","rt":"4304","correct":true,"confidence":-1},{"trial_n":20,"span":9,"encoder":"458015929","distractor":"458014929","target":"absent","response":"present","rt":"1561","correct":false,"confidence":-1},{"trial_n":21,"span":8,"encoder":"25732679","distractor":"24732679","target":"absent","response":"absent","rt":"5486","correct":true,"confidence":3},{"trial_n":22,"span":8,"encoder":"74646060","distractor":"74646070","target":"present","response":"present","rt":"4303","correct":true,"confidence":4},{"trial_n":23,"span":9,"encoder":"897774471","distractor":"897374471","target":"absent","response":"absent","rt":"3130","correct":true,"confidence":5},{"trial_n":24,"span":9,"encoder":"801292216","distractor":"805292216","target":"present","response":"present","rt":"5690","correct":true,"confidence":3},{"trial_n":25,"span":10,"encoder":"7423393139","distractor":"7423393130","target":"present","response":"present","rt":"4440","correct":true,"confidence":3},{"trial_n":26,"span":10,"encoder":"0829646790","distractor":"0829646700","target":"present","response":"present","rt":"4622","correct":true,"confidence":3},{"trial_n":27,"span":11,"encoder":"20056801182","distractor":"20056801142","target":"present","response":"present","rt":"4491","correct":true,"confidence":4},{"trial_n":28,"span":11,"encoder":"48447043276","distractor":"48442043276","target":"absent","response":"present","rt":"8600","correct":false,"confidence":3},{"trial_n":29,"span":10,"encoder":"5862238001","distractor":"5862237001","target":"present","response":"present","rt":"4947","correct":true,"confidence":4},{"trial_n":30,"span":10,"encoder":"2830125367","distractor":"9830125367","target":"present","response":"absent","rt":"3100","correct":false,"confidence":1},{"trial_n":31,"span":9,"encoder":"355892684","distractor":"355092684","target":"absent","response":"absent","rt":"2891","correct":true,"confidence":3},{"trial_n":32,"span":9,"encoder":"023387851","distractor":"021387851","target":"absent","response":"present","rt":"4035.0000000001","correct":false,"confidence":2},{"trial_n":33,"span":8,"encoder":"54525506","distractor":"58525506","target":"absent","response":"present","rt":"3722","correct":false,"confidence":4},{"trial_n":34,"span":7,"encoder":"4609167","distractor":"4609187","target":"present","response":"absent","rt":"4731","correct":false,"confidence":2},{"trial_n":35,"span":6,"encoder":"059980","distractor":"099980","target":"absent","response":"present","rt":"3028.0000000001","correct":false,"confidence":4},{"trial_n":36,"span":5,"encoder":"66122","distractor":"66182","target":"present","response":"present","rt":"4301","correct":true,"confidence":4},{"trial_n":37,"span":5,"encoder":"23586","distractor":"73586","target":"absent","response":"absent","rt":"3173","correct":true,"confidence":5},{"trial_n":38,"span":6,"encoder":"162697","distractor":"122697","target":"present","response":"present","rt":"2654","correct":true,"confidence":5},{"trial_n":39,"span":6,"encoder":"538919","distractor":"531919","target":"present","response":"present","rt":"2567","correct":true,"confidence":5},{"trial_n":40,"span":7,"encoder":"6772067","distractor":"0772067","target":"absent","response":"absent","rt":"2874.0000000001","correct":true,"confidence":4},{"trial_n":41,"span":7,"encoder":"6669695","distractor":"6679695","target":"present","response":"present","rt":"2124","correct":true,"confidence":5},{"trial_n":42,"span":8,"encoder":"79114155","distractor":"79154155","target":"present","response":"present","rt":"2800","correct":true,"confidence":4},{"trial_n":43,"span":8,"encoder":"12601914","distractor":"12621914","target":"absent","response":"absent","rt":"2815.0000000001","correct":true,"confidence":3},{"trial_n":44,"span":9,"encoder":"009078093","distractor":"009078593","target":"present","response":"present","rt":"5163","correct":true,"confidence":3},{"trial_n":45,"span":9,"encoder":"445585922","distractor":"445885922","target":"absent","response":"present","rt":"4775","correct":false,"confidence":3},{"trial_n":46,"span":8,"encoder":"35866384","distractor":"35836384","target":"present","response":"present","rt":"3228","correct":true,"confidence":2},{"trial_n":47,"span":8,"encoder":"71973789","distractor":"71979789","target":"absent","response":"absent","rt":"5365","correct":true,"confidence":2},{"trial_n":48,"span":9,"encoder":"673025733","distractor":"670025733","target":"present","response":"present","rt":"6370","correct":true,"confidence":1},{"trial_n":49,"span":9,"encoder":"651699158","distractor":"650699158","target":"present","response":"present","rt":"5750","correct":true,"confidence":3},{"trial_n":50,"span":10,"encoder":"5172794646","distractor":"5132794646","target":"absent","response":"present","rt":"6102.9999999999","correct":false,"confidence":3},{"trial_n":51,"span":9,"encoder":"892833110","distractor":"892835110","target":"absent","response":"absent","rt":"3779","correct":true,"confidence":4},{"trial_n":52,"span":9,"encoder":"042247565","distractor":"002247565","target":"absent","response":"absent","rt":"3074","correct":true,"confidence":3},{"trial_n":53,"span":10,"encoder":"6635893993","distractor":"6655893993","target":"absent","response":"present","rt":"5401","correct":false,"confidence":1},{"trial_n":54,"span":9,"encoder":"652708702","distractor":"952708702","target":"absent","response":"absent","rt":"4781","correct":true,"confidence":2},{"trial_n":55,"span":9,"encoder":"144144623","distractor":"144104623","target":"absent","response":"absent","rt":"3788","correct":true,"confidence":3},{"trial_n":56,"span":10,"encoder":"8065856874","distractor":"8065856876","target":"absent","response":"absent","rt":"2405.9999999999","correct":true,"confidence":5},{"trial_n":57,"span":10,"encoder":"2258075503","distractor":"2258077503","target":"present","response":"present","rt":"3468.9999999999","correct":true,"confidence":2},{"trial_n":58,"span":11,"encoder":"33838375554","distractor":"33838375550","target":"present","response":"present","rt":"6287","correct":true,"confidence":1},{"trial_n":59,"span":11,"encoder":"65492072845","distractor":"65992072845","target":"absent","response":"present","rt":"3464.9999999999","correct":false,"confidence":2},{"trial_n":60,"span":10,"encoder":"2650742123","distractor":"2657742123","target":"absent","response":"present","rt":"3673","correct":false,"confidence":2},{"trial_n":61,"span":9,"encoder":"942216320","distractor":"942215320","target":"present","response":"present","rt":"2923","correct":true,"confidence":1},{"trial_n":62,"span":9,"encoder":"677106760","distractor":"647106760","target":"absent","response":"absent","rt":"2211","correct":true,"confidence":5},{"trial_n":63,"span":10,"encoder":"5326617836","distractor":"5320617836","target":"present","response":"present","rt":"3596","correct":true,"confidence":2},{"trial_n":64,"span":10,"encoder":"9348382002","distractor":"6348382002","target":"absent","response":"present","rt":"4468","correct":false,"confidence":2},{"trial_n":65,"span":9,"encoder":"754149241","distractor":"754189241","target":"absent","response":"absent","rt":"2225","correct":true,"confidence":4},{"trial_n":66,"span":9,"encoder":"655416181","distractor":"655411181","target":"absent","response":"absent","rt":"2667","correct":true,"confidence":4},{"trial_n":67,"span":10,"encoder":"4277210887","distractor":"4247210887","target":"absent","response":"absent","rt":"2883","correct":true,"confidence":3},{"trial_n":68,"span":10,"encoder":"1371891362","distractor":"1378891362","target":"present","response":"absent","rt":"2355.0000000001","correct":false,"confidence":1},{"trial_n":69,"span":9,"encoder":"953241998","distractor":"953841998","target":"present","response":"present","rt":"4015","correct":true,"confidence":3},{"trial_n":70,"span":9,"encoder":"056453637","distractor":"056553637","target":"absent","response":"present","rt":"5018","correct":false,"confidence":3},{"trial_n":71,"span":8,"encoder":"18019594","distractor":"18019694","target":"present","response":"present","rt":"3089","correct":true,"confidence":-1},{"trial_n":72,"span":8,"encoder":"88675273","distractor":"88695273","target":"present","response":"absent","rt":"4763.9999999998","correct":false,"confidence":-1},{"trial_n":73,"span":7,"encoder":"4128926","distractor":"4128916","target":"absent","response":"absent","rt":"3525","correct":true,"confidence":-1},{"trial_n":74,"span":7,"encoder":"7441371","distractor":"7241371","target":"absent","response":"absent","rt":"1293","correct":true,"confidence":-1},{"trial_n":75,"span":8,"encoder":"31552185","distractor":"31552125","target":"present","response":"present","rt":"4419","correct":true,"confidence":-1},{"trial_n":76,"span":8,"encoder":"03835217","distractor":"13835217","target":"present","response":"present","rt":"6383","correct":true,"confidence":-1},{"trial_n":77,"span":9,"encoder":"005990795","distractor":"005998795","target":"present","response":"absent","rt":"4761","correct":false,"confidence":-1},{"trial_n":78,"span":8,"encoder":"44734098","distractor":"44744098","target":"absent","response":"absent","rt":"2923","correct":true,"confidence":-1},{"trial_n":79,"span":8,"encoder":"18292288","distractor":"18292788","target":"absent","response":"absent","rt":"4160","correct":true,"confidence":-1},{"trial_n":80,"span":9,"encoder":"030513843","distractor":"036513843","target":"absent","response":"absent","rt":"4406.9999999998","correct":true,"confidence":-1},{"trial_n":81,"span":9,"encoder":"123261182","distractor":"123264182","target":"present","response":"present","rt":"3124","correct":true,"confidence":-1},{"trial_n":82,"span":10,"encoder":"0347552101","distractor":"0347552801","target":"absent","response":"present","rt":"5240","correct":false,"confidence":-1},{"trial_n":83,"span":9,"encoder":"535977656","distractor":"535974656","target":"absent","response":"absent","rt":"2243","correct":true,"confidence":-1},{"trial_n":84,"span":9,"encoder":"198836475","distractor":"148836475","target":"present","response":"present","rt":"3279","correct":true,"confidence":-1},{"trial_n":85,"span":10,"encoder":"1136120586","distractor":"1136620586","target":"present","response":"present","rt":"5374","correct":true,"confidence":-1},{"trial_n":86,"span":10,"encoder":"9793540942","distractor":"9793040942","target":"absent","response":"absent","rt":"5254","correct":true,"confidence":-1},{"trial_n":87,"span":11,"encoder":"97802319047","distractor":"97302319047","target":"present","response":"present","rt":"3501","correct":true,"confidence":-1},{"trial_n":88,"span":11,"encoder":"54256166038","distractor":"54256166008","target":"absent","response":"absent","rt":"2721","correct":true,"confidence":-1},{"trial_n":89,"span":12,"encoder":"237752438661","distractor":"237732438661","target":"absent","response":"present","rt":"6854","correct":false,"confidence":-1},{"trial_n":90,"span":11,"encoder":"03490484933","distractor":"03490434933","target":"present","response":"present","rt":"3694.9999999998","correct":true,"confidence":-1},{"trial_n":91,"span":11,"encoder":"29249960787","distractor":"29949960787","target":"present","response":"present","rt":"4468","correct":true,"confidence":4},{"trial_n":92,"span":12,"encoder":"355821574549","distractor":"355821574544","target":"present","response":"present","rt":"1746","correct":true,"confidence":5},{"trial_n":93,"span":12,"encoder":"604303589236","distractor":"604303289236","target":"present","response":"absent","rt":"6442","correct":false,"confidence":1},{"trial_n":94,"span":11,"encoder":"96759868825","distractor":"96759868125","target":"present","response":"present","rt":"4943","correct":true,"confidence":4},{"trial_n":95,"span":11,"encoder":"48301587025","distractor":"88301587025","target":"absent","response":"absent","rt":"7181","correct":true,"confidence":2},{"trial_n":96,"span":12,"encoder":"727441552580","distractor":"727641552580","target":"present","response":"present","rt":"2634","correct":true,"confidence":4},{"trial_n":97,"span":12,"encoder":"711654226407","distractor":"711655226407","target":"present","response":"present","rt":"3618","correct":true,"confidence":4},{"trial_n":98,"span":13,"encoder":"9520105996491","distractor":"3520105996491","target":"present","response":"present","rt":"13897","correct":true,"confidence":1},{"trial_n":99,"span":13,"encoder":"5654612587659","distractor":"5654112587659","target":"present","response":"present","rt":"5012","correct":true,"confidence":4},{"trial_n":100,"span":14,"encoder":"70768051000273","distractor":"70768051020273","target":"absent","response":"absent","rt":"3847","correct":true,"confidence":5},{"trial_n":101,"span":14,"encoder":"10593572946776","distractor":"10593572946775","target":"present","response":"present","rt":"2616","correct":true,"confidence":4},{"trial_n":102,"span":15,"encoder":"549143725727954","distractor":"549143721727954","target":"present","response":"present","rt":"8801.0000000002","correct":true,"confidence":1},{"trial_n":103,"span":15,"encoder":"273803842256023","distractor":"273803842256022","target":"present","response":"present","rt":"2288","correct":true,"confidence":5},{"trial_n":104,"span":16,"encoder":"2727934341813796","distractor":"2427934341813796","target":"present","response":"present","rt":"8941","correct":true,"confidence":2},{"trial_n":105,"span":16,"encoder":"4226760991778483","distractor":"4426760991778483","target":"absent","response":"absent","rt":"5630","correct":true,"confidence":4},{"trial_n":106,"span":17,"encoder":"57340892597862219","distractor":"57340692597862219","target":"absent","response":"present","rt":"8445","correct":false,"confidence":2},{"trial_n":107,"span":16,"encoder":"2669265960143774","distractor":"2669269960143774","target":"present","response":"present","rt":"4513","correct":true,"confidence":4},{"trial_n":108,"span":16,"encoder":"9987809611757076","distractor":"9983809611757076","target":"present","response":"present","rt":"7970","correct":true,"confidence":4},{"trial_n":109,"span":17,"encoder":"01938622703241737","distractor":"01138622703241737","target":"absent","response":"absent","rt":"8888.0000000002","correct":true,"confidence":2},{"trial_n":110,"span":17,"encoder":"17493094906199823","distractor":"17493094906189823","target":"absent","response":"absent","rt":"2069","correct":true,"confidence":4},{"trial_n":111,"span":18,"encoder":"194386700007789255","distractor":"194386700007769255","target":"absent","response":"absent","rt":"4311","correct":true,"confidence":3},{"trial_n":112,"span":18,"encoder":"098187077418933871","distractor":"098187577418933871","target":"absent","response":"present","rt":"18042","correct":false,"confidence":2},{"trial_n":113,"span":17,"encoder":"26286298242225840","distractor":"26286298242625840","target":"absent","response":"absent","rt":"7837","correct":true,"confidence":4},{"trial_n":114,"span":17,"encoder":"10879048775362979","distractor":"10879048075362979","target":"absent","response":"absent","rt":"6893","correct":true,"confidence":4},{"trial_n":115,"span":18,"encoder":"686225232449796059","distractor":"686225232449396059","target":"present","response":"absent","rt":"19847","correct":false,"confidence":1},{"trial_n":116,"span":17,"encoder":"93975530132428668","distractor":"93975530142428668","target":"absent","response":"absent","rt":"9602","correct":true,"confidence":1},{"trial_n":117,"span":17,"encoder":"87094078274701256","distractor":"87094078474701256","target":"absent","response":"present","rt":"8954","correct":false,"confidence":2},{"trial_n":118,"span":16,"encoder":"8282020442329112","distractor":"8289020442329112","target":"present","response":"present","rt":"10614","correct":true,"confidence":3},{"trial_n":119,"span":16,"encoder":"3155850178151658","distractor":"3155850178151648","target":"present","response":"present","rt":"14273","correct":true,"confidence":2},{"trial_n":120,"span":17,"encoder":"11540106908552304","distractor":"11540106908552308","target":"absent","response":"absent","rt":"9676","correct":true,"confidence":2},{"trial_n":121,"span":17,"encoder":"69851467863463930","distractor":"69881467863463930","target":"absent","response":"absent","rt":"7452.9999999998","correct":true,"confidence":4},{"trial_n":122,"span":18,"encoder":"498669294988086090","distractor":"498669294988086390","target":"absent","response":"absent","rt":"7716","correct":true,"confidence":3},{"trial_n":123,"span":18,"encoder":"280772957609670624","distractor":"280772957609670644","target":"absent","response":"absent","rt":"3222","correct":true,"confidence":4},{"trial_n":124,"span":19,"encoder":"3516014633056051493","distractor":"9516014633056051493","target":"present","response":"absent","rt":"27640","correct":false,"confidence":2},{"trial_n":125,"span":18,"encoder":"822896325516200588","distractor":"822896325016200588","target":"present","response":"present","rt":"10903","correct":true,"confidence":3},{"trial_n":126,"span":18,"encoder":"512744263656556252","distractor":"512744263656456252","target":"absent","response":"absent","rt":"6177.9999999998","correct":true,"confidence":4},{"trial_n":127,"span":19,"encoder":"5201519792284602455","distractor":"5201519792254602455","target":"present","response":"absent","rt":"5327","correct":false,"confidence":4},{"trial_n":128,"span":18,"encoder":"042651082217428535","distractor":"042651082217418535","target":"absent","response":"absent","rt":"10562","correct":true,"confidence":1},{"trial_n":129,"span":18,"encoder":"084598878509556513","distractor":"084598871509556513","target":"present","response":"present","rt":"18403","correct":true,"confidence":3},{"trial_n":130,"span":19,"encoder":"3862589191194827464","distractor":"3862589191994827464","target":"present","response":"absent","rt":"17419","correct":false,"confidence":2},{"trial_n":131,"span":18,"encoder":"420429449564113567","distractor":"420429449564113577","target":"present","response":"present","rt":"6365","correct":true,"confidence":4},{"trial_n":132,"span":18,"encoder":"402771492741567746","distractor":"462771492741567746","target":"absent","response":"absent","rt":"7105","correct":true,"confidence":3},{"trial_n":133,"span":19,"encoder":"4462527481491018756","distractor":"4462527481494018756","target":"absent","response":"present","rt":"18385","correct":false,"confidence":1},{"trial_n":134,"span":18,"encoder":"323859295516972980","distractor":"323859295516977980","target":"absent","response":"absent","rt":"2406.0000000005","correct":true,"confidence":5},{"trial_n":135,"span":18,"encoder":"486992764540576177","distractor":"486492764540576177","target":"present","response":"present","rt":"3538","correct":true,"confidence":4},{"trial_n":136,"span":19,"encoder":"1902246106260440979","distractor":"1902236106260440979","target":"absent","response":"absent","rt":"6670.9999999995","correct":true,"confidence":2},{"trial_n":137,"span":19,"encoder":"0115663044891793457","distractor":"0815663044891793457","target":"present","response":"absent","rt":"12877","correct":false,"confidence":2},{"trial_n":138,"span":18,"encoder":"078892961628956531","distractor":"078892966628956531","target":"absent","response":"absent","rt":"12729","correct":true,"confidence":4},{"trial_n":139,"span":18,"encoder":"858052735921339307","distractor":"858052735921339302","target":"absent","response":"absent","rt":"2698","correct":true,"confidence":4},{"trial_n":140,"span":19,"encoder":"1981676538545254985","distractor":"1981676538545255985","target":"present","response":"present","rt":"3817","correct":true,"confidence":5}]