[{"trial_n":1,"span":8,"encoder":"81515759","distractor":"81515753","target":"present","response":"present","rt":"5034.1999998093","correct":true,"confidence":-1},{"trial_n":2,"span":8,"encoder":"26289793","distractor":"06289793","target":"present","response":"present","rt":"2077.2999997139","correct":true,"confidence":-1},{"trial_n":3,"span":10,"encoder":"7103805475","distractor":"7103805479","target":"absent","response":"present","rt":"2316.4000000954","correct":false,"confidence":-1},{"trial_n":4,"span":8,"encoder":"59158652","distractor":"59158252","target":"absent","response":"present","rt":"1721.5999999046","correct":false,"confidence":-1},{"trial_n":5,"span":6,"encoder":"738318","distractor":"737318","target":"present","response":"present","rt":"1404.1000003815","correct":true,"confidence":-1},{"trial_n":6,"span":6,"encoder":"569106","distractor":"269106","target":"present","response":"present","rt":"1477","correct":true,"confidence":-1},{"trial_n":7,"span":8,"encoder":"05675336","distractor":"05675335","target":"absent","response":"absent","rt":"1461.1999998093","correct":true,"confidence":-1},{"trial_n":8,"span":8,"encoder":"48355450","distractor":"48455450","target":"present","response":"present","rt":"1132","correct":true,"confidence":-1},{"trial_n":9,"span":10,"encoder":"6624219543","distractor":"8624219543","target":"absent","response":"present","rt":"1152.0999999046","correct":false,"confidence":-1},{"trial_n":10,"span":8,"encoder":"97506251","distractor":"97536251","target":"present","response":"present","rt":"921.60000038147","correct":true,"confidence":-1},{"trial_n":11,"span":8,"encoder":"08469894","distractor":"08469895","target":"present","response":"absent","rt":"383.90000009537","correct":false,"confidence":-1},{"trial_n":12,"span":7,"encoder":"3203605","distractor":"3203705","target":"absent","response":"present","rt":"640.60000038147","correct":false,"confidence":-1},{"trial_n":13,"span":6,"encoder":"106098","distractor":"106298","target":"present","response":"present","rt":"930.40000009537","correct":true,"confidence":-1},{"trial_n":14,"span":6,"encoder":"541561","distractor":"541566","target":"absent","response":"absent","rt":"587.69999980927","correct":true,"confidence":-1},{"trial_n":15,"span":7,"encoder":"4749573","distractor":"4749473","target":"present","response":"present","rt":"1146.2000002861","correct":true,"confidence":-1},{"trial_n":16,"span":7,"encoder":"6195706","distractor":"6192706","target":"present","response":"present","rt":"671.19999980927","correct":true,"confidence":-1},{"trial_n":17,"span":8,"encoder":"20599426","distractor":"00599426","target":"absent","response":"present","rt":"734.09999990463","correct":false,"confidence":-1},{"trial_n":18,"span":7,"encoder":"8199922","distractor":"8199952","target":"absent","response":"absent","rt":"1235.6999998093","correct":true,"confidence":-1},{"trial_n":19,"span":7,"encoder":"0127663","distractor":"0167663","target":"absent","response":"present","rt":"780.2999997139","correct":false,"confidence":-1},{"trial_n":20,"span":6,"encoder":"100466","distractor":"100566","target":"present","response":"present","rt":"642.40000009537","correct":true,"confidence":-1},{"trial_n":21,"span":6,"encoder":"961312","distractor":"961512","target":"absent","response":"absent","rt":"1276.7000002861","correct":true,"confidence":4},{"trial_n":22,"span":7,"encoder":"3626275","distractor":"9626275","target":"present","response":"absent","rt":"1002.6999998093","correct":false,"confidence":3},{"trial_n":23,"span":6,"encoder":"894567","distractor":"294567","target":"absent","response":"present","rt":"1528.8000001907","correct":false,"confidence":5},{"trial_n":24,"span":5,"encoder":"80986","distractor":"82986","target":"absent","response":"absent","rt":"1672.5999999046","correct":true,"confidence":5},{"trial_n":25,"span":5,"encoder":"26657","distractor":"22657","target":"present","response":"present","rt":"1239.2999997139","correct":true,"confidence":5},{"trial_n":26,"span":6,"encoder":"072913","distractor":"072313","target":"present","response":"present","rt":"881.30000019073","correct":true,"confidence":3},{"trial_n":27,"span":6,"encoder":"807938","distractor":"807932","target":"absent","response":"absent","rt":"1319.0999999046","correct":true,"confidence":5},{"trial_n":28,"span":7,"encoder":"1874683","distractor":"1814683","target":"absent","response":"absent","rt":"3542.6999998093","correct":true,"confidence":1},{"trial_n":29,"span":7,"encoder":"3065877","distractor":"3062877","target":"absent","response":"present","rt":"888.90000009537","correct":false,"confidence":3},{"trial_n":30,"span":6,"encoder":"818814","distractor":"818810","target":"absent","response":"absent","rt":"1516.5","correct":true,"confidence":5},{"trial_n":31,"span":6,"encoder":"020942","distractor":"320942","target":"absent","response":"present","rt":"1203","correct":false,"confidence":4},{"trial_n":32,"span":5,"encoder":"01123","distractor":"41123","target":"absent","response":"present","rt":"2440.9000000954","correct":false,"confidence":3},{"trial_n":33,"span":4,"encoder":"8429","distractor":"8423","target":"present","response":"present","rt":"1398.0999999046","correct":true,"confidence":5},{"trial_n":34,"span":4,"encoder":"2089","distractor":"2083","target":"absent","response":"absent","rt":"2574.7999997139","correct":true,"confidence":5},{"trial_n":35,"span":5,"encoder":"33737","distractor":"33732","target":"present","response":"present","rt":"2603.1999998093","correct":true,"confidence":3},{"trial_n":36,"span":5,"encoder":"21405","distractor":"21805","target":"present","response":"present","rt":"1091.7000002861","correct":true,"confidence":3},{"trial_n":37,"span":6,"encoder":"622173","distractor":"621173","target":"present","response":"present","rt":"1625","correct":true,"confidence":3},{"trial_n":38,"span":6,"encoder":"096935","distractor":"096937","target":"present","response":"absent","rt":"3091.3000001907","correct":false,"confidence":2},{"trial_n":39,"span":5,"encoder":"34752","distractor":"34782","target":"absent","response":"absent","rt":"2348","correct":true,"confidence":4},{"trial_n":40,"span":5,"encoder":"17422","distractor":"67422","target":"present","response":"present","rt":"1457","correct":true,"confidence":4},{"trial_n":41,"span":6,"encoder":"424676","distractor":"434676","target":"absent","response":"present","rt":"1249.7999997139","correct":false,"confidence":4},{"trial_n":42,"span":5,"encoder":"48359","distractor":"48059","target":"present","response":"present","rt":"1408","correct":true,"confidence":4},{"trial_n":43,"span":5,"encoder":"26686","distractor":"26680","target":"present","response":"present","rt":"1024.1999998093","correct":true,"confidence":5},{"trial_n":44,"span":6,"encoder":"956389","distractor":"956089","target":"absent","response":"present","rt":"1064.5","correct":false,"confidence":3},{"trial_n":45,"span":5,"encoder":"22235","distractor":"22231","target":"absent","response":"absent","rt":"1624.5999999046","correct":true,"confidence":5},{"trial_n":46,"span":5,"encoder":"17984","distractor":"19984","target":"absent","response":"absent","rt":"1788.3999996185","correct":true,"confidence":5},{"trial_n":47,"span":6,"encoder":"270945","distractor":"270975","target":"absent","response":"present","rt":"2153.7999997139","correct":false,"confidence":4},{"trial_n":48,"span":5,"encoder":"83968","distractor":"83918","target":"absent","response":"absent","rt":"2640.1999998093","correct":true,"confidence":3},{"trial_n":49,"span":5,"encoder":"63265","distractor":"69265","target":"absent","response":"present","rt":"1200.2999997139","correct":false,"confidence":2},{"trial_n":50,"span":4,"encoder":"0309","distractor":"3309","target":"absent","response":"absent","rt":"1628.8000001907","correct":true,"confidence":5},{"trial_n":51,"span":4,"encoder":"8509","distractor":"8519","target":"absent","response":"absent","rt":"1354.4000000954","correct":true,"confidence":4},{"trial_n":52,"span":5,"encoder":"68979","distractor":"68479","target":"absent","response":"absent","rt":"2240.5","correct":true,"confidence":3},{"trial_n":53,"span":5,"encoder":"06256","distractor":"56256","target":"present","response":"absent","rt":"1692.6999998093","correct":false,"confidence":2},{"trial_n":54,"span":4,"encoder":"3394","distractor":"8394","target":"present","response":"absent","rt":"1705.8000001907","correct":false,"confidence":1},{"trial_n":55,"span":3,"encoder":"534","distractor":"564","target":"present","response":"present","rt":"994.5","correct":true,"confidence":5},{"trial_n":56,"span":3,"encoder":"162","distractor":"062","target":"present","response":"present","rt":"796.69999980927","correct":true,"confidence":5},{"trial_n":57,"span":4,"encoder":"2291","distractor":"8291","target":"present","response":"present","rt":"1552.0999999046","correct":true,"confidence":5},{"trial_n":58,"span":4,"encoder":"1738","distractor":"1737","target":"present","response":"present","rt":"963.69999980927","correct":true,"confidence":5},{"trial_n":59,"span":5,"encoder":"74079","distractor":"74039","target":"present","response":"present","rt":"1386.5","correct":true,"confidence":5},{"trial_n":60,"span":5,"encoder":"49534","distractor":"49544","target":"absent","response":"absent","rt":"1991.8999996185","correct":true,"confidence":5},{"trial_n":61,"span":6,"encoder":"908226","distractor":"907226","target":"absent","response":"absent","rt":"1576","correct":true,"confidence":3},{"trial_n":62,"span":6,"encoder":"726416","distractor":"726216","target":"present","response":"absent","rt":"1817","correct":false,"confidence":1},{"trial_n":63,"span":5,"encoder":"06220","distractor":"06270","target":"present","response":"present","rt":"1509","correct":true,"confidence":4},{"trial_n":64,"span":5,"encoder":"68397","distractor":"68317","target":"absent","response":"absent","rt":"1620.5","correct":true,"confidence":4},{"trial_n":65,"span":6,"encoder":"672814","distractor":"672874","target":"present","response":"present","rt":"2318.5","correct":true,"confidence":5},{"trial_n":66,"span":6,"encoder":"341146","distractor":"941146","target":"present","response":"absent","rt":"1964","correct":false,"confidence":3},{"trial_n":67,"span":5,"encoder":"81099","distractor":"81999","target":"absent","response":"absent","rt":"1497","correct":true,"confidence":5},{"trial_n":68,"span":5,"encoder":"50723","distractor":"00723","target":"present","response":"present","rt":"1864.3000001907","correct":true,"confidence":4},{"trial_n":69,"span":6,"encoder":"454935","distractor":"455935","target":"present","response":"present","rt":"1547.5","correct":true,"confidence":5},{"trial_n":70,"span":6,"encoder":"189311","distractor":"189381","target":"present","response":"present","rt":"1158.0999999046","correct":true,"confidence":3},{"trial_n":71,"span":8,"encoder":"74031954","distractor":"94031954","target":"present","response":"present","rt":"2183.5999999046","correct":true,"confidence":-1},{"trial_n":72,"span":8,"encoder":"50583999","distractor":"50583998","target":"present","response":"present","rt":"2553.3999996185","correct":true,"confidence":-1},{"trial_n":73,"span":9,"encoder":"385778459","distractor":"385776459","target":"absent","response":"absent","rt":"2002.1000003815","correct":true,"confidence":-1},{"trial_n":74,"span":9,"encoder":"423343255","distractor":"423343275","target":"absent","response":"present","rt":"1439.9000000954","correct":false,"confidence":-1},{"trial_n":75,"span":8,"encoder":"01462988","distractor":"41462988","target":"present","response":"absent","rt":"361.2999997139","correct":false,"confidence":-1},{"trial_n":76,"span":7,"encoder":"9328468","distractor":"9328668","target":"absent","response":"present","rt":"88.400000095367","correct":false,"confidence":-1},{"trial_n":77,"span":6,"encoder":"397572","distractor":"297572","target":"absent","response":"present","rt":"410.40000009537","correct":false,"confidence":-1},{"trial_n":78,"span":5,"encoder":"77422","distractor":"77822","target":"absent","response":"absent","rt":"1092.5999999046","correct":true,"confidence":-1},{"trial_n":79,"span":5,"encoder":"15385","distractor":"15185","target":"present","response":"absent","rt":"1883.7999997139","correct":false,"confidence":-1},{"trial_n":80,"span":4,"encoder":"8726","distractor":"8786","target":"absent","response":"absent","rt":"1195.3000001907","correct":true,"confidence":-1},{"trial_n":81,"span":4,"encoder":"9777","distractor":"3777","target":"absent","response":"absent","rt":"1209.4000000954","correct":true,"confidence":-1},{"trial_n":82,"span":5,"encoder":"09180","distractor":"09188","target":"absent","response":"absent","rt":"1724.8000001907","correct":true,"confidence":-1},{"trial_n":83,"span":5,"encoder":"09420","distractor":"07420","target":"present","response":"present","rt":"904.69999980927","correct":true,"confidence":-1},{"trial_n":84,"span":6,"encoder":"867446","distractor":"467446","target":"absent","response":"present","rt":"2120.5","correct":false,"confidence":-1},{"trial_n":85,"span":5,"encoder":"06429","distractor":"08429","target":"absent","response":"absent","rt":"1258.8999996185","correct":true,"confidence":-1},{"trial_n":86,"span":5,"encoder":"21916","distractor":"22916","target":"present","response":"present","rt":"2476.7000002861","correct":true,"confidence":-1},{"trial_n":87,"span":6,"encoder":"212670","distractor":"214670","target":"absent","response":"absent","rt":"543.40000009537","correct":true,"confidence":-1},{"trial_n":88,"span":6,"encoder":"499517","distractor":"499513","target":"absent","response":"absent","rt":"864","correct":true,"confidence":-1},{"trial_n":89,"span":7,"encoder":"9373902","distractor":"0373902","target":"absent","response":"absent","rt":"624","correct":true,"confidence":-1},{"trial_n":90,"span":7,"encoder":"3452342","distractor":"3457342","target":"absent","response":"absent","rt":"796.80000019073","correct":true,"confidence":-1},{"trial_n":91,"span":8,"encoder":"15994773","distractor":"35994773","target":"present","response":"absent","rt":"612.10000038147","correct":false,"confidence":3},{"trial_n":92,"span":7,"encoder":"7569380","distractor":"7369380","target":"absent","response":"present","rt":"342.09999990463","correct":false,"confidence":3},{"trial_n":93,"span":6,"encoder":"638354","distractor":"238354","target":"present","response":"present","rt":"1815.6999998093","correct":true,"confidence":3},{"trial_n":94,"span":6,"encoder":"246996","distractor":"146996","target":"present","response":"absent","rt":"1828.3000001907","correct":false,"confidence":1},{"trial_n":95,"span":5,"encoder":"39892","distractor":"32892","target":"absent","response":"absent","rt":"2821.5","correct":true,"confidence":4},{"trial_n":96,"span":5,"encoder":"40253","distractor":"40453","target":"present","response":"present","rt":"1520.5","correct":true,"confidence":4},{"trial_n":97,"span":6,"encoder":"192418","distractor":"192618","target":"present","response":"absent","rt":"4217.5","correct":false,"confidence":2},{"trial_n":98,"span":5,"encoder":"71031","distractor":"77031","target":"present","response":"present","rt":"1807.5","correct":true,"confidence":3},{"trial_n":99,"span":5,"encoder":"07791","distractor":"08791","target":"absent","response":"absent","rt":"1382.6000003815","correct":true,"confidence":5},{"trial_n":100,"span":6,"encoder":"891805","distractor":"891855","target":"present","response":"present","rt":"2219.4000000954","correct":true,"confidence":1},{"trial_n":101,"span":6,"encoder":"567416","distractor":"167416","target":"absent","response":"present","rt":"574.19999980927","correct":false,"confidence":3},{"trial_n":102,"span":5,"encoder":"81178","distractor":"81278","target":"absent","response":"absent","rt":"1431.0999999046","correct":true,"confidence":5},{"trial_n":103,"span":5,"encoder":"50599","distractor":"50598","target":"absent","response":"absent","rt":"2534.1999998093","correct":true,"confidence":5},{"trial_n":104,"span":6,"encoder":"167876","distractor":"567876","target":"present","response":"present","rt":"543.19999980927","correct":true,"confidence":3},{"trial_n":105,"span":6,"encoder":"034299","distractor":"094299","target":"present","response":"present","rt":"1668.7999997139","correct":true,"confidence":5},{"trial_n":106,"span":7,"encoder":"5036792","distractor":"5536792","target":"present","response":"absent","rt":"1604","correct":false,"confidence":2},{"trial_n":107,"span":6,"encoder":"030150","distractor":"030120","target":"present","response":"present","rt":"1215","correct":true,"confidence":5},{"trial_n":108,"span":6,"encoder":"729833","distractor":"729033","target":"present","response":"absent","rt":"1687.9000000954","correct":false,"confidence":3},{"trial_n":109,"span":5,"encoder":"39573","distractor":"39543","target":"present","response":"present","rt":"1545.3999996185","correct":true,"confidence":3},{"trial_n":110,"span":5,"encoder":"96050","distractor":"96950","target":"present","response":"present","rt":"2036.2000002861","correct":true,"confidence":4},{"trial_n":111,"span":6,"encoder":"819211","distractor":"819911","target":"absent","response":"absent","rt":"1304.3000001907","correct":true,"confidence":1},{"trial_n":112,"span":6,"encoder":"935042","distractor":"935942","target":"present","response":"present","rt":"564.59999990463","correct":true,"confidence":3},{"trial_n":113,"span":7,"encoder":"2230577","distractor":"2230777","target":"absent","response":"absent","rt":"587.19999980927","correct":true,"confidence":3},{"trial_n":114,"span":7,"encoder":"8193768","distractor":"8193368","target":"present","response":"absent","rt":"1125.1999998093","correct":false,"confidence":3},{"trial_n":115,"span":6,"encoder":"099781","distractor":"099711","target":"absent","response":"absent","rt":"1187","correct":true,"confidence":1},{"trial_n":116,"span":6,"encoder":"375253","distractor":"375153","target":"absent","response":"absent","rt":"2556.2000002861","correct":true,"confidence":5},{"trial_n":117,"span":7,"encoder":"0628298","distractor":"1628298","target":"present","response":"absent","rt":"923.69999980927","correct":false,"confidence":4},{"trial_n":118,"span":6,"encoder":"344751","distractor":"344759","target":"present","response":"present","rt":"1197.7000002861","correct":true,"confidence":4},{"trial_n":119,"span":6,"encoder":"993693","distractor":"983693","target":"absent","response":"absent","rt":"1347.6000003815","correct":true,"confidence":3},{"trial_n":120,"span":7,"encoder":"2829801","distractor":"1829801","target":"absent","response":"absent","rt":"2915.7999997139","correct":true,"confidence":2},{"trial_n":121,"span":7,"encoder":"6311329","distractor":"7311329","target":"absent","response":"absent","rt":"1203.9000000954","correct":true,"confidence":5},{"trial_n":122,"span":8,"encoder":"48052485","distractor":"48072485","target":"absent","response":"absent","rt":"892.19999980927","correct":true,"confidence":4},{"trial_n":123,"span":8,"encoder":"65912291","distractor":"65912296","target":"absent","response":"absent","rt":"1320.8000001907","correct":true,"confidence":4},{"trial_n":124,"span":9,"encoder":"242716525","distractor":"242736525","target":"absent","response":"absent","rt":"5097.1999998093","correct":true,"confidence":1},{"trial_n":125,"span":9,"encoder":"930202987","distractor":"930202982","target":"present","response":"present","rt":"2516.1000003815","correct":true,"confidence":5},{"trial_n":126,"span":10,"encoder":"6900971795","distractor":"6900974795","target":"present","response":"present","rt":"3158.2999997139","correct":true,"confidence":1},{"trial_n":127,"span":10,"encoder":"7592198600","distractor":"4592198600","target":"absent","response":"present","rt":"2701.2999997139","correct":false,"confidence":1},{"trial_n":128,"span":9,"encoder":"955215265","distractor":"955215235","target":"present","response":"present","rt":"4011.1999998093","correct":true,"confidence":1},{"trial_n":129,"span":9,"encoder":"769871355","distractor":"769771355","target":"present","response":"present","rt":"2389.9000000954","correct":true,"confidence":3},{"trial_n":130,"span":10,"encoder":"1425664896","distractor":"1425664886","target":"present","response":"present","rt":"1710.9000000954","correct":true,"confidence":3},{"trial_n":131,"span":10,"encoder":"3494128115","distractor":"3474128115","target":"present","response":"absent","rt":"2874.1999998093","correct":false,"confidence":3},{"trial_n":132,"span":9,"encoder":"495891622","distractor":"495891628","target":"absent","response":"absent","rt":"1284.5999999046","correct":true,"confidence":5},{"trial_n":133,"span":9,"encoder":"692354788","distractor":"692356788","target":"present","response":"absent","rt":"3210.5","correct":false,"confidence":1},{"trial_n":134,"span":8,"encoder":"52840736","distractor":"52640736","target":"present","response":"absent","rt":"1467.2000002861","correct":false,"confidence":1},{"trial_n":135,"span":7,"encoder":"1484865","distractor":"1434865","target":"present","response":"present","rt":"1924.1999998093","correct":true,"confidence":3},{"trial_n":136,"span":7,"encoder":"3420016","distractor":"7420016","target":"present","response":"present","rt":"2753.4000000954","correct":true,"confidence":4},{"trial_n":137,"span":8,"encoder":"49537193","distractor":"46537193","target":"present","response":"present","rt":"1790","correct":true,"confidence":5},{"trial_n":138,"span":8,"encoder":"84601881","distractor":"84601871","target":"absent","response":"absent","rt":"1420.5","correct":true,"confidence":4},{"trial_n":139,"span":9,"encoder":"025465145","distractor":"025465645","target":"present","response":"present","rt":"1983.8999996185","correct":true,"confidence":3},{"trial_n":140,"span":9,"encoder":"264193293","distractor":"264123293","target":"absent","response":"present","rt":"3507.6999998093","correct":false,"confidence":3}]