[{"trial_n":1,"min":25,"max":230,"target":"present","response":"present","rt":8344,"correct":true,"confidence":-1},{"trial_n":2,"min":25,"max":230,"target":"present","response":"present","rt":1952,"correct":true,"confidence":-1},{"trial_n":3,"min":41,"max":214,"target":"absent","response":"absent","rt":1528,"correct":true,"confidence":-1},{"trial_n":4,"min":41,"max":214,"target":"absent","response":"absent","rt":981.99999999999,"correct":true,"confidence":-1},{"trial_n":5,"min":57,"max":198,"target":"present","response":"present","rt":939,"correct":true,"confidence":-1},{"trial_n":6,"min":57,"max":198,"target":"present","response":"present","rt":1197,"correct":true,"confidence":-1},{"trial_n":7,"min":73,"max":182,"target":"present","response":"present","rt":1305,"correct":true,"confidence":-1},{"trial_n":8,"min":73,"max":182,"target":"present","response":"absent","rt":1181,"correct":false,"confidence":-1},{"trial_n":9,"min":57,"max":198,"target":"present","response":"present","rt":994,"correct":true,"confidence":-1},{"trial_n":10,"min":57,"max":198,"target":"absent","response":"absent","rt":836,"correct":true,"confidence":-1},{"trial_n":11,"min":65,"max":190,"target":"absent","response":"absent","rt":941,"correct":true,"confidence":-1},{"trial_n":12,"min":65,"max":190,"target":"absent","response":"absent","rt":787,"correct":true,"confidence":-1},{"trial_n":13,"min":73,"max":182,"target":"absent","response":"absent","rt":665.00000000001,"correct":true,"confidence":-1},{"trial_n":14,"min":73,"max":182,"target":"absent","response":"absent","rt":624,"correct":true,"confidence":-1},{"trial_n":15,"min":81,"max":174,"target":"present","response":"present","rt":1002,"correct":true,"confidence":-1},{"trial_n":16,"min":81,"max":174,"target":"absent","response":"absent","rt":934,"correct":true,"confidence":-1},{"trial_n":17,"min":89,"max":166,"target":"present","response":"present","rt":860,"correct":true,"confidence":-1},{"trial_n":18,"min":89,"max":166,"target":"present","response":"present","rt":832,"correct":true,"confidence":-1},{"trial_n":19,"min":97,"max":158,"target":"present","response":"present","rt":600.00000000001,"correct":true,"confidence":-1},{"trial_n":20,"min":97,"max":158,"target":"absent","response":"present","rt":493.00000000001,"correct":false,"confidence":-1},{"trial_n":21,"min":93,"max":162,"target":"present","response":"present","rt":1172,"correct":true,"confidence":4},{"trial_n":22,"min":93,"max":162,"target":"absent","response":"present","rt":2556,"correct":false,"confidence":3},{"trial_n":23,"min":89,"max":166,"target":"absent","response":"present","rt":1147,"correct":false,"confidence":4},{"trial_n":24,"min":85,"max":170,"target":"absent","response":"absent","rt":1562,"correct":true,"confidence":3},{"trial_n":25,"min":85,"max":170,"target":"absent","response":"present","rt":1065,"correct":false,"confidence":4},{"trial_n":26,"min":81,"max":174,"target":"present","response":"present","rt":936,"correct":true,"confidence":4},{"trial_n":27,"min":81,"max":174,"target":"present","response":"absent","rt":1164,"correct":false,"confidence":2},{"trial_n":28,"min":77,"max":178,"target":"absent","response":"present","rt":2631,"correct":false,"confidence":2},{"trial_n":29,"min":73,"max":182,"target":"present","response":"present","rt":1392,"correct":true,"confidence":5},{"trial_n":30,"min":73,"max":182,"target":"present","response":"absent","rt":993,"correct":false,"confidence":3},{"trial_n":31,"min":71,"max":184,"target":"absent","response":"present","rt":2395,"correct":false,"confidence":3},{"trial_n":32,"min":69,"max":186,"target":"absent","response":"present","rt":1221,"correct":false,"confidence":2},{"trial_n":33,"min":67,"max":188,"target":"absent","response":"present","rt":992.99999999997,"correct":false,"confidence":3},{"trial_n":34,"min":65,"max":190,"target":"present","response":"present","rt":928,"correct":true,"confidence":5},{"trial_n":35,"min":65,"max":190,"target":"absent","response":"absent","rt":985,"correct":true,"confidence":4},{"trial_n":36,"min":67,"max":188,"target":"absent","response":"absent","rt":845.99999999997,"correct":true,"confidence":5},{"trial_n":37,"min":67,"max":188,"target":"present","response":"absent","rt":881,"correct":false,"confidence":4},{"trial_n":38,"min":65,"max":190,"target":"present","response":"absent","rt":1501,"correct":false,"confidence":4},{"trial_n":39,"min":63,"max":192,"target":"present","response":"present","rt":894,"correct":true,"confidence":5},{"trial_n":40,"min":63,"max":192,"target":"present","response":"present","rt":1005,"correct":true,"confidence":5},{"trial_n":41,"min":64,"max":191,"target":"absent","response":"absent","rt":1222,"correct":true,"confidence":3},{"trial_n":42,"min":64,"max":191,"target":"absent","response":"present","rt":1490,"correct":false,"confidence":3},{"trial_n":43,"min":63,"max":192,"target":"absent","response":"present","rt":1002,"correct":false,"confidence":2},{"trial_n":44,"min":62,"max":193,"target":"absent","response":"present","rt":3301,"correct":false,"confidence":2},{"trial_n":45,"min":61,"max":194,"target":"present","response":"present","rt":907,"correct":true,"confidence":5},{"trial_n":46,"min":61,"max":194,"target":"present","response":"present","rt":776.00000000003,"correct":true,"confidence":5},{"trial_n":47,"min":62,"max":193,"target":"absent","response":"present","rt":2756,"correct":false,"confidence":3},{"trial_n":48,"min":61,"max":194,"target":"present","response":"present","rt":825,"correct":true,"confidence":5},{"trial_n":49,"min":61,"max":194,"target":"present","response":"present","rt":808.99999999997,"correct":true,"confidence":5},{"trial_n":50,"min":62,"max":193,"target":"absent","response":"absent","rt":840,"correct":true,"confidence":4},{"trial_n":51,"min":62,"max":193,"target":"absent","response":"absent","rt":930,"correct":true,"confidence":4},{"trial_n":52,"min":63,"max":192,"target":"present","response":"present","rt":857.99999999997,"correct":true,"confidence":5},{"trial_n":53,"min":63,"max":192,"target":"present","response":"present","rt":810.99999999997,"correct":true,"confidence":5},{"trial_n":54,"min":64,"max":191,"target":"absent","response":"absent","rt":1394,"correct":true,"confidence":5},{"trial_n":55,"min":64,"max":191,"target":"absent","response":"absent","rt":840,"correct":true,"confidence":4},{"trial_n":56,"min":65,"max":190,"target":"present","response":"present","rt":687.99999999997,"correct":true,"confidence":5},{"trial_n":57,"min":65,"max":190,"target":"present","response":"present","rt":1308,"correct":true,"confidence":5},{"trial_n":58,"min":66,"max":189,"target":"absent","response":"absent","rt":1028,"correct":true,"confidence":3},{"trial_n":59,"min":66,"max":189,"target":"present","response":"present","rt":1005,"correct":true,"confidence":4},{"trial_n":60,"min":67,"max":188,"target":"absent","response":"absent","rt":1493,"correct":true,"confidence":4},{"trial_n":61,"min":67,"max":188,"target":"absent","response":"absent","rt":2113,"correct":true,"confidence":2},{"trial_n":62,"min":68,"max":187,"target":"present","response":"present","rt":868,"correct":true,"confidence":5},{"trial_n":63,"min":68,"max":187,"target":"present","response":"present","rt":851,"correct":true,"confidence":4},{"trial_n":64,"min":69,"max":186,"target":"present","response":"present","rt":1814,"correct":true,"confidence":5},{"trial_n":65,"min":69,"max":186,"target":"absent","response":"absent","rt":899.99999999997,"correct":true,"confidence":4},{"trial_n":66,"min":70,"max":185,"target":"present","response":"present","rt":829,"correct":true,"confidence":5},{"trial_n":67,"min":70,"max":185,"target":"absent","response":"absent","rt":931.99999999994,"correct":true,"confidence":5},{"trial_n":68,"min":71,"max":184,"target":"present","response":"present","rt":861,"correct":true,"confidence":3},{"trial_n":69,"min":71,"max":184,"target":"absent","response":"absent","rt":760,"correct":true,"confidence":5},{"trial_n":70,"min":72,"max":183,"target":"present","response":"present","rt":950,"correct":true,"confidence":3},{"trial_n":71,"min":41,"max":214,"target":"present","response":"present","rt":11656,"correct":true,"confidence":-1},{"trial_n":72,"min":41,"max":214,"target":"present","response":"present","rt":628,"correct":true,"confidence":-1},{"trial_n":73,"min":57,"max":198,"target":"absent","response":"absent","rt":529,"correct":true,"confidence":-1},{"trial_n":74,"min":57,"max":198,"target":"absent","response":"present","rt":568,"correct":false,"confidence":-1},{"trial_n":75,"min":41,"max":214,"target":"present","response":"present","rt":331,"correct":true,"confidence":-1},{"trial_n":76,"min":41,"max":214,"target":"present","response":"present","rt":367,"correct":true,"confidence":-1},{"trial_n":77,"min":57,"max":198,"target":"present","response":"present","rt":332,"correct":true,"confidence":-1},{"trial_n":78,"min":57,"max":198,"target":"present","response":"present","rt":294.99999999994,"correct":true,"confidence":-1},{"trial_n":79,"min":73,"max":182,"target":"present","response":"present","rt":494.99999999994,"correct":true,"confidence":-1},{"trial_n":80,"min":73,"max":182,"target":"absent","response":"absent","rt":367,"correct":true,"confidence":-1},{"trial_n":81,"min":81,"max":174,"target":"present","response":"present","rt":669,"correct":true,"confidence":-1},{"trial_n":82,"min":81,"max":174,"target":"present","response":"present","rt":1532,"correct":true,"confidence":-1},{"trial_n":83,"min":89,"max":166,"target":"absent","response":"absent","rt":724,"correct":true,"confidence":-1},{"trial_n":84,"min":89,"max":166,"target":"present","response":"present","rt":401.99999999994,"correct":true,"confidence":-1},{"trial_n":85,"min":97,"max":158,"target":"absent","response":"present","rt":525,"correct":false,"confidence":-1},{"trial_n":86,"min":89,"max":166,"target":"absent","response":"absent","rt":1036,"correct":true,"confidence":-1},{"trial_n":87,"min":89,"max":166,"target":"absent","response":"present","rt":582,"correct":false,"confidence":-1},{"trial_n":88,"min":81,"max":174,"target":"absent","response":"present","rt":548,"correct":false,"confidence":-1},{"trial_n":89,"min":73,"max":182,"target":"absent","response":"absent","rt":1775.0000000001,"correct":true,"confidence":-1},{"trial_n":90,"min":73,"max":182,"target":"absent","response":"present","rt":463,"correct":false,"confidence":-1},{"trial_n":91,"min":69,"max":186,"target":"absent","response":"absent","rt":909,"correct":true,"confidence":3},{"trial_n":92,"min":69,"max":186,"target":"present","response":"present","rt":736.00000000006,"correct":true,"confidence":5},{"trial_n":93,"min":73,"max":182,"target":"present","response":"present","rt":2207,"correct":true,"confidence":5},{"trial_n":94,"min":73,"max":182,"target":"absent","response":"absent","rt":874,"correct":true,"confidence":4},{"trial_n":95,"min":77,"max":178,"target":"absent","response":"absent","rt":822,"correct":true,"confidence":3},{"trial_n":96,"min":77,"max":178,"target":"absent","response":"absent","rt":820,"correct":true,"confidence":2},{"trial_n":97,"min":81,"max":174,"target":"absent","response":"present","rt":1065,"correct":false,"confidence":2},{"trial_n":98,"min":77,"max":178,"target":"present","response":"present","rt":1908.9999999999,"correct":true,"confidence":4},{"trial_n":99,"min":77,"max":178,"target":"present","response":"present","rt":545,"correct":true,"confidence":5},{"trial_n":100,"min":81,"max":174,"target":"present","response":"present","rt":677,"correct":true,"confidence":5},{"trial_n":101,"min":81,"max":174,"target":"absent","response":"absent","rt":1681,"correct":true,"confidence":2},{"trial_n":102,"min":83,"max":172,"target":"absent","response":"absent","rt":617,"correct":true,"confidence":4},{"trial_n":103,"min":83,"max":172,"target":"absent","response":"present","rt":937.00000000006,"correct":false,"confidence":2},{"trial_n":104,"min":81,"max":174,"target":"present","response":"present","rt":1341.9999999999,"correct":true,"confidence":4},{"trial_n":105,"min":81,"max":174,"target":"present","response":"present","rt":1734.0000000001,"correct":true,"confidence":4},{"trial_n":106,"min":83,"max":172,"target":"present","response":"present","rt":601,"correct":true,"confidence":4},{"trial_n":107,"min":83,"max":172,"target":"present","response":"present","rt":735,"correct":true,"confidence":4},{"trial_n":108,"min":85,"max":170,"target":"present","response":"present","rt":896,"correct":true,"confidence":4},{"trial_n":109,"min":85,"max":170,"target":"present","response":"present","rt":628,"correct":true,"confidence":3},{"trial_n":110,"min":87,"max":168,"target":"absent","response":"present","rt":1176,"correct":false,"confidence":2},{"trial_n":111,"min":86,"max":169,"target":"absent","response":"absent","rt":1326,"correct":true,"confidence":3},{"trial_n":112,"min":86,"max":169,"target":"absent","response":"present","rt":1205,"correct":false,"confidence":2},{"trial_n":113,"min":85,"max":170,"target":"present","response":"present","rt":4990,"correct":true,"confidence":2},{"trial_n":114,"min":85,"max":170,"target":"present","response":"present","rt":845.99999999994,"correct":true,"confidence":3},{"trial_n":115,"min":86,"max":169,"target":"present","response":"present","rt":721.99999999994,"correct":true,"confidence":3},{"trial_n":116,"min":86,"max":169,"target":"absent","response":"present","rt":565,"correct":false,"confidence":3},{"trial_n":117,"min":85,"max":170,"target":"absent","response":"absent","rt":1078.9999999999,"correct":true,"confidence":2},{"trial_n":118,"min":85,"max":170,"target":"absent","response":"present","rt":969,"correct":false,"confidence":2},{"trial_n":119,"min":84,"max":171,"target":"absent","response":"present","rt":777,"correct":false,"confidence":1},{"trial_n":120,"min":83,"max":172,"target":"present","response":"present","rt":533,"correct":true,"confidence":4},{"trial_n":121,"min":83,"max":172,"target":"present","response":"present","rt":810,"correct":true,"confidence":4},{"trial_n":122,"min":84,"max":171,"target":"absent","response":"absent","rt":865.99999999994,"correct":true,"confidence":3},{"trial_n":123,"min":84,"max":171,"target":"present","response":"present","rt":1303,"correct":true,"confidence":4},{"trial_n":124,"min":85,"max":170,"target":"present","response":"present","rt":816.00000000006,"correct":true,"confidence":4},{"trial_n":125,"min":85,"max":170,"target":"present","response":"present","rt":511,"correct":true,"confidence":4},{"trial_n":126,"min":86,"max":169,"target":"present","response":"present","rt":597.99999999994,"correct":true,"confidence":4},{"trial_n":127,"min":86,"max":169,"target":"absent","response":"present","rt":1132,"correct":false,"confidence":2},{"trial_n":128,"min":85,"max":170,"target":"absent","response":"absent","rt":972.99999999994,"correct":true,"confidence":3},{"trial_n":129,"min":85,"max":170,"target":"present","response":"present","rt":614,"correct":true,"confidence":3},{"trial_n":130,"min":86,"max":169,"target":"present","response":"present","rt":519,"correct":true,"confidence":3},{"trial_n":131,"min":86,"max":169,"target":"absent","response":"present","rt":786,"correct":false,"confidence":1},{"trial_n":132,"min":85,"max":170,"target":"absent","response":"present","rt":778,"correct":false,"confidence":2},{"trial_n":133,"min":84,"max":171,"target":"absent","response":"absent","rt":949,"correct":true,"confidence":3},{"trial_n":134,"min":84,"max":171,"target":"absent","response":"present","rt":1297.0000000001,"correct":false,"confidence":2},{"trial_n":135,"min":83,"max":172,"target":"absent","response":"present","rt":512,"correct":false,"confidence":2},{"trial_n":136,"min":82,"max":173,"target":"present","response":"present","rt":511,"correct":true,"confidence":4},{"trial_n":137,"min":82,"max":173,"target":"present","response":"present","rt":333,"correct":true,"confidence":4},{"trial_n":138,"min":83,"max":172,"target":"present","response":"present","rt":474,"correct":true,"confidence":5},{"trial_n":139,"min":83,"max":172,"target":"present","response":"present","rt":691,"correct":true,"confidence":4},{"trial_n":140,"min":84,"max":171,"target":"absent","response":"absent","rt":919.00000000006,"correct":true,"confidence":4}]