[{"trial_n":1,"span":8,"encoder":"76499140","distractor":"76459140","target":"present","response":"absent","rt":"4290","correct":false,"confidence":-1},{"trial_n":2,"span":6,"encoder":"824146","distractor":"821146","target":"present","response":"present","rt":"1330","correct":true,"confidence":-1},{"trial_n":3,"span":6,"encoder":"053884","distractor":"053384","target":"absent","response":"present","rt":"1708","correct":false,"confidence":-1},{"trial_n":4,"span":4,"encoder":"4836","distractor":"4856","target":"absent","response":"absent","rt":"1611","correct":true,"confidence":-1},{"trial_n":5,"span":4,"encoder":"2106","distractor":"9106","target":"present","response":"present","rt":"1594","correct":true,"confidence":-1},{"trial_n":6,"span":6,"encoder":"312447","distractor":"316447","target":"absent","response":"absent","rt":"3371","correct":true,"confidence":-1},{"trial_n":7,"span":6,"encoder":"039513","distractor":"039503","target":"present","response":"present","rt":"1741","correct":true,"confidence":-1},{"trial_n":8,"span":8,"encoder":"71549658","distractor":"71449658","target":"present","response":"present","rt":"1456","correct":true,"confidence":-1},{"trial_n":9,"span":8,"encoder":"24959336","distractor":"24929336","target":"absent","response":"present","rt":"1266","correct":false,"confidence":-1},{"trial_n":10,"span":6,"encoder":"988451","distractor":"988461","target":"absent","response":"present","rt":"1177","correct":false,"confidence":-1},{"trial_n":11,"span":4,"encoder":"8694","distractor":"8690","target":"absent","response":"present","rt":"2582","correct":false,"confidence":-1},{"trial_n":12,"span":3,"encoder":"094","distractor":"098","target":"present","response":"present","rt":"1244","correct":true,"confidence":-1},{"trial_n":13,"span":3,"encoder":"999","distractor":"995","target":"absent","response":"absent","rt":"1310","correct":true,"confidence":-1},{"trial_n":14,"span":4,"encoder":"4515","distractor":"4516","target":"absent","response":"absent","rt":"1506","correct":true,"confidence":-1},{"trial_n":15,"span":4,"encoder":"8734","distractor":"8736","target":"present","response":"present","rt":"2064","correct":true,"confidence":-1},{"trial_n":16,"span":5,"encoder":"45309","distractor":"43309","target":"present","response":"present","rt":"1463","correct":true,"confidence":-1},{"trial_n":17,"span":5,"encoder":"18155","distractor":"18855","target":"absent","response":"present","rt":"3284","correct":false,"confidence":-1},{"trial_n":18,"span":4,"encoder":"0539","distractor":"0531","target":"absent","response":"absent","rt":"1195","correct":true,"confidence":-1},{"trial_n":19,"span":4,"encoder":"2269","distractor":"2299","target":"present","response":"present","rt":"1913","correct":true,"confidence":-1},{"trial_n":20,"span":5,"encoder":"99728","distractor":"89728","target":"absent","response":"present","rt":"1745","correct":false,"confidence":-1},{"trial_n":21,"span":4,"encoder":"0184","distractor":"0084","target":"absent","response":"absent","rt":"1739","correct":true,"confidence":5},{"trial_n":22,"span":4,"encoder":"9396","distractor":"9356","target":"present","response":"present","rt":"1508","correct":true,"confidence":5},{"trial_n":23,"span":5,"encoder":"44300","distractor":"44301","target":"present","response":"absent","rt":"1466","correct":false,"confidence":4},{"trial_n":24,"span":4,"encoder":"8515","distractor":"8535","target":"present","response":"present","rt":"1808","correct":true,"confidence":5},{"trial_n":25,"span":4,"encoder":"6089","distractor":"6085","target":"present","response":"present","rt":"1471","correct":true,"confidence":5},{"trial_n":26,"span":5,"encoder":"50601","distractor":"59601","target":"present","response":"present","rt":"1913","correct":true,"confidence":5},{"trial_n":27,"span":5,"encoder":"16812","distractor":"16612","target":"absent","response":"absent","rt":"1742","correct":true,"confidence":5},{"trial_n":28,"span":6,"encoder":"885448","distractor":"885408","target":"present","response":"present","rt":"3044","correct":true,"confidence":4},{"trial_n":29,"span":6,"encoder":"198058","distractor":"098058","target":"present","response":"present","rt":"2243","correct":true,"confidence":4},{"trial_n":30,"span":7,"encoder":"3318843","distractor":"3318643","target":"present","response":"present","rt":"2545","correct":true,"confidence":4},{"trial_n":31,"span":7,"encoder":"8100496","distractor":"8102496","target":"absent","response":"absent","rt":"1650","correct":true,"confidence":5},{"trial_n":32,"span":8,"encoder":"16579424","distractor":"16579474","target":"absent","response":"absent","rt":"2893","correct":true,"confidence":3},{"trial_n":33,"span":8,"encoder":"35026175","distractor":"35126175","target":"absent","response":"present","rt":"3137","correct":false,"confidence":3},{"trial_n":34,"span":7,"encoder":"0546898","distractor":"0546878","target":"absent","response":"absent","rt":"2139","correct":true,"confidence":4},{"trial_n":35,"span":7,"encoder":"0860865","distractor":"3860865","target":"present","response":"present","rt":"3600","correct":true,"confidence":4},{"trial_n":36,"span":8,"encoder":"25566003","distractor":"75566003","target":"present","response":"present","rt":"2826","correct":true,"confidence":4},{"trial_n":37,"span":8,"encoder":"16672236","distractor":"46672236","target":"present","response":"present","rt":"2601","correct":true,"confidence":3},{"trial_n":38,"span":9,"encoder":"045015517","distractor":"045075517","target":"present","response":"absent","rt":"8120","correct":false,"confidence":2},{"trial_n":39,"span":8,"encoder":"83495941","distractor":"83435941","target":"present","response":"present","rt":"2118","correct":true,"confidence":3},{"trial_n":40,"span":8,"encoder":"39470537","distractor":"39470737","target":"absent","response":"absent","rt":"4059.9999999999","correct":true,"confidence":2},{"trial_n":41,"span":9,"encoder":"846236313","distractor":"846236312","target":"present","response":"present","rt":"5684","correct":true,"confidence":3},{"trial_n":42,"span":9,"encoder":"445258229","distractor":"475258229","target":"absent","response":"absent","rt":"3716","correct":true,"confidence":2},{"trial_n":43,"span":10,"encoder":"0521483077","distractor":"0521683077","target":"present","response":"present","rt":"7949","correct":true,"confidence":2},{"trial_n":44,"span":10,"encoder":"8318955079","distractor":"8318955074","target":"absent","response":"absent","rt":"4048","correct":true,"confidence":3},{"trial_n":45,"span":11,"encoder":"95825152773","distractor":"95825352773","target":"present","response":"present","rt":"1907","correct":true,"confidence":2},{"trial_n":46,"span":11,"encoder":"60693845178","distractor":"69693845178","target":"absent","response":"present","rt":"15471","correct":false,"confidence":3},{"trial_n":47,"span":10,"encoder":"0745073699","distractor":"0745073499","target":"present","response":"present","rt":"3134","correct":true,"confidence":4},{"trial_n":48,"span":10,"encoder":"2243025971","distractor":"2243025471","target":"present","response":"present","rt":"1435","correct":true,"confidence":3},{"trial_n":49,"span":11,"encoder":"38532672437","distractor":"38532672431","target":"absent","response":"absent","rt":"1800.0000000001","correct":true,"confidence":4},{"trial_n":50,"span":11,"encoder":"65925204753","distractor":"65925204713","target":"absent","response":"absent","rt":"4504","correct":true,"confidence":3},{"trial_n":51,"span":12,"encoder":"216015140801","distractor":"216015148801","target":"absent","response":"absent","rt":"7010.0000000001","correct":true,"confidence":4},{"trial_n":52,"span":12,"encoder":"252949285957","distractor":"552949285957","target":"absent","response":"absent","rt":"2081","correct":true,"confidence":3},{"trial_n":53,"span":13,"encoder":"0789146401331","distractor":"0789946401331","target":"absent","response":"present","rt":"4426.9999999999","correct":false,"confidence":2},{"trial_n":54,"span":12,"encoder":"660215562788","distractor":"660215062788","target":"present","response":"present","rt":"2315.9999999999","correct":true,"confidence":2},{"trial_n":55,"span":12,"encoder":"845725690978","distractor":"845725590978","target":"absent","response":"present","rt":"3754","correct":false,"confidence":3},{"trial_n":56,"span":11,"encoder":"55149370390","distractor":"55149370392","target":"present","response":"present","rt":"3366","correct":true,"confidence":3},{"trial_n":57,"span":11,"encoder":"85356261708","distractor":"85456261708","target":"absent","response":"present","rt":"3445.9999999999","correct":false,"confidence":2},{"trial_n":58,"span":10,"encoder":"5307947382","distractor":"5307947352","target":"present","response":"present","rt":"2826","correct":true,"confidence":2},{"trial_n":59,"span":10,"encoder":"2193421406","distractor":"2193461406","target":"present","response":"present","rt":"5477","correct":true,"confidence":2},{"trial_n":60,"span":11,"encoder":"51885124761","distractor":"51885104761","target":"absent","response":"absent","rt":"2716","correct":true,"confidence":2},{"trial_n":61,"span":11,"encoder":"10552488624","distractor":"10452488624","target":"present","response":"present","rt":"4398","correct":true,"confidence":3},{"trial_n":62,"span":12,"encoder":"437451732981","distractor":"437451732781","target":"absent","response":"absent","rt":"2490","correct":true,"confidence":2},{"trial_n":63,"span":12,"encoder":"477349330235","distractor":"477349300235","target":"present","response":"present","rt":"4997.9999999999","correct":true,"confidence":2},{"trial_n":64,"span":13,"encoder":"8434548202799","distractor":"8434148202799","target":"present","response":"present","rt":"5398","correct":true,"confidence":3},{"trial_n":65,"span":13,"encoder":"3266000500468","distractor":"3266000500464","target":"absent","response":"present","rt":"1603","correct":false,"confidence":3},{"trial_n":66,"span":12,"encoder":"837143372239","distractor":"837143322239","target":"absent","response":"absent","rt":"2356","correct":true,"confidence":3},{"trial_n":67,"span":12,"encoder":"891938492705","distractor":"891938492703","target":"present","response":"present","rt":"2736.0000000001","correct":true,"confidence":2},{"trial_n":68,"span":13,"encoder":"0330816472973","distractor":"0330886472973","target":"absent","response":"absent","rt":"4424.9999999999","correct":true,"confidence":2},{"trial_n":69,"span":13,"encoder":"6849517199207","distractor":"6849567199207","target":"present","response":"present","rt":"1871","correct":true,"confidence":3},{"trial_n":70,"span":14,"encoder":"56869354818008","distractor":"56869334818008","target":"absent","response":"present","rt":"3418","correct":false,"confidence":2},{"trial_n":71,"span":8,"encoder":"73755884","distractor":"79755884","target":"present","response":"present","rt":"6977","correct":true,"confidence":-1},{"trial_n":72,"span":8,"encoder":"27141234","distractor":"27841234","target":"present","response":"present","rt":"3020.9999999999","correct":true,"confidence":-1},{"trial_n":73,"span":9,"encoder":"416822394","distractor":"416622394","target":"absent","response":"absent","rt":"1762","correct":true,"confidence":-1},{"trial_n":74,"span":9,"encoder":"320278306","distractor":"320378306","target":"absent","response":"absent","rt":"1868","correct":true,"confidence":-1},{"trial_n":75,"span":10,"encoder":"1473522527","distractor":"2473522527","target":"present","response":"absent","rt":"4047.0000000001","correct":false,"confidence":-1},{"trial_n":76,"span":9,"encoder":"305375653","distractor":"305325653","target":"absent","response":"present","rt":"4210","correct":false,"confidence":-1},{"trial_n":77,"span":8,"encoder":"27245588","distractor":"27247588","target":"absent","response":"present","rt":"8263","correct":false,"confidence":-1},{"trial_n":78,"span":7,"encoder":"6170913","distractor":"6170613","target":"absent","response":"absent","rt":"2908","correct":true,"confidence":-1},{"trial_n":79,"span":7,"encoder":"1093384","distractor":"1083384","target":"present","response":"present","rt":"3123.0000000001","correct":true,"confidence":-1},{"trial_n":80,"span":8,"encoder":"33643654","distractor":"33643154","target":"absent","response":"absent","rt":"2886","correct":true,"confidence":-1},{"trial_n":81,"span":8,"encoder":"73144806","distractor":"73142806","target":"absent","response":"absent","rt":"1854","correct":true,"confidence":-1},{"trial_n":82,"span":9,"encoder":"533034126","distractor":"523034126","target":"absent","response":"absent","rt":"1678","correct":true,"confidence":-1},{"trial_n":83,"span":9,"encoder":"030327335","distractor":"030397335","target":"absent","response":"absent","rt":"4194","correct":true,"confidence":-1},{"trial_n":84,"span":10,"encoder":"2351568524","distractor":"2351068524","target":"present","response":"absent","rt":"6036","correct":false,"confidence":-1},{"trial_n":85,"span":9,"encoder":"580054387","distractor":"480054387","target":"present","response":"present","rt":"3375","correct":true,"confidence":-1},{"trial_n":86,"span":9,"encoder":"892381804","distractor":"892381807","target":"absent","response":"absent","rt":"1387","correct":true,"confidence":-1},{"trial_n":87,"span":10,"encoder":"0458237781","distractor":"0258237781","target":"present","response":"present","rt":"3736","correct":true,"confidence":-1},{"trial_n":88,"span":10,"encoder":"6907423054","distractor":"6904423054","target":"absent","response":"absent","rt":"4637","correct":true,"confidence":-1},{"trial_n":89,"span":11,"encoder":"71972920397","distractor":"71772920397","target":"present","response":"present","rt":"6538","correct":true,"confidence":-1},{"trial_n":90,"span":11,"encoder":"64824514569","distractor":"64822514569","target":"present","response":"present","rt":"1959.0000000001","correct":true,"confidence":-1},{"trial_n":91,"span":12,"encoder":"979552683503","distractor":"977552683503","target":"absent","response":"absent","rt":"1846","correct":true,"confidence":4},{"trial_n":92,"span":12,"encoder":"401826760762","distractor":"401806760762","target":"present","response":"absent","rt":"8367","correct":false,"confidence":3},{"trial_n":93,"span":11,"encoder":"92182616849","distractor":"92182676849","target":"present","response":"present","rt":"6402","correct":true,"confidence":2},{"trial_n":94,"span":11,"encoder":"95873580103","distractor":"95873480103","target":"absent","response":"present","rt":"7276.0000000001","correct":false,"confidence":2},{"trial_n":95,"span":10,"encoder":"0298006001","distractor":"0293006001","target":"present","response":"present","rt":"3451","correct":true,"confidence":4},{"trial_n":96,"span":10,"encoder":"7318083459","distractor":"7308083459","target":"absent","response":"present","rt":"3544","correct":false,"confidence":3},{"trial_n":97,"span":9,"encoder":"015868619","distractor":"015868419","target":"absent","response":"absent","rt":"3262","correct":true,"confidence":4},{"trial_n":98,"span":9,"encoder":"981735996","distractor":"981035996","target":"absent","response":"present","rt":"11371","correct":false,"confidence":2},{"trial_n":99,"span":8,"encoder":"66989478","distractor":"36989478","target":"present","response":"present","rt":"2096.9999999999","correct":true,"confidence":4},{"trial_n":100,"span":8,"encoder":"79537990","distractor":"79530990","target":"absent","response":"absent","rt":"2651.0000000001","correct":true,"confidence":4},{"trial_n":101,"span":9,"encoder":"101272812","distractor":"108272812","target":"absent","response":"absent","rt":"2144","correct":true,"confidence":4},{"trial_n":102,"span":9,"encoder":"523432250","distractor":"524432250","target":"present","response":"present","rt":"2812","correct":true,"confidence":3},{"trial_n":103,"span":10,"encoder":"2243873606","distractor":"2243873608","target":"present","response":"present","rt":"4953.9999999998","correct":true,"confidence":3},{"trial_n":104,"span":10,"encoder":"3979750480","distractor":"3979050480","target":"absent","response":"present","rt":"8653","correct":false,"confidence":3},{"trial_n":105,"span":9,"encoder":"857546177","distractor":"857536177","target":"absent","response":"absent","rt":"10897","correct":true,"confidence":2},{"trial_n":106,"span":9,"encoder":"027790069","distractor":"027790369","target":"present","response":"present","rt":"5239","correct":true,"confidence":3},{"trial_n":107,"span":10,"encoder":"8951208465","distractor":"8951208485","target":"absent","response":"absent","rt":"2225.0000000002","correct":true,"confidence":4},{"trial_n":108,"span":10,"encoder":"1197064560","distractor":"1197064360","target":"present","response":"absent","rt":"7801.0000000002","correct":false,"confidence":3},{"trial_n":109,"span":9,"encoder":"123635744","distractor":"133635744","target":"present","response":"present","rt":"2509.9999999998","correct":true,"confidence":4},{"trial_n":110,"span":9,"encoder":"712401736","distractor":"912401736","target":"absent","response":"absent","rt":"2780","correct":true,"confidence":3},{"trial_n":111,"span":10,"encoder":"1896668584","distractor":"1896168584","target":"present","response":"present","rt":"1637","correct":true,"confidence":4},{"trial_n":112,"span":10,"encoder":"1154119212","distractor":"1184119212","target":"absent","response":"present","rt":"9362","correct":false,"confidence":2},{"trial_n":113,"span":9,"encoder":"937569614","distractor":"937569114","target":"present","response":"present","rt":"2265","correct":true,"confidence":3},{"trial_n":114,"span":9,"encoder":"920763654","distractor":"920763854","target":"present","response":"present","rt":"4219","correct":true,"confidence":3},{"trial_n":115,"span":10,"encoder":"6478532753","distractor":"6478532756","target":"absent","response":"absent","rt":"1504.9999999998","correct":true,"confidence":4},{"trial_n":116,"span":10,"encoder":"9604250811","distractor":"9604250812","target":"present","response":"present","rt":"1354","correct":true,"confidence":5},{"trial_n":117,"span":11,"encoder":"64519082355","distractor":"64519084355","target":"present","response":"present","rt":"8930","correct":true,"confidence":3},{"trial_n":118,"span":11,"encoder":"07036158112","distractor":"07036558112","target":"absent","response":"absent","rt":"6133","correct":true,"confidence":3},{"trial_n":119,"span":12,"encoder":"228633372436","distractor":"228633302436","target":"absent","response":"absent","rt":"5198","correct":true,"confidence":3},{"trial_n":120,"span":12,"encoder":"655571850716","distractor":"655371850716","target":"present","response":"present","rt":"4199","correct":true,"confidence":3},{"trial_n":121,"span":13,"encoder":"9342744255870","distractor":"1342744255870","target":"present","response":"present","rt":"6336","correct":true,"confidence":4},{"trial_n":122,"span":13,"encoder":"6865142947528","distractor":"6865642947528","target":"present","response":"present","rt":"6411.9999999998","correct":true,"confidence":3},{"trial_n":123,"span":14,"encoder":"67146141738404","distractor":"67146141738804","target":"absent","response":"absent","rt":"2291","correct":true,"confidence":4},{"trial_n":124,"span":14,"encoder":"75872802394417","distractor":"75870802394417","target":"present","response":"present","rt":"15992","correct":true,"confidence":2},{"trial_n":125,"span":15,"encoder":"628975522251275","distractor":"628975522281275","target":"present","response":"absent","rt":"11085","correct":false,"confidence":2},{"trial_n":126,"span":14,"encoder":"33398111038563","distractor":"33398131038563","target":"absent","response":"absent","rt":"2351","correct":true,"confidence":5},{"trial_n":127,"span":14,"encoder":"67264000029081","distractor":"67264007029081","target":"absent","response":"absent","rt":"1401","correct":true,"confidence":5},{"trial_n":128,"span":15,"encoder":"414218252880312","distractor":"414278252880312","target":"present","response":"absent","rt":"8859.9999999998","correct":false,"confidence":2},{"trial_n":129,"span":14,"encoder":"39695461266406","distractor":"39694461266406","target":"present","response":"present","rt":"3617","correct":true,"confidence":2},{"trial_n":130,"span":14,"encoder":"35667873536731","distractor":"35667873536131","target":"present","response":"present","rt":"6042","correct":true,"confidence":1},{"trial_n":131,"span":15,"encoder":"830348009050111","distractor":"830348009050161","target":"absent","response":"absent","rt":"1665","correct":true,"confidence":5},{"trial_n":132,"span":15,"encoder":"416551480441624","distractor":"416552480441624","target":"absent","response":"absent","rt":"7411","correct":true,"confidence":2},{"trial_n":133,"span":16,"encoder":"3358324902066367","distractor":"3358324902060367","target":"present","response":"present","rt":"2129.9999999998","correct":true,"confidence":4},{"trial_n":134,"span":16,"encoder":"7398725291884946","distractor":"7398725291884947","target":"present","response":"present","rt":"1506","correct":true,"confidence":4},{"trial_n":135,"span":17,"encoder":"08175652757679382","distractor":"08175652757679342","target":"absent","response":"absent","rt":"3818.9999999998","correct":true,"confidence":3},{"trial_n":136,"span":17,"encoder":"71607301755421472","distractor":"71607301755421482","target":"present","response":"present","rt":"5671","correct":true,"confidence":4},{"trial_n":137,"span":18,"encoder":"788777029798562868","distractor":"588777029798562868","target":"present","response":"present","rt":"3806","correct":true,"confidence":1},{"trial_n":138,"span":18,"encoder":"233376141090220576","distractor":"233378141090220576","target":"absent","response":"absent","rt":"10112","correct":true,"confidence":1},{"trial_n":139,"span":19,"encoder":"1474048897630666090","distractor":"1474048897630636090","target":"absent","response":"absent","rt":"2132","correct":true,"confidence":4},{"trial_n":140,"span":19,"encoder":"7386386527388485233","distractor":"7386586527388485233","target":"present","response":"present","rt":"6837","correct":true,"confidence":1}]