[{"trial_n":1,"n_dots":4.25,"target":"right","response":"left","rt":16782.899999857,"correct":false,"confidence":-1},{"trial_n":2,"n_dots":4.25,"target":"left","response":"left","rt":482.40000009537,"correct":true,"confidence":-1},{"trial_n":3,"n_dots":4.25,"target":"left","response":"left","rt":450.09999990463,"correct":true,"confidence":-1},{"trial_n":4,"n_dots":3.85,"target":"left","response":"left","rt":486.89999985695,"correct":true,"confidence":-1},{"trial_n":5,"n_dots":3.85,"target":"right","response":"left","rt":80.099999904633,"correct":false,"confidence":-1},{"trial_n":6,"n_dots":4.25,"target":"right","response":"right","rt":385.79999995232,"correct":true,"confidence":-1},{"trial_n":7,"n_dots":4.25,"target":"right","response":"right","rt":265.59999990463,"correct":true,"confidence":-1},{"trial_n":8,"n_dots":4.05,"target":"left","response":"left","rt":55,"correct":true,"confidence":-1},{"trial_n":9,"n_dots":4.05,"target":"right","response":"right","rt":567.29999995232,"correct":true,"confidence":-1},{"trial_n":10,"n_dots":3.85,"target":"left","response":"left","rt":452.29999995232,"correct":true,"confidence":-1},{"trial_n":11,"n_dots":3.85,"target":"left","response":"left","rt":249.89999985695,"correct":true,"confidence":-1},{"trial_n":12,"n_dots":3.65,"target":"right","response":"left","rt":334.09999990463,"correct":false,"confidence":-1},{"trial_n":13,"n_dots":3.75,"target":"right","response":"left","rt":363.39999985695,"correct":false,"confidence":-1},{"trial_n":14,"n_dots":3.85,"target":"right","response":"left","rt":442.79999995232,"correct":false,"confidence":-1},{"trial_n":15,"n_dots":3.95,"target":"right","response":"right","rt":404.39999985695,"correct":true,"confidence":-1},{"trial_n":16,"n_dots":3.95,"target":"left","response":"left","rt":465.60000014305,"correct":true,"confidence":-1},{"trial_n":17,"n_dots":3.85,"target":"right","response":"right","rt":464.20000004768,"correct":true,"confidence":-1},{"trial_n":18,"n_dots":3.85,"target":"left","response":"left","rt":84,"correct":true,"confidence":-1},{"trial_n":19,"n_dots":3.75,"target":"right","response":"left","rt":106.89999985695,"correct":false,"confidence":-1},{"trial_n":20,"n_dots":3.85,"target":"left","response":"left","rt":482.59999990463,"correct":true,"confidence":-1},{"trial_n":21,"n_dots":3.85,"target":"left","response":"left","rt":347.59999990463,"correct":true,"confidence":3},{"trial_n":22,"n_dots":3.75,"target":"right","response":"right","rt":351.70000004768,"correct":true,"confidence":3},{"trial_n":23,"n_dots":3.75,"target":"left","response":"left","rt":354.90000009537,"correct":true,"confidence":4},{"trial_n":24,"n_dots":3.65,"target":"right","response":"right","rt":328.59999990463,"correct":true,"confidence":4},{"trial_n":25,"n_dots":3.65,"target":"left","response":"left","rt":35.5,"correct":true,"confidence":4},{"trial_n":26,"n_dots":3.55,"target":"left","response":"left","rt":839,"correct":true,"confidence":3},{"trial_n":27,"n_dots":3.55,"target":"right","response":"left","rt":361.80000019073,"correct":false,"confidence":2},{"trial_n":28,"n_dots":3.65,"target":"left","response":"left","rt":1047.2000000477,"correct":true,"confidence":2},{"trial_n":29,"n_dots":3.65,"target":"left","response":"left","rt":374,"correct":true,"confidence":3},{"trial_n":30,"n_dots":3.55,"target":"right","response":"left","rt":360.79999995232,"correct":false,"confidence":4},{"trial_n":31,"n_dots":3.65,"target":"left","response":"left","rt":418.79999995232,"correct":true,"confidence":4},{"trial_n":32,"n_dots":3.65,"target":"right","response":"right","rt":1822.5,"correct":true,"confidence":2},{"trial_n":33,"n_dots":3.55,"target":"right","response":"left","rt":770.10000014305,"correct":false,"confidence":2},{"trial_n":34,"n_dots":3.65,"target":"right","response":"right","rt":350.59999990463,"correct":true,"confidence":3},{"trial_n":35,"n_dots":3.65,"target":"right","response":"right","rt":465.40000009537,"correct":true,"confidence":2},{"trial_n":36,"n_dots":3.55,"target":"left","response":"left","rt":335.89999985695,"correct":true,"confidence":4},{"trial_n":37,"n_dots":3.55,"target":"left","response":"left","rt":311.70000004768,"correct":true,"confidence":3},{"trial_n":38,"n_dots":3.45,"target":"left","response":"left","rt":325.79999995232,"correct":true,"confidence":3},{"trial_n":39,"n_dots":3.45,"target":"left","response":"left","rt":484,"correct":true,"confidence":3},{"trial_n":40,"n_dots":3.35,"target":"left","response":"left","rt":498.60000014305,"correct":true,"confidence":4},{"trial_n":41,"n_dots":3.35,"target":"left","response":"right","rt":884.59999990463,"correct":false,"confidence":2},{"trial_n":42,"n_dots":3.45,"target":"right","response":"left","rt":263.70000004768,"correct":false,"confidence":3},{"trial_n":43,"n_dots":3.55,"target":"left","response":"left","rt":405,"correct":true,"confidence":2},{"trial_n":44,"n_dots":3.55,"target":"right","response":"right","rt":1065.2000000477,"correct":true,"confidence":3},{"trial_n":45,"n_dots":3.45,"target":"left","response":"left","rt":225.40000009537,"correct":true,"confidence":3},{"trial_n":46,"n_dots":3.45,"target":"right","response":"right","rt":1522.1000001431,"correct":true,"confidence":2},{"trial_n":47,"n_dots":3.35,"target":"right","response":"right","rt":218.19999980927,"correct":true,"confidence":4},{"trial_n":48,"n_dots":3.35,"target":"right","response":"left","rt":142.70000004768,"correct":false,"confidence":3},{"trial_n":49,"n_dots":3.45,"target":"right","response":"right","rt":431.29999995232,"correct":true,"confidence":3},{"trial_n":50,"n_dots":3.45,"target":"right","response":"right","rt":528,"correct":true,"confidence":2},{"trial_n":51,"n_dots":3.35,"target":"right","response":"left","rt":392.59999990463,"correct":false,"confidence":3},{"trial_n":52,"n_dots":3.45,"target":"left","response":"left","rt":296.19999980927,"correct":true,"confidence":3},{"trial_n":53,"n_dots":3.45,"target":"right","response":"right","rt":293.70000004768,"correct":true,"confidence":3},{"trial_n":54,"n_dots":3.35,"target":"left","response":"left","rt":1306.1000001431,"correct":true,"confidence":3},{"trial_n":55,"n_dots":3.35,"target":"left","response":"right","rt":819.29999995232,"correct":false,"confidence":2},{"trial_n":56,"n_dots":3.45,"target":"right","response":"right","rt":248.40000009537,"correct":true,"confidence":3},{"trial_n":57,"n_dots":3.45,"target":"left","response":"left","rt":577.20000004768,"correct":true,"confidence":4},{"trial_n":58,"n_dots":3.35,"target":"left","response":"left","rt":1051.1999998093,"correct":true,"confidence":4},{"trial_n":59,"n_dots":3.35,"target":"left","response":"left","rt":656.19999980927,"correct":true,"confidence":3},{"trial_n":60,"n_dots":3.25,"target":"right","response":"left","rt":1143.6999998093,"correct":false,"confidence":4},{"trial_n":61,"n_dots":3.35,"target":"left","response":"left","rt":470.60000014305,"correct":true,"confidence":3},{"trial_n":62,"n_dots":3.35,"target":"right","response":"right","rt":382.20000004768,"correct":true,"confidence":3},{"trial_n":63,"n_dots":3.25,"target":"left","response":"left","rt":150.80000019073,"correct":true,"confidence":4},{"trial_n":64,"n_dots":3.25,"target":"left","response":"left","rt":470.5,"correct":true,"confidence":2},{"trial_n":65,"n_dots":3.15,"target":"left","response":"left","rt":299.29999995232,"correct":true,"confidence":3},{"trial_n":66,"n_dots":3.15,"target":"left","response":"left","rt":383.79999995232,"correct":true,"confidence":3},{"trial_n":67,"n_dots":3.05,"target":"left","response":"left","rt":317.5,"correct":true,"confidence":4},{"trial_n":68,"n_dots":3.05,"target":"right","response":"right","rt":729.80000019073,"correct":true,"confidence":2},{"trial_n":69,"n_dots":2.95,"target":"right","response":"left","rt":315.29999995232,"correct":false,"confidence":2},{"trial_n":70,"n_dots":3.05,"target":"left","response":"left","rt":519.29999995232,"correct":true,"confidence":2},{"trial_n":71,"n_dots":3.05,"target":"right","response":"right","rt":341.29999995232,"correct":true,"confidence":3},{"trial_n":72,"n_dots":2.95,"target":"right","response":"right","rt":305.89999985695,"correct":true,"confidence":3},{"trial_n":73,"n_dots":2.95,"target":"right","response":"right","rt":337.79999995232,"correct":true,"confidence":2},{"trial_n":74,"n_dots":2.85,"target":"left","response":"right","rt":3680.1000001431,"correct":false,"confidence":1},{"trial_n":75,"n_dots":2.95,"target":"left","response":"left","rt":738.5,"correct":true,"confidence":2},{"trial_n":76,"n_dots":2.95,"target":"left","response":"right","rt":653.10000014305,"correct":false,"confidence":2},{"trial_n":77,"n_dots":3.05,"target":"right","response":"right","rt":993.69999980927,"correct":true,"confidence":2},{"trial_n":78,"n_dots":3.05,"target":"left","response":"left","rt":1149.5,"correct":true,"confidence":2},{"trial_n":79,"n_dots":2.95,"target":"left","response":"left","rt":2173.4000000954,"correct":true,"confidence":1},{"trial_n":80,"n_dots":2.95,"target":"left","response":"left","rt":684.39999985695,"correct":true,"confidence":3},{"trial_n":81,"n_dots":2.85,"target":"right","response":"left","rt":658.10000014305,"correct":false,"confidence":3},{"trial_n":82,"n_dots":2.95,"target":"right","response":"right","rt":880,"correct":true,"confidence":2},{"trial_n":83,"n_dots":2.95,"target":"right","response":"right","rt":424.60000014305,"correct":true,"confidence":3},{"trial_n":84,"n_dots":2.85,"target":"left","response":"left","rt":1096.8999998569,"correct":true,"confidence":1},{"trial_n":85,"n_dots":2.85,"target":"left","response":"right","rt":179.59999990463,"correct":false,"confidence":2},{"trial_n":86,"n_dots":2.95,"target":"left","response":"right","rt":36.599999904633,"correct":false,"confidence":3},{"trial_n":87,"n_dots":3.05,"target":"right","response":"right","rt":1066.4000000954,"correct":true,"confidence":3},{"trial_n":88,"n_dots":3.05,"target":"right","response":"right","rt":1508.2000000477,"correct":true,"confidence":1},{"trial_n":89,"n_dots":2.95,"target":"left","response":"right","rt":363.5,"correct":false,"confidence":1},{"trial_n":90,"n_dots":3.05,"target":"right","response":"right","rt":270.90000009537,"correct":true,"confidence":3},{"trial_n":91,"n_dots":3.05,"target":"left","response":"left","rt":704.09999990463,"correct":true,"confidence":1},{"trial_n":92,"n_dots":2.95,"target":"right","response":"right","rt":1323.2000000477,"correct":true,"confidence":2},{"trial_n":93,"n_dots":2.95,"target":"left","response":"left","rt":1355.4000000954,"correct":true,"confidence":2},{"trial_n":94,"n_dots":2.85,"target":"right","response":"right","rt":445.70000004768,"correct":true,"confidence":3},{"trial_n":95,"n_dots":2.85,"target":"left","response":"left","rt":583.39999985695,"correct":true,"confidence":2},{"trial_n":96,"n_dots":2.75,"target":"right","response":"right","rt":225.59999990463,"correct":true,"confidence":2},{"trial_n":97,"n_dots":2.75,"target":"left","response":"right","rt":387.10000014305,"correct":false,"confidence":1},{"trial_n":98,"n_dots":2.85,"target":"right","response":"left","rt":1071.9000000954,"correct":false,"confidence":1},{"trial_n":99,"n_dots":2.95,"target":"left","response":"left","rt":585,"correct":true,"confidence":1},{"trial_n":100,"n_dots":2.95,"target":"right","response":"right","rt":721.90000009537,"correct":true,"confidence":2},{"trial_n":101,"n_dots":2.85,"target":"left","response":"left","rt":1159.0999999046,"correct":true,"confidence":2},{"trial_n":102,"n_dots":2.85,"target":"right","response":"right","rt":416.30000019073,"correct":true,"confidence":1},{"trial_n":103,"n_dots":2.75,"target":"right","response":"right","rt":410.70000004768,"correct":true,"confidence":1},{"trial_n":104,"n_dots":2.75,"target":"right","response":"left","rt":166,"correct":false,"confidence":1},{"trial_n":105,"n_dots":2.85,"target":"left","response":"left","rt":558.20000004768,"correct":true,"confidence":1},{"trial_n":106,"n_dots":2.85,"target":"right","response":"left","rt":465.40000009537,"correct":false,"confidence":1},{"trial_n":107,"n_dots":2.95,"target":"left","response":"left","rt":625.10000014305,"correct":true,"confidence":1},{"trial_n":108,"n_dots":2.95,"target":"left","response":"left","rt":379.90000009537,"correct":true,"confidence":1},{"trial_n":109,"n_dots":2.85,"target":"right","response":"left","rt":62.599999904633,"correct":false,"confidence":1},{"trial_n":110,"n_dots":2.95,"target":"left","response":"left","rt":363.40000009537,"correct":true,"confidence":1},{"trial_n":111,"n_dots":2.95,"target":"right","response":"left","rt":95,"correct":false,"confidence":1},{"trial_n":112,"n_dots":3.05,"target":"right","response":"right","rt":504,"correct":true,"confidence":1},{"trial_n":113,"n_dots":3.05,"target":"right","response":"right","rt":595,"correct":true,"confidence":1},{"trial_n":114,"n_dots":2.95,"target":"left","response":"left","rt":487.70000004768,"correct":true,"confidence":1},{"trial_n":115,"n_dots":2.95,"target":"right","response":"right","rt":310.90000009537,"correct":true,"confidence":1},{"trial_n":116,"n_dots":2.85,"target":"right","response":"left","rt":185.40000009537,"correct":false,"confidence":1},{"trial_n":117,"n_dots":2.95,"target":"left","response":"left","rt":333.20000004768,"correct":true,"confidence":1},{"trial_n":118,"n_dots":2.95,"target":"right","response":"right","rt":226.90000009537,"correct":true,"confidence":1},{"trial_n":119,"n_dots":2.85,"target":"left","response":"right","rt":602.60000014305,"correct":false,"confidence":1},{"trial_n":120,"n_dots":2.95,"target":"right","response":"right","rt":105.90000009537,"correct":true,"confidence":1}]