[{"trial_n":1,"span":8,"encoder":"10046109","distractor":"10046106","target":"present","response":"present","rt":"7748.3999998569","correct":true,"confidence":-1},{"trial_n":2,"span":8,"encoder":"32746506","distractor":"32740506","target":"present","response":"present","rt":"4510.9000000954","correct":true,"confidence":-1},{"trial_n":3,"span":10,"encoder":"5608841639","distractor":"5708841639","target":"absent","response":"absent","rt":"6353.1000001431","correct":true,"confidence":-1},{"trial_n":4,"span":10,"encoder":"9513312015","distractor":"9513312915","target":"absent","response":"absent","rt":"2295.7999999523","correct":true,"confidence":-1},{"trial_n":5,"span":12,"encoder":"459780080138","distractor":"459780080128","target":"present","response":"present","rt":"3758.4000000954","correct":true,"confidence":-1},{"trial_n":6,"span":12,"encoder":"954057247305","distractor":"954057247375","target":"absent","response":"absent","rt":"1708.2999999523","correct":true,"confidence":-1},{"trial_n":7,"span":14,"encoder":"48637097630446","distractor":"48639097630446","target":"present","response":"absent","rt":"2708","correct":false,"confidence":-1},{"trial_n":8,"span":12,"encoder":"205832384753","distractor":"205834384753","target":"absent","response":"present","rt":"3135.1000001431","correct":false,"confidence":-1},{"trial_n":9,"span":10,"encoder":"2690580801","distractor":"2690580501","target":"absent","response":"absent","rt":"3407.2000000477","correct":true,"confidence":-1},{"trial_n":10,"span":10,"encoder":"7459721091","distractor":"7429721091","target":"absent","response":"absent","rt":"2234.5999999046","correct":true,"confidence":-1},{"trial_n":11,"span":12,"encoder":"537710259475","distractor":"537710259455","target":"absent","response":"absent","rt":"3991.0999999046","correct":true,"confidence":-1},{"trial_n":12,"span":12,"encoder":"855060723361","distractor":"855060823361","target":"present","response":"present","rt":"2037.8999998569","correct":true,"confidence":-1},{"trial_n":13,"span":13,"encoder":"2893424781046","distractor":"2893424781846","target":"present","response":"present","rt":"1971","correct":true,"confidence":-1},{"trial_n":14,"span":13,"encoder":"4695646340628","distractor":"4695646342628","target":"absent","response":"present","rt":"1749.5","correct":false,"confidence":-1},{"trial_n":15,"span":12,"encoder":"107633881480","distractor":"107633381480","target":"absent","response":"absent","rt":"2560.6000001431","correct":true,"confidence":-1},{"trial_n":16,"span":12,"encoder":"359807379855","distractor":"359807379852","target":"present","response":"present","rt":"4507.0999999046","correct":true,"confidence":-1},{"trial_n":17,"span":13,"encoder":"6469436285793","distractor":"6469432285793","target":"present","response":"present","rt":"2967.0999999046","correct":true,"confidence":-1},{"trial_n":18,"span":13,"encoder":"9076182275598","distractor":"9076282275598","target":"present","response":"present","rt":"2512.2000000477","correct":true,"confidence":-1},{"trial_n":19,"span":14,"encoder":"87809352749868","distractor":"87801352749868","target":"present","response":"present","rt":"1049","correct":true,"confidence":-1},{"trial_n":20,"span":14,"encoder":"02258477426798","distractor":"02258477428798","target":"absent","response":"present","rt":"1859.7000000477","correct":false,"confidence":-1},{"trial_n":21,"span":13,"encoder":"6826277917707","distractor":"6826277917705","target":"present","response":"present","rt":"2120.2999999523","correct":true,"confidence":3},{"trial_n":22,"span":13,"encoder":"0691355183103","distractor":"0491355183103","target":"absent","response":"present","rt":"5083.4000000954","correct":false,"confidence":2},{"trial_n":23,"span":12,"encoder":"406770974901","distractor":"436770974901","target":"absent","response":"present","rt":"4492","correct":false,"confidence":3},{"trial_n":24,"span":11,"encoder":"07604654496","distractor":"07604654796","target":"present","response":"present","rt":"2960.9000000954","correct":true,"confidence":4},{"trial_n":25,"span":11,"encoder":"77781310306","distractor":"77781310307","target":"present","response":"present","rt":"4625","correct":true,"confidence":4},{"trial_n":26,"span":12,"encoder":"807960612854","distractor":"807360612854","target":"present","response":"absent","rt":"6412.5","correct":false,"confidence":2},{"trial_n":27,"span":11,"encoder":"38113557890","distractor":"38113557850","target":"absent","response":"present","rt":"2616.5999999046","correct":false,"confidence":4},{"trial_n":28,"span":10,"encoder":"7110042424","distractor":"7110040424","target":"absent","response":"present","rt":"7584.9000000954","correct":false,"confidence":4},{"trial_n":29,"span":9,"encoder":"148083131","distractor":"148084131","target":"present","response":"present","rt":"6815.7000000477","correct":true,"confidence":4},{"trial_n":30,"span":9,"encoder":"969109598","distractor":"963109598","target":"present","response":"absent","rt":"3207.2000000477","correct":false,"confidence":4},{"trial_n":31,"span":8,"encoder":"96618133","distractor":"96616133","target":"present","response":"present","rt":"2346.7999999523","correct":true,"confidence":5},{"trial_n":32,"span":8,"encoder":"86128018","distractor":"86128038","target":"absent","response":"absent","rt":"3076.5","correct":true,"confidence":5},{"trial_n":33,"span":9,"encoder":"747762599","distractor":"747962599","target":"absent","response":"present","rt":"3838.5","correct":false,"confidence":4},{"trial_n":34,"span":8,"encoder":"74065013","distractor":"74065073","target":"present","response":"present","rt":"2435.9000000954","correct":true,"confidence":5},{"trial_n":35,"span":8,"encoder":"55088611","distractor":"55088311","target":"present","response":"present","rt":"3363","correct":true,"confidence":5},{"trial_n":36,"span":9,"encoder":"406541748","distractor":"400541748","target":"present","response":"absent","rt":"4420.5","correct":false,"confidence":3},{"trial_n":37,"span":8,"encoder":"63199996","distractor":"03199996","target":"present","response":"present","rt":"3434.7999999523","correct":true,"confidence":5},{"trial_n":38,"span":8,"encoder":"07859868","distractor":"07859848","target":"absent","response":"absent","rt":"3611.4000000954","correct":true,"confidence":5},{"trial_n":39,"span":9,"encoder":"477956527","distractor":"477156527","target":"absent","response":"absent","rt":"4246.7999999523","correct":true,"confidence":2},{"trial_n":40,"span":9,"encoder":"753592361","distractor":"753592661","target":"present","response":"present","rt":"2688.5","correct":true,"confidence":3},{"trial_n":41,"span":10,"encoder":"9497241425","distractor":"9497241426","target":"present","response":"present","rt":"3128.7999999523","correct":true,"confidence":4},{"trial_n":42,"span":10,"encoder":"9197559620","distractor":"9177559620","target":"absent","response":"present","rt":"3676","correct":false,"confidence":4},{"trial_n":43,"span":9,"encoder":"089768895","distractor":"089768835","target":"present","response":"present","rt":"5111.4000000954","correct":true,"confidence":3},{"trial_n":44,"span":9,"encoder":"864490311","distractor":"894490311","target":"present","response":"present","rt":"3188.7999999523","correct":true,"confidence":3},{"trial_n":45,"span":10,"encoder":"0075232091","distractor":"0077232091","target":"present","response":"present","rt":"3497.0999999046","correct":true,"confidence":3},{"trial_n":46,"span":10,"encoder":"6112454246","distractor":"6612454246","target":"absent","response":"absent","rt":"4237.5","correct":true,"confidence":2},{"trial_n":47,"span":11,"encoder":"14695329554","distractor":"14695329534","target":"absent","response":"absent","rt":"4569.5999999046","correct":true,"confidence":3},{"trial_n":48,"span":11,"encoder":"10011394835","distractor":"10011396835","target":"absent","response":"absent","rt":"2524.5","correct":true,"confidence":5},{"trial_n":49,"span":12,"encoder":"814557244933","distractor":"804557244933","target":"absent","response":"present","rt":"5403","correct":false,"confidence":4},{"trial_n":50,"span":11,"encoder":"09025280949","distractor":"09025080949","target":"absent","response":"present","rt":"6865.7999999523","correct":false,"confidence":3},{"trial_n":51,"span":10,"encoder":"8722406636","distractor":"8729406636","target":"absent","response":"present","rt":"4511.3999998569","correct":false,"confidence":3},{"trial_n":52,"span":9,"encoder":"230078107","distractor":"230378107","target":"present","response":"present","rt":"3480.9000000954","correct":true,"confidence":5},{"trial_n":53,"span":9,"encoder":"070097781","distractor":"090097781","target":"present","response":"present","rt":"2987.3000001907","correct":true,"confidence":4},{"trial_n":54,"span":10,"encoder":"3100081494","distractor":"3100085494","target":"absent","response":"absent","rt":"4774.2000000477","correct":true,"confidence":2},{"trial_n":55,"span":10,"encoder":"7891534409","distractor":"7891534909","target":"present","response":"present","rt":"6262.2000000477","correct":true,"confidence":2},{"trial_n":56,"span":11,"encoder":"64360435408","distractor":"64360035408","target":"absent","response":"absent","rt":"4692.9000000954","correct":true,"confidence":2},{"trial_n":57,"span":11,"encoder":"93948190507","distractor":"93948190505","target":"present","response":"present","rt":"3723.3999998569","correct":true,"confidence":4},{"trial_n":58,"span":12,"encoder":"649393307978","distractor":"649393307948","target":"absent","response":"present","rt":"3866.5","correct":false,"confidence":3},{"trial_n":59,"span":11,"encoder":"19293814819","distractor":"79293814819","target":"absent","response":"present","rt":"4377.7000000477","correct":false,"confidence":3},{"trial_n":60,"span":10,"encoder":"7439408677","distractor":"7439408877","target":"present","response":"present","rt":"3555.6000001431","correct":true,"confidence":5},{"trial_n":61,"span":10,"encoder":"1621359394","distractor":"1621359694","target":"present","response":"present","rt":"3145.5","correct":true,"confidence":3},{"trial_n":62,"span":11,"encoder":"69969096117","distractor":"69969036117","target":"absent","response":"present","rt":"5146.4000000954","correct":false,"confidence":3},{"trial_n":63,"span":10,"encoder":"7599016130","distractor":"7599014130","target":"present","response":"present","rt":"5140.9000000954","correct":true,"confidence":4},{"trial_n":64,"span":10,"encoder":"9277623720","distractor":"9277623726","target":"absent","response":"absent","rt":"4712.1999998093","correct":true,"confidence":4},{"trial_n":65,"span":11,"encoder":"37955120401","distractor":"37915120401","target":"absent","response":"absent","rt":"5920.8999998569","correct":true,"confidence":2},{"trial_n":66,"span":11,"encoder":"42592794344","distractor":"42590794344","target":"present","response":"present","rt":"5025.3000001907","correct":true,"confidence":3},{"trial_n":67,"span":12,"encoder":"540557072146","distractor":"940557072146","target":"present","response":"absent","rt":"8601.3999998569","correct":false,"confidence":3},{"trial_n":68,"span":11,"encoder":"46845180042","distractor":"46845580042","target":"absent","response":"present","rt":"4666","correct":false,"confidence":5},{"trial_n":69,"span":10,"encoder":"2590506250","distractor":"8590506250","target":"present","response":"present","rt":"4321.1000001431","correct":true,"confidence":5},{"trial_n":70,"span":10,"encoder":"3240717299","distractor":"1240717299","target":"absent","response":"present","rt":"3953.2999999523","correct":false,"confidence":4},{"trial_n":71,"span":8,"encoder":"45902742","distractor":"45902741","target":"present","response":"present","rt":"6478","correct":true,"confidence":-1},{"trial_n":72,"span":8,"encoder":"44848578","distractor":"44848538","target":"present","response":"present","rt":"2400.5999999046","correct":true,"confidence":-1},{"trial_n":73,"span":9,"encoder":"512442602","distractor":"512442600","target":"absent","response":"absent","rt":"1861.6000001431","correct":true,"confidence":-1},{"trial_n":74,"span":9,"encoder":"064423416","distractor":"064323416","target":"absent","response":"absent","rt":"6807.5","correct":true,"confidence":-1},{"trial_n":75,"span":10,"encoder":"6083726501","distractor":"6084726501","target":"present","response":"absent","rt":"5053.6000001431","correct":false,"confidence":-1},{"trial_n":76,"span":9,"encoder":"309036679","distractor":"309036619","target":"present","response":"present","rt":"6248.4000000954","correct":true,"confidence":-1},{"trial_n":77,"span":9,"encoder":"138212104","distractor":"138222104","target":"present","response":"present","rt":"4724","correct":true,"confidence":-1},{"trial_n":78,"span":10,"encoder":"1959923881","distractor":"1989923881","target":"present","response":"present","rt":"8971.5999999046","correct":true,"confidence":-1},{"trial_n":79,"span":10,"encoder":"6520236330","distractor":"6520216330","target":"absent","response":"absent","rt":"3338.2000000477","correct":true,"confidence":-1},{"trial_n":80,"span":11,"encoder":"32939277270","distractor":"32939217270","target":"absent","response":"absent","rt":"1746.1000001431","correct":true,"confidence":-1},{"trial_n":81,"span":11,"encoder":"82577600657","distractor":"82577600457","target":"absent","response":"absent","rt":"3120.4000000954","correct":true,"confidence":-1},{"trial_n":82,"span":12,"encoder":"150517046654","distractor":"150519046654","target":"present","response":"absent","rt":"5494.1000001431","correct":false,"confidence":-1},{"trial_n":83,"span":11,"encoder":"93047298930","distractor":"93017298930","target":"absent","response":"present","rt":"5851.7999999523","correct":false,"confidence":-1},{"trial_n":84,"span":10,"encoder":"3512635157","distractor":"3512631157","target":"absent","response":"absent","rt":"2249.9000000954","correct":true,"confidence":-1},{"trial_n":85,"span":10,"encoder":"5291678917","distractor":"5201678917","target":"absent","response":"present","rt":"7239","correct":false,"confidence":-1},{"trial_n":86,"span":9,"encoder":"088337370","distractor":"085337370","target":"present","response":"absent","rt":"2311.3999998569","correct":false,"confidence":-1},{"trial_n":87,"span":8,"encoder":"59753993","distractor":"59757993","target":"absent","response":"absent","rt":"1677.2999999523","correct":true,"confidence":-1},{"trial_n":88,"span":8,"encoder":"14359034","distractor":"14369034","target":"present","response":"present","rt":"3479.6999998093","correct":true,"confidence":-1},{"trial_n":89,"span":9,"encoder":"735181257","distractor":"732181257","target":"absent","response":"present","rt":"2943","correct":false,"confidence":-1},{"trial_n":90,"span":8,"encoder":"43630849","distractor":"43630839","target":"present","response":"present","rt":"5169.5","correct":true,"confidence":-1},{"trial_n":91,"span":8,"encoder":"75040147","distractor":"75030147","target":"present","response":"present","rt":"6120.6000001431","correct":true,"confidence":3},{"trial_n":92,"span":9,"encoder":"578272472","distractor":"578272471","target":"present","response":"present","rt":"1945.6999998093","correct":true,"confidence":5},{"trial_n":93,"span":9,"encoder":"240532794","distractor":"240432794","target":"present","response":"absent","rt":"8593","correct":false,"confidence":2},{"trial_n":94,"span":8,"encoder":"78755581","distractor":"78455581","target":"absent","response":"absent","rt":"6224.8999998569","correct":true,"confidence":3},{"trial_n":95,"span":8,"encoder":"06700776","distractor":"06703776","target":"absent","response":"absent","rt":"2616.2000000477","correct":true,"confidence":5},{"trial_n":96,"span":9,"encoder":"045184026","distractor":"045184066","target":"absent","response":"absent","rt":"3170","correct":true,"confidence":5},{"trial_n":97,"span":9,"encoder":"484157095","distractor":"487157095","target":"present","response":"present","rt":"9782.5","correct":true,"confidence":5},{"trial_n":98,"span":10,"encoder":"0610296595","distractor":"0610296535","target":"present","response":"present","rt":"2683.3999998569","correct":true,"confidence":5},{"trial_n":99,"span":10,"encoder":"6853660932","distractor":"6813660932","target":"absent","response":"absent","rt":"6027.6999998093","correct":true,"confidence":3},{"trial_n":100,"span":11,"encoder":"31743471612","distractor":"31743471616","target":"present","response":"present","rt":"2175.4000000954","correct":true,"confidence":5},{"trial_n":101,"span":11,"encoder":"04486440037","distractor":"04446440037","target":"present","response":"present","rt":"4360.5","correct":true,"confidence":5},{"trial_n":102,"span":12,"encoder":"680671369928","distractor":"680971369928","target":"absent","response":"present","rt":"9259.5999999046","correct":false,"confidence":2},{"trial_n":103,"span":11,"encoder":"46903601927","distractor":"46903691927","target":"absent","response":"absent","rt":"8908.1999998093","correct":true,"confidence":3},{"trial_n":104,"span":11,"encoder":"63877827723","distractor":"63877807723","target":"absent","response":"absent","rt":"7204.5","correct":true,"confidence":5},{"trial_n":105,"span":12,"encoder":"896457928359","distractor":"896457928339","target":"present","response":"present","rt":"13188.700000048","correct":true,"confidence":2},{"trial_n":106,"span":12,"encoder":"484936225967","distractor":"984936225967","target":"present","response":"present","rt":"7335.0999999046","correct":true,"confidence":3},{"trial_n":107,"span":13,"encoder":"3438150671033","distractor":"3438150971033","target":"absent","response":"absent","rt":"8155","correct":true,"confidence":3},{"trial_n":108,"span":13,"encoder":"4365376017723","distractor":"4345376017723","target":"absent","response":"absent","rt":"11820.599999905","correct":true,"confidence":3},{"trial_n":109,"span":14,"encoder":"06319937259105","distractor":"06319937259107","target":"absent","response":"absent","rt":"1952.4000000954","correct":true,"confidence":5},{"trial_n":110,"span":14,"encoder":"27215037774123","distractor":"27515037774123","target":"present","response":"present","rt":"11186.900000095","correct":true,"confidence":2},{"trial_n":111,"span":15,"encoder":"488808807175643","distractor":"488808806175643","target":"present","response":"present","rt":"4278.1000001431","correct":true,"confidence":4},{"trial_n":112,"span":15,"encoder":"935701324715195","distractor":"930701324715195","target":"absent","response":"absent","rt":"4347.5","correct":true,"confidence":3},{"trial_n":113,"span":16,"encoder":"7731495943736323","distractor":"7731495043736323","target":"present","response":"present","rt":"10876.600000143","correct":true,"confidence":4},{"trial_n":114,"span":16,"encoder":"8996605503400629","distractor":"8997605503400629","target":"absent","response":"absent","rt":"4237.8999998569","correct":true,"confidence":4},{"trial_n":115,"span":17,"encoder":"01458689323324727","distractor":"01455689323324727","target":"absent","response":"present","rt":"6349.8000001907","correct":false,"confidence":1},{"trial_n":116,"span":16,"encoder":"1450325222472831","distractor":"1440325222472831","target":"absent","response":"present","rt":"8624.9000000954","correct":false,"confidence":2},{"trial_n":117,"span":15,"encoder":"396942057478632","distractor":"396942057578632","target":"absent","response":"present","rt":"9667.5","correct":false,"confidence":3},{"trial_n":118,"span":14,"encoder":"69637773048013","distractor":"69637783048013","target":"absent","response":"present","rt":"10138.100000143","correct":false,"confidence":4},{"trial_n":119,"span":13,"encoder":"9433452619703","distractor":"9433952619703","target":"absent","response":"absent","rt":"6144.7000000477","correct":true,"confidence":3},{"trial_n":120,"span":13,"encoder":"2677447354383","distractor":"2677427354383","target":"present","response":"absent","rt":"10544.700000048","correct":false,"confidence":3},{"trial_n":121,"span":12,"encoder":"365641490658","distractor":"365645490658","target":"present","response":"absent","rt":"7743.2000000477","correct":false,"confidence":3},{"trial_n":122,"span":11,"encoder":"83908005544","distractor":"83908005547","target":"present","response":"present","rt":"1584.3999998569","correct":true,"confidence":5},{"trial_n":123,"span":11,"encoder":"99584771209","distractor":"99084771209","target":"present","response":"present","rt":"6903","correct":true,"confidence":4},{"trial_n":124,"span":12,"encoder":"454213721275","distractor":"458213721275","target":"absent","response":"present","rt":"4802","correct":false,"confidence":3},{"trial_n":125,"span":11,"encoder":"53351427283","distractor":"53350427283","target":"absent","response":"absent","rt":"7605.3000001907","correct":true,"confidence":4},{"trial_n":126,"span":11,"encoder":"75848553081","distractor":"75848553681","target":"present","response":"present","rt":"9874","correct":true,"confidence":3},{"trial_n":127,"span":12,"encoder":"574833681575","distractor":"574833661575","target":"present","response":"present","rt":"9264.7999999523","correct":true,"confidence":4},{"trial_n":128,"span":12,"encoder":"983614999345","distractor":"983614999445","target":"absent","response":"absent","rt":"2656.5999999046","correct":true,"confidence":5},{"trial_n":129,"span":13,"encoder":"8331646076777","distractor":"8331645076777","target":"present","response":"absent","rt":"17145.399999857","correct":false,"confidence":1},{"trial_n":130,"span":12,"encoder":"166540019549","distractor":"166540089549","target":"present","response":"present","rt":"65322.099999905","correct":true,"confidence":1},{"trial_n":131,"span":12,"encoder":"062977660350","distractor":"062917660350","target":"present","response":"absent","rt":"6235.7000000477","correct":false,"confidence":4},{"trial_n":132,"span":11,"encoder":"47547293407","distractor":"47547299407","target":"absent","response":"present","rt":"5900.2000000477","correct":false,"confidence":4},{"trial_n":133,"span":10,"encoder":"1760026729","distractor":"1760026725","target":"present","response":"present","rt":"1166.2000000477","correct":true,"confidence":5},{"trial_n":134,"span":10,"encoder":"2068926495","distractor":"2068926490","target":"present","response":"present","rt":"934.20000004768","correct":true,"confidence":5},{"trial_n":135,"span":11,"encoder":"36901510223","distractor":"36971510223","target":"absent","response":"absent","rt":"3236.2000000477","correct":true,"confidence":4},{"trial_n":136,"span":11,"encoder":"14599125902","distractor":"14599125952","target":"absent","response":"absent","rt":"1367.2000000477","correct":true,"confidence":5},{"trial_n":137,"span":12,"encoder":"816086636380","distractor":"815086636380","target":"present","response":"present","rt":"4942.4000000954","correct":true,"confidence":3},{"trial_n":138,"span":12,"encoder":"299799685005","distractor":"299799684005","target":"present","response":"present","rt":"3096.3999998569","correct":true,"confidence":5},{"trial_n":139,"span":13,"encoder":"3898158173789","distractor":"3898558173789","target":"absent","response":"absent","rt":"10023.099999905","correct":true,"confidence":3},{"trial_n":140,"span":13,"encoder":"3239278802969","distractor":"3239271802969","target":"present","response":"present","rt":"11013.200000048","correct":true,"confidence":2}]