[{"trial_n":1,"min":25,"max":230,"target":"present","response":"absent","rt":10175,"correct":false,"confidence":-1},{"trial_n":2,"min":25,"max":230,"target":"present","response":"present","rt":2007.9999999999,"correct":true,"confidence":-1},{"trial_n":3,"min":25,"max":230,"target":"absent","response":"absent","rt":1273,"correct":true,"confidence":-1},{"trial_n":4,"min":41,"max":214,"target":"absent","response":"absent","rt":1202,"correct":true,"confidence":-1},{"trial_n":5,"min":41,"max":214,"target":"present","response":"present","rt":1459,"correct":true,"confidence":-1},{"trial_n":6,"min":57,"max":198,"target":"absent","response":"absent","rt":1113,"correct":true,"confidence":-1},{"trial_n":7,"min":57,"max":198,"target":"absent","response":"absent","rt":1258,"correct":true,"confidence":-1},{"trial_n":8,"min":73,"max":182,"target":"present","response":"present","rt":1324,"correct":true,"confidence":-1},{"trial_n":9,"min":73,"max":182,"target":"present","response":"present","rt":1508,"correct":true,"confidence":-1},{"trial_n":10,"min":89,"max":166,"target":"absent","response":"absent","rt":1106.0000000001,"correct":true,"confidence":-1},{"trial_n":11,"min":89,"max":166,"target":"absent","response":"absent","rt":1171,"correct":true,"confidence":-1},{"trial_n":12,"min":97,"max":158,"target":"absent","response":"present","rt":1236,"correct":false,"confidence":-1},{"trial_n":13,"min":89,"max":166,"target":"absent","response":"absent","rt":1091,"correct":true,"confidence":-1},{"trial_n":14,"min":89,"max":166,"target":"absent","response":"absent","rt":1315,"correct":true,"confidence":-1},{"trial_n":15,"min":97,"max":158,"target":"present","response":"absent","rt":1285,"correct":false,"confidence":-1},{"trial_n":16,"min":89,"max":166,"target":"present","response":"present","rt":1320,"correct":true,"confidence":-1},{"trial_n":17,"min":89,"max":166,"target":"present","response":"present","rt":1861,"correct":true,"confidence":-1},{"trial_n":18,"min":97,"max":158,"target":"absent","response":"present","rt":1243,"correct":false,"confidence":-1},{"trial_n":19,"min":89,"max":166,"target":"present","response":"absent","rt":1108,"correct":false,"confidence":-1},{"trial_n":20,"min":81,"max":174,"target":"absent","response":"present","rt":1213,"correct":false,"confidence":-1},{"trial_n":21,"min":77,"max":178,"target":"present","response":"present","rt":1711,"correct":true,"confidence":3},{"trial_n":22,"min":77,"max":178,"target":"absent","response":"present","rt":1440,"correct":false,"confidence":4},{"trial_n":23,"min":73,"max":182,"target":"absent","response":"absent","rt":1584,"correct":true,"confidence":4},{"trial_n":24,"min":73,"max":182,"target":"present","response":"present","rt":1137.9999999999,"correct":true,"confidence":5},{"trial_n":25,"min":77,"max":178,"target":"absent","response":"absent","rt":2441,"correct":true,"confidence":3},{"trial_n":26,"min":77,"max":178,"target":"present","response":"present","rt":1146.0000000001,"correct":true,"confidence":4},{"trial_n":27,"min":81,"max":174,"target":"absent","response":"present","rt":3866,"correct":false,"confidence":4},{"trial_n":28,"min":77,"max":178,"target":"absent","response":"present","rt":1775,"correct":false,"confidence":3},{"trial_n":29,"min":73,"max":182,"target":"present","response":"present","rt":1383,"correct":true,"confidence":5},{"trial_n":30,"min":73,"max":182,"target":"absent","response":"present","rt":1392,"correct":false,"confidence":5},{"trial_n":31,"min":71,"max":184,"target":"present","response":"present","rt":2117,"correct":true,"confidence":4},{"trial_n":32,"min":71,"max":184,"target":"absent","response":"present","rt":1515,"correct":false,"confidence":4},{"trial_n":33,"min":69,"max":186,"target":"absent","response":"absent","rt":1679.9999999999,"correct":true,"confidence":3},{"trial_n":34,"min":69,"max":186,"target":"absent","response":"present","rt":1415,"correct":false,"confidence":4},{"trial_n":35,"min":67,"max":188,"target":"absent","response":"present","rt":1505,"correct":false,"confidence":3},{"trial_n":36,"min":65,"max":190,"target":"present","response":"present","rt":1484.0000000001,"correct":true,"confidence":4},{"trial_n":37,"min":65,"max":190,"target":"present","response":"present","rt":1319,"correct":true,"confidence":4},{"trial_n":38,"min":67,"max":188,"target":"present","response":"present","rt":1580,"correct":true,"confidence":4},{"trial_n":39,"min":67,"max":188,"target":"present","response":"present","rt":1622,"correct":true,"confidence":4},{"trial_n":40,"min":69,"max":186,"target":"absent","response":"absent","rt":1607,"correct":true,"confidence":4},{"trial_n":41,"min":69,"max":186,"target":"present","response":"present","rt":2169,"correct":true,"confidence":3},{"trial_n":42,"min":70,"max":185,"target":"present","response":"present","rt":1505.0000000001,"correct":true,"confidence":5},{"trial_n":43,"min":70,"max":185,"target":"absent","response":"absent","rt":1679.9999999999,"correct":true,"confidence":4},{"trial_n":44,"min":71,"max":184,"target":"present","response":"present","rt":1299.9999999999,"correct":true,"confidence":5},{"trial_n":45,"min":71,"max":184,"target":"absent","response":"absent","rt":1439,"correct":true,"confidence":4},{"trial_n":46,"min":72,"max":183,"target":"absent","response":"present","rt":1320,"correct":false,"confidence":5},{"trial_n":47,"min":71,"max":184,"target":"absent","response":"absent","rt":1495,"correct":true,"confidence":4},{"trial_n":48,"min":71,"max":184,"target":"present","response":"present","rt":2018,"correct":true,"confidence":5},{"trial_n":49,"min":72,"max":183,"target":"present","response":"present","rt":1447,"correct":true,"confidence":5},{"trial_n":50,"min":72,"max":183,"target":"absent","response":"present","rt":1646,"correct":false,"confidence":4},{"trial_n":51,"min":71,"max":184,"target":"absent","response":"absent","rt":1286,"correct":true,"confidence":4},{"trial_n":52,"min":71,"max":184,"target":"present","response":"present","rt":1111,"correct":true,"confidence":4},{"trial_n":53,"min":72,"max":183,"target":"present","response":"present","rt":1578,"correct":true,"confidence":4},{"trial_n":54,"min":72,"max":183,"target":"present","response":"absent","rt":1293.9999999999,"correct":false,"confidence":4},{"trial_n":55,"min":71,"max":184,"target":"present","response":"present","rt":1787,"correct":true,"confidence":4},{"trial_n":56,"min":71,"max":184,"target":"present","response":"absent","rt":1654,"correct":false,"confidence":4},{"trial_n":57,"min":70,"max":185,"target":"absent","response":"absent","rt":1190,"correct":true,"confidence":4},{"trial_n":58,"min":70,"max":185,"target":"present","response":"absent","rt":1253,"correct":false,"confidence":4},{"trial_n":59,"min":69,"max":186,"target":"present","response":"absent","rt":1261.0000000001,"correct":false,"confidence":4},{"trial_n":60,"min":68,"max":187,"target":"present","response":"present","rt":1681.9999999999,"correct":true,"confidence":4},{"trial_n":61,"min":68,"max":187,"target":"present","response":"present","rt":1705.0000000001,"correct":true,"confidence":4},{"trial_n":62,"min":69,"max":186,"target":"absent","response":"absent","rt":1269,"correct":true,"confidence":4},{"trial_n":63,"min":69,"max":186,"target":"present","response":"absent","rt":1077,"correct":false,"confidence":4},{"trial_n":64,"min":68,"max":187,"target":"present","response":"present","rt":1158,"correct":true,"confidence":4},{"trial_n":65,"min":68,"max":187,"target":"present","response":"present","rt":1640.0000000001,"correct":true,"confidence":4},{"trial_n":66,"min":69,"max":186,"target":"absent","response":"absent","rt":1133.0000000001,"correct":true,"confidence":4},{"trial_n":67,"min":69,"max":186,"target":"absent","response":"absent","rt":1152.9999999999,"correct":true,"confidence":4},{"trial_n":68,"min":70,"max":185,"target":"absent","response":"absent","rt":1302.0000000001,"correct":true,"confidence":4},{"trial_n":69,"min":70,"max":185,"target":"present","response":"present","rt":1260,"correct":true,"confidence":4},{"trial_n":70,"min":71,"max":184,"target":"absent","response":"absent","rt":1343,"correct":true,"confidence":4},{"trial_n":71,"min":41,"max":214,"target":"present","response":"present","rt":2960,"correct":true,"confidence":-1},{"trial_n":72,"min":41,"max":214,"target":"present","response":"present","rt":1165,"correct":true,"confidence":-1},{"trial_n":73,"min":57,"max":198,"target":"absent","response":"absent","rt":1339,"correct":true,"confidence":-1},{"trial_n":74,"min":57,"max":198,"target":"absent","response":"absent","rt":1260,"correct":true,"confidence":-1},{"trial_n":75,"min":73,"max":182,"target":"present","response":"present","rt":957,"correct":true,"confidence":-1},{"trial_n":76,"min":73,"max":182,"target":"absent","response":"present","rt":1421.0000000001,"correct":false,"confidence":-1},{"trial_n":77,"min":57,"max":198,"target":"present","response":"present","rt":1237,"correct":true,"confidence":-1},{"trial_n":78,"min":57,"max":198,"target":"present","response":"present","rt":1188,"correct":true,"confidence":-1},{"trial_n":79,"min":73,"max":182,"target":"present","response":"absent","rt":1148,"correct":false,"confidence":-1},{"trial_n":80,"min":57,"max":198,"target":"absent","response":"present","rt":1213,"correct":false,"confidence":-1},{"trial_n":81,"min":49,"max":206,"target":"present","response":"present","rt":1052,"correct":true,"confidence":-1},{"trial_n":82,"min":49,"max":206,"target":"present","response":"present","rt":1485,"correct":true,"confidence":-1},{"trial_n":83,"min":57,"max":198,"target":"absent","response":"absent","rt":1196,"correct":true,"confidence":-1},{"trial_n":84,"min":57,"max":198,"target":"present","response":"present","rt":997,"correct":true,"confidence":-1},{"trial_n":85,"min":65,"max":190,"target":"absent","response":"absent","rt":1806,"correct":true,"confidence":-1},{"trial_n":86,"min":65,"max":190,"target":"present","response":"present","rt":960.00000000012,"correct":true,"confidence":-1},{"trial_n":87,"min":73,"max":182,"target":"present","response":"present","rt":996.99999999988,"correct":true,"confidence":-1},{"trial_n":88,"min":73,"max":182,"target":"present","response":"present","rt":1149,"correct":true,"confidence":-1},{"trial_n":89,"min":81,"max":174,"target":"absent","response":"absent","rt":1334,"correct":true,"confidence":-1},{"trial_n":90,"min":81,"max":174,"target":"absent","response":"absent","rt":1326,"correct":true,"confidence":-1},{"trial_n":91,"min":85,"max":170,"target":"absent","response":"present","rt":1246.0000000001,"correct":false,"confidence":4},{"trial_n":92,"min":81,"max":174,"target":"present","response":"present","rt":1631.0000000001,"correct":true,"confidence":5},{"trial_n":93,"min":81,"max":174,"target":"absent","response":"absent","rt":1602,"correct":true,"confidence":4},{"trial_n":94,"min":85,"max":170,"target":"present","response":"present","rt":1411.0000000001,"correct":true,"confidence":3},{"trial_n":95,"min":85,"max":170,"target":"present","response":"present","rt":1469,"correct":true,"confidence":3},{"trial_n":96,"min":89,"max":166,"target":"present","response":"present","rt":1198,"correct":true,"confidence":3},{"trial_n":97,"min":89,"max":166,"target":"present","response":"present","rt":1230,"correct":true,"confidence":3},{"trial_n":98,"min":93,"max":162,"target":"present","response":"present","rt":1237.0000000001,"correct":true,"confidence":3},{"trial_n":99,"min":93,"max":162,"target":"absent","response":"present","rt":1228,"correct":false,"confidence":3},{"trial_n":100,"min":89,"max":166,"target":"present","response":"present","rt":1007,"correct":true,"confidence":3},{"trial_n":101,"min":89,"max":166,"target":"absent","response":"present","rt":1925,"correct":false,"confidence":3},{"trial_n":102,"min":87,"max":168,"target":"present","response":"absent","rt":1406,"correct":false,"confidence":3},{"trial_n":103,"min":85,"max":170,"target":"present","response":"present","rt":1976,"correct":true,"confidence":4},{"trial_n":104,"min":85,"max":170,"target":"absent","response":"present","rt":1564,"correct":false,"confidence":3},{"trial_n":105,"min":83,"max":172,"target":"absent","response":"present","rt":1444,"correct":false,"confidence":3},{"trial_n":106,"min":81,"max":174,"target":"present","response":"present","rt":1087,"correct":true,"confidence":3},{"trial_n":107,"min":81,"max":174,"target":"present","response":"absent","rt":1326,"correct":false,"confidence":3},{"trial_n":108,"min":79,"max":176,"target":"absent","response":"present","rt":1299.9999999999,"correct":false,"confidence":3},{"trial_n":109,"min":77,"max":178,"target":"present","response":"present","rt":1199,"correct":true,"confidence":3},{"trial_n":110,"min":77,"max":178,"target":"present","response":"present","rt":1207,"correct":true,"confidence":3},{"trial_n":111,"min":78,"max":177,"target":"absent","response":"absent","rt":1393,"correct":true,"confidence":3},{"trial_n":112,"min":78,"max":177,"target":"absent","response":"absent","rt":1206,"correct":true,"confidence":4},{"trial_n":113,"min":79,"max":176,"target":"absent","response":"absent","rt":1259,"correct":true,"confidence":4},{"trial_n":114,"min":79,"max":176,"target":"absent","response":"absent","rt":1117,"correct":true,"confidence":3},{"trial_n":115,"min":80,"max":175,"target":"present","response":"present","rt":1216,"correct":true,"confidence":3},{"trial_n":116,"min":80,"max":175,"target":"present","response":"present","rt":1167,"correct":true,"confidence":2},{"trial_n":117,"min":81,"max":174,"target":"present","response":"present","rt":1120,"correct":true,"confidence":3},{"trial_n":118,"min":81,"max":174,"target":"present","response":"present","rt":1525.0000000002,"correct":true,"confidence":2},{"trial_n":119,"min":82,"max":173,"target":"absent","response":"present","rt":1270.0000000002,"correct":false,"confidence":2},{"trial_n":120,"min":81,"max":174,"target":"present","response":"present","rt":1256,"correct":true,"confidence":2},{"trial_n":121,"min":81,"max":174,"target":"absent","response":"present","rt":1208,"correct":false,"confidence":3},{"trial_n":122,"min":80,"max":175,"target":"absent","response":"absent","rt":1189,"correct":true,"confidence":4},{"trial_n":123,"min":80,"max":175,"target":"absent","response":"present","rt":1150,"correct":false,"confidence":2},{"trial_n":124,"min":79,"max":176,"target":"absent","response":"present","rt":1110,"correct":false,"confidence":2},{"trial_n":125,"min":78,"max":177,"target":"present","response":"absent","rt":1298,"correct":false,"confidence":3},{"trial_n":126,"min":77,"max":178,"target":"absent","response":"present","rt":1167.0000000002,"correct":false,"confidence":2},{"trial_n":127,"min":76,"max":179,"target":"present","response":"present","rt":1387,"correct":true,"confidence":4},{"trial_n":128,"min":76,"max":179,"target":"absent","response":"present","rt":1348,"correct":false,"confidence":3},{"trial_n":129,"min":75,"max":180,"target":"absent","response":"present","rt":1231,"correct":false,"confidence":2},{"trial_n":130,"min":74,"max":181,"target":"present","response":"present","rt":1146,"correct":true,"confidence":4},{"trial_n":131,"min":74,"max":181,"target":"present","response":"present","rt":1550.9999999998,"correct":true,"confidence":4},{"trial_n":132,"min":75,"max":180,"target":"absent","response":"absent","rt":1463,"correct":true,"confidence":4},{"trial_n":133,"min":75,"max":180,"target":"absent","response":"absent","rt":1479,"correct":true,"confidence":4},{"trial_n":134,"min":76,"max":179,"target":"absent","response":"absent","rt":1534.9999999998,"correct":true,"confidence":4},{"trial_n":135,"min":76,"max":179,"target":"absent","response":"present","rt":1305,"correct":false,"confidence":3},{"trial_n":136,"min":75,"max":180,"target":"present","response":"present","rt":1125,"correct":true,"confidence":4},{"trial_n":137,"min":75,"max":180,"target":"absent","response":"present","rt":1184.9999999998,"correct":false,"confidence":4},{"trial_n":138,"min":74,"max":181,"target":"absent","response":"present","rt":1194,"correct":false,"confidence":2},{"trial_n":139,"min":73,"max":182,"target":"present","response":"present","rt":1098.0000000002,"correct":true,"confidence":4},{"trial_n":140,"min":73,"max":182,"target":"absent","response":"absent","rt":1380,"correct":true,"confidence":4}]