[{"trial_n":1,"n_dots":4.25,"target":"left","response":"left","rt":1015,"correct":true,"confidence":-1},{"trial_n":2,"n_dots":4.25,"target":"right","response":"right","rt":839.09999996424,"correct":true,"confidence":-1},{"trial_n":3,"n_dots":3.85,"target":"right","response":"right","rt":538.80000001192,"correct":true,"confidence":-1},{"trial_n":4,"n_dots":3.85,"target":"left","response":"left","rt":476.19999998808,"correct":true,"confidence":-1},{"trial_n":5,"n_dots":3.45,"target":"left","response":"left","rt":393.80000001192,"correct":true,"confidence":-1},{"trial_n":6,"n_dots":3.45,"target":"right","response":"left","rt":598.20000004768,"correct":false,"confidence":-1},{"trial_n":7,"n_dots":3.85,"target":"left","response":"left","rt":259.39999997616,"correct":true,"confidence":-1},{"trial_n":8,"n_dots":3.85,"target":"right","response":"right","rt":487.79999995232,"correct":true,"confidence":-1},{"trial_n":9,"n_dots":3.65,"target":"left","response":"left","rt":464.60000002384,"correct":true,"confidence":-1},{"trial_n":10,"n_dots":3.65,"target":"left","response":"left","rt":316,"correct":true,"confidence":-1},{"trial_n":11,"n_dots":3.45,"target":"left","response":"left","rt":352.09999996424,"correct":true,"confidence":-1},{"trial_n":12,"n_dots":3.45,"target":"left","response":"right","rt":383.5,"correct":false,"confidence":-1},{"trial_n":13,"n_dots":3.55,"target":"left","response":"left","rt":339.30000001192,"correct":true,"confidence":-1},{"trial_n":14,"n_dots":3.55,"target":"left","response":"left","rt":163.5,"correct":true,"confidence":-1},{"trial_n":15,"n_dots":3.45,"target":"left","response":"right","rt":664.5,"correct":false,"confidence":-1},{"trial_n":16,"n_dots":3.55,"target":"left","response":"left","rt":130.80000001192,"correct":true,"confidence":-1},{"trial_n":17,"n_dots":3.55,"target":"left","response":"left","rt":819.09999996424,"correct":true,"confidence":-1},{"trial_n":18,"n_dots":3.45,"target":"right","response":"right","rt":302.59999996424,"correct":true,"confidence":-1},{"trial_n":19,"n_dots":3.45,"target":"left","response":"left","rt":367.19999998808,"correct":true,"confidence":-1},{"trial_n":20,"n_dots":3.35,"target":"right","response":"left","rt":306.5,"correct":false,"confidence":-1},{"trial_n":21,"n_dots":3.45,"target":"right","response":"right","rt":399,"correct":true,"confidence":3},{"trial_n":22,"n_dots":3.45,"target":"left","response":"left","rt":373.39999997616,"correct":true,"confidence":3},{"trial_n":23,"n_dots":3.35,"target":"left","response":"left","rt":542.10000002384,"correct":true,"confidence":4},{"trial_n":24,"n_dots":3.35,"target":"right","response":"right","rt":175.19999998808,"correct":true,"confidence":4},{"trial_n":25,"n_dots":3.25,"target":"right","response":"right","rt":180.40000003576,"correct":true,"confidence":4},{"trial_n":26,"n_dots":3.25,"target":"left","response":"left","rt":756.59999996424,"correct":true,"confidence":4},{"trial_n":27,"n_dots":3.15,"target":"right","response":"right","rt":812.60000002384,"correct":true,"confidence":3},{"trial_n":28,"n_dots":3.15,"target":"right","response":"right","rt":357.69999998808,"correct":true,"confidence":3},{"trial_n":29,"n_dots":3.05,"target":"right","response":"right","rt":1056.8999999762,"correct":true,"confidence":3},{"trial_n":30,"n_dots":3.05,"target":"left","response":"left","rt":1773,"correct":true,"confidence":2},{"trial_n":31,"n_dots":2.95,"target":"left","response":"right","rt":703.19999998808,"correct":false,"confidence":4},{"trial_n":32,"n_dots":3.05,"target":"left","response":"right","rt":534.30000001192,"correct":false,"confidence":3},{"trial_n":33,"n_dots":3.15,"target":"right","response":"right","rt":423.30000001192,"correct":true,"confidence":4},{"trial_n":34,"n_dots":3.15,"target":"left","response":"left","rt":397.39999997616,"correct":true,"confidence":3},{"trial_n":35,"n_dots":3.05,"target":"left","response":"left","rt":532.80000001192,"correct":true,"confidence":3},{"trial_n":36,"n_dots":3.05,"target":"left","response":"right","rt":1201.8999999762,"correct":false,"confidence":4},{"trial_n":37,"n_dots":3.15,"target":"right","response":"right","rt":702.10000002384,"correct":true,"confidence":3},{"trial_n":38,"n_dots":3.15,"target":"right","response":"right","rt":331.80000001192,"correct":true,"confidence":4},{"trial_n":39,"n_dots":3.05,"target":"right","response":"left","rt":872.09999996424,"correct":false,"confidence":3},{"trial_n":40,"n_dots":3.15,"target":"left","response":"left","rt":454.19999998808,"correct":true,"confidence":4},{"trial_n":41,"n_dots":3.15,"target":"right","response":"right","rt":659.19999998808,"correct":true,"confidence":3},{"trial_n":42,"n_dots":3.05,"target":"left","response":"left","rt":371.60000002384,"correct":true,"confidence":2},{"trial_n":43,"n_dots":3.05,"target":"left","response":"right","rt":800.5,"correct":false,"confidence":3},{"trial_n":44,"n_dots":3.15,"target":"left","response":"right","rt":1044.4000000358,"correct":false,"confidence":2},{"trial_n":45,"n_dots":3.25,"target":"right","response":"left","rt":606.5,"correct":false,"confidence":3},{"trial_n":46,"n_dots":3.35,"target":"left","response":"left","rt":611.80000001192,"correct":true,"confidence":2},{"trial_n":47,"n_dots":3.35,"target":"right","response":"right","rt":707.89999997616,"correct":true,"confidence":3},{"trial_n":48,"n_dots":3.25,"target":"left","response":"left","rt":563.70000004768,"correct":true,"confidence":4},{"trial_n":49,"n_dots":3.25,"target":"right","response":"right","rt":790,"correct":true,"confidence":3},{"trial_n":50,"n_dots":3.15,"target":"left","response":"left","rt":648.30000001192,"correct":true,"confidence":3},{"trial_n":51,"n_dots":3.15,"target":"right","response":"right","rt":743.10000002384,"correct":true,"confidence":3},{"trial_n":52,"n_dots":3.05,"target":"right","response":"left","rt":1035.8999999762,"correct":false,"confidence":3},{"trial_n":53,"n_dots":3.15,"target":"left","response":"right","rt":925.39999997616,"correct":false,"confidence":2},{"trial_n":54,"n_dots":3.25,"target":"left","response":"right","rt":1354.3000000119,"correct":false,"confidence":2},{"trial_n":55,"n_dots":3.35,"target":"right","response":"left","rt":899.5,"correct":false,"confidence":3},{"trial_n":56,"n_dots":3.45,"target":"right","response":"right","rt":422.5,"correct":true,"confidence":4},{"trial_n":57,"n_dots":3.45,"target":"right","response":"right","rt":823.59999996424,"correct":true,"confidence":3},{"trial_n":58,"n_dots":3.35,"target":"left","response":"right","rt":892.39999997616,"correct":false,"confidence":3},{"trial_n":59,"n_dots":3.45,"target":"left","response":"left","rt":506.10000002384,"correct":true,"confidence":4},{"trial_n":60,"n_dots":3.45,"target":"right","response":"right","rt":718.30000001192,"correct":true,"confidence":3},{"trial_n":61,"n_dots":3.35,"target":"right","response":"left","rt":674.30000007153,"correct":false,"confidence":2},{"trial_n":62,"n_dots":3.45,"target":"left","response":"right","rt":697.60000002384,"correct":false,"confidence":3},{"trial_n":63,"n_dots":3.55,"target":"left","response":"left","rt":427.20000004768,"correct":true,"confidence":3},{"trial_n":64,"n_dots":3.55,"target":"right","response":"left","rt":867.70000004768,"correct":false,"confidence":2},{"trial_n":65,"n_dots":3.65,"target":"right","response":"right","rt":672.80000007153,"correct":true,"confidence":3},{"trial_n":66,"n_dots":3.65,"target":"left","response":"left","rt":500.09999990463,"correct":true,"confidence":3},{"trial_n":67,"n_dots":3.55,"target":"right","response":"left","rt":640.40000009537,"correct":false,"confidence":2},{"trial_n":68,"n_dots":3.65,"target":"left","response":"left","rt":578.20000004768,"correct":true,"confidence":3},{"trial_n":69,"n_dots":3.65,"target":"right","response":"right","rt":827.29999995232,"correct":true,"confidence":3},{"trial_n":70,"n_dots":3.55,"target":"right","response":"right","rt":680.89999997616,"correct":true,"confidence":3},{"trial_n":71,"n_dots":3.55,"target":"left","response":"right","rt":655.30000007153,"correct":false,"confidence":3},{"trial_n":72,"n_dots":3.65,"target":"left","response":"left","rt":466.19999992847,"correct":true,"confidence":3},{"trial_n":73,"n_dots":3.65,"target":"right","response":"right","rt":802.10000002384,"correct":true,"confidence":3},{"trial_n":74,"n_dots":3.55,"target":"right","response":"right","rt":385.5,"correct":true,"confidence":3},{"trial_n":75,"n_dots":3.55,"target":"right","response":"right","rt":320.89999997616,"correct":true,"confidence":3},{"trial_n":76,"n_dots":3.45,"target":"right","response":"left","rt":872.89999997616,"correct":false,"confidence":3},{"trial_n":77,"n_dots":3.55,"target":"right","response":"right","rt":1020.7000000477,"correct":true,"confidence":3},{"trial_n":78,"n_dots":3.55,"target":"left","response":"left","rt":449.60000002384,"correct":true,"confidence":3},{"trial_n":79,"n_dots":3.45,"target":"right","response":"right","rt":308.69999992847,"correct":true,"confidence":2},{"trial_n":80,"n_dots":3.45,"target":"left","response":"left","rt":558.89999997616,"correct":true,"confidence":2},{"trial_n":81,"n_dots":3.35,"target":"left","response":"left","rt":369.40000009537,"correct":true,"confidence":3},{"trial_n":82,"n_dots":3.35,"target":"left","response":"left","rt":358.09999990463,"correct":true,"confidence":3},{"trial_n":83,"n_dots":3.25,"target":"right","response":"right","rt":394.69999992847,"correct":true,"confidence":3},{"trial_n":84,"n_dots":3.25,"target":"right","response":"right","rt":598.89999997616,"correct":true,"confidence":3},{"trial_n":85,"n_dots":3.15,"target":"left","response":"left","rt":549.89999997616,"correct":true,"confidence":3},{"trial_n":86,"n_dots":3.15,"target":"right","response":"right","rt":714.40000009537,"correct":true,"confidence":2},{"trial_n":87,"n_dots":3.05,"target":"left","response":"left","rt":899.90000009537,"correct":true,"confidence":3},{"trial_n":88,"n_dots":3.05,"target":"right","response":"right","rt":368.19999992847,"correct":true,"confidence":3},{"trial_n":89,"n_dots":2.95,"target":"right","response":"right","rt":153.80000007153,"correct":true,"confidence":3},{"trial_n":90,"n_dots":2.95,"target":"right","response":"left","rt":1024.8999999762,"correct":false,"confidence":2},{"trial_n":91,"n_dots":3.05,"target":"left","response":"left","rt":779.89999997616,"correct":true,"confidence":3},{"trial_n":92,"n_dots":3.05,"target":"left","response":"right","rt":587.29999995232,"correct":false,"confidence":3},{"trial_n":93,"n_dots":3.15,"target":"left","response":"right","rt":616.69999992847,"correct":false,"confidence":3},{"trial_n":94,"n_dots":3.25,"target":"right","response":"right","rt":377.39999997616,"correct":true,"confidence":3},{"trial_n":95,"n_dots":3.25,"target":"left","response":"left","rt":438.19999992847,"correct":true,"confidence":2},{"trial_n":96,"n_dots":3.15,"target":"right","response":"right","rt":515.69999992847,"correct":true,"confidence":3},{"trial_n":97,"n_dots":3.15,"target":"left","response":"left","rt":627.30000007153,"correct":true,"confidence":4},{"trial_n":98,"n_dots":3.05,"target":"right","response":"right","rt":582.89999997616,"correct":true,"confidence":3},{"trial_n":99,"n_dots":3.05,"target":"right","response":"right","rt":1624.6999999285,"correct":true,"confidence":2},{"trial_n":100,"n_dots":2.95,"target":"right","response":"right","rt":850.20000004768,"correct":true,"confidence":2},{"trial_n":101,"n_dots":2.95,"target":"left","response":"right","rt":931.80000007153,"correct":false,"confidence":2},{"trial_n":102,"n_dots":3.05,"target":"right","response":"right","rt":744.29999995232,"correct":true,"confidence":3},{"trial_n":103,"n_dots":3.05,"target":"right","response":"right","rt":253.5,"correct":true,"confidence":3},{"trial_n":104,"n_dots":2.95,"target":"left","response":"left","rt":472.20000004768,"correct":true,"confidence":3},{"trial_n":105,"n_dots":2.95,"target":"right","response":"right","rt":652.29999995232,"correct":true,"confidence":3},{"trial_n":106,"n_dots":2.85,"target":"right","response":"right","rt":1094.1000000238,"correct":true,"confidence":2},{"trial_n":107,"n_dots":2.85,"target":"left","response":"left","rt":489,"correct":true,"confidence":3},{"trial_n":108,"n_dots":2.75,"target":"right","response":"left","rt":438.79999995232,"correct":false,"confidence":3},{"trial_n":109,"n_dots":2.85,"target":"left","response":"left","rt":407.29999995232,"correct":true,"confidence":3},{"trial_n":110,"n_dots":2.85,"target":"right","response":"left","rt":449.29999995232,"correct":false,"confidence":2},{"trial_n":111,"n_dots":2.95,"target":"right","response":"right","rt":481.60000002384,"correct":true,"confidence":3},{"trial_n":112,"n_dots":2.95,"target":"right","response":"right","rt":670.60000002384,"correct":true,"confidence":3},{"trial_n":113,"n_dots":2.85,"target":"left","response":"left","rt":983.5,"correct":true,"confidence":3},{"trial_n":114,"n_dots":2.85,"target":"right","response":"right","rt":333.5,"correct":true,"confidence":3},{"trial_n":115,"n_dots":2.75,"target":"left","response":"right","rt":1046.2999999523,"correct":false,"confidence":3},{"trial_n":116,"n_dots":2.85,"target":"left","response":"left","rt":535.60000002384,"correct":true,"confidence":3},{"trial_n":117,"n_dots":2.85,"target":"left","response":"left","rt":602.5,"correct":true,"confidence":2},{"trial_n":118,"n_dots":2.75,"target":"right","response":"right","rt":622.19999992847,"correct":true,"confidence":3},{"trial_n":119,"n_dots":2.75,"target":"left","response":"left","rt":457.89999997616,"correct":true,"confidence":3},{"trial_n":120,"n_dots":2.65,"target":"right","response":"left","rt":390.5,"correct":false,"confidence":3}]