[{"trial_n":1,"min":25,"max":230,"target":"present","response":"present","rt":11826,"correct":true,"confidence":-1},{"trial_n":2,"min":25,"max":230,"target":"present","response":"present","rt":1523,"correct":true,"confidence":-1},{"trial_n":3,"min":41,"max":214,"target":"absent","response":"absent","rt":1271,"correct":true,"confidence":-1},{"trial_n":4,"min":41,"max":214,"target":"absent","response":"absent","rt":793,"correct":true,"confidence":-1},{"trial_n":5,"min":57,"max":198,"target":"present","response":"present","rt":859,"correct":true,"confidence":-1},{"trial_n":6,"min":57,"max":198,"target":"absent","response":"absent","rt":980.00000000001,"correct":true,"confidence":-1},{"trial_n":7,"min":73,"max":182,"target":"present","response":"present","rt":1396,"correct":true,"confidence":-1},{"trial_n":8,"min":73,"max":182,"target":"absent","response":"absent","rt":980,"correct":true,"confidence":-1},{"trial_n":9,"min":89,"max":166,"target":"absent","response":"absent","rt":890,"correct":true,"confidence":-1},{"trial_n":10,"min":89,"max":166,"target":"absent","response":"absent","rt":647,"correct":true,"confidence":-1},{"trial_n":11,"min":97,"max":158,"target":"present","response":"absent","rt":835.00000000001,"correct":false,"confidence":-1},{"trial_n":12,"min":89,"max":166,"target":"present","response":"absent","rt":763.99999999999,"correct":false,"confidence":-1},{"trial_n":13,"min":81,"max":174,"target":"absent","response":"absent","rt":656.00000000001,"correct":true,"confidence":-1},{"trial_n":14,"min":81,"max":174,"target":"present","response":"absent","rt":643,"correct":false,"confidence":-1},{"trial_n":15,"min":73,"max":182,"target":"present","response":"present","rt":812,"correct":true,"confidence":-1},{"trial_n":16,"min":73,"max":182,"target":"present","response":"present","rt":917,"correct":true,"confidence":-1},{"trial_n":17,"min":81,"max":174,"target":"present","response":"present","rt":842,"correct":true,"confidence":-1},{"trial_n":18,"min":81,"max":174,"target":"absent","response":"absent","rt":777,"correct":true,"confidence":-1},{"trial_n":19,"min":89,"max":166,"target":"present","response":"present","rt":932.99999999999,"correct":true,"confidence":-1},{"trial_n":20,"min":89,"max":166,"target":"absent","response":"absent","rt":768,"correct":true,"confidence":-1},{"trial_n":21,"min":93,"max":162,"target":"present","response":"absent","rt":1024,"correct":false,"confidence":5},{"trial_n":22,"min":89,"max":166,"target":"absent","response":"absent","rt":898,"correct":true,"confidence":5},{"trial_n":23,"min":89,"max":166,"target":"absent","response":"absent","rt":1012,"correct":true,"confidence":5},{"trial_n":24,"min":93,"max":162,"target":"absent","response":"absent","rt":949,"correct":true,"confidence":4},{"trial_n":25,"min":93,"max":162,"target":"absent","response":"absent","rt":818.99999999999,"correct":true,"confidence":5},{"trial_n":26,"min":97,"max":158,"target":"absent","response":"absent","rt":870,"correct":true,"confidence":4},{"trial_n":27,"min":97,"max":158,"target":"absent","response":"absent","rt":980,"correct":true,"confidence":4},{"trial_n":28,"min":101,"max":154,"target":"absent","response":"absent","rt":1142,"correct":true,"confidence":4},{"trial_n":29,"min":101,"max":154,"target":"present","response":"absent","rt":1161,"correct":false,"confidence":4},{"trial_n":30,"min":97,"max":158,"target":"present","response":"absent","rt":853,"correct":false,"confidence":4},{"trial_n":31,"min":95,"max":160,"target":"present","response":"absent","rt":2009,"correct":false,"confidence":3},{"trial_n":32,"min":93,"max":162,"target":"absent","response":"present","rt":1239,"correct":false,"confidence":3},{"trial_n":33,"min":91,"max":164,"target":"present","response":"absent","rt":1363,"correct":false,"confidence":3},{"trial_n":34,"min":89,"max":166,"target":"present","response":"absent","rt":939.99999999997,"correct":false,"confidence":4},{"trial_n":35,"min":87,"max":168,"target":"absent","response":"absent","rt":1054,"correct":true,"confidence":4},{"trial_n":36,"min":87,"max":168,"target":"present","response":"absent","rt":1130,"correct":false,"confidence":4},{"trial_n":37,"min":85,"max":170,"target":"absent","response":"absent","rt":1176,"correct":true,"confidence":4},{"trial_n":38,"min":85,"max":170,"target":"present","response":"absent","rt":886,"correct":false,"confidence":4},{"trial_n":39,"min":83,"max":172,"target":"present","response":"present","rt":1859,"correct":true,"confidence":3},{"trial_n":40,"min":83,"max":172,"target":"present","response":"absent","rt":894.99999999997,"correct":false,"confidence":4},{"trial_n":41,"min":82,"max":173,"target":"absent","response":"absent","rt":1321,"correct":true,"confidence":4},{"trial_n":42,"min":82,"max":173,"target":"absent","response":"absent","rt":810.00000000003,"correct":true,"confidence":4},{"trial_n":43,"min":83,"max":172,"target":"present","response":"absent","rt":1025,"correct":false,"confidence":4},{"trial_n":44,"min":82,"max":173,"target":"present","response":"absent","rt":1001,"correct":false,"confidence":4},{"trial_n":45,"min":81,"max":174,"target":"present","response":"absent","rt":3229,"correct":false,"confidence":3},{"trial_n":46,"min":80,"max":175,"target":"present","response":"present","rt":1136,"correct":true,"confidence":3},{"trial_n":47,"min":80,"max":175,"target":"present","response":"present","rt":740,"correct":true,"confidence":5},{"trial_n":48,"min":81,"max":174,"target":"present","response":"present","rt":846,"correct":true,"confidence":5},{"trial_n":49,"min":81,"max":174,"target":"absent","response":"present","rt":811,"correct":false,"confidence":5},{"trial_n":50,"min":80,"max":175,"target":"absent","response":"absent","rt":900.00000000003,"correct":true,"confidence":5},{"trial_n":51,"min":80,"max":175,"target":"absent","response":"absent","rt":851,"correct":true,"confidence":5},{"trial_n":52,"min":81,"max":174,"target":"absent","response":"absent","rt":915.99999999994,"correct":true,"confidence":4},{"trial_n":53,"min":81,"max":174,"target":"absent","response":"absent","rt":762,"correct":true,"confidence":4},{"trial_n":54,"min":82,"max":173,"target":"absent","response":"absent","rt":981,"correct":true,"confidence":4},{"trial_n":55,"min":82,"max":173,"target":"absent","response":"absent","rt":1135,"correct":true,"confidence":4},{"trial_n":56,"min":83,"max":172,"target":"present","response":"absent","rt":718,"correct":false,"confidence":4},{"trial_n":57,"min":82,"max":173,"target":"absent","response":"absent","rt":876,"correct":true,"confidence":4},{"trial_n":58,"min":82,"max":173,"target":"present","response":"absent","rt":799,"correct":false,"confidence":4},{"trial_n":59,"min":81,"max":174,"target":"present","response":"present","rt":822,"correct":true,"confidence":4},{"trial_n":60,"min":81,"max":174,"target":"present","response":"present","rt":758,"correct":true,"confidence":5},{"trial_n":61,"min":82,"max":173,"target":"present","response":"present","rt":743,"correct":true,"confidence":5},{"trial_n":62,"min":82,"max":173,"target":"present","response":"present","rt":798,"correct":true,"confidence":5},{"trial_n":63,"min":83,"max":172,"target":"present","response":"absent","rt":1616.0000000001,"correct":false,"confidence":3},{"trial_n":64,"min":82,"max":173,"target":"absent","response":"absent","rt":1015,"correct":true,"confidence":3},{"trial_n":65,"min":82,"max":173,"target":"absent","response":"absent","rt":796,"correct":true,"confidence":4},{"trial_n":66,"min":83,"max":172,"target":"absent","response":"absent","rt":893.00000000006,"correct":true,"confidence":4},{"trial_n":67,"min":83,"max":172,"target":"absent","response":"absent","rt":730,"correct":true,"confidence":5},{"trial_n":68,"min":84,"max":171,"target":"present","response":"absent","rt":811,"correct":false,"confidence":5},{"trial_n":69,"min":83,"max":172,"target":"present","response":"absent","rt":870,"correct":false,"confidence":4},{"trial_n":70,"min":82,"max":173,"target":"absent","response":"absent","rt":762,"correct":true,"confidence":4},{"trial_n":71,"min":41,"max":214,"target":"present","response":"present","rt":1627,"correct":true,"confidence":-1},{"trial_n":72,"min":41,"max":214,"target":"present","response":"present","rt":808,"correct":true,"confidence":-1},{"trial_n":73,"min":57,"max":198,"target":"absent","response":"absent","rt":871.00000000006,"correct":true,"confidence":-1},{"trial_n":74,"min":57,"max":198,"target":"absent","response":"absent","rt":752,"correct":true,"confidence":-1},{"trial_n":75,"min":73,"max":182,"target":"present","response":"present","rt":606.00000000006,"correct":true,"confidence":-1},{"trial_n":76,"min":73,"max":182,"target":"absent","response":"absent","rt":677.00000000006,"correct":true,"confidence":-1},{"trial_n":77,"min":89,"max":166,"target":"absent","response":"absent","rt":2180.0000000001,"correct":true,"confidence":-1},{"trial_n":78,"min":89,"max":166,"target":"present","response":"present","rt":1176,"correct":true,"confidence":-1},{"trial_n":79,"min":105,"max":150,"target":"absent","response":"present","rt":839,"correct":false,"confidence":-1},{"trial_n":80,"min":89,"max":166,"target":"present","response":"absent","rt":1457,"correct":false,"confidence":-1},{"trial_n":81,"min":81,"max":174,"target":"present","response":"present","rt":969.99999999994,"correct":true,"confidence":-1},{"trial_n":82,"min":81,"max":174,"target":"present","response":"present","rt":1328,"correct":true,"confidence":-1},{"trial_n":83,"min":89,"max":166,"target":"present","response":"present","rt":686,"correct":true,"confidence":-1},{"trial_n":84,"min":89,"max":166,"target":"absent","response":"absent","rt":977,"correct":true,"confidence":-1},{"trial_n":85,"min":97,"max":158,"target":"absent","response":"present","rt":1366,"correct":false,"confidence":-1},{"trial_n":86,"min":89,"max":166,"target":"present","response":"present","rt":718.99999999994,"correct":true,"confidence":-1},{"trial_n":87,"min":89,"max":166,"target":"present","response":"absent","rt":4575,"correct":false,"confidence":-1},{"trial_n":88,"min":81,"max":174,"target":"present","response":"present","rt":639,"correct":true,"confidence":-1},{"trial_n":89,"min":81,"max":174,"target":"absent","response":"present","rt":1616,"correct":false,"confidence":-1},{"trial_n":90,"min":73,"max":182,"target":"absent","response":"present","rt":784.00000000006,"correct":false,"confidence":-1},{"trial_n":91,"min":69,"max":186,"target":"present","response":"present","rt":599,"correct":true,"confidence":5},{"trial_n":92,"min":69,"max":186,"target":"absent","response":"absent","rt":898,"correct":true,"confidence":5},{"trial_n":93,"min":73,"max":182,"target":"present","response":"present","rt":753.00000000006,"correct":true,"confidence":5},{"trial_n":94,"min":73,"max":182,"target":"present","response":"present","rt":663,"correct":true,"confidence":5},{"trial_n":95,"min":77,"max":178,"target":"present","response":"present","rt":752,"correct":true,"confidence":5},{"trial_n":96,"min":77,"max":178,"target":"present","response":"present","rt":697,"correct":true,"confidence":5},{"trial_n":97,"min":81,"max":174,"target":"present","response":"present","rt":849.00000000006,"correct":true,"confidence":4},{"trial_n":98,"min":81,"max":174,"target":"absent","response":"absent","rt":1488,"correct":true,"confidence":3},{"trial_n":99,"min":85,"max":170,"target":"present","response":"present","rt":1806,"correct":true,"confidence":3},{"trial_n":100,"min":85,"max":170,"target":"absent","response":"present","rt":1173.9999999999,"correct":false,"confidence":2},{"trial_n":101,"min":83,"max":172,"target":"present","response":"present","rt":777.00000000006,"correct":true,"confidence":4},{"trial_n":102,"min":83,"max":172,"target":"absent","response":"present","rt":1934,"correct":false,"confidence":1},{"trial_n":103,"min":81,"max":174,"target":"present","response":"present","rt":688.99999999994,"correct":true,"confidence":4},{"trial_n":104,"min":81,"max":174,"target":"absent","response":"absent","rt":1298,"correct":true,"confidence":1},{"trial_n":105,"min":83,"max":172,"target":"absent","response":"absent","rt":1093.9999999999,"correct":true,"confidence":2},{"trial_n":106,"min":83,"max":172,"target":"present","response":"present","rt":1394.9999999999,"correct":true,"confidence":2},{"trial_n":107,"min":85,"max":170,"target":"present","response":"present","rt":615.00000000006,"correct":true,"confidence":4},{"trial_n":108,"min":85,"max":170,"target":"absent","response":"present","rt":1061,"correct":false,"confidence":2},{"trial_n":109,"min":83,"max":172,"target":"present","response":"present","rt":606,"correct":true,"confidence":4},{"trial_n":110,"min":83,"max":172,"target":"present","response":"present","rt":947,"correct":true,"confidence":2},{"trial_n":111,"min":84,"max":171,"target":"absent","response":"absent","rt":1093.9999999999,"correct":true,"confidence":2},{"trial_n":112,"min":84,"max":171,"target":"absent","response":"present","rt":2015.0000000002,"correct":false,"confidence":1},{"trial_n":113,"min":83,"max":172,"target":"present","response":"absent","rt":1646,"correct":false,"confidence":1},{"trial_n":114,"min":82,"max":173,"target":"absent","response":"absent","rt":922,"correct":true,"confidence":2},{"trial_n":115,"min":82,"max":173,"target":"present","response":"present","rt":947,"correct":true,"confidence":1},{"trial_n":116,"min":83,"max":172,"target":"present","response":"present","rt":793.99999999988,"correct":true,"confidence":3},{"trial_n":117,"min":83,"max":172,"target":"absent","response":"present","rt":1628,"correct":false,"confidence":1},{"trial_n":118,"min":82,"max":173,"target":"absent","response":"absent","rt":1896.9999999999,"correct":true,"confidence":1},{"trial_n":119,"min":82,"max":173,"target":"present","response":"present","rt":780,"correct":true,"confidence":2},{"trial_n":120,"min":83,"max":172,"target":"absent","response":"present","rt":1630,"correct":false,"confidence":1},{"trial_n":121,"min":82,"max":173,"target":"absent","response":"absent","rt":2778.0000000001,"correct":true,"confidence":1},{"trial_n":122,"min":82,"max":173,"target":"present","response":"present","rt":568.00000000012,"correct":true,"confidence":4},{"trial_n":123,"min":83,"max":172,"target":"present","response":"present","rt":610,"correct":true,"confidence":4},{"trial_n":124,"min":83,"max":172,"target":"absent","response":"present","rt":1289,"correct":false,"confidence":1},{"trial_n":125,"min":82,"max":173,"target":"present","response":"absent","rt":1482,"correct":false,"confidence":1},{"trial_n":126,"min":81,"max":174,"target":"absent","response":"absent","rt":1047,"correct":true,"confidence":2},{"trial_n":127,"min":81,"max":174,"target":"absent","response":"absent","rt":1239,"correct":true,"confidence":2},{"trial_n":128,"min":82,"max":173,"target":"absent","response":"present","rt":3013,"correct":false,"confidence":1},{"trial_n":129,"min":81,"max":174,"target":"present","response":"present","rt":811,"correct":true,"confidence":2},{"trial_n":130,"min":81,"max":174,"target":"present","response":"present","rt":591,"correct":true,"confidence":4},{"trial_n":131,"min":82,"max":173,"target":"absent","response":"absent","rt":1029.9999999999,"correct":true,"confidence":1},{"trial_n":132,"min":82,"max":173,"target":"absent","response":"present","rt":1296,"correct":false,"confidence":1},{"trial_n":133,"min":81,"max":174,"target":"absent","response":"present","rt":836,"correct":false,"confidence":2},{"trial_n":134,"min":80,"max":175,"target":"absent","response":"absent","rt":891.99999999988,"correct":true,"confidence":2},{"trial_n":135,"min":80,"max":175,"target":"absent","response":"absent","rt":1184,"correct":true,"confidence":3},{"trial_n":136,"min":81,"max":174,"target":"present","response":"present","rt":545.00000000012,"correct":true,"confidence":5},{"trial_n":137,"min":81,"max":174,"target":"present","response":"present","rt":535,"correct":true,"confidence":5},{"trial_n":138,"min":82,"max":173,"target":"absent","response":"absent","rt":1085,"correct":true,"confidence":1},{"trial_n":139,"min":82,"max":173,"target":"present","response":"present","rt":1088,"correct":true,"confidence":4},{"trial_n":140,"min":83,"max":172,"target":"absent","response":"present","rt":1080,"correct":false,"confidence":3}]