[{"trial_n":1,"span":8,"encoder":"01164258","distractor":"01764258","target":"present","response":"absent","rt":"3614","correct":false,"confidence":-1},{"trial_n":2,"span":6,"encoder":"797263","distractor":"793263","target":"present","response":"present","rt":"3222","correct":true,"confidence":-1},{"trial_n":3,"span":6,"encoder":"716968","distractor":"718968","target":"absent","response":"absent","rt":"4594","correct":true,"confidence":-1},{"trial_n":4,"span":8,"encoder":"85269149","distractor":"85269049","target":"absent","response":"absent","rt":"2132","correct":true,"confidence":-1},{"trial_n":5,"span":8,"encoder":"81774851","distractor":"21774851","target":"present","response":"absent","rt":"1839","correct":false,"confidence":-1},{"trial_n":6,"span":6,"encoder":"982881","distractor":"912881","target":"present","response":"absent","rt":"1632","correct":false,"confidence":-1},{"trial_n":7,"span":4,"encoder":"7970","distractor":"7971","target":"absent","response":"absent","rt":"1999","correct":true,"confidence":-1},{"trial_n":8,"span":4,"encoder":"1045","distractor":"1245","target":"present","response":"present","rt":"2057","correct":true,"confidence":-1},{"trial_n":9,"span":6,"encoder":"031550","distractor":"331550","target":"present","response":"absent","rt":"2936","correct":false,"confidence":-1},{"trial_n":10,"span":4,"encoder":"7913","distractor":"7910","target":"present","response":"present","rt":"4099","correct":true,"confidence":-1},{"trial_n":11,"span":4,"encoder":"2696","distractor":"6696","target":"present","response":"present","rt":"179529","correct":true,"confidence":-1},{"trial_n":12,"span":5,"encoder":"53546","distractor":"53548","target":"absent","response":"absent","rt":"2764","correct":true,"confidence":-1},{"trial_n":13,"span":5,"encoder":"79316","distractor":"79916","target":"absent","response":"absent","rt":"2949","correct":true,"confidence":-1},{"trial_n":14,"span":6,"encoder":"985229","distractor":"985829","target":"present","response":"present","rt":"2914","correct":true,"confidence":-1},{"trial_n":15,"span":6,"encoder":"354493","distractor":"754493","target":"present","response":"present","rt":"1907","correct":true,"confidence":-1},{"trial_n":16,"span":7,"encoder":"1298475","distractor":"1298471","target":"present","response":"present","rt":"2933","correct":true,"confidence":-1},{"trial_n":17,"span":7,"encoder":"1024371","distractor":"1024377","target":"present","response":"present","rt":"2718","correct":true,"confidence":-1},{"trial_n":18,"span":8,"encoder":"36334020","distractor":"36334024","target":"absent","response":"present","rt":"4181","correct":false,"confidence":-1},{"trial_n":19,"span":7,"encoder":"2406826","distractor":"2406866","target":"present","response":"present","rt":"1697.0000000001","correct":true,"confidence":-1},{"trial_n":20,"span":7,"encoder":"7876989","distractor":"7876983","target":"absent","response":"absent","rt":"2881","correct":true,"confidence":-1},{"trial_n":21,"span":8,"encoder":"20760429","distractor":"22760429","target":"present","response":"present","rt":"4250.9999999999","correct":true,"confidence":4},{"trial_n":22,"span":8,"encoder":"45350281","distractor":"45250281","target":"present","response":"present","rt":"6496","correct":true,"confidence":3},{"trial_n":23,"span":9,"encoder":"249182480","distractor":"247182480","target":"present","response":"present","rt":"4321.9999999999","correct":true,"confidence":4},{"trial_n":24,"span":9,"encoder":"745033671","distractor":"045033671","target":"absent","response":"absent","rt":"5830.0000000001","correct":true,"confidence":3},{"trial_n":25,"span":10,"encoder":"3640309399","distractor":"3240309399","target":"present","response":"absent","rt":"5230.0000000001","correct":false,"confidence":4},{"trial_n":26,"span":9,"encoder":"031895614","distractor":"031895414","target":"present","response":"present","rt":"3272.0000000001","correct":true,"confidence":3},{"trial_n":27,"span":9,"encoder":"998081308","distractor":"991081308","target":"present","response":"present","rt":"5435","correct":true,"confidence":4},{"trial_n":28,"span":10,"encoder":"5604768037","distractor":"5604768034","target":"present","response":"absent","rt":"6110","correct":false,"confidence":2},{"trial_n":29,"span":9,"encoder":"471980200","distractor":"471987200","target":"present","response":"absent","rt":"5316.9999999999","correct":false,"confidence":4},{"trial_n":30,"span":8,"encoder":"95361202","distractor":"95361262","target":"present","response":"present","rt":"9673.9999999999","correct":true,"confidence":4},{"trial_n":31,"span":8,"encoder":"09590651","distractor":"09590656","target":"absent","response":"present","rt":"2160","correct":false,"confidence":2},{"trial_n":32,"span":7,"encoder":"1600169","distractor":"1604169","target":"absent","response":"absent","rt":"2552","correct":true,"confidence":4},{"trial_n":33,"span":7,"encoder":"4600690","distractor":"4600790","target":"absent","response":"absent","rt":"4026","correct":true,"confidence":4},{"trial_n":34,"span":8,"encoder":"37390126","distractor":"37340126","target":"absent","response":"absent","rt":"2928.9999999999","correct":true,"confidence":4},{"trial_n":35,"span":8,"encoder":"51172008","distractor":"51132008","target":"absent","response":"absent","rt":"4162.9999999999","correct":true,"confidence":4},{"trial_n":36,"span":9,"encoder":"750436887","distractor":"750416887","target":"absent","response":"absent","rt":"6653","correct":true,"confidence":4},{"trial_n":37,"span":9,"encoder":"042590047","distractor":"042490047","target":"absent","response":"absent","rt":"5557","correct":true,"confidence":4},{"trial_n":38,"span":10,"encoder":"6485454973","distractor":"6485454923","target":"absent","response":"present","rt":"6048","correct":false,"confidence":3},{"trial_n":39,"span":9,"encoder":"143575280","distractor":"143574280","target":"absent","response":"absent","rt":"6429","correct":true,"confidence":4},{"trial_n":40,"span":9,"encoder":"164926905","distractor":"164920905","target":"present","response":"present","rt":"4368","correct":true,"confidence":4},{"trial_n":41,"span":10,"encoder":"0979217154","distractor":"0179217154","target":"present","response":"absent","rt":"5696","correct":false,"confidence":4},{"trial_n":42,"span":9,"encoder":"328145009","distractor":"328145005","target":"present","response":"absent","rt":"3764","correct":false,"confidence":4},{"trial_n":43,"span":8,"encoder":"60210850","distractor":"00210850","target":"present","response":"present","rt":"6161","correct":true,"confidence":3},{"trial_n":44,"span":8,"encoder":"23586983","distractor":"23586483","target":"absent","response":"absent","rt":"5311","correct":true,"confidence":4},{"trial_n":45,"span":9,"encoder":"286335848","distractor":"286335148","target":"present","response":"present","rt":"4044.0000000001","correct":true,"confidence":4},{"trial_n":46,"span":9,"encoder":"338454301","distractor":"338454302","target":"absent","response":"absent","rt":"5939","correct":true,"confidence":4},{"trial_n":47,"span":10,"encoder":"3477944027","distractor":"3477942027","target":"absent","response":"absent","rt":"5408","correct":true,"confidence":4},{"trial_n":48,"span":10,"encoder":"1987174881","distractor":"1987170881","target":"absent","response":"absent","rt":"4353","correct":true,"confidence":4},{"trial_n":49,"span":11,"encoder":"80532095724","distractor":"80532095124","target":"present","response":"absent","rt":"7026","correct":false,"confidence":4},{"trial_n":50,"span":10,"encoder":"0478677250","distractor":"0478679250","target":"absent","response":"present","rt":"2363","correct":false,"confidence":3},{"trial_n":51,"span":9,"encoder":"805188972","distractor":"805183972","target":"present","response":"absent","rt":"3050.9999999999","correct":false,"confidence":3},{"trial_n":52,"span":8,"encoder":"63242205","distractor":"63242255","target":"absent","response":"present","rt":"4180","correct":false,"confidence":4},{"trial_n":53,"span":7,"encoder":"9010824","distractor":"9310824","target":"present","response":"present","rt":"2830.9999999999","correct":true,"confidence":4},{"trial_n":54,"span":7,"encoder":"6620428","distractor":"6620628","target":"present","response":"present","rt":"3041.9999999999","correct":true,"confidence":4},{"trial_n":55,"span":8,"encoder":"48363121","distractor":"47363121","target":"absent","response":"present","rt":"6879","correct":false,"confidence":4},{"trial_n":56,"span":7,"encoder":"0877337","distractor":"0977337","target":"absent","response":"absent","rt":"2232.0000000001","correct":true,"confidence":4},{"trial_n":57,"span":7,"encoder":"1028701","distractor":"1028704","target":"present","response":"absent","rt":"6220","correct":false,"confidence":4},{"trial_n":58,"span":6,"encoder":"800946","distractor":"880946","target":"absent","response":"present","rt":"3087","correct":false,"confidence":4},{"trial_n":59,"span":5,"encoder":"47526","distractor":"48526","target":"absent","response":"absent","rt":"2008","correct":true,"confidence":4},{"trial_n":60,"span":5,"encoder":"02369","distractor":"08369","target":"absent","response":"absent","rt":"3071","correct":true,"confidence":4},{"trial_n":61,"span":6,"encoder":"102650","distractor":"152650","target":"absent","response":"absent","rt":"4903","correct":true,"confidence":4},{"trial_n":62,"span":6,"encoder":"045525","distractor":"045520","target":"present","response":"present","rt":"2275","correct":true,"confidence":4},{"trial_n":63,"span":7,"encoder":"0046897","distractor":"0046857","target":"present","response":"present","rt":"3921.0000000001","correct":true,"confidence":4},{"trial_n":64,"span":7,"encoder":"8746036","distractor":"8746038","target":"absent","response":"absent","rt":"5005","correct":true,"confidence":4},{"trial_n":65,"span":8,"encoder":"02927350","distractor":"02927310","target":"present","response":"present","rt":"4199","correct":true,"confidence":4},{"trial_n":66,"span":8,"encoder":"14477910","distractor":"14477919","target":"present","response":"present","rt":"3459","correct":true,"confidence":4},{"trial_n":67,"span":9,"encoder":"000677854","distractor":"000677856","target":"absent","response":"absent","rt":"3397.9999999999","correct":true,"confidence":4},{"trial_n":68,"span":9,"encoder":"172930602","distractor":"172930672","target":"absent","response":"absent","rt":"3209.9999999998","correct":true,"confidence":4},{"trial_n":69,"span":10,"encoder":"6972893085","distractor":"6972883085","target":"absent","response":"absent","rt":"2697","correct":true,"confidence":4},{"trial_n":70,"span":10,"encoder":"7006957114","distractor":"7009957114","target":"absent","response":"present","rt":"6613","correct":false,"confidence":4},{"trial_n":71,"span":8,"encoder":"36338611","distractor":"56338611","target":"present","response":"present","rt":"4331","correct":true,"confidence":-1},{"trial_n":72,"span":8,"encoder":"39001615","distractor":"39091615","target":"present","response":"present","rt":"4026","correct":true,"confidence":-1},{"trial_n":73,"span":9,"encoder":"519998576","distractor":"519978576","target":"absent","response":"absent","rt":"7058","correct":true,"confidence":-1},{"trial_n":74,"span":9,"encoder":"953438816","distractor":"953438886","target":"absent","response":"absent","rt":"6368.9999999998","correct":true,"confidence":-1},{"trial_n":75,"span":10,"encoder":"3546774681","distractor":"3546770681","target":"present","response":"present","rt":"7541.9999999998","correct":true,"confidence":-1},{"trial_n":76,"span":10,"encoder":"5242699629","distractor":"5142699629","target":"present","response":"present","rt":"6815","correct":true,"confidence":-1},{"trial_n":77,"span":11,"encoder":"46002269214","distractor":"46002269614","target":"present","response":"absent","rt":"8139","correct":false,"confidence":-1},{"trial_n":78,"span":10,"encoder":"2746418822","distractor":"2746418722","target":"present","response":"present","rt":"37514","correct":true,"confidence":-1},{"trial_n":79,"span":10,"encoder":"5184379391","distractor":"1184379391","target":"absent","response":"absent","rt":"3611","correct":true,"confidence":-1},{"trial_n":80,"span":11,"encoder":"07421584348","distractor":"07421504348","target":"present","response":"absent","rt":"11396","correct":false,"confidence":-1},{"trial_n":81,"span":10,"encoder":"5610521574","distractor":"5610521573","target":"present","response":"present","rt":"7392","correct":true,"confidence":-1},{"trial_n":82,"span":10,"encoder":"9639698446","distractor":"9639697446","target":"present","response":"absent","rt":"14763","correct":false,"confidence":-1},{"trial_n":83,"span":9,"encoder":"280485740","distractor":"280485720","target":"present","response":"present","rt":"5801.9999999998","correct":true,"confidence":-1},{"trial_n":84,"span":9,"encoder":"451144136","distractor":"451194136","target":"present","response":"absent","rt":"6975.9999999998","correct":false,"confidence":-1},{"trial_n":85,"span":8,"encoder":"45612141","distractor":"45812141","target":"absent","response":"present","rt":"8554","correct":false,"confidence":-1},{"trial_n":86,"span":7,"encoder":"4809228","distractor":"4800228","target":"present","response":"absent","rt":"13439","correct":false,"confidence":-1},{"trial_n":87,"span":6,"encoder":"029307","distractor":"059307","target":"absent","response":"present","rt":"1999","correct":false,"confidence":-1},{"trial_n":88,"span":5,"encoder":"65654","distractor":"69654","target":"absent","response":"present","rt":"9977.0000000002","correct":false,"confidence":-1},{"trial_n":89,"span":4,"encoder":"0110","distractor":"0210","target":"absent","response":"absent","rt":"3145","correct":true,"confidence":-1},{"trial_n":90,"span":4,"encoder":"0518","distractor":"0514","target":"absent","response":"absent","rt":"15029","correct":true,"confidence":-1},{"trial_n":91,"span":5,"encoder":"53065","distractor":"53465","target":"absent","response":"absent","rt":"2453","correct":true,"confidence":5},{"trial_n":92,"span":5,"encoder":"03275","distractor":"43275","target":"present","response":"present","rt":"3730","correct":true,"confidence":5},{"trial_n":93,"span":6,"encoder":"902272","distractor":"902472","target":"absent","response":"absent","rt":"2343.0000000002","correct":true,"confidence":5},{"trial_n":94,"span":6,"encoder":"624186","distractor":"621186","target":"absent","response":"absent","rt":"3136","correct":true,"confidence":5},{"trial_n":95,"span":7,"encoder":"6121697","distractor":"9121697","target":"absent","response":"absent","rt":"3279","correct":true,"confidence":5},{"trial_n":96,"span":7,"encoder":"9302358","distractor":"4302358","target":"present","response":"present","rt":"6401","correct":true,"confidence":4},{"trial_n":97,"span":8,"encoder":"09255325","distractor":"99255325","target":"present","response":"present","rt":"5427.9999999998","correct":true,"confidence":5},{"trial_n":98,"span":8,"encoder":"75147038","distractor":"75147068","target":"absent","response":"absent","rt":"4982","correct":true,"confidence":4},{"trial_n":99,"span":9,"encoder":"683137974","distractor":"283137974","target":"absent","response":"absent","rt":"9670","correct":true,"confidence":4},{"trial_n":100,"span":9,"encoder":"243175991","distractor":"243175391","target":"present","response":"present","rt":"8881","correct":true,"confidence":3},{"trial_n":101,"span":10,"encoder":"6527249354","distractor":"6527244354","target":"present","response":"present","rt":"6969.0000000002","correct":true,"confidence":4},{"trial_n":102,"span":10,"encoder":"4076281415","distractor":"1076281415","target":"present","response":"present","rt":"8148.9999999998","correct":true,"confidence":4},{"trial_n":103,"span":11,"encoder":"99299208158","distractor":"99291208158","target":"absent","response":"absent","rt":"2919","correct":true,"confidence":5},{"trial_n":104,"span":11,"encoder":"45555501493","distractor":"45555501494","target":"present","response":"present","rt":"5698","correct":true,"confidence":5},{"trial_n":105,"span":12,"encoder":"745576304076","distractor":"715576304076","target":"absent","response":"absent","rt":"6718","correct":true,"confidence":4},{"trial_n":106,"span":12,"encoder":"433618902966","distractor":"433618902666","target":"absent","response":"present","rt":"6071","correct":false,"confidence":2},{"trial_n":107,"span":11,"encoder":"74538293787","distractor":"74538253787","target":"absent","response":"absent","rt":"6133","correct":true,"confidence":4},{"trial_n":108,"span":11,"encoder":"95638464537","distractor":"75638464537","target":"present","response":"absent","rt":"5115","correct":false,"confidence":4},{"trial_n":109,"span":10,"encoder":"9915458328","distractor":"9925458328","target":"absent","response":"absent","rt":"4693","correct":true,"confidence":4},{"trial_n":110,"span":10,"encoder":"3944068071","distractor":"3949068071","target":"absent","response":"absent","rt":"4332","correct":true,"confidence":5},{"trial_n":111,"span":11,"encoder":"87502641733","distractor":"84502641733","target":"present","response":"present","rt":"4382","correct":true,"confidence":2},{"trial_n":112,"span":11,"encoder":"10624981472","distractor":"10624983472","target":"present","response":"present","rt":"10686","correct":true,"confidence":2},{"trial_n":113,"span":12,"encoder":"198136900898","distractor":"198136200898","target":"absent","response":"absent","rt":"6940","correct":true,"confidence":2},{"trial_n":114,"span":12,"encoder":"306660616561","distractor":"396660616561","target":"absent","response":"absent","rt":"7866","correct":true,"confidence":3},{"trial_n":115,"span":13,"encoder":"1373404710144","distractor":"1373405710144","target":"absent","response":"absent","rt":"8881","correct":true,"confidence":3},{"trial_n":116,"span":13,"encoder":"7260559877750","distractor":"5260559877750","target":"present","response":"present","rt":"8738","correct":true,"confidence":4},{"trial_n":117,"span":14,"encoder":"63033248909444","distractor":"63033248909544","target":"present","response":"present","rt":"8455","correct":true,"confidence":4},{"trial_n":118,"span":14,"encoder":"29004099956338","distractor":"29004059956338","target":"absent","response":"absent","rt":"5237.9999999995","correct":true,"confidence":4},{"trial_n":119,"span":15,"encoder":"357421540643254","distractor":"357421140643254","target":"present","response":"present","rt":"5342","correct":true,"confidence":3},{"trial_n":120,"span":15,"encoder":"810521518896611","distractor":"810521518896671","target":"absent","response":"present","rt":"3085","correct":false,"confidence":2},{"trial_n":121,"span":14,"encoder":"54507873755192","distractor":"54507373755192","target":"present","response":"absent","rt":"5878.0000000005","correct":false,"confidence":2},{"trial_n":122,"span":13,"encoder":"4652543809410","distractor":"7652543809410","target":"present","response":"present","rt":"4536.9999999995","correct":true,"confidence":3},{"trial_n":123,"span":13,"encoder":"4349956179299","distractor":"4349956179999","target":"present","response":"present","rt":"4917","correct":true,"confidence":4},{"trial_n":124,"span":14,"encoder":"49541938241346","distractor":"49041938241346","target":"absent","response":"absent","rt":"8373","correct":true,"confidence":4},{"trial_n":125,"span":14,"encoder":"73987522167524","distractor":"73987522167528","target":"present","response":"present","rt":"6049.0000000005","correct":true,"confidence":4},{"trial_n":126,"span":15,"encoder":"643533992384105","distractor":"643533922384105","target":"absent","response":"present","rt":"5677.0000000005","correct":false,"confidence":3},{"trial_n":127,"span":14,"encoder":"27155666567492","distractor":"27155664567492","target":"present","response":"absent","rt":"4473","correct":false,"confidence":3},{"trial_n":128,"span":13,"encoder":"5919872435631","distractor":"5519872435631","target":"absent","response":"absent","rt":"1896","correct":true,"confidence":5},{"trial_n":129,"span":13,"encoder":"3806654824359","distractor":"3801654824359","target":"present","response":"absent","rt":"3872","correct":false,"confidence":2},{"trial_n":130,"span":12,"encoder":"496895368345","distractor":"496895362345","target":"absent","response":"absent","rt":"3753.9999999995","correct":true,"confidence":4},{"trial_n":131,"span":12,"encoder":"098389465461","distractor":"098389468461","target":"absent","response":"absent","rt":"7643","correct":true,"confidence":3},{"trial_n":132,"span":13,"encoder":"2409981426782","distractor":"2489981426782","target":"present","response":"absent","rt":"7181","correct":false,"confidence":3},{"trial_n":133,"span":12,"encoder":"518017503878","distractor":"510017503878","target":"absent","response":"absent","rt":"4097.9999999995","correct":true,"confidence":2},{"trial_n":134,"span":12,"encoder":"860654032349","distractor":"860654022349","target":"present","response":"present","rt":"10121","correct":true,"confidence":4},{"trial_n":135,"span":13,"encoder":"5055756084008","distractor":"5055759084008","target":"absent","response":"present","rt":"1610","correct":false,"confidence":2},{"trial_n":136,"span":12,"encoder":"991932330483","distractor":"991932330283","target":"present","response":"absent","rt":"8449.9999999995","correct":false,"confidence":2},{"trial_n":137,"span":11,"encoder":"92242399875","distractor":"92252399875","target":"present","response":"present","rt":"8042","correct":true,"confidence":2},{"trial_n":138,"span":11,"encoder":"63442421046","distractor":"63642421046","target":"absent","response":"present","rt":"5576","correct":false,"confidence":4},{"trial_n":139,"span":10,"encoder":"1748654507","distractor":"1748652507","target":"present","response":"present","rt":"12778","correct":true,"confidence":3},{"trial_n":140,"span":10,"encoder":"8738208744","distractor":"8730208744","target":"absent","response":"absent","rt":"4370","correct":true,"confidence":3}]