[{"trial_n":1,"span":8,"encoder":"30051332","distractor":"30051333","target":"present","response":"present","rt":"1976.1999999285","correct":true,"confidence":-1},{"trial_n":2,"span":8,"encoder":"84242530","distractor":"84240530","target":"present","response":"present","rt":"4557.6000000238","correct":true,"confidence":-1},{"trial_n":3,"span":10,"encoder":"0179650068","distractor":"0179653068","target":"absent","response":"absent","rt":"3707.6999999285","correct":true,"confidence":-1},{"trial_n":4,"span":10,"encoder":"6815071033","distractor":"6815078033","target":"absent","response":"present","rt":"1757.3999999762","correct":false,"confidence":-1},{"trial_n":5,"span":8,"encoder":"13042739","distractor":"13046739","target":"present","response":"present","rt":"2416.8999999762","correct":true,"confidence":-1},{"trial_n":6,"span":8,"encoder":"53516437","distractor":"53316437","target":"absent","response":"absent","rt":"2016.2000000477","correct":true,"confidence":-1},{"trial_n":7,"span":10,"encoder":"8448168269","distractor":"8448168263","target":"absent","response":"absent","rt":"4341","correct":true,"confidence":-1},{"trial_n":8,"span":10,"encoder":"9304983768","distractor":"9304987768","target":"present","response":"absent","rt":"6867.7000000477","correct":false,"confidence":-1},{"trial_n":9,"span":8,"encoder":"65286048","distractor":"65286078","target":"present","response":"present","rt":"2244.6999999285","correct":true,"confidence":-1},{"trial_n":10,"span":8,"encoder":"16174991","distractor":"16174996","target":"present","response":"present","rt":"4036.5","correct":true,"confidence":-1},{"trial_n":11,"span":10,"encoder":"5941168652","distractor":"5949168652","target":"present","response":"present","rt":"3962.1000000238","correct":true,"confidence":-1},{"trial_n":12,"span":10,"encoder":"4739095644","distractor":"4739099644","target":"absent","response":"present","rt":"3694.2999999523","correct":false,"confidence":-1},{"trial_n":13,"span":9,"encoder":"772350318","distractor":"772350314","target":"absent","response":"absent","rt":"3531.2000000477","correct":true,"confidence":-1},{"trial_n":14,"span":9,"encoder":"153604521","distractor":"153604721","target":"absent","response":"absent","rt":"3213.1999999285","correct":true,"confidence":-1},{"trial_n":15,"span":10,"encoder":"7780422628","distractor":"7780422688","target":"present","response":"absent","rt":"5484.3000000715","correct":false,"confidence":-1},{"trial_n":16,"span":9,"encoder":"712663238","distractor":"712663218","target":"present","response":"present","rt":"1217.2999999523","correct":true,"confidence":-1},{"trial_n":17,"span":9,"encoder":"768894467","distractor":"768894407","target":"present","response":"present","rt":"4161.6999999285","correct":true,"confidence":-1},{"trial_n":18,"span":10,"encoder":"9437120753","distractor":"9437920753","target":"present","response":"present","rt":"3148.7000000477","correct":true,"confidence":-1},{"trial_n":19,"span":10,"encoder":"0809339297","distractor":"0809332297","target":"absent","response":"present","rt":"3199.6000000238","correct":false,"confidence":-1},{"trial_n":20,"span":9,"encoder":"799445543","distractor":"792445543","target":"present","response":"present","rt":"1031.8000000715","correct":true,"confidence":-1},{"trial_n":21,"span":9,"encoder":"429855092","distractor":"429845092","target":"absent","response":"present","rt":"11325.899999976","correct":false,"confidence":3},{"trial_n":22,"span":8,"encoder":"89159436","distractor":"89153436","target":"present","response":"present","rt":"1861.5999999046","correct":true,"confidence":2},{"trial_n":23,"span":8,"encoder":"56417914","distractor":"54417914","target":"absent","response":"absent","rt":"2071.5","correct":true,"confidence":5},{"trial_n":24,"span":9,"encoder":"095219154","distractor":"095319154","target":"absent","response":"present","rt":"1968.6000000238","correct":false,"confidence":3},{"trial_n":25,"span":8,"encoder":"23240295","distractor":"23240290","target":"absent","response":"absent","rt":"3121.6000000238","correct":true,"confidence":5},{"trial_n":26,"span":8,"encoder":"57634225","distractor":"57634325","target":"present","response":"present","rt":"4406","correct":true,"confidence":4},{"trial_n":27,"span":9,"encoder":"528184153","distractor":"578184153","target":"present","response":"present","rt":"4533","correct":true,"confidence":3},{"trial_n":28,"span":9,"encoder":"712376296","distractor":"712376236","target":"present","response":"present","rt":"3143.6000000238","correct":true,"confidence":4},{"trial_n":29,"span":10,"encoder":"9083756620","distractor":"9093756620","target":"absent","response":"present","rt":"4614.3999999762","correct":false,"confidence":4},{"trial_n":30,"span":9,"encoder":"964248747","distractor":"961248747","target":"present","response":"present","rt":"3111.2999999523","correct":true,"confidence":4},{"trial_n":31,"span":9,"encoder":"931650269","distractor":"931650249","target":"present","response":"present","rt":"4879.6000000238","correct":true,"confidence":4},{"trial_n":32,"span":10,"encoder":"2536756493","distractor":"2536758493","target":"present","response":"absent","rt":"7407","correct":false,"confidence":3},{"trial_n":33,"span":9,"encoder":"911247205","distractor":"811247205","target":"absent","response":"absent","rt":"1645.3999999762","correct":true,"confidence":5},{"trial_n":34,"span":9,"encoder":"802294006","distractor":"802294706","target":"absent","response":"absent","rt":"6059.6000000238","correct":true,"confidence":3},{"trial_n":35,"span":10,"encoder":"1457384835","distractor":"1457384815","target":"absent","response":"present","rt":"1801.8999999762","correct":false,"confidence":3},{"trial_n":36,"span":9,"encoder":"985658013","distractor":"985668013","target":"present","response":"present","rt":"2871.1000000238","correct":true,"confidence":4},{"trial_n":37,"span":9,"encoder":"746417226","distractor":"746414226","target":"absent","response":"present","rt":"4720.5","correct":false,"confidence":3},{"trial_n":38,"span":8,"encoder":"91409477","distractor":"91209477","target":"present","response":"present","rt":"3571.5","correct":true,"confidence":4},{"trial_n":39,"span":8,"encoder":"87302843","distractor":"87302243","target":"present","response":"present","rt":"2907.8000000715","correct":true,"confidence":4},{"trial_n":40,"span":9,"encoder":"363649539","distractor":"363640539","target":"absent","response":"present","rt":"6810.6000000238","correct":false,"confidence":3},{"trial_n":41,"span":8,"encoder":"75288720","distractor":"75281720","target":"absent","response":"absent","rt":"1737","correct":true,"confidence":3},{"trial_n":42,"span":8,"encoder":"04591863","distractor":"03591863","target":"present","response":"present","rt":"2178","correct":true,"confidence":5},{"trial_n":43,"span":9,"encoder":"759919098","distractor":"659919098","target":"absent","response":"present","rt":"2995.5","correct":false,"confidence":4},{"trial_n":44,"span":8,"encoder":"98716129","distractor":"98716029","target":"present","response":"present","rt":"5722.2999999523","correct":true,"confidence":3},{"trial_n":45,"span":8,"encoder":"61753038","distractor":"61752038","target":"absent","response":"absent","rt":"4083.1000000238","correct":true,"confidence":4},{"trial_n":46,"span":9,"encoder":"236900033","distractor":"636900033","target":"absent","response":"absent","rt":"5706.1000000238","correct":true,"confidence":4},{"trial_n":47,"span":9,"encoder":"729350999","distractor":"929350999","target":"absent","response":"absent","rt":"2655.5","correct":true,"confidence":5},{"trial_n":48,"span":10,"encoder":"0987973226","distractor":"0987971226","target":"present","response":"present","rt":"3856.3999999762","correct":true,"confidence":4},{"trial_n":49,"span":10,"encoder":"8309526823","distractor":"8309506823","target":"absent","response":"absent","rt":"2827.5","correct":true,"confidence":3},{"trial_n":50,"span":11,"encoder":"13896801145","distractor":"13816801145","target":"absent","response":"absent","rt":"4692.3999999762","correct":true,"confidence":5},{"trial_n":51,"span":11,"encoder":"63173389571","distractor":"63173383571","target":"present","response":"absent","rt":"3014.3999999762","correct":false,"confidence":4},{"trial_n":52,"span":10,"encoder":"4001671669","distractor":"4001671661","target":"absent","response":"absent","rt":"5713.1000000238","correct":true,"confidence":3},{"trial_n":53,"span":10,"encoder":"5108775463","distractor":"5108775468","target":"absent","response":"absent","rt":"3012.7000000477","correct":true,"confidence":3},{"trial_n":54,"span":11,"encoder":"47731997957","distractor":"47131997957","target":"present","response":"present","rt":"4651.6000000238","correct":true,"confidence":3},{"trial_n":55,"span":11,"encoder":"72826040947","distractor":"12826040947","target":"present","response":"absent","rt":"3723.5","correct":false,"confidence":2},{"trial_n":56,"span":10,"encoder":"6344006498","distractor":"6344006898","target":"absent","response":"present","rt":"4506.8000000715","correct":false,"confidence":3},{"trial_n":57,"span":9,"encoder":"446663511","distractor":"446663514","target":"present","response":"present","rt":"1955.3000000715","correct":true,"confidence":3},{"trial_n":58,"span":9,"encoder":"699946532","distractor":"699936532","target":"present","response":"present","rt":"4043.6999999285","correct":true,"confidence":4},{"trial_n":59,"span":10,"encoder":"1983943441","distractor":"1953943441","target":"present","response":"present","rt":"3848.2999999523","correct":true,"confidence":3},{"trial_n":60,"span":10,"encoder":"0052214654","distractor":"0052214254","target":"absent","response":"present","rt":"3051.7999999523","correct":false,"confidence":3},{"trial_n":61,"span":9,"encoder":"418077641","distractor":"418077341","target":"absent","response":"absent","rt":"3009.9000000954","correct":true,"confidence":3},{"trial_n":62,"span":9,"encoder":"982166352","distractor":"982166452","target":"present","response":"present","rt":"4572.1000000238","correct":true,"confidence":3},{"trial_n":63,"span":10,"encoder":"6894503465","distractor":"6894503065","target":"absent","response":"present","rt":"5645.8999999762","correct":false,"confidence":1},{"trial_n":64,"span":9,"encoder":"655487354","distractor":"655487358","target":"absent","response":"absent","rt":"9241.1000000238","correct":true,"confidence":3},{"trial_n":65,"span":9,"encoder":"974272586","distractor":"974272585","target":"absent","response":"absent","rt":"6220.9000000954","correct":true,"confidence":5},{"trial_n":66,"span":10,"encoder":"6873878309","distractor":"6873078309","target":"present","response":"absent","rt":"5062.2000000477","correct":false,"confidence":3},{"trial_n":67,"span":9,"encoder":"439848584","distractor":"439898584","target":"present","response":"present","rt":"3686.2999999523","correct":true,"confidence":4},{"trial_n":68,"span":9,"encoder":"018919508","distractor":"018914508","target":"absent","response":"absent","rt":"4412.9000000954","correct":true,"confidence":4},{"trial_n":69,"span":10,"encoder":"0539703499","distractor":"0539703490","target":"present","response":"present","rt":"4081","correct":true,"confidence":3},{"trial_n":70,"span":10,"encoder":"6729726863","distractor":"6729726803","target":"present","response":"present","rt":"1194.1999999285","correct":true,"confidence":3},{"trial_n":71,"span":8,"encoder":"52300780","distractor":"52300680","target":"present","response":"present","rt":"2780.5999999046","correct":true,"confidence":-1},{"trial_n":72,"span":8,"encoder":"12262587","distractor":"12262583","target":"present","response":"present","rt":"2665.6999999285","correct":true,"confidence":-1},{"trial_n":73,"span":9,"encoder":"051301615","distractor":"051301515","target":"absent","response":"absent","rt":"3927","correct":true,"confidence":-1},{"trial_n":74,"span":9,"encoder":"338625060","distractor":"338625860","target":"absent","response":"absent","rt":"2368.2000000477","correct":true,"confidence":-1},{"trial_n":75,"span":10,"encoder":"9006833576","distractor":"9006803576","target":"present","response":"absent","rt":"5902.1999999285","correct":false,"confidence":-1},{"trial_n":76,"span":9,"encoder":"572482278","distractor":"572485278","target":"absent","response":"absent","rt":"4193.2000000477","correct":true,"confidence":-1},{"trial_n":77,"span":9,"encoder":"392196498","distractor":"312196498","target":"present","response":"present","rt":"1127.7999999523","correct":true,"confidence":-1},{"trial_n":78,"span":10,"encoder":"1374972262","distractor":"3374972262","target":"present","response":"present","rt":"4833","correct":true,"confidence":-1},{"trial_n":79,"span":10,"encoder":"4300801780","distractor":"4300881780","target":"absent","response":"absent","rt":"3477.8999999762","correct":true,"confidence":-1},{"trial_n":80,"span":11,"encoder":"79762205543","distractor":"79762205573","target":"absent","response":"absent","rt":"1796.3999999762","correct":true,"confidence":-1},{"trial_n":81,"span":11,"encoder":"51763832466","distractor":"51763832468","target":"present","response":"present","rt":"4331.0999999046","correct":true,"confidence":-1},{"trial_n":82,"span":12,"encoder":"854863735862","distractor":"554863735862","target":"absent","response":"present","rt":"3354.1000000238","correct":false,"confidence":-1},{"trial_n":83,"span":11,"encoder":"58845629276","distractor":"58875629276","target":"absent","response":"present","rt":"4644.4000000954","correct":false,"confidence":-1},{"trial_n":84,"span":10,"encoder":"7149050617","distractor":"7149550617","target":"absent","response":"present","rt":"2304.8999999762","correct":false,"confidence":-1},{"trial_n":85,"span":9,"encoder":"157455907","distractor":"157055907","target":"absent","response":"absent","rt":"3894.5","correct":true,"confidence":-1},{"trial_n":86,"span":9,"encoder":"229642622","distractor":"229642621","target":"present","response":"present","rt":"1211.2000000477","correct":true,"confidence":-1},{"trial_n":87,"span":10,"encoder":"0939021512","distractor":"0539021512","target":"present","response":"present","rt":"3372.5","correct":true,"confidence":-1},{"trial_n":88,"span":10,"encoder":"7783954425","distractor":"7783964425","target":"present","response":"present","rt":"6836.3000000715","correct":true,"confidence":-1},{"trial_n":89,"span":11,"encoder":"68012698211","distractor":"68042698211","target":"absent","response":"absent","rt":"2465.7999999523","correct":true,"confidence":-1},{"trial_n":90,"span":11,"encoder":"84063576707","distractor":"84063576777","target":"present","response":"present","rt":"2159.3999999762","correct":true,"confidence":-1},{"trial_n":91,"span":12,"encoder":"482293286908","distractor":"482893286908","target":"absent","response":"absent","rt":"4648.5","correct":true,"confidence":3},{"trial_n":92,"span":12,"encoder":"177859676184","distractor":"177855676184","target":"present","response":"present","rt":"7732","correct":true,"confidence":3},{"trial_n":93,"span":13,"encoder":"3082163217051","distractor":"3082160217051","target":"present","response":"absent","rt":"4963.1999999285","correct":false,"confidence":3},{"trial_n":94,"span":12,"encoder":"469168871095","distractor":"469168871055","target":"absent","response":"absent","rt":"1852.2999999523","correct":true,"confidence":5},{"trial_n":95,"span":12,"encoder":"141722728084","distractor":"141782728084","target":"present","response":"present","rt":"3926.7000000477","correct":true,"confidence":5},{"trial_n":96,"span":13,"encoder":"3634719468891","distractor":"3634711468891","target":"present","response":"present","rt":"10411.199999928","correct":true,"confidence":3},{"trial_n":97,"span":13,"encoder":"7764452575811","distractor":"7764452535811","target":"present","response":"present","rt":"8063.5","correct":true,"confidence":3},{"trial_n":98,"span":14,"encoder":"39039544654593","distractor":"39099544654593","target":"present","response":"present","rt":"4364.0999999046","correct":true,"confidence":4},{"trial_n":99,"span":14,"encoder":"18271321073336","distractor":"15271321073336","target":"absent","response":"absent","rt":"3004","correct":true,"confidence":5},{"trial_n":100,"span":15,"encoder":"782151100205552","distractor":"782151100105552","target":"absent","response":"absent","rt":"12605.5","correct":true,"confidence":1},{"trial_n":101,"span":15,"encoder":"752314766450320","distractor":"753314766450320","target":"absent","response":"absent","rt":"2113.5","correct":true,"confidence":5},{"trial_n":102,"span":16,"encoder":"4217961364769372","distractor":"4217961361769372","target":"absent","response":"present","rt":"14642.200000048","correct":false,"confidence":1},{"trial_n":103,"span":15,"encoder":"517392470983426","distractor":"517492470983426","target":"present","response":"present","rt":"10155.399999976","correct":true,"confidence":3},{"trial_n":104,"span":15,"encoder":"992444702731288","distractor":"992444752731288","target":"absent","response":"absent","rt":"3419.8000000715","correct":true,"confidence":4},{"trial_n":105,"span":16,"encoder":"9220684614305974","distractor":"9220684614305914","target":"absent","response":"absent","rt":"2705.2000000477","correct":true,"confidence":5},{"trial_n":106,"span":16,"encoder":"8897566752382174","distractor":"8897566752282174","target":"present","response":"present","rt":"6439.6999999285","correct":true,"confidence":2},{"trial_n":107,"span":17,"encoder":"99653875376301612","distractor":"99653375376301612","target":"present","response":"present","rt":"9453.8000000715","correct":true,"confidence":4},{"trial_n":108,"span":17,"encoder":"23269832843811468","distractor":"03269832843811468","target":"absent","response":"absent","rt":"1737.3999999762","correct":true,"confidence":5},{"trial_n":109,"span":18,"encoder":"602150017477096003","distractor":"602150217477096003","target":"present","response":"present","rt":"3460.2999999523","correct":true,"confidence":1},{"trial_n":110,"span":18,"encoder":"283878481573562710","distractor":"283878481573562711","target":"absent","response":"absent","rt":"1789.2999999523","correct":true,"confidence":2},{"trial_n":111,"span":19,"encoder":"4028224127247940933","distractor":"4028224727247940933","target":"present","response":"absent","rt":"3960.6999999285","correct":false,"confidence":1},{"trial_n":112,"span":18,"encoder":"631508214153732869","distractor":"631508214253732869","target":"present","response":"present","rt":"6480.7000000477","correct":true,"confidence":2},{"trial_n":113,"span":18,"encoder":"403792430030449398","distractor":"403792730030449398","target":"present","response":"absent","rt":"8471.8000000715","correct":false,"confidence":3},{"trial_n":114,"span":17,"encoder":"37048124511632583","distractor":"37348124511632583","target":"present","response":"absent","rt":"5214","correct":false,"confidence":3},{"trial_n":115,"span":16,"encoder":"7938207648680093","distractor":"7938207608680093","target":"absent","response":"absent","rt":"5340.1000000238","correct":true,"confidence":4},{"trial_n":116,"span":16,"encoder":"4758458888514952","distractor":"4758458188514952","target":"absent","response":"absent","rt":"8177.7000000477","correct":true,"confidence":4},{"trial_n":117,"span":17,"encoder":"24146912764289881","distractor":"24143912764289881","target":"absent","response":"absent","rt":"4060.6000000238","correct":true,"confidence":5},{"trial_n":118,"span":17,"encoder":"29938777027746233","distractor":"29938771027746233","target":"present","response":"present","rt":"5911.3000000715","correct":true,"confidence":3},{"trial_n":119,"span":18,"encoder":"406896401818103177","distractor":"406896201818103177","target":"present","response":"present","rt":"8160","correct":true,"confidence":2},{"trial_n":120,"span":18,"encoder":"656908924787568867","distractor":"656908924787968867","target":"absent","response":"absent","rt":"8918.8999999762","correct":true,"confidence":4},{"trial_n":121,"span":19,"encoder":"1786603256442944888","distractor":"1756603256442944888","target":"absent","response":"absent","rt":"6649.6999999285","correct":true,"confidence":5},{"trial_n":122,"span":19,"encoder":"0688218808812044295","distractor":"0688218808817044295","target":"present","response":"present","rt":"3638.5","correct":true,"confidence":5},{"trial_n":123,"span":20,"encoder":"86053722307853358474","distractor":"82053722307853358474","target":"present","response":"present","rt":"8432.3999999762","correct":true,"confidence":3},{"trial_n":124,"span":20,"encoder":"21367078006068097410","distractor":"81367078006068097410","target":"absent","response":"absent","rt":"2220.9000000954","correct":true,"confidence":5},{"trial_n":125,"span":21,"encoder":"652923457466261132158","distractor":"652923457466261032158","target":"absent","response":"absent","rt":"6025.6000000238","correct":true,"confidence":3},{"trial_n":126,"span":21,"encoder":"772028515171300204177","distractor":"772028515171300704177","target":"absent","response":"present","rt":"8532.5999999046","correct":false,"confidence":2},{"trial_n":127,"span":20,"encoder":"84524781341475032284","distractor":"89524781341475032284","target":"absent","response":"present","rt":"6968.1000000238","correct":false,"confidence":3},{"trial_n":128,"span":19,"encoder":"0113233104070613160","distractor":"0113233103070613160","target":"present","response":"present","rt":"10032.399999976","correct":true,"confidence":3},{"trial_n":129,"span":19,"encoder":"8232114316157753250","distractor":"8232114116157753250","target":"present","response":"absent","rt":"400.5","correct":false,"confidence":3},{"trial_n":130,"span":18,"encoder":"003828893953480395","distractor":"003528893953480395","target":"absent","response":"present","rt":"7342.2999999523","correct":false,"confidence":2},{"trial_n":131,"span":17,"encoder":"59991826610354486","distractor":"57991826610354486","target":"absent","response":"present","rt":"1415.3999999762","correct":false,"confidence":3},{"trial_n":132,"span":16,"encoder":"7378961048224533","distractor":"7378961048024533","target":"present","response":"present","rt":"6774.8999999762","correct":true,"confidence":5},{"trial_n":133,"span":16,"encoder":"6014986001160453","distractor":"6014986004160453","target":"absent","response":"absent","rt":"8168.6000000238","correct":true,"confidence":4},{"trial_n":134,"span":17,"encoder":"48343745145146665","distractor":"48343745145146685","target":"present","response":"present","rt":"10485","correct":true,"confidence":2},{"trial_n":135,"span":17,"encoder":"37508581984411060","distractor":"37508581184411060","target":"present","response":"absent","rt":"16394","correct":false,"confidence":3},{"trial_n":136,"span":16,"encoder":"3035672365163871","distractor":"3735672365163871","target":"present","response":"present","rt":"14711.600000024","correct":true,"confidence":4},{"trial_n":137,"span":16,"encoder":"9667474215867781","distractor":"9637474215867781","target":"absent","response":"present","rt":"13045.5","correct":false,"confidence":3},{"trial_n":138,"span":15,"encoder":"268553561044359","distractor":"268553564044359","target":"absent","response":"absent","rt":"3808.7000000477","correct":true,"confidence":2},{"trial_n":139,"span":15,"encoder":"652379212596544","distractor":"652379212596545","target":"present","response":"present","rt":"1912.3999999762","correct":true,"confidence":5},{"trial_n":140,"span":16,"encoder":"7724881291546846","distractor":"7744881291546846","target":"present","response":"present","rt":"6001.7000000477","correct":true,"confidence":4}]