[{"trial_n":1,"min":25,"max":230,"target":"present","response":"present","rt":6216.8000000119,"correct":true,"confidence":-1},{"trial_n":2,"min":25,"max":230,"target":"present","response":"present","rt":3228,"correct":true,"confidence":-1},{"trial_n":3,"min":41,"max":214,"target":"absent","response":"absent","rt":983.89999997616,"correct":true,"confidence":-1},{"trial_n":4,"min":41,"max":214,"target":"absent","response":"absent","rt":485.20000004768,"correct":true,"confidence":-1},{"trial_n":5,"min":57,"max":198,"target":"present","response":"present","rt":1884.3000000119,"correct":true,"confidence":-1},{"trial_n":6,"min":57,"max":198,"target":"present","response":"present","rt":481.59999996424,"correct":true,"confidence":-1},{"trial_n":7,"min":73,"max":182,"target":"absent","response":"absent","rt":515.5,"correct":true,"confidence":-1},{"trial_n":8,"min":73,"max":182,"target":"present","response":"absent","rt":244.19999998808,"correct":false,"confidence":-1},{"trial_n":9,"min":57,"max":198,"target":"absent","response":"present","rt":756.20000004768,"correct":false,"confidence":-1},{"trial_n":10,"min":41,"max":214,"target":"absent","response":"absent","rt":735,"correct":true,"confidence":-1},{"trial_n":11,"min":41,"max":214,"target":"present","response":"present","rt":293.60000002384,"correct":true,"confidence":-1},{"trial_n":12,"min":49,"max":206,"target":"present","response":"present","rt":700.60000002384,"correct":true,"confidence":-1},{"trial_n":13,"min":49,"max":206,"target":"absent","response":"absent","rt":384.59999996424,"correct":true,"confidence":-1},{"trial_n":14,"min":57,"max":198,"target":"absent","response":"absent","rt":415.80000001192,"correct":true,"confidence":-1},{"trial_n":15,"min":57,"max":198,"target":"present","response":"present","rt":1270,"correct":true,"confidence":-1},{"trial_n":16,"min":65,"max":190,"target":"absent","response":"absent","rt":402.90000003576,"correct":true,"confidence":-1},{"trial_n":17,"min":65,"max":190,"target":"present","response":"present","rt":378.60000002384,"correct":true,"confidence":-1},{"trial_n":18,"min":73,"max":182,"target":"absent","response":"absent","rt":454.89999997616,"correct":true,"confidence":-1},{"trial_n":19,"min":73,"max":182,"target":"present","response":"absent","rt":653,"correct":false,"confidence":-1},{"trial_n":20,"min":65,"max":190,"target":"present","response":"present","rt":1036.6000000238,"correct":true,"confidence":-1},{"trial_n":21,"min":65,"max":190,"target":"absent","response":"absent","rt":1213.8000000119,"correct":true,"confidence":4},{"trial_n":22,"min":69,"max":186,"target":"present","response":"present","rt":873.10000002384,"correct":true,"confidence":5},{"trial_n":23,"min":69,"max":186,"target":"absent","response":"absent","rt":858.80000001192,"correct":true,"confidence":5},{"trial_n":24,"min":73,"max":182,"target":"present","response":"present","rt":649.89999997616,"correct":true,"confidence":5},{"trial_n":25,"min":73,"max":182,"target":"present","response":"present","rt":1026.5,"correct":true,"confidence":5},{"trial_n":26,"min":77,"max":178,"target":"absent","response":"absent","rt":778.5,"correct":true,"confidence":5},{"trial_n":27,"min":77,"max":178,"target":"present","response":"absent","rt":3963.3000000119,"correct":false,"confidence":3},{"trial_n":28,"min":73,"max":182,"target":"absent","response":"absent","rt":1377.6000000238,"correct":true,"confidence":5},{"trial_n":29,"min":73,"max":182,"target":"present","response":"present","rt":1246.1000000238,"correct":true,"confidence":5},{"trial_n":30,"min":77,"max":178,"target":"present","response":"absent","rt":1501.2999999523,"correct":false,"confidence":4},{"trial_n":31,"min":75,"max":180,"target":"absent","response":"absent","rt":4395.4000000358,"correct":true,"confidence":4},{"trial_n":32,"min":75,"max":180,"target":"absent","response":"absent","rt":791.89999997616,"correct":true,"confidence":1},{"trial_n":33,"min":77,"max":178,"target":"absent","response":"absent","rt":8640.3999999762,"correct":true,"confidence":3},{"trial_n":34,"min":77,"max":178,"target":"present","response":"present","rt":1051.3000000119,"correct":true,"confidence":4},{"trial_n":35,"min":79,"max":176,"target":"absent","response":"absent","rt":829.5,"correct":true,"confidence":5},{"trial_n":36,"min":79,"max":176,"target":"present","response":"present","rt":1426.0999999642,"correct":true,"confidence":5},{"trial_n":37,"min":81,"max":174,"target":"present","response":"absent","rt":1982.6999999881,"correct":false,"confidence":4},{"trial_n":38,"min":79,"max":176,"target":"present","response":"present","rt":634.59999996424,"correct":true,"confidence":5},{"trial_n":39,"min":79,"max":176,"target":"present","response":"present","rt":744.69999998808,"correct":true,"confidence":5},{"trial_n":40,"min":81,"max":174,"target":"absent","response":"absent","rt":761.09999996424,"correct":true,"confidence":5},{"trial_n":41,"min":81,"max":174,"target":"present","response":"absent","rt":801.09999996424,"correct":false,"confidence":5},{"trial_n":42,"min":80,"max":175,"target":"present","response":"present","rt":744.5,"correct":true,"confidence":5},{"trial_n":43,"min":80,"max":175,"target":"absent","response":"absent","rt":663.09999996424,"correct":true,"confidence":5},{"trial_n":44,"min":81,"max":174,"target":"present","response":"present","rt":909.30000001192,"correct":true,"confidence":4},{"trial_n":45,"min":81,"max":174,"target":"absent","response":"absent","rt":2947,"correct":true,"confidence":3},{"trial_n":46,"min":82,"max":173,"target":"absent","response":"absent","rt":648.90000003576,"correct":true,"confidence":5},{"trial_n":47,"min":82,"max":173,"target":"present","response":"absent","rt":622.80000001192,"correct":false,"confidence":5},{"trial_n":48,"min":81,"max":174,"target":"present","response":"present","rt":558.59999996424,"correct":true,"confidence":5},{"trial_n":49,"min":81,"max":174,"target":"absent","response":"absent","rt":625.29999995232,"correct":true,"confidence":5},{"trial_n":50,"min":82,"max":173,"target":"present","response":"absent","rt":636,"correct":false,"confidence":1},{"trial_n":51,"min":81,"max":174,"target":"absent","response":"absent","rt":1713.8999999762,"correct":true,"confidence":5},{"trial_n":52,"min":81,"max":174,"target":"present","response":"present","rt":1016.5,"correct":true,"confidence":5},{"trial_n":53,"min":82,"max":173,"target":"absent","response":"absent","rt":522.5,"correct":true,"confidence":5},{"trial_n":54,"min":82,"max":173,"target":"absent","response":"absent","rt":386.5,"correct":true,"confidence":5},{"trial_n":55,"min":83,"max":172,"target":"absent","response":"absent","rt":470.19999998808,"correct":true,"confidence":5},{"trial_n":56,"min":83,"max":172,"target":"absent","response":"absent","rt":487.40000003576,"correct":true,"confidence":5},{"trial_n":57,"min":84,"max":171,"target":"present","response":"present","rt":671.30000001192,"correct":true,"confidence":5},{"trial_n":58,"min":84,"max":171,"target":"absent","response":"absent","rt":874.69999998808,"correct":true,"confidence":5},{"trial_n":59,"min":85,"max":170,"target":"absent","response":"absent","rt":616.79999995232,"correct":true,"confidence":5},{"trial_n":60,"min":85,"max":170,"target":"absent","response":"absent","rt":497.39999997616,"correct":true,"confidence":5},{"trial_n":61,"min":86,"max":169,"target":"present","response":"present","rt":835.70000004768,"correct":true,"confidence":5},{"trial_n":62,"min":86,"max":169,"target":"absent","response":"absent","rt":911.60000002384,"correct":true,"confidence":5},{"trial_n":63,"min":87,"max":168,"target":"absent","response":"present","rt":1170.8000000119,"correct":false,"confidence":3},{"trial_n":64,"min":86,"max":169,"target":"absent","response":"absent","rt":659,"correct":true,"confidence":5},{"trial_n":65,"min":86,"max":169,"target":"absent","response":"absent","rt":609.79999995232,"correct":true,"confidence":5},{"trial_n":66,"min":87,"max":168,"target":"present","response":"present","rt":1867.6000000238,"correct":true,"confidence":3},{"trial_n":67,"min":87,"max":168,"target":"present","response":"present","rt":634.30000001192,"correct":true,"confidence":5},{"trial_n":68,"min":88,"max":167,"target":"present","response":"present","rt":828.30000001192,"correct":true,"confidence":5},{"trial_n":69,"min":88,"max":167,"target":"present","response":"absent","rt":1411.1999999881,"correct":false,"confidence":3},{"trial_n":70,"min":87,"max":168,"target":"present","response":"present","rt":583.5,"correct":true,"confidence":4},{"trial_n":71,"min":41,"max":214,"target":"present","response":"present","rt":4045.3000000119,"correct":true,"confidence":-1},{"trial_n":72,"min":41,"max":214,"target":"present","response":"present","rt":1324.8000000119,"correct":true,"confidence":-1},{"trial_n":73,"min":57,"max":198,"target":"absent","response":"absent","rt":551,"correct":true,"confidence":-1},{"trial_n":74,"min":57,"max":198,"target":"absent","response":"absent","rt":592.5,"correct":true,"confidence":-1},{"trial_n":75,"min":73,"max":182,"target":"present","response":"present","rt":527.60000002384,"correct":true,"confidence":-1},{"trial_n":76,"min":73,"max":182,"target":"present","response":"present","rt":827.70000004768,"correct":true,"confidence":-1},{"trial_n":77,"min":89,"max":166,"target":"present","response":"present","rt":659.60000002384,"correct":true,"confidence":-1},{"trial_n":78,"min":89,"max":166,"target":"absent","response":"absent","rt":3644.5,"correct":true,"confidence":-1},{"trial_n":79,"min":105,"max":150,"target":"present","response":"absent","rt":2415.1000000238,"correct":false,"confidence":-1},{"trial_n":80,"min":89,"max":166,"target":"absent","response":"present","rt":1186.8999999762,"correct":false,"confidence":-1},{"trial_n":81,"min":81,"max":174,"target":"present","response":"present","rt":338.10000002384,"correct":true,"confidence":-1},{"trial_n":82,"min":81,"max":174,"target":"present","response":"present","rt":740.69999998808,"correct":true,"confidence":-1},{"trial_n":83,"min":89,"max":166,"target":"absent","response":"present","rt":576,"correct":false,"confidence":-1},{"trial_n":84,"min":81,"max":174,"target":"present","response":"present","rt":791.89999997616,"correct":true,"confidence":-1},{"trial_n":85,"min":81,"max":174,"target":"absent","response":"absent","rt":560.39999997616,"correct":true,"confidence":-1},{"trial_n":86,"min":89,"max":166,"target":"absent","response":"present","rt":687.5,"correct":false,"confidence":-1},{"trial_n":87,"min":81,"max":174,"target":"present","response":"present","rt":384.39999997616,"correct":true,"confidence":-1},{"trial_n":88,"min":81,"max":174,"target":"absent","response":"absent","rt":442.40000003576,"correct":true,"confidence":-1},{"trial_n":89,"min":89,"max":166,"target":"absent","response":"absent","rt":751.69999998808,"correct":true,"confidence":-1},{"trial_n":90,"min":89,"max":166,"target":"present","response":"absent","rt":1314.2999999523,"correct":false,"confidence":-1},{"trial_n":91,"min":85,"max":170,"target":"absent","response":"absent","rt":719,"correct":true,"confidence":4},{"trial_n":92,"min":85,"max":170,"target":"present","response":"present","rt":744.10000002384,"correct":true,"confidence":5},{"trial_n":93,"min":89,"max":166,"target":"present","response":"present","rt":322.89999997616,"correct":true,"confidence":5},{"trial_n":94,"min":89,"max":166,"target":"absent","response":"absent","rt":729.80000001192,"correct":true,"confidence":1},{"trial_n":95,"min":93,"max":162,"target":"absent","response":"absent","rt":978,"correct":true,"confidence":4},{"trial_n":96,"min":93,"max":162,"target":"absent","response":"absent","rt":686.89999997616,"correct":true,"confidence":5},{"trial_n":97,"min":97,"max":158,"target":"present","response":"present","rt":624.10000002384,"correct":true,"confidence":5},{"trial_n":98,"min":97,"max":158,"target":"present","response":"present","rt":654.30000001192,"correct":true,"confidence":5},{"trial_n":99,"min":101,"max":154,"target":"absent","response":"present","rt":501.09999996424,"correct":false,"confidence":5},{"trial_n":100,"min":97,"max":158,"target":"absent","response":"present","rt":964.29999995232,"correct":false,"confidence":3},{"trial_n":101,"min":95,"max":160,"target":"present","response":"present","rt":653.5,"correct":true,"confidence":1},{"trial_n":102,"min":95,"max":160,"target":"absent","response":"absent","rt":1303.3999999762,"correct":true,"confidence":2},{"trial_n":103,"min":97,"max":158,"target":"absent","response":"absent","rt":935.39999997616,"correct":true,"confidence":3},{"trial_n":104,"min":97,"max":158,"target":"absent","response":"present","rt":735.09999996424,"correct":false,"confidence":5},{"trial_n":105,"min":95,"max":160,"target":"present","response":"present","rt":588.89999997616,"correct":true,"confidence":5},{"trial_n":106,"min":95,"max":160,"target":"absent","response":"present","rt":569.09999996424,"correct":false,"confidence":5},{"trial_n":107,"min":93,"max":162,"target":"present","response":"present","rt":628,"correct":true,"confidence":3},{"trial_n":108,"min":93,"max":162,"target":"absent","response":"present","rt":1009.6999999881,"correct":false,"confidence":2},{"trial_n":109,"min":91,"max":164,"target":"present","response":"present","rt":648,"correct":true,"confidence":5},{"trial_n":110,"min":91,"max":164,"target":"absent","response":"present","rt":1091.7999999523,"correct":false,"confidence":1},{"trial_n":111,"min":90,"max":165,"target":"absent","response":"absent","rt":1480.3000000119,"correct":true,"confidence":3},{"trial_n":112,"min":90,"max":165,"target":"present","response":"present","rt":1825.6999999881,"correct":true,"confidence":3},{"trial_n":113,"min":91,"max":164,"target":"present","response":"present","rt":589.89999997616,"correct":true,"confidence":3},{"trial_n":114,"min":91,"max":164,"target":"absent","response":"absent","rt":2353.6000000238,"correct":true,"confidence":1},{"trial_n":115,"min":92,"max":163,"target":"absent","response":"present","rt":799.89999997616,"correct":false,"confidence":4},{"trial_n":116,"min":91,"max":164,"target":"present","response":"present","rt":646.30000001192,"correct":true,"confidence":5},{"trial_n":117,"min":91,"max":164,"target":"absent","response":"absent","rt":2755.8999999762,"correct":true,"confidence":2},{"trial_n":118,"min":92,"max":163,"target":"present","response":"present","rt":264.80000001192,"correct":true,"confidence":4},{"trial_n":119,"min":92,"max":163,"target":"absent","response":"present","rt":818.59999996424,"correct":false,"confidence":3},{"trial_n":120,"min":91,"max":164,"target":"present","response":"present","rt":635.60000002384,"correct":true,"confidence":3},{"trial_n":121,"min":91,"max":164,"target":"absent","response":"absent","rt":659.40000003576,"correct":true,"confidence":5},{"trial_n":122,"min":92,"max":163,"target":"present","response":"present","rt":455.60000002384,"correct":true,"confidence":5},{"trial_n":123,"min":92,"max":163,"target":"present","response":"present","rt":715.39999997616,"correct":true,"confidence":3},{"trial_n":124,"min":93,"max":162,"target":"present","response":"present","rt":317.20000004768,"correct":true,"confidence":4},{"trial_n":125,"min":93,"max":162,"target":"absent","response":"present","rt":593.89999997616,"correct":false,"confidence":5},{"trial_n":126,"min":92,"max":163,"target":"present","response":"present","rt":635.69999998808,"correct":true,"confidence":5},{"trial_n":127,"min":92,"max":163,"target":"present","response":"present","rt":573.79999995232,"correct":true,"confidence":5},{"trial_n":128,"min":93,"max":162,"target":"present","response":"present","rt":494.80000001192,"correct":true,"confidence":4},{"trial_n":129,"min":93,"max":162,"target":"present","response":"present","rt":519.19999998808,"correct":true,"confidence":4},{"trial_n":130,"min":94,"max":161,"target":"absent","response":"absent","rt":859.80000001192,"correct":true,"confidence":3},{"trial_n":131,"min":94,"max":161,"target":"absent","response":"present","rt":681.69999998808,"correct":false,"confidence":4},{"trial_n":132,"min":93,"max":162,"target":"absent","response":"present","rt":1548,"correct":false,"confidence":1},{"trial_n":133,"min":92,"max":163,"target":"absent","response":"absent","rt":1053.8000000119,"correct":true,"confidence":3},{"trial_n":134,"min":92,"max":163,"target":"present","response":"present","rt":274.69999998808,"correct":true,"confidence":5},{"trial_n":135,"min":93,"max":162,"target":"absent","response":"present","rt":591.59999996424,"correct":false,"confidence":5},{"trial_n":136,"min":92,"max":163,"target":"present","response":"absent","rt":897.30000001192,"correct":false,"confidence":2},{"trial_n":137,"min":91,"max":164,"target":"present","response":"present","rt":429.60000002384,"correct":true,"confidence":4},{"trial_n":138,"min":91,"max":164,"target":"absent","response":"absent","rt":757.89999997616,"correct":true,"confidence":3},{"trial_n":139,"min":92,"max":163,"target":"present","response":"present","rt":422.30000001192,"correct":true,"confidence":5},{"trial_n":140,"min":92,"max":163,"target":"present","response":"absent","rt":989.59999996424,"correct":false,"confidence":2}]