[{"trial_n":1,"n_dots":4.25,"target":"left","response":"right","rt":4169,"correct":false,"confidence":-1},{"trial_n":2,"n_dots":4.25,"target":"right","response":"right","rt":541,"correct":true,"confidence":-1},{"trial_n":3,"n_dots":4.25,"target":"right","response":"right","rt":243,"correct":true,"confidence":-1},{"trial_n":4,"n_dots":3.85,"target":"right","response":"right","rt":2692,"correct":true,"confidence":-1},{"trial_n":5,"n_dots":3.85,"target":"left","response":"left","rt":969.99999999999,"correct":true,"confidence":-1},{"trial_n":6,"n_dots":3.45,"target":"left","response":"right","rt":541,"correct":false,"confidence":-1},{"trial_n":7,"n_dots":3.85,"target":"left","response":"right","rt":619.00000000001,"correct":false,"confidence":-1},{"trial_n":8,"n_dots":4.05,"target":"right","response":"right","rt":243.00000000001,"correct":true,"confidence":-1},{"trial_n":9,"n_dots":4.05,"target":"left","response":"left","rt":583.99999999999,"correct":true,"confidence":-1},{"trial_n":10,"n_dots":3.85,"target":"right","response":"right","rt":1382,"correct":true,"confidence":-1},{"trial_n":11,"n_dots":3.85,"target":"left","response":"right","rt":1179,"correct":false,"confidence":-1},{"trial_n":12,"n_dots":4.05,"target":"right","response":"right","rt":699.99999999999,"correct":true,"confidence":-1},{"trial_n":13,"n_dots":4.05,"target":"right","response":"left","rt":441,"correct":false,"confidence":-1},{"trial_n":14,"n_dots":4.15,"target":"right","response":"right","rt":66.000000000007,"correct":true,"confidence":-1},{"trial_n":15,"n_dots":4.15,"target":"left","response":"left","rt":2857,"correct":true,"confidence":-1},{"trial_n":16,"n_dots":4.05,"target":"right","response":"right","rt":661,"correct":true,"confidence":-1},{"trial_n":17,"n_dots":4.05,"target":"left","response":"left","rt":234,"correct":true,"confidence":-1},{"trial_n":18,"n_dots":3.95,"target":"left","response":"right","rt":23,"correct":false,"confidence":-1},{"trial_n":19,"n_dots":4.05,"target":"left","response":"left","rt":210,"correct":true,"confidence":-1},{"trial_n":20,"n_dots":4.05,"target":"right","response":"right","rt":121.00000000001,"correct":true,"confidence":-1},{"trial_n":21,"n_dots":3.95,"target":"left","response":"left","rt":351,"correct":true,"confidence":3},{"trial_n":22,"n_dots":3.95,"target":"right","response":"right","rt":1074,"correct":true,"confidence":5},{"trial_n":23,"n_dots":3.85,"target":"right","response":"right","rt":904,"correct":true,"confidence":4},{"trial_n":24,"n_dots":3.85,"target":"left","response":"right","rt":992,"correct":false,"confidence":4},{"trial_n":25,"n_dots":3.95,"target":"left","response":"left","rt":343,"correct":true,"confidence":5},{"trial_n":26,"n_dots":3.95,"target":"left","response":"right","rt":10,"correct":false,"confidence":1},{"trial_n":27,"n_dots":4.05,"target":"left","response":"right","rt":985,"correct":false,"confidence":3},{"trial_n":28,"n_dots":4.15,"target":"right","response":"left","rt":15,"correct":false,"confidence":1},{"trial_n":29,"n_dots":4.25,"target":"right","response":"right","rt":886,"correct":true,"confidence":4},{"trial_n":30,"n_dots":4.25,"target":"right","response":"right","rt":361,"correct":true,"confidence":4},{"trial_n":31,"n_dots":4.15,"target":"left","response":"left","rt":302,"correct":true,"confidence":4},{"trial_n":32,"n_dots":4.15,"target":"left","response":"left","rt":939,"correct":true,"confidence":4},{"trial_n":33,"n_dots":4.05,"target":"left","response":"right","rt":135,"correct":false,"confidence":4},{"trial_n":34,"n_dots":4.15,"target":"left","response":"left","rt":352.00000000003,"correct":true,"confidence":4},{"trial_n":35,"n_dots":4.15,"target":"right","response":"right","rt":792,"correct":true,"confidence":4},{"trial_n":36,"n_dots":4.05,"target":"right","response":"right","rt":451,"correct":true,"confidence":4},{"trial_n":37,"n_dots":4.05,"target":"left","response":"left","rt":475,"correct":true,"confidence":4},{"trial_n":38,"n_dots":3.95,"target":"right","response":"right","rt":100,"correct":true,"confidence":5},{"trial_n":39,"n_dots":3.95,"target":"right","response":"right","rt":508,"correct":true,"confidence":3},{"trial_n":40,"n_dots":3.85,"target":"right","response":"right","rt":162,"correct":true,"confidence":4},{"trial_n":41,"n_dots":3.85,"target":"left","response":"right","rt":168,"correct":false,"confidence":3},{"trial_n":42,"n_dots":3.95,"target":"right","response":"right","rt":82.999999999971,"correct":true,"confidence":4},{"trial_n":43,"n_dots":3.95,"target":"right","response":"right","rt":375,"correct":true,"confidence":4},{"trial_n":44,"n_dots":3.85,"target":"right","response":"right","rt":-3,"correct":true,"confidence":4},{"trial_n":45,"n_dots":3.85,"target":"right","response":"right","rt":562.99999999997,"correct":true,"confidence":4},{"trial_n":46,"n_dots":3.75,"target":"right","response":"right","rt":315,"correct":true,"confidence":5},{"trial_n":47,"n_dots":3.75,"target":"left","response":"left","rt":855,"correct":true,"confidence":4},{"trial_n":48,"n_dots":3.65,"target":"right","response":"right","rt":168.00000000003,"correct":true,"confidence":5},{"trial_n":49,"n_dots":3.65,"target":"left","response":"right","rt":375,"correct":false,"confidence":2},{"trial_n":50,"n_dots":3.75,"target":"right","response":"right","rt":500,"correct":true,"confidence":4},{"trial_n":51,"n_dots":3.75,"target":"left","response":"right","rt":129,"correct":false,"confidence":2},{"trial_n":52,"n_dots":3.85,"target":"right","response":"right","rt":63,"correct":true,"confidence":4},{"trial_n":53,"n_dots":3.85,"target":"right","response":"right","rt":497,"correct":true,"confidence":4},{"trial_n":54,"n_dots":3.75,"target":"right","response":"right","rt":24.999999999971,"correct":true,"confidence":4},{"trial_n":55,"n_dots":3.75,"target":"left","response":"left","rt":1929,"correct":true,"confidence":4},{"trial_n":56,"n_dots":3.65,"target":"left","response":"right","rt":491,"correct":false,"confidence":4},{"trial_n":57,"n_dots":3.75,"target":"right","response":"right","rt":380,"correct":true,"confidence":4},{"trial_n":58,"n_dots":3.75,"target":"right","response":"right","rt":733.00000000003,"correct":true,"confidence":4},{"trial_n":59,"n_dots":3.65,"target":"right","response":"right","rt":482,"correct":true,"confidence":5},{"trial_n":60,"n_dots":3.65,"target":"right","response":"right","rt":13,"correct":true,"confidence":5},{"trial_n":61,"n_dots":3.55,"target":"left","response":"left","rt":399,"correct":true,"confidence":5},{"trial_n":62,"n_dots":3.55,"target":"right","response":"right","rt":721.99999999997,"correct":true,"confidence":5},{"trial_n":63,"n_dots":3.45,"target":"right","response":"right","rt":47,"correct":true,"confidence":5},{"trial_n":64,"n_dots":3.45,"target":"left","response":"right","rt":562,"correct":false,"confidence":3},{"trial_n":65,"n_dots":3.55,"target":"right","response":"right","rt":327,"correct":true,"confidence":4},{"trial_n":66,"n_dots":3.55,"target":"right","response":"right","rt":179,"correct":true,"confidence":5},{"trial_n":67,"n_dots":3.45,"target":"right","response":"right","rt":48,"correct":true,"confidence":3},{"trial_n":68,"n_dots":3.45,"target":"left","response":"right","rt":571,"correct":false,"confidence":4},{"trial_n":69,"n_dots":3.55,"target":"right","response":"right","rt":132,"correct":true,"confidence":5},{"trial_n":70,"n_dots":3.55,"target":"right","response":"right","rt":448,"correct":true,"confidence":4},{"trial_n":71,"n_dots":3.45,"target":"right","response":"right","rt":458.00000000006,"correct":true,"confidence":4},{"trial_n":72,"n_dots":3.45,"target":"left","response":"left","rt":428.99999999994,"correct":true,"confidence":4},{"trial_n":73,"n_dots":3.35,"target":"left","response":"right","rt":96,"correct":false,"confidence":4},{"trial_n":74,"n_dots":3.45,"target":"right","response":"right","rt":418,"correct":true,"confidence":5},{"trial_n":75,"n_dots":3.45,"target":"right","response":"right","rt":326,"correct":true,"confidence":4},{"trial_n":76,"n_dots":3.35,"target":"left","response":"right","rt":521,"correct":false,"confidence":4},{"trial_n":77,"n_dots":3.45,"target":"left","response":"right","rt":3324,"correct":false,"confidence":4},{"trial_n":78,"n_dots":3.55,"target":"left","response":"left","rt":128,"correct":true,"confidence":5},{"trial_n":79,"n_dots":3.55,"target":"left","response":"right","rt":290.00000000006,"correct":false,"confidence":4},{"trial_n":80,"n_dots":3.65,"target":"left","response":"left","rt":247,"correct":true,"confidence":5},{"trial_n":81,"n_dots":3.65,"target":"right","response":"right","rt":309,"correct":true,"confidence":4},{"trial_n":82,"n_dots":3.55,"target":"left","response":"left","rt":316,"correct":true,"confidence":4},{"trial_n":83,"n_dots":3.55,"target":"right","response":"right","rt":698.99999999994,"correct":true,"confidence":4},{"trial_n":84,"n_dots":3.45,"target":"left","response":"left","rt":263,"correct":true,"confidence":4},{"trial_n":85,"n_dots":3.45,"target":"left","response":"left","rt":249.00000000006,"correct":true,"confidence":4},{"trial_n":86,"n_dots":3.35,"target":"left","response":"left","rt":228.00000000006,"correct":true,"confidence":4},{"trial_n":87,"n_dots":3.35,"target":"right","response":"right","rt":175,"correct":true,"confidence":4},{"trial_n":88,"n_dots":3.25,"target":"left","response":"right","rt":219,"correct":false,"confidence":4},{"trial_n":89,"n_dots":3.35,"target":"right","response":"right","rt":58,"correct":true,"confidence":4},{"trial_n":90,"n_dots":3.35,"target":"left","response":"left","rt":246.99999999994,"correct":true,"confidence":4},{"trial_n":91,"n_dots":3.25,"target":"right","response":"right","rt":388,"correct":true,"confidence":4},{"trial_n":92,"n_dots":3.25,"target":"right","response":"right","rt":291,"correct":true,"confidence":4},{"trial_n":93,"n_dots":3.15,"target":"left","response":"right","rt":73.999999999942,"correct":false,"confidence":4},{"trial_n":94,"n_dots":3.25,"target":"left","response":"right","rt":119,"correct":false,"confidence":4},{"trial_n":95,"n_dots":3.35,"target":"right","response":"right","rt":226,"correct":true,"confidence":4},{"trial_n":96,"n_dots":3.35,"target":"left","response":"left","rt":86,"correct":true,"confidence":4},{"trial_n":97,"n_dots":3.25,"target":"right","response":"left","rt":720,"correct":false,"confidence":4},{"trial_n":98,"n_dots":3.35,"target":"right","response":"left","rt":371,"correct":false,"confidence":4},{"trial_n":99,"n_dots":3.45,"target":"left","response":"left","rt":144,"correct":true,"confidence":4},{"trial_n":100,"n_dots":3.45,"target":"left","response":"left","rt":207,"correct":true,"confidence":4},{"trial_n":101,"n_dots":3.35,"target":"left","response":"left","rt":824,"correct":true,"confidence":4},{"trial_n":102,"n_dots":3.35,"target":"right","response":"right","rt":30,"correct":true,"confidence":4},{"trial_n":103,"n_dots":3.25,"target":"left","response":"left","rt":6,"correct":true,"confidence":4},{"trial_n":104,"n_dots":3.25,"target":"left","response":"left","rt":839,"correct":true,"confidence":4},{"trial_n":105,"n_dots":3.15,"target":"right","response":"right","rt":535,"correct":true,"confidence":4},{"trial_n":106,"n_dots":3.15,"target":"right","response":"right","rt":329.00000000006,"correct":true,"confidence":4},{"trial_n":107,"n_dots":3.05,"target":"left","response":"left","rt":438,"correct":true,"confidence":4},{"trial_n":108,"n_dots":3.05,"target":"left","response":"left","rt":234,"correct":true,"confidence":4},{"trial_n":109,"n_dots":2.95,"target":"left","response":"right","rt":380,"correct":false,"confidence":4},{"trial_n":110,"n_dots":3.05,"target":"right","response":"right","rt":464,"correct":true,"confidence":4},{"trial_n":111,"n_dots":3.05,"target":"right","response":"right","rt":386,"correct":true,"confidence":4},{"trial_n":112,"n_dots":2.95,"target":"left","response":"left","rt":78,"correct":true,"confidence":4},{"trial_n":113,"n_dots":2.95,"target":"left","response":"left","rt":606,"correct":true,"confidence":4},{"trial_n":114,"n_dots":2.85,"target":"left","response":"right","rt":162,"correct":false,"confidence":4},{"trial_n":115,"n_dots":2.95,"target":"left","response":"left","rt":42,"correct":true,"confidence":4},{"trial_n":116,"n_dots":2.95,"target":"left","response":"left","rt":75,"correct":true,"confidence":4},{"trial_n":117,"n_dots":2.85,"target":"left","response":"left","rt":1116,"correct":true,"confidence":4},{"trial_n":118,"n_dots":2.85,"target":"right","response":"left","rt":610,"correct":false,"confidence":4},{"trial_n":119,"n_dots":2.95,"target":"right","response":"right","rt":10,"correct":true,"confidence":4},{"trial_n":120,"n_dots":2.95,"target":"left","response":"left","rt":679.99999999994,"correct":true,"confidence":4}]