[{"trial_n":1,"n_dots":4.25,"target":"right","response":"right","rt":2226,"correct":true,"confidence":-1},{"trial_n":2,"n_dots":4.25,"target":"right","response":"right","rt":1305,"correct":true,"confidence":-1},{"trial_n":3,"n_dots":3.85,"target":"right","response":"right","rt":1408,"correct":true,"confidence":-1},{"trial_n":4,"n_dots":3.85,"target":"right","response":"right","rt":977.00000000001,"correct":true,"confidence":-1},{"trial_n":5,"n_dots":3.45,"target":"left","response":"left","rt":835,"correct":true,"confidence":-1},{"trial_n":6,"n_dots":3.45,"target":"left","response":"left","rt":675,"correct":true,"confidence":-1},{"trial_n":7,"n_dots":3.05,"target":"right","response":"left","rt":785,"correct":false,"confidence":-1},{"trial_n":8,"n_dots":3.25,"target":"right","response":"right","rt":754,"correct":true,"confidence":-1},{"trial_n":9,"n_dots":3.25,"target":"left","response":"left","rt":712.00000000001,"correct":true,"confidence":-1},{"trial_n":10,"n_dots":3.05,"target":"left","response":"left","rt":615.00000000001,"correct":true,"confidence":-1},{"trial_n":11,"n_dots":3.05,"target":"right","response":"left","rt":687.99999999999,"correct":false,"confidence":-1},{"trial_n":12,"n_dots":3.25,"target":"left","response":"left","rt":510,"correct":true,"confidence":-1},{"trial_n":13,"n_dots":3.25,"target":"right","response":"right","rt":599,"correct":true,"confidence":-1},{"trial_n":14,"n_dots":3.15,"target":"left","response":"left","rt":649,"correct":true,"confidence":-1},{"trial_n":15,"n_dots":3.15,"target":"right","response":"right","rt":762,"correct":true,"confidence":-1},{"trial_n":16,"n_dots":3.05,"target":"left","response":"left","rt":534,"correct":true,"confidence":-1},{"trial_n":17,"n_dots":3.05,"target":"right","response":"right","rt":664,"correct":true,"confidence":-1},{"trial_n":18,"n_dots":2.95,"target":"left","response":"left","rt":559,"correct":true,"confidence":-1},{"trial_n":19,"n_dots":2.95,"target":"left","response":"left","rt":714,"correct":true,"confidence":-1},{"trial_n":20,"n_dots":2.85,"target":"left","response":"right","rt":706,"correct":false,"confidence":-1},{"trial_n":21,"n_dots":2.95,"target":"right","response":"right","rt":753,"correct":true,"confidence":3},{"trial_n":22,"n_dots":2.95,"target":"right","response":"left","rt":607,"correct":false,"confidence":3},{"trial_n":23,"n_dots":3.05,"target":"left","response":"left","rt":1769,"correct":true,"confidence":4},{"trial_n":24,"n_dots":3.05,"target":"left","response":"left","rt":1047,"correct":true,"confidence":3},{"trial_n":25,"n_dots":2.95,"target":"right","response":"right","rt":1823,"correct":true,"confidence":3},{"trial_n":26,"n_dots":2.95,"target":"right","response":"left","rt":1208,"correct":false,"confidence":3},{"trial_n":27,"n_dots":3.05,"target":"left","response":"left","rt":1362,"correct":true,"confidence":2},{"trial_n":28,"n_dots":3.05,"target":"right","response":"right","rt":884,"correct":true,"confidence":3},{"trial_n":29,"n_dots":2.95,"target":"right","response":"right","rt":1126,"correct":true,"confidence":2},{"trial_n":30,"n_dots":2.95,"target":"left","response":"left","rt":1192,"correct":true,"confidence":2},{"trial_n":31,"n_dots":2.85,"target":"left","response":"right","rt":618,"correct":false,"confidence":3},{"trial_n":32,"n_dots":2.95,"target":"right","response":"right","rt":607.99999999997,"correct":true,"confidence":3},{"trial_n":33,"n_dots":2.95,"target":"right","response":"right","rt":868,"correct":true,"confidence":3},{"trial_n":34,"n_dots":2.85,"target":"right","response":"right","rt":1160,"correct":true,"confidence":2},{"trial_n":35,"n_dots":2.85,"target":"right","response":"left","rt":666,"correct":false,"confidence":1},{"trial_n":36,"n_dots":2.95,"target":"left","response":"left","rt":1232,"correct":true,"confidence":2},{"trial_n":37,"n_dots":2.95,"target":"left","response":"left","rt":738,"correct":true,"confidence":1},{"trial_n":38,"n_dots":2.85,"target":"right","response":"right","rt":917,"correct":true,"confidence":1},{"trial_n":39,"n_dots":2.85,"target":"right","response":"left","rt":634,"correct":false,"confidence":1},{"trial_n":40,"n_dots":2.95,"target":"left","response":"left","rt":731,"correct":true,"confidence":2},{"trial_n":41,"n_dots":2.95,"target":"right","response":"right","rt":391,"correct":true,"confidence":2},{"trial_n":42,"n_dots":2.85,"target":"left","response":"left","rt":413,"correct":true,"confidence":3},{"trial_n":43,"n_dots":2.85,"target":"left","response":"left","rt":561,"correct":true,"confidence":2},{"trial_n":44,"n_dots":2.75,"target":"right","response":"left","rt":608,"correct":false,"confidence":2},{"trial_n":45,"n_dots":2.85,"target":"right","response":"left","rt":594.00000000003,"correct":false,"confidence":2},{"trial_n":46,"n_dots":2.95,"target":"left","response":"left","rt":559,"correct":true,"confidence":3},{"trial_n":47,"n_dots":2.95,"target":"right","response":"right","rt":519.99999999997,"correct":true,"confidence":3},{"trial_n":48,"n_dots":2.85,"target":"left","response":"left","rt":1370,"correct":true,"confidence":1},{"trial_n":49,"n_dots":2.85,"target":"left","response":"left","rt":691,"correct":true,"confidence":2},{"trial_n":50,"n_dots":2.75,"target":"right","response":"right","rt":655,"correct":true,"confidence":1},{"trial_n":51,"n_dots":2.75,"target":"right","response":"left","rt":670.00000000003,"correct":false,"confidence":1},{"trial_n":52,"n_dots":2.85,"target":"right","response":"left","rt":649,"correct":false,"confidence":2},{"trial_n":53,"n_dots":2.95,"target":"right","response":"left","rt":365,"correct":false,"confidence":3},{"trial_n":54,"n_dots":3.05,"target":"left","response":"left","rt":570,"correct":true,"confidence":3},{"trial_n":55,"n_dots":3.05,"target":"left","response":"left","rt":551.99999999994,"correct":true,"confidence":3},{"trial_n":56,"n_dots":2.95,"target":"left","response":"right","rt":1178,"correct":false,"confidence":1},{"trial_n":57,"n_dots":3.05,"target":"left","response":"left","rt":309,"correct":true,"confidence":3},{"trial_n":58,"n_dots":3.05,"target":"right","response":"right","rt":641,"correct":true,"confidence":2},{"trial_n":59,"n_dots":2.95,"target":"right","response":"right","rt":487,"correct":true,"confidence":2},{"trial_n":60,"n_dots":2.95,"target":"left","response":"left","rt":384,"correct":true,"confidence":2},{"trial_n":61,"n_dots":2.85,"target":"left","response":"left","rt":365,"correct":true,"confidence":3},{"trial_n":62,"n_dots":2.85,"target":"left","response":"left","rt":66,"correct":true,"confidence":3},{"trial_n":63,"n_dots":2.75,"target":"left","response":"left","rt":155,"correct":true,"confidence":3},{"trial_n":64,"n_dots":2.75,"target":"left","response":"right","rt":976,"correct":false,"confidence":1},{"trial_n":65,"n_dots":2.85,"target":"right","response":"right","rt":471.99999999994,"correct":true,"confidence":1},{"trial_n":66,"n_dots":2.85,"target":"left","response":"right","rt":958,"correct":false,"confidence":1},{"trial_n":67,"n_dots":2.95,"target":"left","response":"left","rt":623,"correct":true,"confidence":2},{"trial_n":68,"n_dots":2.95,"target":"left","response":"left","rt":390,"correct":true,"confidence":2},{"trial_n":69,"n_dots":2.85,"target":"left","response":"right","rt":772,"correct":false,"confidence":1},{"trial_n":70,"n_dots":2.95,"target":"left","response":"right","rt":600,"correct":false,"confidence":2},{"trial_n":71,"n_dots":3.05,"target":"left","response":"left","rt":358,"correct":true,"confidence":3},{"trial_n":72,"n_dots":3.05,"target":"right","response":"right","rt":730,"correct":true,"confidence":2},{"trial_n":73,"n_dots":2.95,"target":"right","response":"left","rt":690,"correct":false,"confidence":1},{"trial_n":74,"n_dots":3.05,"target":"right","response":"right","rt":522,"correct":true,"confidence":3},{"trial_n":75,"n_dots":3.05,"target":"right","response":"right","rt":447,"correct":true,"confidence":3},{"trial_n":76,"n_dots":2.95,"target":"left","response":"left","rt":520,"correct":true,"confidence":3},{"trial_n":77,"n_dots":2.95,"target":"left","response":"left","rt":552,"correct":true,"confidence":3},{"trial_n":78,"n_dots":2.85,"target":"left","response":"left","rt":431,"correct":true,"confidence":3},{"trial_n":79,"n_dots":2.85,"target":"left","response":"left","rt":527,"correct":true,"confidence":3},{"trial_n":80,"n_dots":2.75,"target":"right","response":"right","rt":690,"correct":true,"confidence":1},{"trial_n":81,"n_dots":2.75,"target":"right","response":"right","rt":802,"correct":true,"confidence":2},{"trial_n":82,"n_dots":2.65,"target":"left","response":"left","rt":462,"correct":true,"confidence":2},{"trial_n":83,"n_dots":2.65,"target":"right","response":"left","rt":455,"correct":false,"confidence":3},{"trial_n":84,"n_dots":2.75,"target":"right","response":"left","rt":404,"correct":false,"confidence":3},{"trial_n":85,"n_dots":2.85,"target":"right","response":"left","rt":550,"correct":false,"confidence":1},{"trial_n":86,"n_dots":2.95,"target":"right","response":"left","rt":437,"correct":false,"confidence":2},{"trial_n":87,"n_dots":3.05,"target":"left","response":"left","rt":519.00000000006,"correct":true,"confidence":3},{"trial_n":88,"n_dots":3.05,"target":"right","response":"right","rt":663,"correct":true,"confidence":1},{"trial_n":89,"n_dots":2.95,"target":"right","response":"right","rt":626.00000000006,"correct":true,"confidence":2},{"trial_n":90,"n_dots":2.95,"target":"right","response":"left","rt":324,"correct":false,"confidence":2},{"trial_n":91,"n_dots":3.05,"target":"left","response":"left","rt":454,"correct":true,"confidence":2},{"trial_n":92,"n_dots":3.05,"target":"right","response":"left","rt":639.00000000006,"correct":false,"confidence":2},{"trial_n":93,"n_dots":3.15,"target":"right","response":"right","rt":1045.0000000001,"correct":true,"confidence":1},{"trial_n":94,"n_dots":3.15,"target":"left","response":"right","rt":850.00000000006,"correct":false,"confidence":1},{"trial_n":95,"n_dots":3.25,"target":"right","response":"right","rt":996,"correct":true,"confidence":1},{"trial_n":96,"n_dots":3.25,"target":"right","response":"left","rt":801.00000000006,"correct":false,"confidence":1},{"trial_n":97,"n_dots":3.35,"target":"left","response":"left","rt":616,"correct":true,"confidence":1},{"trial_n":98,"n_dots":3.35,"target":"left","response":"left","rt":535,"correct":true,"confidence":2},{"trial_n":99,"n_dots":3.25,"target":"left","response":"right","rt":608.00000000006,"correct":false,"confidence":2},{"trial_n":100,"n_dots":3.35,"target":"left","response":"left","rt":453,"correct":true,"confidence":2},{"trial_n":101,"n_dots":3.35,"target":"left","response":"right","rt":2127,"correct":false,"confidence":1},{"trial_n":102,"n_dots":3.45,"target":"left","response":"left","rt":487,"correct":true,"confidence":2},{"trial_n":103,"n_dots":3.45,"target":"left","response":"left","rt":925,"correct":true,"confidence":2},{"trial_n":104,"n_dots":3.35,"target":"left","response":"right","rt":1790,"correct":false,"confidence":1},{"trial_n":105,"n_dots":3.45,"target":"right","response":"left","rt":1587,"correct":false,"confidence":1},{"trial_n":106,"n_dots":3.55,"target":"right","response":"right","rt":421,"correct":true,"confidence":3},{"trial_n":107,"n_dots":3.55,"target":"right","response":"right","rt":403,"correct":true,"confidence":3},{"trial_n":108,"n_dots":3.45,"target":"right","response":"right","rt":196,"correct":true,"confidence":3},{"trial_n":109,"n_dots":3.45,"target":"left","response":"left","rt":210,"correct":true,"confidence":3},{"trial_n":110,"n_dots":3.35,"target":"left","response":"left","rt":390,"correct":true,"confidence":2},{"trial_n":111,"n_dots":3.35,"target":"left","response":"left","rt":1426,"correct":true,"confidence":2},{"trial_n":112,"n_dots":3.25,"target":"right","response":"right","rt":583,"correct":true,"confidence":1},{"trial_n":113,"n_dots":3.25,"target":"right","response":"left","rt":1167,"correct":false,"confidence":1},{"trial_n":114,"n_dots":3.35,"target":"left","response":"left","rt":267.00000000006,"correct":true,"confidence":2},{"trial_n":115,"n_dots":3.35,"target":"right","response":"right","rt":154,"correct":true,"confidence":1},{"trial_n":116,"n_dots":3.25,"target":"left","response":"left","rt":274,"correct":true,"confidence":1},{"trial_n":117,"n_dots":3.25,"target":"right","response":"left","rt":811,"correct":false,"confidence":1},{"trial_n":118,"n_dots":3.35,"target":"left","response":"right","rt":339.99999999988,"correct":false,"confidence":1},{"trial_n":119,"n_dots":3.45,"target":"right","response":"left","rt":599,"correct":false,"confidence":1},{"trial_n":120,"n_dots":3.55,"target":"right","response":"right","rt":1204,"correct":true,"confidence":1}]