[{"trial_n":1,"span":8,"encoder":"94885210","distractor":"04885210","target":"present","response":"absent","rt":"6619","correct":false,"confidence":-1},{"trial_n":2,"span":6,"encoder":"912194","distractor":"992194","target":"present","response":"present","rt":"2010","correct":true,"confidence":-1},{"trial_n":3,"span":6,"encoder":"682712","distractor":"662712","target":"absent","response":"absent","rt":"2331","correct":true,"confidence":-1},{"trial_n":4,"span":8,"encoder":"18095154","distractor":"18099154","target":"absent","response":"absent","rt":"4682","correct":true,"confidence":-1},{"trial_n":5,"span":8,"encoder":"72398938","distractor":"72396938","target":"present","response":"present","rt":"2111","correct":true,"confidence":-1},{"trial_n":6,"span":10,"encoder":"2655524261","distractor":"2655524231","target":"absent","response":"absent","rt":"3712","correct":true,"confidence":-1},{"trial_n":7,"span":10,"encoder":"9487947535","distractor":"7487947535","target":"present","response":"present","rt":"3048","correct":true,"confidence":-1},{"trial_n":8,"span":12,"encoder":"131295514239","distractor":"136295514239","target":"absent","response":"absent","rt":"1605","correct":true,"confidence":-1},{"trial_n":9,"span":12,"encoder":"223274467739","distractor":"273274467739","target":"present","response":"absent","rt":"4232","correct":false,"confidence":-1},{"trial_n":10,"span":10,"encoder":"5696495549","distractor":"5696495519","target":"present","response":"present","rt":"2308","correct":true,"confidence":-1},{"trial_n":11,"span":10,"encoder":"8132203986","distractor":"8132273986","target":"absent","response":"absent","rt":"1739","correct":true,"confidence":-1},{"trial_n":12,"span":11,"encoder":"77908856073","distractor":"77908857073","target":"absent","response":"absent","rt":"3419","correct":true,"confidence":-1},{"trial_n":13,"span":11,"encoder":"96658480765","distractor":"96658480715","target":"present","response":"present","rt":"3964","correct":true,"confidence":-1},{"trial_n":14,"span":12,"encoder":"261314777777","distractor":"261314773777","target":"present","response":"present","rt":"1461","correct":true,"confidence":-1},{"trial_n":15,"span":12,"encoder":"203309379017","distractor":"203309379717","target":"absent","response":"absent","rt":"20393","correct":true,"confidence":-1},{"trial_n":16,"span":13,"encoder":"3910990591169","distractor":"8910990591169","target":"present","response":"present","rt":"6825","correct":true,"confidence":-1},{"trial_n":17,"span":13,"encoder":"6807577059071","distractor":"6807577059671","target":"absent","response":"absent","rt":"4161","correct":true,"confidence":-1},{"trial_n":18,"span":14,"encoder":"94996329516377","distractor":"94956329516377","target":"absent","response":"absent","rt":"2814","correct":true,"confidence":-1},{"trial_n":19,"span":14,"encoder":"12216292566553","distractor":"12216299566553","target":"present","response":"absent","rt":"4465","correct":false,"confidence":-1},{"trial_n":20,"span":13,"encoder":"4754418379096","distractor":"4764418379096","target":"absent","response":"absent","rt":"4763","correct":true,"confidence":-1},{"trial_n":21,"span":13,"encoder":"9603375207990","distractor":"5603375207990","target":"present","response":"present","rt":"3941","correct":true,"confidence":3},{"trial_n":22,"span":14,"encoder":"96457367753325","distractor":"96457367853325","target":"present","response":"absent","rt":"4844","correct":false,"confidence":3},{"trial_n":23,"span":13,"encoder":"7182283886297","distractor":"7182283386297","target":"present","response":"present","rt":"4765","correct":true,"confidence":2},{"trial_n":24,"span":13,"encoder":"8624099636264","distractor":"8624099636263","target":"absent","response":"absent","rt":"5134","correct":true,"confidence":4},{"trial_n":25,"span":14,"encoder":"26797384335243","distractor":"26796384335243","target":"present","response":"present","rt":"6211.0000000001","correct":true,"confidence":3},{"trial_n":26,"span":14,"encoder":"25083882162296","distractor":"25083382162296","target":"present","response":"present","rt":"6706","correct":true,"confidence":4},{"trial_n":27,"span":15,"encoder":"806750614031578","distractor":"806750614931578","target":"absent","response":"present","rt":"8719","correct":false,"confidence":3},{"trial_n":28,"span":14,"encoder":"61654843242952","distractor":"61654843242972","target":"absent","response":"absent","rt":"6833","correct":true,"confidence":4},{"trial_n":29,"span":14,"encoder":"91453232538169","distractor":"91423232538169","target":"absent","response":"absent","rt":"6385","correct":true,"confidence":4},{"trial_n":30,"span":15,"encoder":"773790568660375","distractor":"773790568660355","target":"absent","response":"present","rt":"8459.9999999999","correct":false,"confidence":2},{"trial_n":31,"span":14,"encoder":"64461559428682","distractor":"64461559458682","target":"absent","response":"present","rt":"8932","correct":false,"confidence":3},{"trial_n":32,"span":13,"encoder":"7426411482791","distractor":"7426411462791","target":"present","response":"present","rt":"7447","correct":true,"confidence":3},{"trial_n":33,"span":13,"encoder":"9327869462796","distractor":"9327868462796","target":"present","response":"present","rt":"5785","correct":true,"confidence":4},{"trial_n":34,"span":14,"encoder":"32982182849084","distractor":"32982182839084","target":"present","response":"present","rt":"5353","correct":true,"confidence":4},{"trial_n":35,"span":14,"encoder":"12629567970011","distractor":"12628567970011","target":"absent","response":"absent","rt":"5306","correct":true,"confidence":3},{"trial_n":36,"span":15,"encoder":"910030633864345","distractor":"910030639864345","target":"absent","response":"absent","rt":"7125","correct":true,"confidence":4},{"trial_n":37,"span":15,"encoder":"605434674689657","distractor":"605434674686657","target":"absent","response":"absent","rt":"2561","correct":true,"confidence":5},{"trial_n":38,"span":16,"encoder":"4881692716797696","distractor":"4881692716794696","target":"present","response":"present","rt":"9597","correct":true,"confidence":2},{"trial_n":39,"span":16,"encoder":"2745288909271677","distractor":"2745288906271677","target":"present","response":"absent","rt":"5524","correct":false,"confidence":3},{"trial_n":40,"span":15,"encoder":"064667840176223","distractor":"065667840176223","target":"absent","response":"absent","rt":"2991","correct":true,"confidence":4},{"trial_n":41,"span":15,"encoder":"967825622153142","distractor":"967825822153142","target":"present","response":"present","rt":"6526","correct":true,"confidence":2},{"trial_n":42,"span":16,"encoder":"0640527450706381","distractor":"9640527450706381","target":"present","response":"absent","rt":"6690","correct":false,"confidence":2},{"trial_n":43,"span":15,"encoder":"680817133599231","distractor":"680847133599231","target":"present","response":"absent","rt":"3644.9999999999","correct":false,"confidence":4},{"trial_n":44,"span":14,"encoder":"92699248466864","distractor":"92699244466864","target":"present","response":"present","rt":"4498","correct":true,"confidence":4},{"trial_n":45,"span":14,"encoder":"27692971038641","distractor":"27692975038641","target":"present","response":"absent","rt":"6165","correct":false,"confidence":3},{"trial_n":46,"span":13,"encoder":"5733901281268","distractor":"5733901289268","target":"present","response":"present","rt":"5570.0000000001","correct":true,"confidence":3},{"trial_n":47,"span":13,"encoder":"0048367479639","distractor":"0048367479629","target":"present","response":"absent","rt":"5161.9999999999","correct":false,"confidence":3},{"trial_n":48,"span":12,"encoder":"947165124969","distractor":"947165194969","target":"present","response":"absent","rt":"7995","correct":false,"confidence":1},{"trial_n":49,"span":11,"encoder":"43201342271","distractor":"43205342271","target":"present","response":"present","rt":"3319.9999999999","correct":true,"confidence":3},{"trial_n":50,"span":11,"encoder":"04263398973","distractor":"04263398933","target":"absent","response":"absent","rt":"2279","correct":true,"confidence":1},{"trial_n":51,"span":12,"encoder":"748193376399","distractor":"748193376329","target":"absent","response":"absent","rt":"3798","correct":true,"confidence":3},{"trial_n":52,"span":12,"encoder":"206685673456","distractor":"203685673456","target":"absent","response":"present","rt":"5065","correct":false,"confidence":2},{"trial_n":53,"span":11,"encoder":"37928083313","distractor":"37927083313","target":"absent","response":"present","rt":"3800","correct":false,"confidence":4},{"trial_n":54,"span":10,"encoder":"5479263991","distractor":"5479263591","target":"present","response":"present","rt":"4187","correct":true,"confidence":5},{"trial_n":55,"span":10,"encoder":"9746014383","distractor":"9946014383","target":"present","response":"present","rt":"3011","correct":true,"confidence":5},{"trial_n":56,"span":11,"encoder":"15763415002","distractor":"15763415042","target":"present","response":"present","rt":"2803","correct":true,"confidence":4},{"trial_n":57,"span":11,"encoder":"29811196046","distractor":"69811196046","target":"absent","response":"absent","rt":"5611","correct":true,"confidence":4},{"trial_n":58,"span":12,"encoder":"065300564785","distractor":"065300564781","target":"absent","response":"absent","rt":"4608","correct":true,"confidence":5},{"trial_n":59,"span":12,"encoder":"581986262198","distractor":"561986262198","target":"absent","response":"present","rt":"4526","correct":false,"confidence":4},{"trial_n":60,"span":11,"encoder":"56308892879","distractor":"56308852879","target":"absent","response":"present","rt":"3858","correct":false,"confidence":4},{"trial_n":61,"span":10,"encoder":"3052359984","distractor":"3852359984","target":"present","response":"absent","rt":"3506","correct":false,"confidence":3},{"trial_n":62,"span":9,"encoder":"834682297","distractor":"834682247","target":"present","response":"present","rt":"2777","correct":true,"confidence":4},{"trial_n":63,"span":9,"encoder":"321844362","distractor":"311844362","target":"absent","response":"absent","rt":"2507","correct":true,"confidence":5},{"trial_n":64,"span":10,"encoder":"2623438841","distractor":"2622438841","target":"absent","response":"present","rt":"3158","correct":false,"confidence":4},{"trial_n":65,"span":9,"encoder":"983889161","distractor":"983887161","target":"absent","response":"absent","rt":"3631","correct":true,"confidence":5},{"trial_n":66,"span":9,"encoder":"381750873","distractor":"381751873","target":"present","response":"present","rt":"3770","correct":true,"confidence":3},{"trial_n":67,"span":10,"encoder":"2308985179","distractor":"2338985179","target":"present","response":"present","rt":"4713.0000000002","correct":true,"confidence":3},{"trial_n":68,"span":10,"encoder":"3847718368","distractor":"3947718368","target":"absent","response":"present","rt":"3167","correct":false,"confidence":3},{"trial_n":69,"span":9,"encoder":"411207569","distractor":"411207599","target":"absent","response":"absent","rt":"3258","correct":true,"confidence":5},{"trial_n":70,"span":9,"encoder":"970608181","distractor":"870608181","target":"absent","response":"absent","rt":"1621","correct":true,"confidence":5},{"trial_n":71,"span":8,"encoder":"06927830","distractor":"06977830","target":"present","response":"present","rt":"5089","correct":true,"confidence":-1},{"trial_n":72,"span":8,"encoder":"55459050","distractor":"45459050","target":"present","response":"present","rt":"9581.0000000002","correct":true,"confidence":-1},{"trial_n":73,"span":9,"encoder":"495302612","distractor":"495302642","target":"absent","response":"absent","rt":"2959","correct":true,"confidence":-1},{"trial_n":74,"span":9,"encoder":"209786298","distractor":"209706298","target":"absent","response":"absent","rt":"8045","correct":true,"confidence":-1},{"trial_n":75,"span":10,"encoder":"4830678324","distractor":"4830678524","target":"present","response":"present","rt":"5530","correct":true,"confidence":-1},{"trial_n":76,"span":10,"encoder":"6636925659","distractor":"6633925659","target":"present","response":"present","rt":"6999","correct":true,"confidence":-1},{"trial_n":77,"span":11,"encoder":"71644085552","distractor":"71744085552","target":"present","response":"present","rt":"7231","correct":true,"confidence":-1},{"trial_n":78,"span":11,"encoder":"97296416819","distractor":"47296416819","target":"present","response":"present","rt":"4736.9999999998","correct":true,"confidence":-1},{"trial_n":79,"span":12,"encoder":"992092867618","distractor":"991092867618","target":"absent","response":"absent","rt":"7694","correct":true,"confidence":-1},{"trial_n":80,"span":12,"encoder":"706780257834","distractor":"706781257834","target":"present","response":"present","rt":"846","correct":true,"confidence":-1},{"trial_n":81,"span":13,"encoder":"0120948986999","distractor":"0020948986999","target":"absent","response":"absent","rt":"3286","correct":true,"confidence":-1},{"trial_n":82,"span":13,"encoder":"5687647866423","distractor":"5687647966423","target":"absent","response":"absent","rt":"4127","correct":true,"confidence":-1},{"trial_n":83,"span":14,"encoder":"33187383555285","distractor":"33187383535285","target":"absent","response":"absent","rt":"8476.0000000002","correct":true,"confidence":-1},{"trial_n":84,"span":14,"encoder":"27742179088501","distractor":"27782179088501","target":"absent","response":"absent","rt":"3539.9999999998","correct":true,"confidence":-1},{"trial_n":85,"span":15,"encoder":"971356659914197","distractor":"971356654914197","target":"present","response":"present","rt":"1965.9999999998","correct":true,"confidence":-1},{"trial_n":86,"span":15,"encoder":"246730473380937","distractor":"246730473380935","target":"present","response":"present","rt":"1758","correct":true,"confidence":-1},{"trial_n":87,"span":16,"encoder":"7012492593628674","distractor":"7012492595628674","target":"absent","response":"present","rt":"8157","correct":false,"confidence":-1},{"trial_n":88,"span":15,"encoder":"163803018811507","distractor":"163103018811507","target":"present","response":"absent","rt":"6779","correct":false,"confidence":-1},{"trial_n":89,"span":14,"encoder":"66199947977762","distractor":"66199943977762","target":"present","response":"present","rt":"6520","correct":true,"confidence":-1},{"trial_n":90,"span":14,"encoder":"62010674154340","distractor":"62010674134340","target":"absent","response":"absent","rt":"5242","correct":true,"confidence":-1},{"trial_n":91,"span":15,"encoder":"805940095221493","distractor":"805940095211493","target":"present","response":"present","rt":"7436.9999999998","correct":true,"confidence":4},{"trial_n":92,"span":15,"encoder":"005225521223202","distractor":"005925521223202","target":"present","response":"present","rt":"3644","correct":true,"confidence":3},{"trial_n":93,"span":16,"encoder":"9624649321723642","distractor":"9621649321723642","target":"absent","response":"absent","rt":"2828.9999999998","correct":true,"confidence":3},{"trial_n":94,"span":16,"encoder":"9718295566981520","distractor":"9718295566971520","target":"absent","response":"absent","rt":"5352.9999999998","correct":true,"confidence":5},{"trial_n":95,"span":17,"encoder":"23009761428082356","distractor":"23099761428082356","target":"present","response":"absent","rt":"9199","correct":false,"confidence":2},{"trial_n":96,"span":16,"encoder":"5810063499004062","distractor":"5810063499004072","target":"present","response":"present","rt":"7221","correct":true,"confidence":5},{"trial_n":97,"span":16,"encoder":"2825145240487052","distractor":"2825145240407052","target":"present","response":"present","rt":"2922","correct":true,"confidence":5},{"trial_n":98,"span":17,"encoder":"53159729608950561","distractor":"53159729608950061","target":"absent","response":"absent","rt":"2620","correct":true,"confidence":5},{"trial_n":99,"span":17,"encoder":"49466917820003732","distractor":"49666917820003732","target":"present","response":"present","rt":"7565","correct":true,"confidence":3},{"trial_n":100,"span":18,"encoder":"027569662968330597","distractor":"027569662964330597","target":"absent","response":"absent","rt":"5425","correct":true,"confidence":4},{"trial_n":101,"span":18,"encoder":"661822550131460212","distractor":"661822550131460232","target":"present","response":"present","rt":"2489","correct":true,"confidence":5},{"trial_n":102,"span":19,"encoder":"9097434804432987306","distractor":"9097434864432987306","target":"present","response":"absent","rt":"7706.9999999995","correct":false,"confidence":2},{"trial_n":103,"span":18,"encoder":"068089643883407271","distractor":"068089643880407271","target":"absent","response":"present","rt":"11226","correct":false,"confidence":2},{"trial_n":104,"span":17,"encoder":"61500299047472103","distractor":"61500299747472103","target":"absent","response":"absent","rt":"9113.0000000005","correct":true,"confidence":2},{"trial_n":105,"span":17,"encoder":"36674308371951045","distractor":"36674608371951045","target":"absent","response":"present","rt":"9283.0000000005","correct":false,"confidence":3},{"trial_n":106,"span":16,"encoder":"5757362110805811","distractor":"5757262110805811","target":"present","response":"present","rt":"6222","correct":true,"confidence":2},{"trial_n":107,"span":16,"encoder":"0533015226109619","distractor":"0533015226119619","target":"present","response":"present","rt":"2773","correct":true,"confidence":5},{"trial_n":108,"span":17,"encoder":"14843728211994167","distractor":"14846728211994167","target":"present","response":"absent","rt":"6868","correct":false,"confidence":3},{"trial_n":109,"span":16,"encoder":"3377610568282583","distractor":"3377610568182583","target":"absent","response":"absent","rt":"8140","correct":true,"confidence":2},{"trial_n":110,"span":16,"encoder":"5724988742875677","distractor":"5724988742875637","target":"absent","response":"absent","rt":"2310.0000000005","correct":true,"confidence":5},{"trial_n":111,"span":17,"encoder":"38190810821429500","distractor":"38190810821429540","target":"absent","response":"absent","rt":"3286","correct":true,"confidence":5},{"trial_n":112,"span":17,"encoder":"60759882711153430","distractor":"60759882716153430","target":"absent","response":"absent","rt":"2680.0000000005","correct":true,"confidence":5},{"trial_n":113,"span":18,"encoder":"598317038779894495","distractor":"598317039779894495","target":"present","response":"present","rt":"11869","correct":true,"confidence":3},{"trial_n":114,"span":18,"encoder":"178479231271424706","distractor":"178479231271404706","target":"present","response":"present","rt":"9619","correct":true,"confidence":3},{"trial_n":115,"span":19,"encoder":"9103577809837923513","distractor":"9103577809838923513","target":"present","response":"present","rt":"11871","correct":true,"confidence":3},{"trial_n":116,"span":19,"encoder":"1368777813461067974","distractor":"1368777813441067974","target":"absent","response":"absent","rt":"9015","correct":true,"confidence":3},{"trial_n":117,"span":20,"encoder":"47685957353187891978","distractor":"47685957353187841978","target":"absent","response":"present","rt":"9028","correct":false,"confidence":3},{"trial_n":118,"span":19,"encoder":"2670947958823382175","distractor":"2670947958823382875","target":"absent","response":"absent","rt":"10079","correct":true,"confidence":5},{"trial_n":119,"span":19,"encoder":"0921885049631708321","distractor":"0922885049631708321","target":"absent","response":"absent","rt":"7241","correct":true,"confidence":3},{"trial_n":120,"span":20,"encoder":"90231563478454647065","distractor":"90231563477454647065","target":"present","response":"present","rt":"12087","correct":true,"confidence":2},{"trial_n":121,"span":20,"encoder":"00897750678788949455","distractor":"00897755678788949455","target":"absent","response":"present","rt":"6906.9999999995","correct":false,"confidence":1},{"trial_n":122,"span":19,"encoder":"5082537276271670826","distractor":"5082537276251670826","target":"present","response":"absent","rt":"24207","correct":false,"confidence":2},{"trial_n":123,"span":18,"encoder":"512012068606377981","distractor":"512012068607377981","target":"present","response":"present","rt":"4750","correct":true,"confidence":4},{"trial_n":124,"span":18,"encoder":"552880524841377107","distractor":"552880624841377107","target":"absent","response":"absent","rt":"9221","correct":true,"confidence":2},{"trial_n":125,"span":19,"encoder":"9051237549944599639","distractor":"9151237549944599639","target":"absent","response":"absent","rt":"8988","correct":true,"confidence":3},{"trial_n":126,"span":19,"encoder":"8472122345200616614","distractor":"8272122345200616614","target":"present","response":"absent","rt":"8835","correct":false,"confidence":2},{"trial_n":127,"span":18,"encoder":"319551244581241021","distractor":"319551244581141021","target":"absent","response":"absent","rt":"8692","correct":true,"confidence":2},{"trial_n":128,"span":18,"encoder":"746489858680601947","distractor":"746489858680609947","target":"present","response":"present","rt":"1889","correct":true,"confidence":5},{"trial_n":129,"span":19,"encoder":"9693062362031892641","distractor":"6693062362031892641","target":"present","response":"present","rt":"6748","correct":true,"confidence":3},{"trial_n":130,"span":19,"encoder":"9582975655604593297","distractor":"9582975655604593277","target":"present","response":"present","rt":"1554.0000000005","correct":true,"confidence":5},{"trial_n":131,"span":20,"encoder":"51514997305224193914","distractor":"51514997305224113914","target":"absent","response":"absent","rt":"3998","correct":true,"confidence":3},{"trial_n":132,"span":20,"encoder":"05926433450590875371","distractor":"05926433450590875471","target":"absent","response":"absent","rt":"3078","correct":true,"confidence":5},{"trial_n":133,"span":21,"encoder":"893760732712075068271","distractor":"893730732712075068271","target":"present","response":"absent","rt":"11815","correct":false,"confidence":2},{"trial_n":134,"span":20,"encoder":"72953346547110085627","distractor":"72253346547110085627","target":"present","response":"present","rt":"12677","correct":true,"confidence":1},{"trial_n":135,"span":20,"encoder":"71703582679377259023","distractor":"71763582679377259023","target":"absent","response":"absent","rt":"6815","correct":true,"confidence":3},{"trial_n":136,"span":21,"encoder":"685739666829404084653","distractor":"685739666829404089653","target":"absent","response":"absent","rt":"6704","correct":true,"confidence":3},{"trial_n":137,"span":21,"encoder":"529451500765793270928","distractor":"529451500765793270927","target":"absent","response":"absent","rt":"2620","correct":true,"confidence":5},{"trial_n":138,"span":22,"encoder":"7335372256225910988154","distractor":"7335372256275910988154","target":"present","response":"absent","rt":"8157.0000000005","correct":false,"confidence":2},{"trial_n":139,"span":21,"encoder":"594703854463193276380","distractor":"594703854463193216380","target":"absent","response":"absent","rt":"11741","correct":true,"confidence":4},{"trial_n":140,"span":21,"encoder":"797610428499842734451","distractor":"797610928499842734451","target":"present","response":"absent","rt":"9538","correct":false,"confidence":2}]