[{"trial_n":1,"min":25,"max":230,"target":"present","response":"present","rt":3597,"correct":true,"confidence":-1},{"trial_n":2,"min":25,"max":230,"target":"present","response":"present","rt":1801,"correct":true,"confidence":-1},{"trial_n":3,"min":41,"max":214,"target":"absent","response":"absent","rt":1271,"correct":true,"confidence":-1},{"trial_n":4,"min":41,"max":214,"target":"absent","response":"present","rt":2119,"correct":false,"confidence":-1},{"trial_n":5,"min":25,"max":230,"target":"present","response":"present","rt":603,"correct":true,"confidence":-1},{"trial_n":6,"min":25,"max":230,"target":"present","response":"present","rt":325,"correct":true,"confidence":-1},{"trial_n":7,"min":41,"max":214,"target":"present","response":"present","rt":223,"correct":true,"confidence":-1},{"trial_n":8,"min":41,"max":214,"target":"present","response":"present","rt":620,"correct":true,"confidence":-1},{"trial_n":9,"min":57,"max":198,"target":"present","response":"present","rt":313,"correct":true,"confidence":-1},{"trial_n":10,"min":57,"max":198,"target":"absent","response":"absent","rt":487.99999999999,"correct":true,"confidence":-1},{"trial_n":11,"min":65,"max":190,"target":"present","response":"present","rt":379,"correct":true,"confidence":-1},{"trial_n":12,"min":65,"max":190,"target":"absent","response":"absent","rt":395,"correct":true,"confidence":-1},{"trial_n":13,"min":73,"max":182,"target":"present","response":"present","rt":333,"correct":true,"confidence":-1},{"trial_n":14,"min":73,"max":182,"target":"present","response":"present","rt":372,"correct":true,"confidence":-1},{"trial_n":15,"min":81,"max":174,"target":"absent","response":"absent","rt":249.00000000001,"correct":true,"confidence":-1},{"trial_n":16,"min":81,"max":174,"target":"absent","response":"absent","rt":474,"correct":true,"confidence":-1},{"trial_n":17,"min":89,"max":166,"target":"absent","response":"absent","rt":365,"correct":true,"confidence":-1},{"trial_n":18,"min":89,"max":166,"target":"absent","response":"absent","rt":285.99999999999,"correct":true,"confidence":-1},{"trial_n":19,"min":97,"max":158,"target":"present","response":"absent","rt":357,"correct":false,"confidence":-1},{"trial_n":20,"min":89,"max":166,"target":"absent","response":"absent","rt":634,"correct":true,"confidence":-1},{"trial_n":21,"min":89,"max":166,"target":"absent","response":"absent","rt":988,"correct":true,"confidence":3},{"trial_n":22,"min":93,"max":162,"target":"present","response":"absent","rt":1680,"correct":false,"confidence":3},{"trial_n":23,"min":89,"max":166,"target":"absent","response":"absent","rt":869,"correct":true,"confidence":3},{"trial_n":24,"min":89,"max":166,"target":"absent","response":"absent","rt":772,"correct":true,"confidence":3},{"trial_n":25,"min":93,"max":162,"target":"present","response":"absent","rt":809.99999999999,"correct":false,"confidence":2},{"trial_n":26,"min":89,"max":166,"target":"absent","response":"present","rt":964,"correct":false,"confidence":3},{"trial_n":27,"min":85,"max":170,"target":"present","response":"absent","rt":1353,"correct":false,"confidence":3},{"trial_n":28,"min":81,"max":174,"target":"present","response":"present","rt":860,"correct":true,"confidence":3},{"trial_n":29,"min":81,"max":174,"target":"present","response":"present","rt":1531,"correct":true,"confidence":4},{"trial_n":30,"min":85,"max":170,"target":"present","response":"absent","rt":1204,"correct":false,"confidence":2},{"trial_n":31,"min":83,"max":172,"target":"present","response":"present","rt":1010,"correct":true,"confidence":3},{"trial_n":32,"min":83,"max":172,"target":"present","response":"absent","rt":763,"correct":false,"confidence":3},{"trial_n":33,"min":81,"max":174,"target":"present","response":"present","rt":763,"correct":true,"confidence":4},{"trial_n":34,"min":81,"max":174,"target":"absent","response":"absent","rt":675,"correct":true,"confidence":2},{"trial_n":35,"min":83,"max":172,"target":"absent","response":"absent","rt":690.99999999997,"correct":true,"confidence":3},{"trial_n":36,"min":83,"max":172,"target":"present","response":"present","rt":809,"correct":true,"confidence":5},{"trial_n":37,"min":85,"max":170,"target":"absent","response":"absent","rt":763,"correct":true,"confidence":4},{"trial_n":38,"min":85,"max":170,"target":"present","response":"present","rt":747,"correct":true,"confidence":3},{"trial_n":39,"min":87,"max":168,"target":"present","response":"present","rt":682,"correct":true,"confidence":3},{"trial_n":40,"min":87,"max":168,"target":"present","response":"present","rt":778.99999999997,"correct":true,"confidence":5},{"trial_n":41,"min":88,"max":167,"target":"absent","response":"present","rt":745,"correct":false,"confidence":3},{"trial_n":42,"min":87,"max":168,"target":"absent","response":"absent","rt":955,"correct":true,"confidence":2},{"trial_n":43,"min":87,"max":168,"target":"absent","response":"absent","rt":1082,"correct":true,"confidence":3},{"trial_n":44,"min":88,"max":167,"target":"present","response":"present","rt":2808,"correct":true,"confidence":2},{"trial_n":45,"min":88,"max":167,"target":"absent","response":"absent","rt":1633,"correct":true,"confidence":3},{"trial_n":46,"min":89,"max":166,"target":"present","response":"absent","rt":1384,"correct":false,"confidence":3},{"trial_n":47,"min":88,"max":167,"target":"present","response":"present","rt":625.99999999994,"correct":true,"confidence":4},{"trial_n":48,"min":88,"max":167,"target":"absent","response":"present","rt":841,"correct":false,"confidence":3},{"trial_n":49,"min":87,"max":168,"target":"absent","response":"present","rt":1154.0000000001,"correct":false,"confidence":2},{"trial_n":50,"min":86,"max":169,"target":"absent","response":"present","rt":1337,"correct":false,"confidence":3},{"trial_n":51,"min":85,"max":170,"target":"present","response":"present","rt":714,"correct":true,"confidence":2},{"trial_n":52,"min":85,"max":170,"target":"absent","response":"present","rt":955,"correct":false,"confidence":3},{"trial_n":53,"min":84,"max":171,"target":"absent","response":"absent","rt":1146,"correct":true,"confidence":3},{"trial_n":54,"min":84,"max":171,"target":"present","response":"absent","rt":1264.9999999999,"correct":false,"confidence":4},{"trial_n":55,"min":83,"max":172,"target":"absent","response":"present","rt":658,"correct":false,"confidence":2},{"trial_n":56,"min":82,"max":173,"target":"present","response":"present","rt":719,"correct":true,"confidence":3},{"trial_n":57,"min":82,"max":173,"target":"absent","response":"absent","rt":1121,"correct":true,"confidence":3},{"trial_n":58,"min":83,"max":172,"target":"absent","response":"present","rt":729.99999999994,"correct":false,"confidence":3},{"trial_n":59,"min":82,"max":173,"target":"present","response":"present","rt":2456,"correct":true,"confidence":3},{"trial_n":60,"min":82,"max":173,"target":"absent","response":"absent","rt":1033.0000000001,"correct":true,"confidence":3},{"trial_n":61,"min":83,"max":172,"target":"absent","response":"present","rt":1297,"correct":false,"confidence":3},{"trial_n":62,"min":82,"max":173,"target":"present","response":"present","rt":649,"correct":true,"confidence":3},{"trial_n":63,"min":82,"max":173,"target":"absent","response":"absent","rt":1353,"correct":true,"confidence":3},{"trial_n":64,"min":83,"max":172,"target":"absent","response":"absent","rt":840.99999999994,"correct":true,"confidence":2},{"trial_n":65,"min":83,"max":172,"target":"present","response":"present","rt":721,"correct":true,"confidence":3},{"trial_n":66,"min":84,"max":171,"target":"absent","response":"absent","rt":633.00000000006,"correct":true,"confidence":3},{"trial_n":67,"min":84,"max":171,"target":"present","response":"absent","rt":1258,"correct":false,"confidence":3},{"trial_n":68,"min":83,"max":172,"target":"absent","response":"absent","rt":898,"correct":true,"confidence":4},{"trial_n":69,"min":83,"max":172,"target":"present","response":"absent","rt":929,"correct":false,"confidence":3},{"trial_n":70,"min":82,"max":173,"target":"present","response":"absent","rt":800,"correct":false,"confidence":2},{"trial_n":71,"min":41,"max":214,"target":"present","response":"present","rt":4031,"correct":true,"confidence":-1},{"trial_n":72,"min":41,"max":214,"target":"present","response":"present","rt":870,"correct":true,"confidence":-1},{"trial_n":73,"min":57,"max":198,"target":"absent","response":"absent","rt":1376.9999999999,"correct":true,"confidence":-1},{"trial_n":74,"min":57,"max":198,"target":"absent","response":"absent","rt":2687,"correct":true,"confidence":-1},{"trial_n":75,"min":73,"max":182,"target":"present","response":"absent","rt":790,"correct":false,"confidence":-1},{"trial_n":76,"min":57,"max":198,"target":"present","response":"present","rt":821,"correct":true,"confidence":-1},{"trial_n":77,"min":57,"max":198,"target":"absent","response":"absent","rt":987,"correct":true,"confidence":-1},{"trial_n":78,"min":73,"max":182,"target":"absent","response":"absent","rt":1377.0000000001,"correct":true,"confidence":-1},{"trial_n":79,"min":73,"max":182,"target":"absent","response":"present","rt":842,"correct":false,"confidence":-1},{"trial_n":80,"min":57,"max":198,"target":"present","response":"present","rt":861,"correct":true,"confidence":-1},{"trial_n":81,"min":57,"max":198,"target":"present","response":"present","rt":738,"correct":true,"confidence":-1},{"trial_n":82,"min":65,"max":190,"target":"absent","response":"absent","rt":796,"correct":true,"confidence":-1},{"trial_n":83,"min":65,"max":190,"target":"present","response":"present","rt":730,"correct":true,"confidence":-1},{"trial_n":84,"min":73,"max":182,"target":"absent","response":"absent","rt":979,"correct":true,"confidence":-1},{"trial_n":85,"min":73,"max":182,"target":"present","response":"present","rt":742.00000000006,"correct":true,"confidence":-1},{"trial_n":86,"min":81,"max":174,"target":"present","response":"absent","rt":788,"correct":false,"confidence":-1},{"trial_n":87,"min":73,"max":182,"target":"absent","response":"absent","rt":1005.0000000001,"correct":true,"confidence":-1},{"trial_n":88,"min":73,"max":182,"target":"present","response":"present","rt":661,"correct":true,"confidence":-1},{"trial_n":89,"min":81,"max":174,"target":"absent","response":"absent","rt":827,"correct":true,"confidence":-1},{"trial_n":90,"min":81,"max":174,"target":"absent","response":"present","rt":1092,"correct":false,"confidence":-1},{"trial_n":91,"min":77,"max":178,"target":"present","response":"present","rt":612,"correct":true,"confidence":5},{"trial_n":92,"min":77,"max":178,"target":"present","response":"present","rt":712,"correct":true,"confidence":4},{"trial_n":93,"min":81,"max":174,"target":"present","response":"present","rt":1343,"correct":true,"confidence":2},{"trial_n":94,"min":81,"max":174,"target":"present","response":"present","rt":710.99999999994,"correct":true,"confidence":4},{"trial_n":95,"min":85,"max":170,"target":"absent","response":"absent","rt":2346,"correct":true,"confidence":2},{"trial_n":96,"min":85,"max":170,"target":"absent","response":"present","rt":1090,"correct":false,"confidence":3},{"trial_n":97,"min":81,"max":174,"target":"present","response":"present","rt":1097.9999999999,"correct":true,"confidence":4},{"trial_n":98,"min":81,"max":174,"target":"present","response":"present","rt":963,"correct":true,"confidence":3},{"trial_n":99,"min":85,"max":170,"target":"absent","response":"absent","rt":920.99999999994,"correct":true,"confidence":1},{"trial_n":100,"min":85,"max":170,"target":"present","response":"present","rt":1405,"correct":true,"confidence":3},{"trial_n":101,"min":87,"max":168,"target":"absent","response":"present","rt":668,"correct":false,"confidence":3},{"trial_n":102,"min":85,"max":170,"target":"present","response":"present","rt":1397,"correct":true,"confidence":1},{"trial_n":103,"min":85,"max":170,"target":"present","response":"absent","rt":867.99999999988,"correct":false,"confidence":4},{"trial_n":104,"min":83,"max":172,"target":"present","response":"present","rt":695,"correct":true,"confidence":3},{"trial_n":105,"min":83,"max":172,"target":"absent","response":"present","rt":939,"correct":false,"confidence":1},{"trial_n":106,"min":81,"max":174,"target":"present","response":"present","rt":664,"correct":true,"confidence":4},{"trial_n":107,"min":81,"max":174,"target":"absent","response":"absent","rt":906,"correct":true,"confidence":4},{"trial_n":108,"min":83,"max":172,"target":"absent","response":"present","rt":928,"correct":false,"confidence":1},{"trial_n":109,"min":81,"max":174,"target":"absent","response":"absent","rt":1295,"correct":true,"confidence":1},{"trial_n":110,"min":81,"max":174,"target":"absent","response":"present","rt":1109,"correct":false,"confidence":2},{"trial_n":111,"min":80,"max":175,"target":"absent","response":"absent","rt":1118,"correct":true,"confidence":4},{"trial_n":112,"min":80,"max":175,"target":"present","response":"present","rt":1509.0000000001,"correct":true,"confidence":2},{"trial_n":113,"min":81,"max":174,"target":"absent","response":"absent","rt":1174,"correct":true,"confidence":3},{"trial_n":114,"min":81,"max":174,"target":"absent","response":"present","rt":1067,"correct":false,"confidence":3},{"trial_n":115,"min":80,"max":175,"target":"present","response":"present","rt":806,"correct":true,"confidence":4},{"trial_n":116,"min":80,"max":175,"target":"present","response":"present","rt":604.99999999988,"correct":true,"confidence":4},{"trial_n":117,"min":81,"max":174,"target":"present","response":"present","rt":755,"correct":true,"confidence":5},{"trial_n":118,"min":81,"max":174,"target":"absent","response":"absent","rt":1287,"correct":true,"confidence":3},{"trial_n":119,"min":82,"max":173,"target":"present","response":"present","rt":1230,"correct":true,"confidence":2},{"trial_n":120,"min":82,"max":173,"target":"absent","response":"absent","rt":1039,"correct":true,"confidence":3},{"trial_n":121,"min":83,"max":172,"target":"absent","response":"absent","rt":989,"correct":true,"confidence":2},{"trial_n":122,"min":83,"max":172,"target":"absent","response":"present","rt":778.00000000012,"correct":false,"confidence":1},{"trial_n":123,"min":82,"max":173,"target":"absent","response":"absent","rt":1043,"correct":true,"confidence":3},{"trial_n":124,"min":82,"max":173,"target":"present","response":"present","rt":765.00000000012,"correct":true,"confidence":3},{"trial_n":125,"min":83,"max":172,"target":"present","response":"present","rt":485,"correct":true,"confidence":4},{"trial_n":126,"min":83,"max":172,"target":"present","response":"present","rt":857,"correct":true,"confidence":3},{"trial_n":127,"min":84,"max":171,"target":"absent","response":"absent","rt":1790.9999999999,"correct":true,"confidence":2},{"trial_n":128,"min":84,"max":171,"target":"absent","response":"present","rt":693,"correct":false,"confidence":2},{"trial_n":129,"min":83,"max":172,"target":"absent","response":"absent","rt":897,"correct":true,"confidence":3},{"trial_n":130,"min":83,"max":172,"target":"present","response":"present","rt":1266.0000000001,"correct":true,"confidence":4},{"trial_n":131,"min":84,"max":171,"target":"absent","response":"present","rt":971,"correct":false,"confidence":1},{"trial_n":132,"min":83,"max":172,"target":"present","response":"present","rt":1416.0000000001,"correct":true,"confidence":3},{"trial_n":133,"min":83,"max":172,"target":"present","response":"present","rt":645.99999999988,"correct":true,"confidence":4},{"trial_n":134,"min":84,"max":171,"target":"absent","response":"present","rt":870.99999999988,"correct":false,"confidence":3},{"trial_n":135,"min":83,"max":172,"target":"absent","response":"present","rt":748,"correct":false,"confidence":3},{"trial_n":136,"min":82,"max":173,"target":"present","response":"present","rt":805,"correct":true,"confidence":3},{"trial_n":137,"min":82,"max":173,"target":"absent","response":"present","rt":863.00000000012,"correct":false,"confidence":1},{"trial_n":138,"min":81,"max":174,"target":"present","response":"present","rt":1137.0000000001,"correct":true,"confidence":4},{"trial_n":139,"min":81,"max":174,"target":"present","response":"absent","rt":1803,"correct":false,"confidence":2},{"trial_n":140,"min":80,"max":175,"target":"present","response":"present","rt":609.00000000012,"correct":true,"confidence":4}]