[{"trial_n":1,"span":8,"encoder":"68202869","distractor":"63202869","target":"present","response":"absent","rt":"4586.8000000119","correct":false,"confidence":-1},{"trial_n":2,"span":6,"encoder":"315049","distractor":"316049","target":"present","response":"absent","rt":"2602.8999999762","correct":false,"confidence":-1},{"trial_n":3,"span":4,"encoder":"3701","distractor":"3201","target":"absent","response":"absent","rt":"1436","correct":true,"confidence":-1},{"trial_n":4,"span":4,"encoder":"2125","distractor":"2165","target":"absent","response":"absent","rt":"1829.1999999881","correct":true,"confidence":-1},{"trial_n":5,"span":6,"encoder":"107523","distractor":"167523","target":"present","response":"present","rt":"3320.1999999881","correct":true,"confidence":-1},{"trial_n":6,"span":6,"encoder":"716402","distractor":"616402","target":"present","response":"present","rt":"2137.6000000238","correct":true,"confidence":-1},{"trial_n":7,"span":8,"encoder":"14579170","distractor":"14579175","target":"present","response":"present","rt":"3281.5","correct":true,"confidence":-1},{"trial_n":8,"span":8,"encoder":"16953513","distractor":"36953513","target":"absent","response":"absent","rt":"1282.5","correct":true,"confidence":-1},{"trial_n":9,"span":10,"encoder":"8876805986","distractor":"7876805986","target":"present","response":"present","rt":"4073.6999999881","correct":true,"confidence":-1},{"trial_n":10,"span":10,"encoder":"3275177447","distractor":"3275177440","target":"present","response":"present","rt":"2035.3000000119","correct":true,"confidence":-1},{"trial_n":11,"span":12,"encoder":"737851593175","distractor":"737851593875","target":"absent","response":"absent","rt":"2924.1000000238","correct":true,"confidence":-1},{"trial_n":12,"span":12,"encoder":"601417342218","distractor":"501417342218","target":"present","response":"present","rt":"922.30000001192","correct":true,"confidence":-1},{"trial_n":13,"span":13,"encoder":"5159673325762","distractor":"5129673325762","target":"absent","response":"present","rt":"2024.8000000119","correct":false,"confidence":-1},{"trial_n":14,"span":12,"encoder":"120412729806","distractor":"120412929806","target":"absent","response":"present","rt":"1453.1999999881","correct":false,"confidence":-1},{"trial_n":15,"span":11,"encoder":"20578250855","distractor":"25578250855","target":"absent","response":"present","rt":"1478.0999999642","correct":false,"confidence":-1},{"trial_n":16,"span":10,"encoder":"9973725231","distractor":"9573725231","target":"present","response":"present","rt":"876.5","correct":true,"confidence":-1},{"trial_n":17,"span":10,"encoder":"2653986785","distractor":"2657986785","target":"present","response":"present","rt":"1036","correct":true,"confidence":-1},{"trial_n":18,"span":11,"encoder":"96811222384","distractor":"95811222384","target":"present","response":"present","rt":"794.90000003576","correct":true,"confidence":-1},{"trial_n":19,"span":11,"encoder":"72503560196","distractor":"72003560196","target":"absent","response":"present","rt":"1129.3000000119","correct":false,"confidence":-1},{"trial_n":20,"span":10,"encoder":"3118465144","distractor":"3118465644","target":"present","response":"present","rt":"863.5","correct":true,"confidence":-1},{"trial_n":21,"span":10,"encoder":"0271878718","distractor":"0271878618","target":"absent","response":"absent","rt":"2223.3999999762","correct":true,"confidence":4},{"trial_n":22,"span":11,"encoder":"87902120321","distractor":"82902120321","target":"present","response":"absent","rt":"5884.5","correct":false,"confidence":3},{"trial_n":23,"span":10,"encoder":"2871830518","distractor":"2871530518","target":"absent","response":"absent","rt":"4472","correct":true,"confidence":3},{"trial_n":24,"span":10,"encoder":"0689721154","distractor":"0680721154","target":"present","response":"present","rt":"2402.8999999762","correct":true,"confidence":5},{"trial_n":25,"span":11,"encoder":"16048103264","distractor":"16048503264","target":"present","response":"present","rt":"5706.3999999762","correct":true,"confidence":5},{"trial_n":26,"span":11,"encoder":"77752906057","distractor":"77752406057","target":"present","response":"present","rt":"1928.3000000119","correct":true,"confidence":5},{"trial_n":27,"span":12,"encoder":"365835116925","distractor":"365835146925","target":"present","response":"present","rt":"1949.7999999523","correct":true,"confidence":4},{"trial_n":28,"span":12,"encoder":"180271316584","distractor":"183271316584","target":"absent","response":"present","rt":"2691.5999999642","correct":false,"confidence":4},{"trial_n":29,"span":11,"encoder":"44234942253","distractor":"44274942253","target":"absent","response":"absent","rt":"2239.6000000238","correct":true,"confidence":4},{"trial_n":30,"span":11,"encoder":"32634520465","distractor":"32634520565","target":"absent","response":"absent","rt":"2943","correct":true,"confidence":3},{"trial_n":31,"span":12,"encoder":"889316431458","distractor":"889313431458","target":"absent","response":"present","rt":"3568.4000000358","correct":false,"confidence":4},{"trial_n":32,"span":11,"encoder":"97745087425","distractor":"97845087425","target":"absent","response":"present","rt":"3176.7000000477","correct":false,"confidence":4},{"trial_n":33,"span":10,"encoder":"4792363616","distractor":"4792363656","target":"absent","response":"absent","rt":"3703.6999999881","correct":true,"confidence":3},{"trial_n":34,"span":10,"encoder":"6794596475","distractor":"6794576475","target":"absent","response":"present","rt":"2915.6999999881","correct":false,"confidence":5},{"trial_n":35,"span":9,"encoder":"243337078","distractor":"243337478","target":"present","response":"present","rt":"2640.3999999762","correct":true,"confidence":5},{"trial_n":36,"span":9,"encoder":"429859669","distractor":"429859668","target":"present","response":"present","rt":"5128.7999999523","correct":true,"confidence":4},{"trial_n":37,"span":10,"encoder":"2469540281","distractor":"2479540281","target":"absent","response":"absent","rt":"3797.8000000119","correct":true,"confidence":4},{"trial_n":38,"span":10,"encoder":"6331552896","distractor":"6331552996","target":"absent","response":"absent","rt":"3446","correct":true,"confidence":5},{"trial_n":39,"span":11,"encoder":"99260838941","distractor":"99260828941","target":"present","response":"absent","rt":"3087.6000000238","correct":false,"confidence":4},{"trial_n":40,"span":10,"encoder":"2433224872","distractor":"2433024872","target":"absent","response":"absent","rt":"5874","correct":true,"confidence":4},{"trial_n":41,"span":10,"encoder":"4659946183","distractor":"4654946183","target":"absent","response":"present","rt":"1943.5","correct":false,"confidence":4},{"trial_n":42,"span":9,"encoder":"523668521","distractor":"523668591","target":"present","response":"present","rt":"3897.4000000358","correct":true,"confidence":5},{"trial_n":43,"span":9,"encoder":"473531711","distractor":"475531711","target":"absent","response":"absent","rt":"3371.1000000238","correct":true,"confidence":3},{"trial_n":44,"span":10,"encoder":"7710189871","distractor":"7710189872","target":"present","response":"present","rt":"2769.3000000119","correct":true,"confidence":3},{"trial_n":45,"span":10,"encoder":"5917991507","distractor":"5917991587","target":"present","response":"present","rt":"2991.5","correct":true,"confidence":4},{"trial_n":46,"span":11,"encoder":"64480949805","distractor":"64488949805","target":"present","response":"present","rt":"2590.6999999881","correct":true,"confidence":4},{"trial_n":47,"span":11,"encoder":"32793004647","distractor":"32793304647","target":"absent","response":"present","rt":"1736.0999999642","correct":false,"confidence":3},{"trial_n":48,"span":10,"encoder":"0480338146","distractor":"0490338146","target":"absent","response":"present","rt":"2736.4000000358","correct":false,"confidence":2},{"trial_n":49,"span":9,"encoder":"340332796","distractor":"349332796","target":"present","response":"present","rt":"1973.1999999881","correct":true,"confidence":3},{"trial_n":50,"span":9,"encoder":"039639845","distractor":"032639845","target":"present","response":"present","rt":"1415.8000000119","correct":true,"confidence":4},{"trial_n":51,"span":10,"encoder":"4191653241","distractor":"4111653241","target":"present","response":"absent","rt":"46934.199999988","correct":false,"confidence":3},{"trial_n":52,"span":9,"encoder":"531739647","distractor":"631739647","target":"present","response":"absent","rt":"3704.6999999881","correct":false,"confidence":3},{"trial_n":53,"span":8,"encoder":"54039986","distractor":"54032986","target":"absent","response":"absent","rt":"2033.3000000119","correct":true,"confidence":3},{"trial_n":54,"span":8,"encoder":"97769097","distractor":"97769098","target":"absent","response":"absent","rt":"1776.6000000238","correct":true,"confidence":5},{"trial_n":55,"span":9,"encoder":"512773373","distractor":"512753373","target":"present","response":"absent","rt":"30025.899999976","correct":false,"confidence":1},{"trial_n":56,"span":8,"encoder":"01307794","distractor":"01307791","target":"present","response":"present","rt":"5682.5999999642","correct":true,"confidence":3},{"trial_n":57,"span":8,"encoder":"84999958","distractor":"84979958","target":"absent","response":"absent","rt":"4437.3999999762","correct":true,"confidence":3},{"trial_n":58,"span":9,"encoder":"867334776","distractor":"367334776","target":"present","response":"absent","rt":"4177.0999999642","correct":false,"confidence":4},{"trial_n":59,"span":8,"encoder":"05510547","distractor":"05510517","target":"absent","response":"absent","rt":"2411.8999999762","correct":true,"confidence":5},{"trial_n":60,"span":8,"encoder":"78962856","distractor":"78962896","target":"present","response":"absent","rt":"2197.8999999762","correct":false,"confidence":4},{"trial_n":61,"span":7,"encoder":"9420466","distractor":"9420465","target":"absent","response":"absent","rt":"2138.7000000477","correct":true,"confidence":5},{"trial_n":62,"span":7,"encoder":"0140153","distractor":"0240153","target":"absent","response":"absent","rt":"54168.399999976","correct":true,"confidence":1},{"trial_n":63,"span":8,"encoder":"55989006","distractor":"55919006","target":"absent","response":"present","rt":"1703.7999999523","correct":false,"confidence":4},{"trial_n":64,"span":7,"encoder":"2770626","distractor":"2770526","target":"present","response":"absent","rt":"3884.9000000358","correct":false,"confidence":3},{"trial_n":65,"span":6,"encoder":"909397","distractor":"904397","target":"absent","response":"present","rt":"2630.5","correct":false,"confidence":1},{"trial_n":66,"span":5,"encoder":"00415","distractor":"00410","target":"present","response":"present","rt":"2279.5","correct":true,"confidence":4},{"trial_n":67,"span":5,"encoder":"93891","distractor":"98891","target":"absent","response":"absent","rt":"1496.3000000119","correct":true,"confidence":5},{"trial_n":68,"span":6,"encoder":"540383","distractor":"540313","target":"present","response":"present","rt":"1962.8000000119","correct":true,"confidence":5},{"trial_n":69,"span":6,"encoder":"500835","distractor":"900835","target":"absent","response":"absent","rt":"1314.3000000119","correct":true,"confidence":5},{"trial_n":70,"span":7,"encoder":"3228241","distractor":"7228241","target":"present","response":"present","rt":"2985.1000000238","correct":true,"confidence":4},{"trial_n":71,"span":8,"encoder":"90542258","distractor":"90542251","target":"present","response":"present","rt":"3016.5","correct":true,"confidence":-1},{"trial_n":72,"span":8,"encoder":"98047429","distractor":"99047429","target":"present","response":"present","rt":"4294.7999999523","correct":true,"confidence":-1},{"trial_n":73,"span":9,"encoder":"557598270","distractor":"559598270","target":"absent","response":"present","rt":"5142.2000000477","correct":false,"confidence":-1},{"trial_n":74,"span":8,"encoder":"94149905","distractor":"94159905","target":"absent","response":"absent","rt":"1834.2000000477","correct":true,"confidence":-1},{"trial_n":75,"span":8,"encoder":"22142011","distractor":"22146011","target":"present","response":"present","rt":"1596.1999999881","correct":true,"confidence":-1},{"trial_n":76,"span":9,"encoder":"820819249","distractor":"820818249","target":"present","response":"present","rt":"1975","correct":true,"confidence":-1},{"trial_n":77,"span":9,"encoder":"579703486","distractor":"579303486","target":"absent","response":"absent","rt":"3163.8999999762","correct":true,"confidence":-1},{"trial_n":78,"span":10,"encoder":"5977001388","distractor":"5947001388","target":"absent","response":"absent","rt":"5484.8000000119","correct":true,"confidence":-1},{"trial_n":79,"span":10,"encoder":"2000470297","distractor":"2000470097","target":"absent","response":"absent","rt":"1719.1999999881","correct":true,"confidence":-1},{"trial_n":80,"span":11,"encoder":"15036960301","distractor":"15036960391","target":"present","response":"present","rt":"2023.3999999762","correct":true,"confidence":-1},{"trial_n":81,"span":11,"encoder":"35110017881","distractor":"35110017831","target":"present","response":"present","rt":"1557.8000000119","correct":true,"confidence":-1},{"trial_n":82,"span":12,"encoder":"369722943920","distractor":"369722943970","target":"present","response":"present","rt":"1714.4000000358","correct":true,"confidence":-1},{"trial_n":83,"span":12,"encoder":"989398768753","distractor":"989338768753","target":"absent","response":"present","rt":"1608.7999999523","correct":false,"confidence":-1},{"trial_n":84,"span":11,"encoder":"63819349608","distractor":"63819348608","target":"present","response":"present","rt":"1042.6999999881","correct":true,"confidence":-1},{"trial_n":85,"span":11,"encoder":"69409600704","distractor":"69409300704","target":"absent","response":"present","rt":"1363.4000000358","correct":false,"confidence":-1},{"trial_n":86,"span":10,"encoder":"0420310468","distractor":"0460310468","target":"absent","response":"absent","rt":"2304.1999999881","correct":true,"confidence":-1},{"trial_n":87,"span":10,"encoder":"2672137222","distractor":"2272137222","target":"present","response":"present","rt":"860.69999998808","correct":true,"confidence":-1},{"trial_n":88,"span":11,"encoder":"48655363200","distractor":"48155363200","target":"present","response":"present","rt":"2295.1000000238","correct":true,"confidence":-1},{"trial_n":89,"span":11,"encoder":"31161167449","distractor":"31181167449","target":"present","response":"present","rt":"1274.6000000238","correct":true,"confidence":-1},{"trial_n":90,"span":12,"encoder":"782040730235","distractor":"782040730835","target":"absent","response":"absent","rt":"1487.1000000238","correct":true,"confidence":-1},{"trial_n":91,"span":12,"encoder":"054011410049","distractor":"054111410049","target":"present","response":"absent","rt":"3786.0999999642","correct":false,"confidence":3},{"trial_n":92,"span":11,"encoder":"20611892248","distractor":"20611092248","target":"absent","response":"present","rt":"3257","correct":false,"confidence":4},{"trial_n":93,"span":10,"encoder":"1140552144","distractor":"1140532144","target":"absent","response":"present","rt":"1290.5","correct":false,"confidence":3},{"trial_n":94,"span":9,"encoder":"975309771","distractor":"975309171","target":"present","response":"present","rt":"1742.1999999881","correct":true,"confidence":4},{"trial_n":95,"span":9,"encoder":"619789742","distractor":"615789742","target":"absent","response":"present","rt":"2698.1999999881","correct":false,"confidence":2},{"trial_n":96,"span":8,"encoder":"56695276","distractor":"56695206","target":"present","response":"present","rt":"1281.7000000477","correct":true,"confidence":5},{"trial_n":97,"span":8,"encoder":"90760323","distractor":"90760329","target":"present","response":"present","rt":"1373.8999999762","correct":true,"confidence":5},{"trial_n":98,"span":9,"encoder":"028123341","distractor":"028133341","target":"present","response":"present","rt":"1652.6000000238","correct":true,"confidence":5},{"trial_n":99,"span":9,"encoder":"050961193","distractor":"050921193","target":"absent","response":"present","rt":"1398.3999999762","correct":false,"confidence":1},{"trial_n":100,"span":8,"encoder":"71032443","distractor":"71032453","target":"present","response":"present","rt":"1553.6999999881","correct":true,"confidence":4},{"trial_n":101,"span":8,"encoder":"89346576","distractor":"89246576","target":"absent","response":"present","rt":"4519.3000000119","correct":false,"confidence":1},{"trial_n":102,"span":7,"encoder":"7720386","distractor":"7760386","target":"present","response":"absent","rt":"175291.69999999","correct":false,"confidence":1},{"trial_n":103,"span":6,"encoder":"871029","distractor":"871529","target":"absent","response":"absent","rt":"2911.1999999881","correct":true,"confidence":4},{"trial_n":104,"span":6,"encoder":"784162","distractor":"780162","target":"absent","response":"absent","rt":"1549.3999999762","correct":true,"confidence":5},{"trial_n":105,"span":7,"encoder":"1785068","distractor":"1785468","target":"present","response":"present","rt":"2333.5999999642","correct":true,"confidence":5},{"trial_n":106,"span":7,"encoder":"9689756","distractor":"9689758","target":"absent","response":"absent","rt":"3194.8000000119","correct":true,"confidence":5},{"trial_n":107,"span":8,"encoder":"76240132","distractor":"76240102","target":"absent","response":"absent","rt":"1522.8999999762","correct":true,"confidence":5},{"trial_n":108,"span":8,"encoder":"90700260","distractor":"90705260","target":"present","response":"present","rt":"1692.5999999642","correct":true,"confidence":5},{"trial_n":109,"span":9,"encoder":"962312787","distractor":"162312787","target":"absent","response":"absent","rt":"3639.3000000119","correct":true,"confidence":4},{"trial_n":110,"span":9,"encoder":"353621296","distractor":"353621896","target":"present","response":"present","rt":"1539.6999999881","correct":true,"confidence":5},{"trial_n":111,"span":10,"encoder":"1128777423","distractor":"1128277423","target":"absent","response":"present","rt":"2503.3000000119","correct":false,"confidence":4},{"trial_n":112,"span":9,"encoder":"538100813","distractor":"538100513","target":"absent","response":"absent","rt":"1300","correct":true,"confidence":5},{"trial_n":113,"span":9,"encoder":"139861190","distractor":"139861890","target":"absent","response":"present","rt":"2042.5","correct":false,"confidence":3},{"trial_n":114,"span":8,"encoder":"33657932","distractor":"33653932","target":"absent","response":"present","rt":"2095.1999999881","correct":false,"confidence":4},{"trial_n":115,"span":7,"encoder":"4757967","distractor":"4757367","target":"absent","response":"absent","rt":"2224","correct":true,"confidence":4},{"trial_n":116,"span":7,"encoder":"0599183","distractor":"0593183","target":"present","response":"present","rt":"2234.0999999642","correct":true,"confidence":3},{"trial_n":117,"span":8,"encoder":"55106659","distractor":"55106658","target":"absent","response":"absent","rt":"1379.5999999642","correct":true,"confidence":5},{"trial_n":118,"span":8,"encoder":"53479610","distractor":"53479310","target":"absent","response":"absent","rt":"1429.8000000119","correct":true,"confidence":5},{"trial_n":119,"span":9,"encoder":"822046171","distractor":"862046171","target":"present","response":"absent","rt":"3575.1999999881","correct":false,"confidence":4},{"trial_n":120,"span":8,"encoder":"28855326","distractor":"68855326","target":"present","response":"absent","rt":"1641.5","correct":false,"confidence":3},{"trial_n":121,"span":7,"encoder":"6846834","distractor":"6846838","target":"absent","response":"absent","rt":"1224.5","correct":true,"confidence":5},{"trial_n":122,"span":7,"encoder":"1382159","distractor":"1882159","target":"present","response":"present","rt":"2796.1000000238","correct":true,"confidence":5},{"trial_n":123,"span":8,"encoder":"15408802","distractor":"15308802","target":"present","response":"present","rt":"3264.7000000477","correct":true,"confidence":3},{"trial_n":124,"span":8,"encoder":"65730904","distractor":"65730908","target":"absent","response":"absent","rt":"981.30000001192","correct":true,"confidence":5},{"trial_n":125,"span":9,"encoder":"889587690","distractor":"869587690","target":"present","response":"present","rt":"3539.2999999523","correct":true,"confidence":4},{"trial_n":126,"span":9,"encoder":"151702912","distractor":"351702912","target":"present","response":"present","rt":"1644","correct":true,"confidence":5},{"trial_n":127,"span":10,"encoder":"9012244399","distractor":"9012243399","target":"present","response":"absent","rt":"1857032.6","correct":false,"confidence":1},{"trial_n":128,"span":9,"encoder":"084539351","distractor":"184539351","target":"present","response":"present","rt":"1959.1999999881","correct":true,"confidence":4},{"trial_n":129,"span":9,"encoder":"403396309","distractor":"463396309","target":"absent","response":"absent","rt":"1543.3000000119","correct":true,"confidence":5},{"trial_n":130,"span":10,"encoder":"6851358974","distractor":"6859358974","target":"present","response":"present","rt":"3509.3000000119","correct":true,"confidence":3},{"trial_n":131,"span":10,"encoder":"5286407642","distractor":"5286409642","target":"absent","response":"absent","rt":"1983.3000000119","correct":true,"confidence":3},{"trial_n":132,"span":11,"encoder":"32046107396","distractor":"32096107396","target":"absent","response":"absent","rt":"4332.4000000358","correct":true,"confidence":2},{"trial_n":133,"span":11,"encoder":"65364436754","distractor":"65364436724","target":"present","response":"present","rt":"1993","correct":true,"confidence":3},{"trial_n":134,"span":12,"encoder":"304228228599","distractor":"304028228599","target":"absent","response":"present","rt":"2199.5","correct":false,"confidence":2},{"trial_n":135,"span":11,"encoder":"24679687577","distractor":"24672687577","target":"present","response":"absent","rt":"1750.6000000238","correct":false,"confidence":4},{"trial_n":136,"span":10,"encoder":"9227441860","distractor":"9227441460","target":"absent","response":"absent","rt":"1576","correct":true,"confidence":5},{"trial_n":137,"span":10,"encoder":"2300555726","distractor":"2350555726","target":"present","response":"absent","rt":"3703.2000000477","correct":false,"confidence":2},{"trial_n":138,"span":9,"encoder":"989657209","distractor":"989657299","target":"absent","response":"present","rt":"1904.7999999523","correct":false,"confidence":3},{"trial_n":139,"span":8,"encoder":"45029847","distractor":"45529847","target":"present","response":"present","rt":"2257","correct":true,"confidence":4},{"trial_n":140,"span":8,"encoder":"59809817","distractor":"59009817","target":"present","response":"present","rt":"2394.8999999762","correct":true,"confidence":4}]