[{"trial_n":1,"n_dots":4.25,"target":"right","response":"left","rt":5364,"correct":false,"confidence":-1},{"trial_n":2,"n_dots":4.25,"target":"right","response":"left","rt":1142,"correct":false,"confidence":-1},{"trial_n":3,"n_dots":4.65,"target":"left","response":"left","rt":1349,"correct":true,"confidence":-1},{"trial_n":4,"n_dots":4.65,"target":"right","response":"right","rt":560,"correct":true,"confidence":-1},{"trial_n":5,"n_dots":4.25,"target":"left","response":"left","rt":116.99999999999,"correct":true,"confidence":-1},{"trial_n":6,"n_dots":4.25,"target":"left","response":"right","rt":1384,"correct":false,"confidence":-1},{"trial_n":7,"n_dots":4.65,"target":"right","response":"right","rt":538,"correct":true,"confidence":-1},{"trial_n":8,"n_dots":4.65,"target":"left","response":"left","rt":344,"correct":true,"confidence":-1},{"trial_n":9,"n_dots":4.45,"target":"left","response":"left","rt":307,"correct":true,"confidence":-1},{"trial_n":10,"n_dots":4.45,"target":"right","response":"right","rt":235,"correct":true,"confidence":-1},{"trial_n":11,"n_dots":4.25,"target":"right","response":"right","rt":348,"correct":true,"confidence":-1},{"trial_n":12,"n_dots":4.25,"target":"left","response":"left","rt":299.00000000001,"correct":true,"confidence":-1},{"trial_n":13,"n_dots":4.15,"target":"right","response":"right","rt":569,"correct":true,"confidence":-1},{"trial_n":14,"n_dots":4.15,"target":"left","response":"left","rt":314,"correct":true,"confidence":-1},{"trial_n":15,"n_dots":4.05,"target":"right","response":"right","rt":248,"correct":true,"confidence":-1},{"trial_n":16,"n_dots":4.05,"target":"right","response":"right","rt":389,"correct":true,"confidence":-1},{"trial_n":17,"n_dots":3.95,"target":"left","response":"left","rt":321,"correct":true,"confidence":-1},{"trial_n":18,"n_dots":3.95,"target":"right","response":"right","rt":277.99999999999,"correct":true,"confidence":-1},{"trial_n":19,"n_dots":3.85,"target":"left","response":"left","rt":250,"correct":true,"confidence":-1},{"trial_n":20,"n_dots":3.85,"target":"right","response":"right","rt":305.99999999999,"correct":true,"confidence":-1},{"trial_n":21,"n_dots":3.75,"target":"right","response":"left","rt":320,"correct":false,"confidence":2},{"trial_n":22,"n_dots":3.85,"target":"right","response":"right","rt":405,"correct":true,"confidence":4},{"trial_n":23,"n_dots":3.85,"target":"left","response":"right","rt":717,"correct":false,"confidence":3},{"trial_n":24,"n_dots":3.95,"target":"left","response":"left","rt":942,"correct":true,"confidence":3},{"trial_n":25,"n_dots":3.95,"target":"right","response":"right","rt":416,"correct":true,"confidence":4},{"trial_n":26,"n_dots":3.85,"target":"left","response":"left","rt":922,"correct":true,"confidence":4},{"trial_n":27,"n_dots":3.85,"target":"left","response":"left","rt":277,"correct":true,"confidence":4},{"trial_n":28,"n_dots":3.75,"target":"left","response":"left","rt":441,"correct":true,"confidence":3},{"trial_n":29,"n_dots":3.75,"target":"left","response":"left","rt":229,"correct":true,"confidence":4},{"trial_n":30,"n_dots":3.65,"target":"left","response":"left","rt":39,"correct":true,"confidence":5},{"trial_n":31,"n_dots":3.65,"target":"right","response":"right","rt":137,"correct":true,"confidence":4},{"trial_n":32,"n_dots":3.55,"target":"right","response":"right","rt":287,"correct":true,"confidence":3},{"trial_n":33,"n_dots":3.55,"target":"left","response":"left","rt":979,"correct":true,"confidence":5},{"trial_n":34,"n_dots":3.45,"target":"left","response":"left","rt":149,"correct":true,"confidence":5},{"trial_n":35,"n_dots":3.45,"target":"left","response":"left","rt":629.99999999997,"correct":true,"confidence":4},{"trial_n":36,"n_dots":3.35,"target":"right","response":"left","rt":551.00000000003,"correct":false,"confidence":3},{"trial_n":37,"n_dots":3.45,"target":"right","response":"left","rt":744,"correct":false,"confidence":3},{"trial_n":38,"n_dots":3.55,"target":"right","response":"right","rt":641,"correct":true,"confidence":2},{"trial_n":39,"n_dots":3.55,"target":"left","response":"left","rt":47,"correct":true,"confidence":4},{"trial_n":40,"n_dots":3.45,"target":"right","response":"right","rt":243,"correct":true,"confidence":4},{"trial_n":41,"n_dots":3.45,"target":"right","response":"right","rt":778.99999999997,"correct":true,"confidence":2},{"trial_n":42,"n_dots":3.35,"target":"left","response":"left","rt":363.99999999997,"correct":true,"confidence":4},{"trial_n":43,"n_dots":3.35,"target":"right","response":"left","rt":460,"correct":false,"confidence":2},{"trial_n":44,"n_dots":3.45,"target":"left","response":"right","rt":480,"correct":false,"confidence":3},{"trial_n":45,"n_dots":3.55,"target":"right","response":"right","rt":489,"correct":true,"confidence":3},{"trial_n":46,"n_dots":3.55,"target":"left","response":"left","rt":280,"correct":true,"confidence":3},{"trial_n":47,"n_dots":3.45,"target":"right","response":"right","rt":653,"correct":true,"confidence":2},{"trial_n":48,"n_dots":3.45,"target":"right","response":"left","rt":803,"correct":false,"confidence":2},{"trial_n":49,"n_dots":3.55,"target":"right","response":"right","rt":2591,"correct":true,"confidence":3},{"trial_n":50,"n_dots":3.55,"target":"right","response":"right","rt":974.00000000006,"correct":true,"confidence":1},{"trial_n":51,"n_dots":3.45,"target":"left","response":"left","rt":3263,"correct":true,"confidence":1},{"trial_n":52,"n_dots":3.45,"target":"left","response":"left","rt":721,"correct":true,"confidence":3},{"trial_n":53,"n_dots":3.35,"target":"left","response":"left","rt":1023,"correct":true,"confidence":3},{"trial_n":54,"n_dots":3.35,"target":"right","response":"left","rt":712.99999999994,"correct":false,"confidence":3},{"trial_n":55,"n_dots":3.45,"target":"right","response":"right","rt":986,"correct":true,"confidence":2},{"trial_n":56,"n_dots":3.45,"target":"right","response":"right","rt":1184,"correct":true,"confidence":3},{"trial_n":57,"n_dots":3.35,"target":"left","response":"left","rt":1209,"correct":true,"confidence":2},{"trial_n":58,"n_dots":3.35,"target":"right","response":"right","rt":650,"correct":true,"confidence":2},{"trial_n":59,"n_dots":3.25,"target":"right","response":"left","rt":1096,"correct":false,"confidence":1},{"trial_n":60,"n_dots":3.35,"target":"left","response":"right","rt":952,"correct":false,"confidence":3},{"trial_n":61,"n_dots":3.45,"target":"right","response":"right","rt":341,"correct":true,"confidence":3},{"trial_n":62,"n_dots":3.45,"target":"left","response":"left","rt":577,"correct":true,"confidence":3},{"trial_n":63,"n_dots":3.35,"target":"right","response":"right","rt":230,"correct":true,"confidence":3},{"trial_n":64,"n_dots":3.35,"target":"left","response":"right","rt":602.00000000012,"correct":false,"confidence":2},{"trial_n":65,"n_dots":3.45,"target":"right","response":"right","rt":299,"correct":true,"confidence":5},{"trial_n":66,"n_dots":3.45,"target":"right","response":"right","rt":524,"correct":true,"confidence":3},{"trial_n":67,"n_dots":3.35,"target":"left","response":"right","rt":1121.0000000001,"correct":false,"confidence":3},{"trial_n":68,"n_dots":3.45,"target":"left","response":"left","rt":481,"correct":true,"confidence":4},{"trial_n":69,"n_dots":3.45,"target":"left","response":"left","rt":594,"correct":true,"confidence":3},{"trial_n":70,"n_dots":3.35,"target":"right","response":"right","rt":434,"correct":true,"confidence":4},{"trial_n":71,"n_dots":3.35,"target":"right","response":"right","rt":490,"correct":true,"confidence":3},{"trial_n":72,"n_dots":3.25,"target":"right","response":"right","rt":514,"correct":true,"confidence":3},{"trial_n":73,"n_dots":3.25,"target":"left","response":"right","rt":587,"correct":false,"confidence":3},{"trial_n":74,"n_dots":3.35,"target":"left","response":"left","rt":320,"correct":true,"confidence":2},{"trial_n":75,"n_dots":3.35,"target":"left","response":"right","rt":944,"correct":false,"confidence":3},{"trial_n":76,"n_dots":3.45,"target":"left","response":"left","rt":575,"correct":true,"confidence":2},{"trial_n":77,"n_dots":3.45,"target":"right","response":"right","rt":481,"correct":true,"confidence":2},{"trial_n":78,"n_dots":3.35,"target":"left","response":"left","rt":609,"correct":true,"confidence":2},{"trial_n":79,"n_dots":3.35,"target":"right","response":"right","rt":375,"correct":true,"confidence":4},{"trial_n":80,"n_dots":3.25,"target":"left","response":"left","rt":511,"correct":true,"confidence":3},{"trial_n":81,"n_dots":3.25,"target":"right","response":"right","rt":847,"correct":true,"confidence":2},{"trial_n":82,"n_dots":3.15,"target":"left","response":"left","rt":687,"correct":true,"confidence":3},{"trial_n":83,"n_dots":3.15,"target":"right","response":"right","rt":449.99999999988,"correct":true,"confidence":3},{"trial_n":84,"n_dots":3.05,"target":"right","response":"right","rt":577,"correct":true,"confidence":2},{"trial_n":85,"n_dots":3.05,"target":"left","response":"right","rt":768,"correct":false,"confidence":2},{"trial_n":86,"n_dots":3.15,"target":"left","response":"left","rt":631,"correct":true,"confidence":3},{"trial_n":87,"n_dots":3.15,"target":"right","response":"right","rt":536,"correct":true,"confidence":3},{"trial_n":88,"n_dots":3.05,"target":"left","response":"left","rt":528,"correct":true,"confidence":4},{"trial_n":89,"n_dots":3.05,"target":"right","response":"right","rt":426.00000000012,"correct":true,"confidence":3},{"trial_n":90,"n_dots":2.95,"target":"left","response":"left","rt":1688,"correct":true,"confidence":1},{"trial_n":91,"n_dots":2.95,"target":"right","response":"left","rt":707,"correct":false,"confidence":2},{"trial_n":92,"n_dots":3.05,"target":"left","response":"left","rt":591,"correct":true,"confidence":3},{"trial_n":93,"n_dots":3.05,"target":"left","response":"right","rt":599.99999999988,"correct":false,"confidence":3},{"trial_n":94,"n_dots":3.15,"target":"right","response":"left","rt":1340,"correct":false,"confidence":1},{"trial_n":95,"n_dots":3.25,"target":"right","response":"right","rt":574.99999999988,"correct":true,"confidence":3},{"trial_n":96,"n_dots":3.25,"target":"left","response":"left","rt":607.00000000012,"correct":true,"confidence":2},{"trial_n":97,"n_dots":3.15,"target":"left","response":"left","rt":814.99999999988,"correct":true,"confidence":2},{"trial_n":98,"n_dots":3.15,"target":"left","response":"left","rt":311,"correct":true,"confidence":3},{"trial_n":99,"n_dots":3.05,"target":"left","response":"left","rt":479,"correct":true,"confidence":3},{"trial_n":100,"n_dots":3.05,"target":"left","response":"left","rt":553,"correct":true,"confidence":3},{"trial_n":101,"n_dots":2.95,"target":"left","response":"left","rt":500,"correct":true,"confidence":2},{"trial_n":102,"n_dots":2.95,"target":"right","response":"right","rt":464,"correct":true,"confidence":2},{"trial_n":103,"n_dots":2.85,"target":"right","response":"right","rt":480,"correct":true,"confidence":3},{"trial_n":104,"n_dots":2.85,"target":"right","response":"left","rt":748,"correct":false,"confidence":2},{"trial_n":105,"n_dots":2.95,"target":"right","response":"right","rt":483,"correct":true,"confidence":3},{"trial_n":106,"n_dots":2.95,"target":"right","response":"left","rt":572,"correct":false,"confidence":1},{"trial_n":107,"n_dots":3.05,"target":"right","response":"right","rt":529.99999999977,"correct":true,"confidence":2},{"trial_n":108,"n_dots":3.05,"target":"right","response":"right","rt":600,"correct":true,"confidence":2},{"trial_n":109,"n_dots":2.95,"target":"left","response":"left","rt":367.99999999977,"correct":true,"confidence":3},{"trial_n":110,"n_dots":2.95,"target":"left","response":"left","rt":423.99999999977,"correct":true,"confidence":3},{"trial_n":111,"n_dots":2.85,"target":"right","response":"right","rt":303.99999999977,"correct":true,"confidence":4},{"trial_n":112,"n_dots":2.85,"target":"left","response":"left","rt":423,"correct":true,"confidence":3},{"trial_n":113,"n_dots":2.75,"target":"left","response":"left","rt":911,"correct":true,"confidence":3},{"trial_n":114,"n_dots":2.75,"target":"right","response":"right","rt":424,"correct":true,"confidence":3},{"trial_n":115,"n_dots":2.65,"target":"left","response":"left","rt":432,"correct":true,"confidence":3},{"trial_n":116,"n_dots":2.65,"target":"left","response":"left","rt":670,"correct":true,"confidence":3},{"trial_n":117,"n_dots":2.55,"target":"left","response":"left","rt":655,"correct":true,"confidence":2},{"trial_n":118,"n_dots":2.55,"target":"left","response":"right","rt":208.00000000023,"correct":false,"confidence":2},{"trial_n":119,"n_dots":2.65,"target":"right","response":"left","rt":584,"correct":false,"confidence":2},{"trial_n":120,"n_dots":2.75,"target":"right","response":"right","rt":423,"correct":true,"confidence":3}]