[{"trial_n":1,"min":25,"max":230,"target":"present","response":"present","rt":2689,"correct":true,"confidence":-1},{"trial_n":2,"min":25,"max":230,"target":"present","response":"present","rt":948,"correct":true,"confidence":-1},{"trial_n":3,"min":41,"max":214,"target":"absent","response":"absent","rt":1426.9999999999,"correct":true,"confidence":-1},{"trial_n":4,"min":41,"max":214,"target":"absent","response":"absent","rt":875,"correct":true,"confidence":-1},{"trial_n":5,"min":57,"max":198,"target":"present","response":"present","rt":706,"correct":true,"confidence":-1},{"trial_n":6,"min":57,"max":198,"target":"absent","response":"absent","rt":564,"correct":true,"confidence":-1},{"trial_n":7,"min":73,"max":182,"target":"present","response":"present","rt":730,"correct":true,"confidence":-1},{"trial_n":8,"min":73,"max":182,"target":"absent","response":"absent","rt":639,"correct":true,"confidence":-1},{"trial_n":9,"min":89,"max":166,"target":"present","response":"absent","rt":836,"correct":false,"confidence":-1},{"trial_n":10,"min":73,"max":182,"target":"present","response":"present","rt":631,"correct":true,"confidence":-1},{"trial_n":11,"min":73,"max":182,"target":"present","response":"present","rt":639,"correct":true,"confidence":-1},{"trial_n":12,"min":81,"max":174,"target":"present","response":"absent","rt":654,"correct":false,"confidence":-1},{"trial_n":13,"min":73,"max":182,"target":"present","response":"present","rt":760,"correct":true,"confidence":-1},{"trial_n":14,"min":73,"max":182,"target":"absent","response":"absent","rt":618,"correct":true,"confidence":-1},{"trial_n":15,"min":81,"max":174,"target":"present","response":"present","rt":634.00000000012,"correct":true,"confidence":-1},{"trial_n":16,"min":81,"max":174,"target":"present","response":"present","rt":1088,"correct":true,"confidence":-1},{"trial_n":17,"min":89,"max":166,"target":"absent","response":"absent","rt":497.00000000012,"correct":true,"confidence":-1},{"trial_n":18,"min":89,"max":166,"target":"absent","response":"absent","rt":1098,"correct":true,"confidence":-1},{"trial_n":19,"min":97,"max":158,"target":"present","response":"absent","rt":408,"correct":false,"confidence":-1},{"trial_n":20,"min":89,"max":166,"target":"absent","response":"absent","rt":472,"correct":true,"confidence":-1},{"trial_n":21,"min":89,"max":166,"target":"absent","response":"present","rt":857,"correct":false,"confidence":5},{"trial_n":22,"min":85,"max":170,"target":"present","response":"absent","rt":1538,"correct":false,"confidence":4},{"trial_n":23,"min":81,"max":174,"target":"present","response":"present","rt":1114.0000000001,"correct":true,"confidence":4},{"trial_n":24,"min":81,"max":174,"target":"absent","response":"absent","rt":766.00000000012,"correct":true,"confidence":4},{"trial_n":25,"min":85,"max":170,"target":"absent","response":"present","rt":779,"correct":false,"confidence":4},{"trial_n":26,"min":81,"max":174,"target":"present","response":"present","rt":1075,"correct":true,"confidence":5},{"trial_n":27,"min":81,"max":174,"target":"absent","response":"present","rt":1054,"correct":false,"confidence":4},{"trial_n":28,"min":77,"max":178,"target":"present","response":"present","rt":1227,"correct":true,"confidence":5},{"trial_n":29,"min":77,"max":178,"target":"present","response":"present","rt":736,"correct":true,"confidence":4},{"trial_n":30,"min":81,"max":174,"target":"present","response":"present","rt":698.00000000012,"correct":true,"confidence":5},{"trial_n":31,"min":81,"max":174,"target":"absent","response":"present","rt":1991,"correct":false,"confidence":3},{"trial_n":32,"min":79,"max":176,"target":"absent","response":"present","rt":595,"correct":false,"confidence":4},{"trial_n":33,"min":77,"max":178,"target":"present","response":"present","rt":565,"correct":true,"confidence":4},{"trial_n":34,"min":77,"max":178,"target":"absent","response":"present","rt":835,"correct":false,"confidence":4},{"trial_n":35,"min":75,"max":180,"target":"absent","response":"present","rt":643.00000000012,"correct":false,"confidence":5},{"trial_n":36,"min":73,"max":182,"target":"present","response":"present","rt":760,"correct":true,"confidence":5},{"trial_n":37,"min":73,"max":182,"target":"absent","response":"present","rt":427,"correct":false,"confidence":4},{"trial_n":38,"min":71,"max":184,"target":"absent","response":"present","rt":483,"correct":false,"confidence":5},{"trial_n":39,"min":69,"max":186,"target":"present","response":"present","rt":519,"correct":true,"confidence":5},{"trial_n":40,"min":69,"max":186,"target":"absent","response":"present","rt":467,"correct":false,"confidence":5},{"trial_n":41,"min":68,"max":187,"target":"absent","response":"present","rt":552,"correct":false,"confidence":4},{"trial_n":42,"min":67,"max":188,"target":"present","response":"present","rt":443,"correct":true,"confidence":5},{"trial_n":43,"min":67,"max":188,"target":"present","response":"present","rt":508,"correct":true,"confidence":5},{"trial_n":44,"min":68,"max":187,"target":"present","response":"present","rt":432,"correct":true,"confidence":5},{"trial_n":45,"min":68,"max":187,"target":"absent","response":"present","rt":523,"correct":false,"confidence":5},{"trial_n":46,"min":67,"max":188,"target":"present","response":"present","rt":612,"correct":true,"confidence":5},{"trial_n":47,"min":67,"max":188,"target":"absent","response":"present","rt":435,"correct":false,"confidence":5},{"trial_n":48,"min":66,"max":189,"target":"absent","response":"absent","rt":648,"correct":true,"confidence":4},{"trial_n":49,"min":66,"max":189,"target":"present","response":"present","rt":604,"correct":true,"confidence":5},{"trial_n":50,"min":67,"max":188,"target":"present","response":"present","rt":551,"correct":true,"confidence":5},{"trial_n":51,"min":67,"max":188,"target":"absent","response":"present","rt":634.00000000012,"correct":false,"confidence":5},{"trial_n":52,"min":66,"max":189,"target":"absent","response":"present","rt":523,"correct":false,"confidence":4},{"trial_n":53,"min":65,"max":190,"target":"present","response":"present","rt":484,"correct":true,"confidence":4},{"trial_n":54,"min":65,"max":190,"target":"present","response":"present","rt":597,"correct":true,"confidence":5},{"trial_n":55,"min":66,"max":189,"target":"absent","response":"absent","rt":652,"correct":true,"confidence":4},{"trial_n":56,"min":66,"max":189,"target":"absent","response":"absent","rt":580.00000000012,"correct":true,"confidence":5},{"trial_n":57,"min":67,"max":188,"target":"present","response":"present","rt":534,"correct":true,"confidence":4},{"trial_n":58,"min":67,"max":188,"target":"absent","response":"absent","rt":883,"correct":true,"confidence":4},{"trial_n":59,"min":68,"max":187,"target":"present","response":"present","rt":1014,"correct":true,"confidence":4},{"trial_n":60,"min":68,"max":187,"target":"absent","response":"absent","rt":545,"correct":true,"confidence":4},{"trial_n":61,"min":69,"max":186,"target":"absent","response":"absent","rt":720,"correct":true,"confidence":4},{"trial_n":62,"min":69,"max":186,"target":"absent","response":"absent","rt":671,"correct":true,"confidence":4},{"trial_n":63,"min":70,"max":185,"target":"present","response":"present","rt":598,"correct":true,"confidence":4},{"trial_n":64,"min":70,"max":185,"target":"absent","response":"absent","rt":633,"correct":true,"confidence":3},{"trial_n":65,"min":71,"max":184,"target":"absent","response":"absent","rt":1047,"correct":true,"confidence":4},{"trial_n":66,"min":71,"max":184,"target":"present","response":"present","rt":708.00000000012,"correct":true,"confidence":5},{"trial_n":67,"min":72,"max":183,"target":"present","response":"present","rt":820,"correct":true,"confidence":4},{"trial_n":68,"min":72,"max":183,"target":"present","response":"present","rt":707,"correct":true,"confidence":4},{"trial_n":69,"min":73,"max":182,"target":"present","response":"present","rt":581,"correct":true,"confidence":4},{"trial_n":70,"min":73,"max":182,"target":"absent","response":"absent","rt":831,"correct":true,"confidence":3},{"trial_n":71,"min":41,"max":214,"target":"present","response":"present","rt":4351,"correct":true,"confidence":-1},{"trial_n":72,"min":41,"max":214,"target":"present","response":"present","rt":1585,"correct":true,"confidence":-1},{"trial_n":73,"min":57,"max":198,"target":"absent","response":"present","rt":219,"correct":false,"confidence":-1},{"trial_n":74,"min":41,"max":214,"target":"absent","response":"absent","rt":2010,"correct":true,"confidence":-1},{"trial_n":75,"min":41,"max":214,"target":"present","response":"present","rt":585,"correct":true,"confidence":-1},{"trial_n":76,"min":57,"max":198,"target":"present","response":"present","rt":1016.0000000001,"correct":true,"confidence":-1},{"trial_n":77,"min":57,"max":198,"target":"absent","response":"absent","rt":1085,"correct":true,"confidence":-1},{"trial_n":78,"min":73,"max":182,"target":"present","response":"present","rt":954,"correct":true,"confidence":-1},{"trial_n":79,"min":73,"max":182,"target":"present","response":"present","rt":535,"correct":true,"confidence":-1},{"trial_n":80,"min":89,"max":166,"target":"present","response":"absent","rt":1322.0000000001,"correct":false,"confidence":-1},{"trial_n":81,"min":81,"max":174,"target":"absent","response":"absent","rt":662,"correct":true,"confidence":-1},{"trial_n":82,"min":81,"max":174,"target":"absent","response":"absent","rt":629,"correct":true,"confidence":-1},{"trial_n":83,"min":89,"max":166,"target":"absent","response":"present","rt":702,"correct":false,"confidence":-1},{"trial_n":84,"min":81,"max":174,"target":"present","response":"absent","rt":1044,"correct":false,"confidence":-1},{"trial_n":85,"min":73,"max":182,"target":"absent","response":"present","rt":718.99999999988,"correct":false,"confidence":-1},{"trial_n":86,"min":65,"max":190,"target":"present","response":"present","rt":442,"correct":true,"confidence":-1},{"trial_n":87,"min":65,"max":190,"target":"absent","response":"present","rt":559,"correct":false,"confidence":-1},{"trial_n":88,"min":57,"max":198,"target":"absent","response":"absent","rt":567,"correct":true,"confidence":-1},{"trial_n":89,"min":57,"max":198,"target":"absent","response":"absent","rt":467,"correct":true,"confidence":-1},{"trial_n":90,"min":65,"max":190,"target":"absent","response":"absent","rt":423,"correct":true,"confidence":-1},{"trial_n":91,"min":65,"max":190,"target":"absent","response":"absent","rt":696,"correct":true,"confidence":5},{"trial_n":92,"min":69,"max":186,"target":"absent","response":"absent","rt":556.99999999988,"correct":true,"confidence":5},{"trial_n":93,"min":69,"max":186,"target":"present","response":"present","rt":695,"correct":true,"confidence":5},{"trial_n":94,"min":73,"max":182,"target":"present","response":"present","rt":580.00000000012,"correct":true,"confidence":5},{"trial_n":95,"min":73,"max":182,"target":"absent","response":"absent","rt":719,"correct":true,"confidence":5},{"trial_n":96,"min":77,"max":178,"target":"present","response":"present","rt":726,"correct":true,"confidence":4},{"trial_n":97,"min":77,"max":178,"target":"absent","response":"absent","rt":986,"correct":true,"confidence":5},{"trial_n":98,"min":81,"max":174,"target":"absent","response":"present","rt":1064,"correct":false,"confidence":4},{"trial_n":99,"min":77,"max":178,"target":"present","response":"present","rt":1006,"correct":true,"confidence":4},{"trial_n":100,"min":77,"max":178,"target":"absent","response":"absent","rt":733,"correct":true,"confidence":4},{"trial_n":101,"min":79,"max":176,"target":"absent","response":"absent","rt":857,"correct":true,"confidence":4},{"trial_n":102,"min":79,"max":176,"target":"present","response":"present","rt":537,"correct":true,"confidence":4},{"trial_n":103,"min":81,"max":174,"target":"present","response":"present","rt":767,"correct":true,"confidence":5},{"trial_n":104,"min":81,"max":174,"target":"present","response":"present","rt":746.00000000012,"correct":true,"confidence":4},{"trial_n":105,"min":83,"max":172,"target":"present","response":"present","rt":657,"correct":true,"confidence":4},{"trial_n":106,"min":83,"max":172,"target":"absent","response":"absent","rt":834,"correct":true,"confidence":4},{"trial_n":107,"min":85,"max":170,"target":"present","response":"present","rt":627.99999999988,"correct":true,"confidence":5},{"trial_n":108,"min":85,"max":170,"target":"absent","response":"present","rt":738.00000000012,"correct":false,"confidence":5},{"trial_n":109,"min":83,"max":172,"target":"absent","response":"present","rt":973,"correct":false,"confidence":5},{"trial_n":110,"min":81,"max":174,"target":"present","response":"present","rt":536,"correct":true,"confidence":5},{"trial_n":111,"min":81,"max":174,"target":"absent","response":"present","rt":686,"correct":false,"confidence":4},{"trial_n":112,"min":80,"max":175,"target":"absent","response":"present","rt":1041.9999999999,"correct":false,"confidence":5},{"trial_n":113,"min":79,"max":176,"target":"present","response":"absent","rt":859,"correct":false,"confidence":5},{"trial_n":114,"min":78,"max":177,"target":"absent","response":"absent","rt":874,"correct":true,"confidence":4},{"trial_n":115,"min":78,"max":177,"target":"absent","response":"absent","rt":811,"correct":true,"confidence":5},{"trial_n":116,"min":79,"max":176,"target":"present","response":"present","rt":1729.0000000002,"correct":true,"confidence":5},{"trial_n":117,"min":79,"max":176,"target":"present","response":"absent","rt":707,"correct":false,"confidence":5},{"trial_n":118,"min":78,"max":177,"target":"present","response":"absent","rt":738,"correct":false,"confidence":5},{"trial_n":119,"min":77,"max":178,"target":"absent","response":"absent","rt":1709,"correct":true,"confidence":1},{"trial_n":120,"min":77,"max":178,"target":"absent","response":"present","rt":684,"correct":false,"confidence":4},{"trial_n":121,"min":76,"max":179,"target":"present","response":"present","rt":642,"correct":true,"confidence":5},{"trial_n":122,"min":76,"max":179,"target":"absent","response":"present","rt":899,"correct":false,"confidence":4},{"trial_n":123,"min":75,"max":180,"target":"absent","response":"present","rt":692,"correct":false,"confidence":4},{"trial_n":124,"min":74,"max":181,"target":"present","response":"present","rt":778,"correct":true,"confidence":5},{"trial_n":125,"min":74,"max":181,"target":"present","response":"present","rt":521,"correct":true,"confidence":5},{"trial_n":126,"min":75,"max":180,"target":"present","response":"present","rt":607,"correct":true,"confidence":5},{"trial_n":127,"min":75,"max":180,"target":"absent","response":"present","rt":761,"correct":false,"confidence":4},{"trial_n":128,"min":74,"max":181,"target":"present","response":"present","rt":692,"correct":true,"confidence":5},{"trial_n":129,"min":74,"max":181,"target":"present","response":"present","rt":1031,"correct":true,"confidence":5},{"trial_n":130,"min":75,"max":180,"target":"present","response":"present","rt":875,"correct":true,"confidence":3},{"trial_n":131,"min":75,"max":180,"target":"absent","response":"absent","rt":1441,"correct":true,"confidence":5},{"trial_n":132,"min":76,"max":179,"target":"absent","response":"present","rt":2281,"correct":false,"confidence":5},{"trial_n":133,"min":75,"max":180,"target":"present","response":"present","rt":1100,"correct":true,"confidence":5},{"trial_n":134,"min":75,"max":180,"target":"absent","response":"absent","rt":908.00000000023,"correct":true,"confidence":5},{"trial_n":135,"min":76,"max":179,"target":"present","response":"present","rt":753,"correct":true,"confidence":5},{"trial_n":136,"min":76,"max":179,"target":"present","response":"absent","rt":614,"correct":false,"confidence":5},{"trial_n":137,"min":75,"max":180,"target":"absent","response":"present","rt":976,"correct":false,"confidence":5},{"trial_n":138,"min":74,"max":181,"target":"present","response":"present","rt":602,"correct":true,"confidence":5},{"trial_n":139,"min":74,"max":181,"target":"present","response":"present","rt":384,"correct":true,"confidence":5},{"trial_n":140,"min":75,"max":180,"target":"present","response":"present","rt":421.00000000023,"correct":true,"confidence":5}]