[{"trial_n":1,"n_dots":4.25,"target":"left","response":"left","rt":4243.1000000238,"correct":true,"confidence":-1},{"trial_n":2,"n_dots":4.25,"target":"left","response":"right","rt":1342.3000000119,"correct":false,"confidence":-1},{"trial_n":3,"n_dots":4.65,"target":"left","response":"left","rt":748.10000002384,"correct":true,"confidence":-1},{"trial_n":4,"n_dots":4.65,"target":"right","response":"left","rt":1043.1000000238,"correct":false,"confidence":-1},{"trial_n":5,"n_dots":5.05,"target":"left","response":"right","rt":1758.8000000119,"correct":false,"confidence":-1},{"trial_n":6,"n_dots":5.45,"target":"left","response":"left","rt":445.69999998808,"correct":true,"confidence":-1},{"trial_n":7,"n_dots":5.45,"target":"right","response":"right","rt":64,"correct":true,"confidence":-1},{"trial_n":8,"n_dots":5.25,"target":"right","response":"right","rt":2153,"correct":true,"confidence":-1},{"trial_n":9,"n_dots":5.25,"target":"left","response":"left","rt":14.600000023842,"correct":true,"confidence":-1},{"trial_n":10,"n_dots":5.05,"target":"left","response":"right","rt":768.90000003576,"correct":false,"confidence":-1},{"trial_n":11,"n_dots":5.25,"target":"right","response":"right","rt":1375.3000000119,"correct":true,"confidence":-1},{"trial_n":12,"n_dots":5.25,"target":"right","response":"right","rt":732.60000002384,"correct":true,"confidence":-1},{"trial_n":13,"n_dots":5.15,"target":"right","response":"right","rt":471.5,"correct":true,"confidence":-1},{"trial_n":14,"n_dots":5.15,"target":"left","response":"left","rt":963.90000003576,"correct":true,"confidence":-1},{"trial_n":15,"n_dots":5.05,"target":"left","response":"right","rt":127.90000003576,"correct":false,"confidence":-1},{"trial_n":16,"n_dots":5.15,"target":"right","response":"right","rt":256.19999998808,"correct":true,"confidence":-1},{"trial_n":17,"n_dots":5.15,"target":"right","response":"right","rt":2554.6999999881,"correct":true,"confidence":-1},{"trial_n":18,"n_dots":5.05,"target":"left","response":"left","rt":2564.5999999642,"correct":true,"confidence":-1},{"trial_n":19,"n_dots":5.05,"target":"right","response":"right","rt":1271.5,"correct":true,"confidence":-1},{"trial_n":20,"n_dots":4.95,"target":"right","response":"right","rt":255.09999996424,"correct":true,"confidence":-1},{"trial_n":21,"n_dots":4.95,"target":"right","response":"right","rt":256,"correct":true,"confidence":5},{"trial_n":22,"n_dots":4.85,"target":"right","response":"right","rt":588.20000004768,"correct":true,"confidence":5},{"trial_n":23,"n_dots":4.85,"target":"left","response":"left","rt":855.19999998808,"correct":true,"confidence":5},{"trial_n":24,"n_dots":4.75,"target":"left","response":"left","rt":1264.4000000358,"correct":true,"confidence":5},{"trial_n":25,"n_dots":4.75,"target":"left","response":"right","rt":5221.8999999762,"correct":false,"confidence":1},{"trial_n":26,"n_dots":4.85,"target":"right","response":"right","rt":1372,"correct":true,"confidence":5},{"trial_n":27,"n_dots":4.85,"target":"left","response":"left","rt":2009.5,"correct":true,"confidence":5},{"trial_n":28,"n_dots":4.75,"target":"left","response":"left","rt":1069.5,"correct":true,"confidence":5},{"trial_n":29,"n_dots":4.75,"target":"left","response":"left","rt":479.10000002384,"correct":true,"confidence":5},{"trial_n":30,"n_dots":4.65,"target":"left","response":"left","rt":6.2999999523163,"correct":true,"confidence":5},{"trial_n":31,"n_dots":4.65,"target":"right","response":"right","rt":779.90000003576,"correct":true,"confidence":5},{"trial_n":32,"n_dots":4.55,"target":"left","response":"left","rt":899.89999997616,"correct":true,"confidence":5},{"trial_n":33,"n_dots":4.55,"target":"left","response":"left","rt":435.60000002384,"correct":true,"confidence":5},{"trial_n":34,"n_dots":4.45,"target":"right","response":"right","rt":428.59999996424,"correct":true,"confidence":5},{"trial_n":35,"n_dots":4.45,"target":"left","response":"left","rt":528.40000003576,"correct":true,"confidence":5},{"trial_n":36,"n_dots":4.35,"target":"right","response":"right","rt":490.80000001192,"correct":true,"confidence":5},{"trial_n":37,"n_dots":4.35,"target":"left","response":"left","rt":663.60000002384,"correct":true,"confidence":5},{"trial_n":38,"n_dots":4.25,"target":"left","response":"left","rt":1106.9000000358,"correct":true,"confidence":5},{"trial_n":39,"n_dots":4.25,"target":"left","response":"left","rt":668.5,"correct":true,"confidence":5},{"trial_n":40,"n_dots":4.15,"target":"left","response":"left","rt":453.60000002384,"correct":true,"confidence":5},{"trial_n":41,"n_dots":4.15,"target":"left","response":"left","rt":841,"correct":true,"confidence":5},{"trial_n":42,"n_dots":4.05,"target":"left","response":"left","rt":247.90000003576,"correct":true,"confidence":5},{"trial_n":43,"n_dots":4.05,"target":"right","response":"right","rt":358.60000002384,"correct":true,"confidence":5},{"trial_n":44,"n_dots":3.95,"target":"right","response":"right","rt":503.80000001192,"correct":true,"confidence":5},{"trial_n":45,"n_dots":3.95,"target":"left","response":"left","rt":846.70000004768,"correct":true,"confidence":3},{"trial_n":46,"n_dots":3.85,"target":"right","response":"right","rt":433.69999998808,"correct":true,"confidence":5},{"trial_n":47,"n_dots":3.85,"target":"right","response":"right","rt":1881.6999999881,"correct":true,"confidence":3},{"trial_n":48,"n_dots":3.75,"target":"left","response":"left","rt":422.20000004768,"correct":true,"confidence":5},{"trial_n":49,"n_dots":3.75,"target":"right","response":"left","rt":670.60000002384,"correct":false,"confidence":5},{"trial_n":50,"n_dots":3.85,"target":"right","response":"right","rt":1339.1999999881,"correct":true,"confidence":5},{"trial_n":51,"n_dots":3.85,"target":"right","response":"right","rt":405.09999996424,"correct":true,"confidence":5},{"trial_n":52,"n_dots":3.75,"target":"right","response":"left","rt":911.30000001192,"correct":false,"confidence":2},{"trial_n":53,"n_dots":3.85,"target":"right","response":"right","rt":666.19999998808,"correct":true,"confidence":5},{"trial_n":54,"n_dots":3.85,"target":"right","response":"right","rt":503.80000001192,"correct":true,"confidence":5},{"trial_n":55,"n_dots":3.75,"target":"left","response":"left","rt":619.5,"correct":true,"confidence":5},{"trial_n":56,"n_dots":3.75,"target":"right","response":"left","rt":2704.3000000119,"correct":false,"confidence":2},{"trial_n":57,"n_dots":3.85,"target":"right","response":"left","rt":854.09999996424,"correct":false,"confidence":2},{"trial_n":58,"n_dots":3.95,"target":"left","response":"left","rt":417.89999997616,"correct":true,"confidence":5},{"trial_n":59,"n_dots":3.95,"target":"right","response":"right","rt":589.39999997616,"correct":true,"confidence":5},{"trial_n":60,"n_dots":3.85,"target":"left","response":"left","rt":691,"correct":true,"confidence":1},{"trial_n":61,"n_dots":3.85,"target":"right","response":"left","rt":199.40000003576,"correct":false,"confidence":5},{"trial_n":62,"n_dots":3.95,"target":"right","response":"right","rt":1639.1999999881,"correct":true,"confidence":2},{"trial_n":63,"n_dots":3.95,"target":"right","response":"left","rt":1317.5,"correct":false,"confidence":1},{"trial_n":64,"n_dots":4.05,"target":"left","response":"left","rt":668.39999997616,"correct":true,"confidence":3},{"trial_n":65,"n_dots":4.05,"target":"left","response":"left","rt":303.80000001192,"correct":true,"confidence":3},{"trial_n":66,"n_dots":3.95,"target":"right","response":"right","rt":733.60000002384,"correct":true,"confidence":5},{"trial_n":67,"n_dots":3.95,"target":"right","response":"right","rt":650.40000003576,"correct":true,"confidence":3},{"trial_n":68,"n_dots":3.85,"target":"right","response":"right","rt":1644.6999999881,"correct":true,"confidence":5},{"trial_n":69,"n_dots":3.85,"target":"left","response":"left","rt":538.10000002384,"correct":true,"confidence":5},{"trial_n":70,"n_dots":3.75,"target":"right","response":"left","rt":823.30000001192,"correct":false,"confidence":2},{"trial_n":71,"n_dots":3.85,"target":"right","response":"right","rt":482.20000004768,"correct":true,"confidence":4},{"trial_n":72,"n_dots":3.85,"target":"left","response":"left","rt":414.09999996424,"correct":true,"confidence":5},{"trial_n":73,"n_dots":3.75,"target":"left","response":"left","rt":806.5,"correct":true,"confidence":3},{"trial_n":74,"n_dots":3.75,"target":"right","response":"left","rt":474.19999998808,"correct":false,"confidence":1},{"trial_n":75,"n_dots":3.85,"target":"left","response":"left","rt":599,"correct":true,"confidence":5},{"trial_n":76,"n_dots":3.85,"target":"left","response":"left","rt":546.19999998808,"correct":true,"confidence":1},{"trial_n":77,"n_dots":3.75,"target":"right","response":"right","rt":1369.3999999762,"correct":true,"confidence":3},{"trial_n":78,"n_dots":3.75,"target":"left","response":"left","rt":630.39999997616,"correct":true,"confidence":3},{"trial_n":79,"n_dots":3.65,"target":"right","response":"left","rt":1051.6000000238,"correct":false,"confidence":5},{"trial_n":80,"n_dots":3.75,"target":"left","response":"left","rt":9581.5,"correct":true,"confidence":3},{"trial_n":81,"n_dots":3.75,"target":"right","response":"right","rt":340.39999997616,"correct":true,"confidence":1},{"trial_n":82,"n_dots":3.65,"target":"left","response":"left","rt":539.5,"correct":true,"confidence":5},{"trial_n":83,"n_dots":3.65,"target":"right","response":"right","rt":501.29999995232,"correct":true,"confidence":3},{"trial_n":84,"n_dots":3.55,"target":"right","response":"right","rt":379.40000003576,"correct":true,"confidence":3},{"trial_n":85,"n_dots":3.55,"target":"left","response":"right","rt":397.30000001192,"correct":false,"confidence":3},{"trial_n":86,"n_dots":3.65,"target":"right","response":"left","rt":657.09999996424,"correct":false,"confidence":3},{"trial_n":87,"n_dots":3.75,"target":"left","response":"right","rt":1353.0999999642,"correct":false,"confidence":1},{"trial_n":88,"n_dots":3.85,"target":"right","response":"right","rt":394.69999998808,"correct":true,"confidence":3},{"trial_n":89,"n_dots":3.85,"target":"left","response":"left","rt":626.09999996424,"correct":true,"confidence":3},{"trial_n":90,"n_dots":3.75,"target":"right","response":"right","rt":548.39999997616,"correct":true,"confidence":3},{"trial_n":91,"n_dots":3.75,"target":"right","response":"left","rt":426,"correct":false,"confidence":1},{"trial_n":92,"n_dots":3.85,"target":"right","response":"right","rt":430.80000001192,"correct":true,"confidence":4},{"trial_n":93,"n_dots":3.85,"target":"left","response":"left","rt":407.5,"correct":true,"confidence":1},{"trial_n":94,"n_dots":3.75,"target":"right","response":"right","rt":521,"correct":true,"confidence":3},{"trial_n":95,"n_dots":3.75,"target":"right","response":"right","rt":578.10000002384,"correct":true,"confidence":3},{"trial_n":96,"n_dots":3.65,"target":"right","response":"left","rt":892.40000003576,"correct":false,"confidence":2},{"trial_n":97,"n_dots":3.75,"target":"right","response":"right","rt":347.19999998808,"correct":true,"confidence":3},{"trial_n":98,"n_dots":3.75,"target":"right","response":"right","rt":319,"correct":true,"confidence":3},{"trial_n":99,"n_dots":3.65,"target":"left","response":"left","rt":581.10000002384,"correct":true,"confidence":1},{"trial_n":100,"n_dots":3.65,"target":"right","response":"right","rt":337.89999997616,"correct":true,"confidence":5},{"trial_n":101,"n_dots":3.55,"target":"left","response":"left","rt":362.5,"correct":true,"confidence":1},{"trial_n":102,"n_dots":3.55,"target":"left","response":"left","rt":602,"correct":true,"confidence":2},{"trial_n":103,"n_dots":3.45,"target":"left","response":"left","rt":581.59999996424,"correct":true,"confidence":2},{"trial_n":104,"n_dots":3.45,"target":"left","response":"left","rt":471.5,"correct":true,"confidence":1},{"trial_n":105,"n_dots":3.35,"target":"left","response":"left","rt":565.19999998808,"correct":true,"confidence":3},{"trial_n":106,"n_dots":3.35,"target":"right","response":"right","rt":569.39999997616,"correct":true,"confidence":2},{"trial_n":107,"n_dots":3.25,"target":"left","response":"left","rt":698.59999996424,"correct":true,"confidence":1},{"trial_n":108,"n_dots":3.25,"target":"left","response":"right","rt":407.09999996424,"correct":false,"confidence":1},{"trial_n":109,"n_dots":3.35,"target":"right","response":"right","rt":539.89999997616,"correct":true,"confidence":2},{"trial_n":110,"n_dots":3.35,"target":"left","response":"left","rt":740.79999995232,"correct":true,"confidence":2},{"trial_n":111,"n_dots":3.25,"target":"left","response":"left","rt":655.40000003576,"correct":true,"confidence":2},{"trial_n":112,"n_dots":3.25,"target":"right","response":"right","rt":615.5,"correct":true,"confidence":3},{"trial_n":113,"n_dots":3.15,"target":"left","response":"left","rt":690.39999997616,"correct":true,"confidence":1},{"trial_n":114,"n_dots":3.15,"target":"left","response":"left","rt":394.5,"correct":true,"confidence":3},{"trial_n":115,"n_dots":3.05,"target":"left","response":"left","rt":1330.7999999523,"correct":true,"confidence":1},{"trial_n":116,"n_dots":3.05,"target":"left","response":"left","rt":429.40000003576,"correct":true,"confidence":2},{"trial_n":117,"n_dots":2.95,"target":"right","response":"left","rt":457.5,"correct":false,"confidence":1},{"trial_n":118,"n_dots":3.05,"target":"right","response":"right","rt":1458.6000000238,"correct":true,"confidence":1},{"trial_n":119,"n_dots":3.05,"target":"right","response":"left","rt":647.39999997616,"correct":false,"confidence":1},{"trial_n":120,"n_dots":3.15,"target":"left","response":"left","rt":502.5,"correct":true,"confidence":3}]