[{"trial_n":1,"min":25,"max":230,"target":"present","response":"absent","rt":3538.6000001431,"correct":false,"confidence":-1},{"trial_n":2,"min":25,"max":230,"target":"present","response":"present","rt":1443.8999998569,"correct":true,"confidence":-1},{"trial_n":3,"min":25,"max":230,"target":"absent","response":"absent","rt":2260.3999998569,"correct":true,"confidence":-1},{"trial_n":4,"min":41,"max":214,"target":"absent","response":"absent","rt":511.69999980927,"correct":true,"confidence":-1},{"trial_n":5,"min":41,"max":214,"target":"present","response":"present","rt":495.29999995232,"correct":true,"confidence":-1},{"trial_n":6,"min":57,"max":198,"target":"absent","response":"present","rt":419.40000009537,"correct":false,"confidence":-1},{"trial_n":7,"min":41,"max":214,"target":"absent","response":"absent","rt":341.89999985695,"correct":true,"confidence":-1},{"trial_n":8,"min":41,"max":214,"target":"absent","response":"absent","rt":770.40000009537,"correct":true,"confidence":-1},{"trial_n":9,"min":57,"max":198,"target":"absent","response":"absent","rt":193.40000009537,"correct":true,"confidence":-1},{"trial_n":10,"min":57,"max":198,"target":"present","response":"present","rt":577.79999995232,"correct":true,"confidence":-1},{"trial_n":11,"min":65,"max":190,"target":"present","response":"absent","rt":225.20000004768,"correct":false,"confidence":-1},{"trial_n":12,"min":57,"max":198,"target":"present","response":"present","rt":647.40000009537,"correct":true,"confidence":-1},{"trial_n":13,"min":57,"max":198,"target":"present","response":"present","rt":448.79999995232,"correct":true,"confidence":-1},{"trial_n":14,"min":65,"max":190,"target":"absent","response":"absent","rt":935.09999990463,"correct":true,"confidence":-1},{"trial_n":15,"min":65,"max":190,"target":"present","response":"present","rt":410.69999980927,"correct":true,"confidence":-1},{"trial_n":16,"min":73,"max":182,"target":"present","response":"present","rt":529.09999990463,"correct":true,"confidence":-1},{"trial_n":17,"min":73,"max":182,"target":"present","response":"present","rt":608.59999990463,"correct":true,"confidence":-1},{"trial_n":18,"min":81,"max":174,"target":"present","response":"absent","rt":394.60000014305,"correct":false,"confidence":-1},{"trial_n":19,"min":73,"max":182,"target":"absent","response":"present","rt":385.39999985695,"correct":false,"confidence":-1},{"trial_n":20,"min":65,"max":190,"target":"absent","response":"absent","rt":280.90000009537,"correct":true,"confidence":-1},{"trial_n":21,"min":65,"max":190,"target":"present","response":"present","rt":325,"correct":true,"confidence":4},{"trial_n":22,"min":69,"max":186,"target":"present","response":"present","rt":1147.9000000954,"correct":true,"confidence":4},{"trial_n":23,"min":69,"max":186,"target":"absent","response":"absent","rt":675.89999985695,"correct":true,"confidence":4},{"trial_n":24,"min":73,"max":182,"target":"present","response":"absent","rt":1093.7999999523,"correct":false,"confidence":3},{"trial_n":25,"min":69,"max":186,"target":"absent","response":"absent","rt":550.89999985695,"correct":true,"confidence":4},{"trial_n":26,"min":69,"max":186,"target":"absent","response":"absent","rt":1489.1000001431,"correct":true,"confidence":3},{"trial_n":27,"min":73,"max":182,"target":"present","response":"present","rt":279.09999990463,"correct":true,"confidence":4},{"trial_n":28,"min":73,"max":182,"target":"absent","response":"present","rt":941.5,"correct":false,"confidence":3},{"trial_n":29,"min":69,"max":186,"target":"absent","response":"absent","rt":495.10000014305,"correct":true,"confidence":3},{"trial_n":30,"min":69,"max":186,"target":"present","response":"absent","rt":2648.9000000954,"correct":false,"confidence":2},{"trial_n":31,"min":67,"max":188,"target":"absent","response":"absent","rt":995.40000009537,"correct":true,"confidence":3},{"trial_n":32,"min":67,"max":188,"target":"present","response":"present","rt":350.29999995232,"correct":true,"confidence":4},{"trial_n":33,"min":69,"max":186,"target":"absent","response":"absent","rt":380.60000014305,"correct":true,"confidence":3},{"trial_n":34,"min":69,"max":186,"target":"present","response":"present","rt":2010.0999999046,"correct":true,"confidence":3},{"trial_n":35,"min":71,"max":184,"target":"present","response":"absent","rt":489.90000009537,"correct":false,"confidence":3},{"trial_n":36,"min":69,"max":186,"target":"present","response":"absent","rt":857.5,"correct":false,"confidence":3},{"trial_n":37,"min":67,"max":188,"target":"absent","response":"absent","rt":929.20000004768,"correct":true,"confidence":2},{"trial_n":38,"min":67,"max":188,"target":"absent","response":"absent","rt":423.60000014305,"correct":true,"confidence":3},{"trial_n":39,"min":69,"max":186,"target":"absent","response":"absent","rt":532,"correct":true,"confidence":4},{"trial_n":40,"min":69,"max":186,"target":"present","response":"present","rt":534.5,"correct":true,"confidence":4},{"trial_n":41,"min":70,"max":185,"target":"absent","response":"absent","rt":981.5,"correct":true,"confidence":4},{"trial_n":42,"min":70,"max":185,"target":"absent","response":"absent","rt":383,"correct":true,"confidence":4},{"trial_n":43,"min":71,"max":184,"target":"present","response":"present","rt":218.79999995232,"correct":true,"confidence":4},{"trial_n":44,"min":71,"max":184,"target":"absent","response":"absent","rt":612.5,"correct":true,"confidence":3},{"trial_n":45,"min":72,"max":183,"target":"present","response":"absent","rt":346,"correct":false,"confidence":3},{"trial_n":46,"min":71,"max":184,"target":"present","response":"present","rt":414.89999985695,"correct":true,"confidence":4},{"trial_n":47,"min":71,"max":184,"target":"present","response":"present","rt":272.29999995232,"correct":true,"confidence":4},{"trial_n":48,"min":72,"max":183,"target":"present","response":"present","rt":443.60000014305,"correct":true,"confidence":4},{"trial_n":49,"min":72,"max":183,"target":"absent","response":"present","rt":528.29999995232,"correct":false,"confidence":4},{"trial_n":50,"min":71,"max":184,"target":"present","response":"absent","rt":1337.7999999523,"correct":false,"confidence":2},{"trial_n":51,"min":70,"max":185,"target":"present","response":"present","rt":624.70000004768,"correct":true,"confidence":5},{"trial_n":52,"min":70,"max":185,"target":"absent","response":"present","rt":602.29999995232,"correct":false,"confidence":4},{"trial_n":53,"min":69,"max":186,"target":"present","response":"absent","rt":1235,"correct":false,"confidence":3},{"trial_n":54,"min":68,"max":187,"target":"present","response":"absent","rt":1434.5999999046,"correct":false,"confidence":2},{"trial_n":55,"min":67,"max":188,"target":"absent","response":"absent","rt":417.20000004768,"correct":true,"confidence":3},{"trial_n":56,"min":67,"max":188,"target":"absent","response":"absent","rt":322.40000009537,"correct":true,"confidence":3},{"trial_n":57,"min":68,"max":187,"target":"absent","response":"absent","rt":253.70000004768,"correct":true,"confidence":3},{"trial_n":58,"min":68,"max":187,"target":"present","response":"absent","rt":359.90000009537,"correct":false,"confidence":4},{"trial_n":59,"min":67,"max":188,"target":"absent","response":"absent","rt":394.5,"correct":true,"confidence":4},{"trial_n":60,"min":67,"max":188,"target":"absent","response":"absent","rt":490.90000009537,"correct":true,"confidence":4},{"trial_n":61,"min":68,"max":187,"target":"absent","response":"absent","rt":568.39999985695,"correct":true,"confidence":4},{"trial_n":62,"min":68,"max":187,"target":"present","response":"absent","rt":335.29999995232,"correct":false,"confidence":4},{"trial_n":63,"min":67,"max":188,"target":"present","response":"present","rt":396.30000019073,"correct":true,"confidence":4},{"trial_n":64,"min":67,"max":188,"target":"absent","response":"absent","rt":1054.3000001907,"correct":true,"confidence":3},{"trial_n":65,"min":68,"max":187,"target":"present","response":"absent","rt":1708.2000000477,"correct":false,"confidence":2},{"trial_n":66,"min":67,"max":188,"target":"present","response":"present","rt":399.60000014305,"correct":true,"confidence":4},{"trial_n":67,"min":67,"max":188,"target":"absent","response":"present","rt":521.29999995232,"correct":false,"confidence":3},{"trial_n":68,"min":66,"max":189,"target":"absent","response":"present","rt":379.79999995232,"correct":false,"confidence":3},{"trial_n":69,"min":65,"max":190,"target":"absent","response":"present","rt":284,"correct":false,"confidence":3},{"trial_n":70,"min":64,"max":191,"target":"present","response":"present","rt":613.40000009537,"correct":true,"confidence":3},{"trial_n":71,"min":41,"max":214,"target":"present","response":"present","rt":2568.4000000954,"correct":true,"confidence":-1},{"trial_n":72,"min":41,"max":214,"target":"present","response":"absent","rt":959.59999990463,"correct":false,"confidence":-1},{"trial_n":73,"min":25,"max":230,"target":"absent","response":"absent","rt":313.79999995232,"correct":true,"confidence":-1},{"trial_n":74,"min":25,"max":230,"target":"absent","response":"absent","rt":217,"correct":true,"confidence":-1},{"trial_n":75,"min":41,"max":214,"target":"present","response":"present","rt":259.59999990463,"correct":true,"confidence":-1},{"trial_n":76,"min":41,"max":214,"target":"present","response":"present","rt":621.79999995232,"correct":true,"confidence":-1},{"trial_n":77,"min":57,"max":198,"target":"absent","response":"absent","rt":434.29999995232,"correct":true,"confidence":-1},{"trial_n":78,"min":57,"max":198,"target":"absent","response":"present","rt":289.29999995232,"correct":false,"confidence":-1},{"trial_n":79,"min":41,"max":214,"target":"present","response":"present","rt":1590.0999999046,"correct":true,"confidence":-1},{"trial_n":80,"min":41,"max":214,"target":"absent","response":"absent","rt":280.29999995232,"correct":true,"confidence":-1},{"trial_n":81,"min":49,"max":206,"target":"absent","response":"absent","rt":377.5,"correct":true,"confidence":-1},{"trial_n":82,"min":49,"max":206,"target":"absent","response":"present","rt":445.79999995232,"correct":false,"confidence":-1},{"trial_n":83,"min":41,"max":214,"target":"absent","response":"present","rt":790.20000004768,"correct":false,"confidence":-1},{"trial_n":84,"min":33,"max":222,"target":"present","response":"present","rt":301.79999995232,"correct":true,"confidence":-1},{"trial_n":85,"min":33,"max":222,"target":"absent","response":"absent","rt":527.40000009537,"correct":true,"confidence":-1},{"trial_n":86,"min":41,"max":214,"target":"absent","response":"absent","rt":396,"correct":true,"confidence":-1},{"trial_n":87,"min":41,"max":214,"target":"present","response":"present","rt":314,"correct":true,"confidence":-1},{"trial_n":88,"min":49,"max":206,"target":"absent","response":"absent","rt":216.80000019073,"correct":true,"confidence":-1},{"trial_n":89,"min":49,"max":206,"target":"present","response":"present","rt":1620.3999998569,"correct":true,"confidence":-1},{"trial_n":90,"min":57,"max":198,"target":"present","response":"absent","rt":15.5,"correct":false,"confidence":-1},{"trial_n":91,"min":53,"max":202,"target":"absent","response":"absent","rt":319.09999990463,"correct":true,"confidence":5},{"trial_n":92,"min":53,"max":202,"target":"absent","response":"absent","rt":505.70000004768,"correct":true,"confidence":5},{"trial_n":93,"min":57,"max":198,"target":"present","response":"present","rt":407.30000019073,"correct":true,"confidence":5},{"trial_n":94,"min":57,"max":198,"target":"present","response":"present","rt":481.69999980927,"correct":true,"confidence":5},{"trial_n":95,"min":61,"max":194,"target":"absent","response":"absent","rt":380.5,"correct":true,"confidence":5},{"trial_n":96,"min":61,"max":194,"target":"absent","response":"absent","rt":394.60000014305,"correct":true,"confidence":5},{"trial_n":97,"min":65,"max":190,"target":"present","response":"present","rt":375.69999980927,"correct":true,"confidence":5},{"trial_n":98,"min":65,"max":190,"target":"present","response":"present","rt":376.5,"correct":true,"confidence":5},{"trial_n":99,"min":69,"max":186,"target":"present","response":"present","rt":399.59999990463,"correct":true,"confidence":5},{"trial_n":100,"min":69,"max":186,"target":"present","response":"present","rt":232.30000019073,"correct":true,"confidence":5},{"trial_n":101,"min":71,"max":184,"target":"present","response":"present","rt":319.20000004768,"correct":true,"confidence":5},{"trial_n":102,"min":71,"max":184,"target":"absent","response":"absent","rt":297.5,"correct":true,"confidence":5},{"trial_n":103,"min":73,"max":182,"target":"present","response":"present","rt":181.09999990463,"correct":true,"confidence":5},{"trial_n":104,"min":73,"max":182,"target":"absent","response":"absent","rt":1048.9000000954,"correct":true,"confidence":4},{"trial_n":105,"min":75,"max":180,"target":"present","response":"present","rt":346,"correct":true,"confidence":5},{"trial_n":106,"min":75,"max":180,"target":"present","response":"present","rt":357.29999995232,"correct":true,"confidence":4},{"trial_n":107,"min":77,"max":178,"target":"present","response":"present","rt":1666.5,"correct":true,"confidence":3},{"trial_n":108,"min":77,"max":178,"target":"present","response":"present","rt":671.59999990463,"correct":true,"confidence":3},{"trial_n":109,"min":79,"max":176,"target":"present","response":"present","rt":394.69999980927,"correct":true,"confidence":3},{"trial_n":110,"min":79,"max":176,"target":"present","response":"present","rt":1535,"correct":true,"confidence":2},{"trial_n":111,"min":80,"max":175,"target":"present","response":"present","rt":518.5,"correct":true,"confidence":4},{"trial_n":112,"min":80,"max":175,"target":"absent","response":"present","rt":602.70000004768,"correct":false,"confidence":2},{"trial_n":113,"min":79,"max":176,"target":"present","response":"present","rt":310.09999990463,"correct":true,"confidence":4},{"trial_n":114,"min":79,"max":176,"target":"absent","response":"present","rt":530.59999990463,"correct":false,"confidence":1},{"trial_n":115,"min":78,"max":177,"target":"present","response":"present","rt":850.10000014305,"correct":true,"confidence":3},{"trial_n":116,"min":78,"max":177,"target":"present","response":"present","rt":351.29999995232,"correct":true,"confidence":4},{"trial_n":117,"min":79,"max":176,"target":"absent","response":"absent","rt":581.19999980927,"correct":true,"confidence":4},{"trial_n":118,"min":79,"max":176,"target":"present","response":"present","rt":514.59999990463,"correct":true,"confidence":4},{"trial_n":119,"min":80,"max":175,"target":"absent","response":"absent","rt":1124.7000000477,"correct":true,"confidence":1},{"trial_n":120,"min":80,"max":175,"target":"absent","response":"absent","rt":1188.9000000954,"correct":true,"confidence":1},{"trial_n":121,"min":81,"max":174,"target":"present","response":"present","rt":612.5,"correct":true,"confidence":3},{"trial_n":122,"min":81,"max":174,"target":"absent","response":"present","rt":700.5,"correct":false,"confidence":1},{"trial_n":123,"min":80,"max":175,"target":"absent","response":"absent","rt":766.10000014305,"correct":true,"confidence":1},{"trial_n":124,"min":80,"max":175,"target":"present","response":"present","rt":995.29999995232,"correct":true,"confidence":3},{"trial_n":125,"min":81,"max":174,"target":"absent","response":"present","rt":666.10000014305,"correct":false,"confidence":2},{"trial_n":126,"min":80,"max":175,"target":"absent","response":"absent","rt":1430.7999999523,"correct":true,"confidence":2},{"trial_n":127,"min":80,"max":175,"target":"present","response":"present","rt":871.5,"correct":true,"confidence":1},{"trial_n":128,"min":81,"max":174,"target":"absent","response":"absent","rt":462.70000004768,"correct":true,"confidence":1},{"trial_n":129,"min":81,"max":174,"target":"present","response":"absent","rt":1079.3999998569,"correct":false,"confidence":1},{"trial_n":130,"min":80,"max":175,"target":"present","response":"present","rt":490.5,"correct":true,"confidence":3},{"trial_n":131,"min":80,"max":175,"target":"absent","response":"absent","rt":1230.2999999523,"correct":true,"confidence":3},{"trial_n":132,"min":81,"max":174,"target":"absent","response":"absent","rt":554.79999995232,"correct":true,"confidence":3},{"trial_n":133,"min":81,"max":174,"target":"absent","response":"present","rt":975.70000004768,"correct":false,"confidence":1},{"trial_n":134,"min":80,"max":175,"target":"present","response":"present","rt":583.89999985695,"correct":true,"confidence":1},{"trial_n":135,"min":80,"max":175,"target":"present","response":"present","rt":1277.0999999046,"correct":true,"confidence":4},{"trial_n":136,"min":81,"max":174,"target":"absent","response":"absent","rt":1539,"correct":true,"confidence":1},{"trial_n":137,"min":81,"max":174,"target":"absent","response":"present","rt":516.60000014305,"correct":false,"confidence":1},{"trial_n":138,"min":80,"max":175,"target":"absent","response":"present","rt":600.39999985695,"correct":false,"confidence":1},{"trial_n":139,"min":79,"max":176,"target":"absent","response":"present","rt":641.70000004768,"correct":false,"confidence":1},{"trial_n":140,"min":78,"max":177,"target":"present","response":"absent","rt":842.20000004768,"correct":false,"confidence":1}]