[{"trial_n":1,"span":8,"encoder":"26070370","distractor":"26020370","target":"present","response":"present","rt":"3023","correct":true,"confidence":-1},{"trial_n":2,"span":8,"encoder":"60007778","distractor":"30007778","target":"present","response":"absent","rt":"1828","correct":false,"confidence":-1},{"trial_n":3,"span":6,"encoder":"859996","distractor":"659996","target":"absent","response":"absent","rt":"2441","correct":true,"confidence":-1},{"trial_n":4,"span":6,"encoder":"222038","distractor":"322038","target":"absent","response":"absent","rt":"1683","correct":true,"confidence":-1},{"trial_n":5,"span":8,"encoder":"22809702","distractor":"22800702","target":"present","response":"present","rt":"1756","correct":true,"confidence":-1},{"trial_n":6,"span":8,"encoder":"56316708","distractor":"56316208","target":"present","response":"present","rt":"1398","correct":true,"confidence":-1},{"trial_n":7,"span":10,"encoder":"6810005840","distractor":"6810005820","target":"absent","response":"present","rt":"802","correct":false,"confidence":-1},{"trial_n":8,"span":8,"encoder":"86441544","distractor":"86401544","target":"absent","response":"present","rt":"1288","correct":false,"confidence":-1},{"trial_n":9,"span":6,"encoder":"178456","distractor":"178451","target":"absent","response":"absent","rt":"1666","correct":true,"confidence":-1},{"trial_n":10,"span":6,"encoder":"276047","distractor":"206047","target":"absent","response":"present","rt":"1530","correct":false,"confidence":-1},{"trial_n":11,"span":4,"encoder":"6153","distractor":"6183","target":"present","response":"present","rt":"1248","correct":true,"confidence":-1},{"trial_n":12,"span":4,"encoder":"0415","distractor":"3415","target":"absent","response":"absent","rt":"1753","correct":true,"confidence":-1},{"trial_n":13,"span":5,"encoder":"64746","distractor":"64946","target":"present","response":"present","rt":"1728","correct":true,"confidence":-1},{"trial_n":14,"span":5,"encoder":"72364","distractor":"72324","target":"absent","response":"absent","rt":"1411","correct":true,"confidence":-1},{"trial_n":15,"span":6,"encoder":"785220","distractor":"765220","target":"present","response":"absent","rt":"2037","correct":false,"confidence":-1},{"trial_n":16,"span":5,"encoder":"80744","distractor":"80740","target":"absent","response":"present","rt":"1031","correct":false,"confidence":-1},{"trial_n":17,"span":4,"encoder":"5353","distractor":"5359","target":"absent","response":"absent","rt":"1312","correct":true,"confidence":-1},{"trial_n":18,"span":4,"encoder":"1517","distractor":"1527","target":"present","response":"present","rt":"1187","correct":true,"confidence":-1},{"trial_n":19,"span":5,"encoder":"92378","distractor":"92578","target":"present","response":"absent","rt":"1880","correct":false,"confidence":-1},{"trial_n":20,"span":4,"encoder":"1505","distractor":"1501","target":"absent","response":"present","rt":"984.00000000001","correct":false,"confidence":-1},{"trial_n":21,"span":3,"encoder":"221","distractor":"211","target":"absent","response":"present","rt":"998","correct":false,"confidence":5},{"trial_n":22,"span":2,"encoder":"73","distractor":"83","target":"absent","response":"absent","rt":"1079","correct":true,"confidence":5},{"trial_n":23,"span":2,"encoder":"25","distractor":"45","target":"absent","response":"absent","rt":"1394","correct":true,"confidence":5},{"trial_n":24,"span":3,"encoder":"730","distractor":"736","target":"present","response":"present","rt":"897","correct":true,"confidence":1},{"trial_n":25,"span":3,"encoder":"440","distractor":"040","target":"present","response":"present","rt":"3083","correct":true,"confidence":5},{"trial_n":26,"span":4,"encoder":"6305","distractor":"6395","target":"present","response":"present","rt":"1354","correct":true,"confidence":5},{"trial_n":27,"span":4,"encoder":"7496","distractor":"7446","target":"absent","response":"absent","rt":"1187","correct":true,"confidence":5},{"trial_n":28,"span":5,"encoder":"59445","distractor":"59448","target":"present","response":"present","rt":"2239","correct":true,"confidence":5},{"trial_n":29,"span":5,"encoder":"16499","distractor":"10499","target":"absent","response":"absent","rt":"1124","correct":true,"confidence":5},{"trial_n":30,"span":6,"encoder":"043489","distractor":"043488","target":"present","response":"present","rt":"2004","correct":true,"confidence":5},{"trial_n":31,"span":6,"encoder":"798847","distractor":"298847","target":"absent","response":"absent","rt":"1871","correct":true,"confidence":4},{"trial_n":32,"span":7,"encoder":"5750427","distractor":"5750477","target":"absent","response":"absent","rt":"2675","correct":true,"confidence":5},{"trial_n":33,"span":7,"encoder":"9428492","distractor":"1428492","target":"present","response":"present","rt":"2412","correct":true,"confidence":4},{"trial_n":34,"span":8,"encoder":"87214812","distractor":"87314812","target":"absent","response":"absent","rt":"1423","correct":true,"confidence":4},{"trial_n":35,"span":8,"encoder":"70989278","distractor":"70980278","target":"present","response":"present","rt":"2803","correct":true,"confidence":4},{"trial_n":36,"span":9,"encoder":"784016965","distractor":"784096965","target":"present","response":"absent","rt":"4233","correct":false,"confidence":3},{"trial_n":37,"span":8,"encoder":"39590303","distractor":"39990303","target":"present","response":"present","rt":"1067","correct":true,"confidence":3},{"trial_n":38,"span":8,"encoder":"86639309","distractor":"06639309","target":"present","response":"absent","rt":"2061","correct":false,"confidence":3},{"trial_n":39,"span":7,"encoder":"6162613","distractor":"6163613","target":"present","response":"present","rt":"1932","correct":true,"confidence":4},{"trial_n":40,"span":7,"encoder":"0671163","distractor":"0673163","target":"absent","response":"absent","rt":"1286","correct":true,"confidence":4},{"trial_n":41,"span":8,"encoder":"28536360","distractor":"28536367","target":"present","response":"present","rt":"2085","correct":true,"confidence":5},{"trial_n":42,"span":8,"encoder":"33826210","distractor":"33826110","target":"present","response":"present","rt":"2684","correct":true,"confidence":5},{"trial_n":43,"span":9,"encoder":"193606522","distractor":"193606422","target":"present","response":"present","rt":"1401","correct":true,"confidence":4},{"trial_n":44,"span":9,"encoder":"185627509","distractor":"175627509","target":"present","response":"absent","rt":"1283","correct":false,"confidence":2},{"trial_n":45,"span":8,"encoder":"84666412","distractor":"84266412","target":"present","response":"present","rt":"6247","correct":true,"confidence":4},{"trial_n":46,"span":8,"encoder":"56055187","distractor":"56065187","target":"absent","response":"present","rt":"2818.0000000001","correct":false,"confidence":3},{"trial_n":47,"span":7,"encoder":"6160346","distractor":"6190346","target":"present","response":"present","rt":"1654","correct":true,"confidence":4},{"trial_n":48,"span":7,"encoder":"0143215","distractor":"0143275","target":"absent","response":"present","rt":"1635.9999999999","correct":false,"confidence":2},{"trial_n":49,"span":6,"encoder":"055996","distractor":"755996","target":"absent","response":"absent","rt":"1330","correct":true,"confidence":5},{"trial_n":50,"span":6,"encoder":"421925","distractor":"321925","target":"absent","response":"absent","rt":"1232.0000000001","correct":true,"confidence":5},{"trial_n":51,"span":7,"encoder":"9717125","distractor":"9717165","target":"present","response":"present","rt":"1855","correct":true,"confidence":5},{"trial_n":52,"span":7,"encoder":"0532347","distractor":"0532947","target":"present","response":"present","rt":"1780.9999999999","correct":true,"confidence":5},{"trial_n":53,"span":8,"encoder":"81985285","distractor":"81985287","target":"absent","response":"absent","rt":"2376","correct":true,"confidence":3},{"trial_n":54,"span":8,"encoder":"68295125","distractor":"68295121","target":"absent","response":"absent","rt":"1608.9999999999","correct":true,"confidence":2},{"trial_n":55,"span":9,"encoder":"608219929","distractor":"608219909","target":"present","response":"present","rt":"2506","correct":true,"confidence":4},{"trial_n":56,"span":9,"encoder":"903253640","distractor":"902253640","target":"absent","response":"absent","rt":"1257","correct":true,"confidence":2},{"trial_n":57,"span":10,"encoder":"9398546827","distractor":"9398546828","target":"absent","response":"present","rt":"1534.9999999999","correct":false,"confidence":3},{"trial_n":58,"span":9,"encoder":"329772448","distractor":"329773448","target":"present","response":"present","rt":"1489","correct":true,"confidence":3},{"trial_n":59,"span":9,"encoder":"910198285","distractor":"910198085","target":"absent","response":"present","rt":"1242.9999999999","correct":false,"confidence":3},{"trial_n":60,"span":8,"encoder":"04695489","distractor":"44695489","target":"present","response":"absent","rt":"1073","correct":false,"confidence":3},{"trial_n":61,"span":7,"encoder":"4281088","distractor":"0281088","target":"present","response":"present","rt":"2167.9999999999","correct":true,"confidence":4},{"trial_n":62,"span":7,"encoder":"2303968","distractor":"2333968","target":"present","response":"present","rt":"1598","correct":true,"confidence":5},{"trial_n":63,"span":8,"encoder":"61776659","distractor":"61776559","target":"absent","response":"present","rt":"1841.9999999999","correct":false,"confidence":5},{"trial_n":64,"span":7,"encoder":"5508589","distractor":"5568589","target":"present","response":"present","rt":"1179","correct":true,"confidence":4},{"trial_n":65,"span":7,"encoder":"1525484","distractor":"1525984","target":"present","response":"absent","rt":"1807","correct":false,"confidence":2},{"trial_n":66,"span":6,"encoder":"222754","distractor":"222755","target":"absent","response":"present","rt":"976","correct":false,"confidence":4},{"trial_n":67,"span":5,"encoder":"38832","distractor":"38836","target":"present","response":"present","rt":"1219","correct":true,"confidence":5},{"trial_n":68,"span":5,"encoder":"86277","distractor":"86477","target":"absent","response":"absent","rt":"2260","correct":true,"confidence":5},{"trial_n":69,"span":6,"encoder":"907162","distractor":"902162","target":"absent","response":"absent","rt":"2504","correct":true,"confidence":5},{"trial_n":70,"span":6,"encoder":"615312","distractor":"613312","target":"absent","response":"absent","rt":"1385","correct":true,"confidence":5},{"trial_n":71,"span":8,"encoder":"04215396","distractor":"04219396","target":"present","response":"present","rt":"3024","correct":true,"confidence":-1},{"trial_n":72,"span":8,"encoder":"05508293","distractor":"05508593","target":"present","response":"present","rt":"2341","correct":true,"confidence":-1},{"trial_n":73,"span":9,"encoder":"149227063","distractor":"149297063","target":"absent","response":"present","rt":"3222","correct":false,"confidence":-1},{"trial_n":74,"span":8,"encoder":"90278479","distractor":"90578479","target":"absent","response":"absent","rt":"2387","correct":true,"confidence":-1},{"trial_n":75,"span":8,"encoder":"01449475","distractor":"01449479","target":"present","response":"present","rt":"1831.0000000001","correct":true,"confidence":-1},{"trial_n":76,"span":9,"encoder":"359904387","distractor":"359404387","target":"present","response":"present","rt":"2413","correct":true,"confidence":-1},{"trial_n":77,"span":9,"encoder":"050219752","distractor":"050216752","target":"absent","response":"absent","rt":"1583","correct":true,"confidence":-1},{"trial_n":78,"span":10,"encoder":"8678089093","distractor":"8678089063","target":"absent","response":"absent","rt":"8801","correct":true,"confidence":-1},{"trial_n":79,"span":10,"encoder":"6609176069","distractor":"6609176569","target":"absent","response":"absent","rt":"1003","correct":true,"confidence":-1},{"trial_n":80,"span":11,"encoder":"29764399109","distractor":"29764396109","target":"present","response":"present","rt":"409","correct":true,"confidence":-1},{"trial_n":81,"span":11,"encoder":"15710250911","distractor":"16710250911","target":"present","response":"present","rt":"509","correct":true,"confidence":-1},{"trial_n":82,"span":12,"encoder":"505851780067","distractor":"505851780063","target":"absent","response":"absent","rt":"502","correct":true,"confidence":-1},{"trial_n":83,"span":12,"encoder":"545366258687","distractor":"545366288687","target":"absent","response":"absent","rt":"1482","correct":true,"confidence":-1},{"trial_n":84,"span":13,"encoder":"3714233820839","distractor":"3714236820839","target":"present","response":"present","rt":"390","correct":true,"confidence":-1},{"trial_n":85,"span":13,"encoder":"4328191569754","distractor":"4328191579754","target":"absent","response":"absent","rt":"960","correct":true,"confidence":-1},{"trial_n":86,"span":14,"encoder":"94177422562164","distractor":"44177422562164","target":"present","response":"absent","rt":"446","correct":false,"confidence":-1},{"trial_n":87,"span":13,"encoder":"8456003875606","distractor":"8456003876606","target":"absent","response":"present","rt":"585","correct":false,"confidence":-1},{"trial_n":88,"span":12,"encoder":"936189990473","distractor":"936119990473","target":"present","response":"present","rt":"432","correct":true,"confidence":-1},{"trial_n":89,"span":12,"encoder":"710281484579","distractor":"710291484579","target":"present","response":"present","rt":"478.00000000012","correct":true,"confidence":-1},{"trial_n":90,"span":13,"encoder":"0220835298698","distractor":"0220835798698","target":"absent","response":"present","rt":"335","correct":false,"confidence":-1},{"trial_n":91,"span":12,"encoder":"128939642732","distractor":"123939642732","target":"absent","response":"absent","rt":"584","correct":true,"confidence":3},{"trial_n":92,"span":12,"encoder":"766515838949","distractor":"766515138949","target":"present","response":"absent","rt":"710","correct":false,"confidence":3},{"trial_n":93,"span":11,"encoder":"50925096295","distractor":"50925096215","target":"absent","response":"absent","rt":"2283.0000000001","correct":true,"confidence":2},{"trial_n":94,"span":11,"encoder":"50230403880","distractor":"50230003880","target":"absent","response":"absent","rt":"1182.0000000001","correct":true,"confidence":3},{"trial_n":95,"span":12,"encoder":"697744259400","distractor":"697794259400","target":"present","response":"absent","rt":"604","correct":false,"confidence":3},{"trial_n":96,"span":11,"encoder":"00707425867","distractor":"00707425847","target":"present","response":"present","rt":"529","correct":true,"confidence":2},{"trial_n":97,"span":11,"encoder":"06449755297","distractor":"06449755237","target":"absent","response":"absent","rt":"800.00000000012","correct":true,"confidence":4},{"trial_n":98,"span":12,"encoder":"097977590601","distractor":"797977590601","target":"absent","response":"present","rt":"720","correct":false,"confidence":2},{"trial_n":99,"span":11,"encoder":"35817651481","distractor":"35817251481","target":"present","response":"absent","rt":"1307","correct":false,"confidence":2},{"trial_n":100,"span":10,"encoder":"1537104526","distractor":"1537109526","target":"absent","response":"absent","rt":"1195.9999999999","correct":true,"confidence":2},{"trial_n":101,"span":10,"encoder":"9224452456","distractor":"9224452457","target":"present","response":"absent","rt":"837","correct":false,"confidence":2},{"trial_n":102,"span":9,"encoder":"427256957","distractor":"427256557","target":"absent","response":"absent","rt":"1718","correct":true,"confidence":5},{"trial_n":103,"span":9,"encoder":"472085641","distractor":"492085641","target":"present","response":"absent","rt":"2817","correct":false,"confidence":4},{"trial_n":104,"span":8,"encoder":"48607677","distractor":"47607677","target":"present","response":"absent","rt":"4382.0000000001","correct":false,"confidence":3},{"trial_n":105,"span":7,"encoder":"3816200","distractor":"8816200","target":"absent","response":"present","rt":"1521","correct":false,"confidence":3},{"trial_n":106,"span":6,"encoder":"199677","distractor":"199577","target":"absent","response":"absent","rt":"2445.9999999999","correct":true,"confidence":5},{"trial_n":107,"span":6,"encoder":"906479","distractor":"706479","target":"absent","response":"absent","rt":"1916","correct":true,"confidence":5},{"trial_n":108,"span":7,"encoder":"9538392","distractor":"9538592","target":"present","response":"present","rt":"2391","correct":true,"confidence":5},{"trial_n":109,"span":7,"encoder":"5456590","distractor":"5458590","target":"present","response":"present","rt":"1834","correct":true,"confidence":5},{"trial_n":110,"span":8,"encoder":"33315861","distractor":"33615861","target":"absent","response":"present","rt":"4896","correct":false,"confidence":3},{"trial_n":111,"span":7,"encoder":"0405117","distractor":"0405197","target":"present","response":"present","rt":"2772","correct":true,"confidence":5},{"trial_n":112,"span":7,"encoder":"9618497","distractor":"9619497","target":"present","response":"present","rt":"2984","correct":true,"confidence":5},{"trial_n":113,"span":8,"encoder":"26862740","distractor":"26862780","target":"present","response":"present","rt":"1346","correct":true,"confidence":1},{"trial_n":114,"span":8,"encoder":"32020225","distractor":"32020227","target":"present","response":"present","rt":"1155","correct":true,"confidence":5},{"trial_n":115,"span":9,"encoder":"191011628","distractor":"191015628","target":"absent","response":"present","rt":"3506","correct":false,"confidence":4},{"trial_n":116,"span":8,"encoder":"16075694","distractor":"16975694","target":"present","response":"present","rt":"1193.0000000001","correct":true,"confidence":2},{"trial_n":117,"span":8,"encoder":"98573525","distractor":"98673525","target":"absent","response":"present","rt":"4843.0000000001","correct":false,"confidence":4},{"trial_n":118,"span":7,"encoder":"5162448","distractor":"5165448","target":"absent","response":"absent","rt":"1261.9999999999","correct":true,"confidence":4},{"trial_n":119,"span":7,"encoder":"7018344","distractor":"7718344","target":"absent","response":"absent","rt":"1836","correct":true,"confidence":5},{"trial_n":120,"span":8,"encoder":"64795157","distractor":"64785157","target":"present","response":"present","rt":"1729.0000000001","correct":true,"confidence":2},{"trial_n":121,"span":8,"encoder":"37182614","distractor":"31182614","target":"present","response":"present","rt":"3104","correct":true,"confidence":2},{"trial_n":122,"span":9,"encoder":"241133571","distractor":"241333571","target":"present","response":"present","rt":"1962","correct":true,"confidence":2},{"trial_n":123,"span":9,"encoder":"591933283","distractor":"591233283","target":"present","response":"present","rt":"1357","correct":true,"confidence":2},{"trial_n":124,"span":10,"encoder":"9533876508","distractor":"9532876508","target":"present","response":"present","rt":"1262","correct":true,"confidence":2},{"trial_n":125,"span":10,"encoder":"2610470019","distractor":"2600470019","target":"absent","response":"absent","rt":"673.99999999988","correct":true,"confidence":2},{"trial_n":126,"span":11,"encoder":"35010216216","distractor":"35010256216","target":"present","response":"present","rt":"2217","correct":true,"confidence":5},{"trial_n":127,"span":11,"encoder":"67592557623","distractor":"67592557653","target":"present","response":"present","rt":"738","correct":true,"confidence":2},{"trial_n":128,"span":12,"encoder":"899672749218","distractor":"890672749218","target":"absent","response":"present","rt":"503.99999999988","correct":false,"confidence":2},{"trial_n":129,"span":11,"encoder":"46423687155","distractor":"46223687155","target":"absent","response":"present","rt":"351.99999999988","correct":false,"confidence":4},{"trial_n":130,"span":10,"encoder":"2974770904","distractor":"2974770974","target":"absent","response":"present","rt":"966","correct":false,"confidence":1},{"trial_n":131,"span":9,"encoder":"592985184","distractor":"592985084","target":"absent","response":"absent","rt":"1114.0000000001","correct":true,"confidence":5},{"trial_n":132,"span":9,"encoder":"334314261","distractor":"334314268","target":"present","response":"present","rt":"2009","correct":true,"confidence":5},{"trial_n":133,"span":10,"encoder":"7474450363","distractor":"2474450363","target":"present","response":"absent","rt":"1853","correct":false,"confidence":4},{"trial_n":134,"span":9,"encoder":"697213142","distractor":"697413142","target":"present","response":"absent","rt":"862.99999999988","correct":false,"confidence":4},{"trial_n":135,"span":8,"encoder":"09196871","distractor":"09196671","target":"absent","response":"present","rt":"787","correct":false,"confidence":4},{"trial_n":136,"span":7,"encoder":"7150984","distractor":"7159984","target":"present","response":"present","rt":"1325","correct":true,"confidence":4},{"trial_n":137,"span":7,"encoder":"6152060","distractor":"9152060","target":"present","response":"present","rt":"2625","correct":true,"confidence":3},{"trial_n":138,"span":8,"encoder":"41536086","distractor":"41566086","target":"absent","response":"absent","rt":"1519","correct":true,"confidence":2},{"trial_n":139,"span":8,"encoder":"53502135","distractor":"53502235","target":"absent","response":"present","rt":"1699","correct":false,"confidence":2},{"trial_n":140,"span":7,"encoder":"9585517","distractor":"9555517","target":"absent","response":"absent","rt":"2310","correct":true,"confidence":5}]