[{"trial_n":1,"n_dots":4.25,"target":"left","response":"left","rt":6807,"correct":true,"confidence":-1},{"trial_n":2,"n_dots":4.25,"target":"right","response":"right","rt":1269,"correct":true,"confidence":-1},{"trial_n":3,"n_dots":3.85,"target":"right","response":"right","rt":793,"correct":true,"confidence":-1},{"trial_n":4,"n_dots":3.85,"target":"right","response":"right","rt":845,"correct":true,"confidence":-1},{"trial_n":5,"n_dots":3.45,"target":"right","response":"right","rt":537.99999999999,"correct":true,"confidence":-1},{"trial_n":6,"n_dots":3.45,"target":"left","response":"left","rt":830,"correct":true,"confidence":-1},{"trial_n":7,"n_dots":3.05,"target":"left","response":"right","rt":449,"correct":false,"confidence":-1},{"trial_n":8,"n_dots":3.25,"target":"left","response":"right","rt":766.00000000001,"correct":false,"confidence":-1},{"trial_n":9,"n_dots":3.45,"target":"left","response":"left","rt":830,"correct":true,"confidence":-1},{"trial_n":10,"n_dots":3.45,"target":"left","response":"right","rt":643,"correct":false,"confidence":-1},{"trial_n":11,"n_dots":3.65,"target":"right","response":"right","rt":644.00000000001,"correct":true,"confidence":-1},{"trial_n":12,"n_dots":3.65,"target":"right","response":"right","rt":758.99999999999,"correct":true,"confidence":-1},{"trial_n":13,"n_dots":3.55,"target":"left","response":"left","rt":923,"correct":true,"confidence":-1},{"trial_n":14,"n_dots":3.55,"target":"left","response":"right","rt":714,"correct":false,"confidence":-1},{"trial_n":15,"n_dots":3.65,"target":"right","response":"right","rt":512,"correct":true,"confidence":-1},{"trial_n":16,"n_dots":3.65,"target":"right","response":"left","rt":1793,"correct":false,"confidence":-1},{"trial_n":17,"n_dots":3.75,"target":"right","response":"left","rt":887,"correct":false,"confidence":-1},{"trial_n":18,"n_dots":3.85,"target":"left","response":"right","rt":1373,"correct":false,"confidence":-1},{"trial_n":19,"n_dots":3.95,"target":"right","response":"left","rt":576.00000000001,"correct":false,"confidence":-1},{"trial_n":20,"n_dots":4.05,"target":"left","response":"right","rt":847,"correct":false,"confidence":-1},{"trial_n":21,"n_dots":4.15,"target":"right","response":"right","rt":658,"correct":true,"confidence":3},{"trial_n":22,"n_dots":4.15,"target":"left","response":"left","rt":759,"correct":true,"confidence":4},{"trial_n":23,"n_dots":4.05,"target":"right","response":"right","rt":1237,"correct":true,"confidence":4},{"trial_n":24,"n_dots":4.05,"target":"left","response":"right","rt":2157,"correct":false,"confidence":4},{"trial_n":25,"n_dots":4.15,"target":"right","response":"right","rt":1039,"correct":true,"confidence":4},{"trial_n":26,"n_dots":4.15,"target":"right","response":"right","rt":999,"correct":true,"confidence":4},{"trial_n":27,"n_dots":4.05,"target":"right","response":"left","rt":939,"correct":false,"confidence":3},{"trial_n":28,"n_dots":4.15,"target":"left","response":"left","rt":753,"correct":true,"confidence":4},{"trial_n":29,"n_dots":4.15,"target":"right","response":"left","rt":1642,"correct":false,"confidence":4},{"trial_n":30,"n_dots":4.25,"target":"left","response":"left","rt":511,"correct":true,"confidence":4},{"trial_n":31,"n_dots":4.25,"target":"left","response":"left","rt":880,"correct":true,"confidence":4},{"trial_n":32,"n_dots":4.15,"target":"left","response":"left","rt":671,"correct":true,"confidence":4},{"trial_n":33,"n_dots":4.15,"target":"left","response":"left","rt":341,"correct":true,"confidence":4},{"trial_n":34,"n_dots":4.05,"target":"right","response":"right","rt":787,"correct":true,"confidence":4},{"trial_n":35,"n_dots":4.05,"target":"left","response":"left","rt":484,"correct":true,"confidence":4},{"trial_n":36,"n_dots":3.95,"target":"right","response":"left","rt":809,"correct":false,"confidence":3},{"trial_n":37,"n_dots":4.05,"target":"left","response":"left","rt":501,"correct":true,"confidence":4},{"trial_n":38,"n_dots":4.05,"target":"left","response":"left","rt":718,"correct":true,"confidence":4},{"trial_n":39,"n_dots":3.95,"target":"right","response":"left","rt":529,"correct":false,"confidence":4},{"trial_n":40,"n_dots":4.05,"target":"right","response":"right","rt":1200,"correct":true,"confidence":4},{"trial_n":41,"n_dots":4.05,"target":"right","response":"right","rt":1511,"correct":true,"confidence":4},{"trial_n":42,"n_dots":3.95,"target":"right","response":"left","rt":1056.0000000001,"correct":false,"confidence":4},{"trial_n":43,"n_dots":4.05,"target":"left","response":"left","rt":504.99999999994,"correct":true,"confidence":4},{"trial_n":44,"n_dots":4.05,"target":"left","response":"right","rt":552,"correct":false,"confidence":4},{"trial_n":45,"n_dots":4.15,"target":"left","response":"left","rt":406,"correct":true,"confidence":4},{"trial_n":46,"n_dots":4.15,"target":"left","response":"left","rt":384,"correct":true,"confidence":4},{"trial_n":47,"n_dots":4.05,"target":"right","response":"right","rt":460,"correct":true,"confidence":4},{"trial_n":48,"n_dots":4.05,"target":"left","response":"left","rt":411.99999999994,"correct":true,"confidence":4},{"trial_n":49,"n_dots":3.95,"target":"left","response":"left","rt":432,"correct":true,"confidence":4},{"trial_n":50,"n_dots":3.95,"target":"right","response":"right","rt":2669,"correct":true,"confidence":4},{"trial_n":51,"n_dots":3.85,"target":"left","response":"left","rt":331,"correct":true,"confidence":4},{"trial_n":52,"n_dots":3.85,"target":"right","response":"left","rt":2448,"correct":false,"confidence":4},{"trial_n":53,"n_dots":3.95,"target":"left","response":"left","rt":1596,"correct":true,"confidence":4},{"trial_n":54,"n_dots":3.95,"target":"right","response":"right","rt":396,"correct":true,"confidence":4},{"trial_n":55,"n_dots":3.85,"target":"right","response":"right","rt":444,"correct":true,"confidence":4},{"trial_n":56,"n_dots":3.85,"target":"right","response":"right","rt":520.99999999994,"correct":true,"confidence":4},{"trial_n":57,"n_dots":3.75,"target":"right","response":"right","rt":887,"correct":true,"confidence":4},{"trial_n":58,"n_dots":3.75,"target":"left","response":"left","rt":397,"correct":true,"confidence":4},{"trial_n":59,"n_dots":3.65,"target":"right","response":"right","rt":681,"correct":true,"confidence":4},{"trial_n":60,"n_dots":3.65,"target":"right","response":"left","rt":1032,"correct":false,"confidence":4},{"trial_n":61,"n_dots":3.75,"target":"right","response":"right","rt":298,"correct":true,"confidence":4},{"trial_n":62,"n_dots":3.75,"target":"right","response":"right","rt":1435,"correct":true,"confidence":4},{"trial_n":63,"n_dots":3.65,"target":"right","response":"right","rt":318,"correct":true,"confidence":4},{"trial_n":64,"n_dots":3.65,"target":"left","response":"left","rt":852,"correct":true,"confidence":4},{"trial_n":65,"n_dots":3.55,"target":"left","response":"left","rt":332,"correct":true,"confidence":4},{"trial_n":66,"n_dots":3.55,"target":"left","response":"left","rt":1750,"correct":true,"confidence":4},{"trial_n":67,"n_dots":3.45,"target":"left","response":"left","rt":381,"correct":true,"confidence":4},{"trial_n":68,"n_dots":3.45,"target":"left","response":"left","rt":309.00000000012,"correct":true,"confidence":4},{"trial_n":69,"n_dots":3.35,"target":"left","response":"left","rt":298,"correct":true,"confidence":4},{"trial_n":70,"n_dots":3.35,"target":"left","response":"left","rt":304,"correct":true,"confidence":4},{"trial_n":71,"n_dots":3.25,"target":"right","response":"right","rt":519,"correct":true,"confidence":4},{"trial_n":72,"n_dots":3.25,"target":"right","response":"right","rt":932.00000000012,"correct":true,"confidence":4},{"trial_n":73,"n_dots":3.15,"target":"left","response":"left","rt":779,"correct":true,"confidence":4},{"trial_n":74,"n_dots":3.15,"target":"left","response":"left","rt":390.99999999988,"correct":true,"confidence":4},{"trial_n":75,"n_dots":3.05,"target":"left","response":"left","rt":784,"correct":true,"confidence":4},{"trial_n":76,"n_dots":3.05,"target":"right","response":"right","rt":476,"correct":true,"confidence":4},{"trial_n":77,"n_dots":2.95,"target":"right","response":"right","rt":360.99999999988,"correct":true,"confidence":4},{"trial_n":78,"n_dots":2.95,"target":"left","response":"left","rt":427.00000000012,"correct":true,"confidence":4},{"trial_n":79,"n_dots":2.85,"target":"right","response":"left","rt":391,"correct":false,"confidence":4},{"trial_n":80,"n_dots":2.95,"target":"left","response":"left","rt":318,"correct":true,"confidence":4},{"trial_n":81,"n_dots":2.95,"target":"right","response":"right","rt":879,"correct":true,"confidence":4},{"trial_n":82,"n_dots":2.85,"target":"left","response":"right","rt":1576,"correct":false,"confidence":4},{"trial_n":83,"n_dots":2.95,"target":"right","response":"right","rt":1335.0000000001,"correct":true,"confidence":4},{"trial_n":84,"n_dots":2.95,"target":"right","response":"left","rt":1684,"correct":false,"confidence":4},{"trial_n":85,"n_dots":3.05,"target":"right","response":"left","rt":347,"correct":false,"confidence":4},{"trial_n":86,"n_dots":3.15,"target":"left","response":"right","rt":1384,"correct":false,"confidence":4},{"trial_n":87,"n_dots":3.25,"target":"right","response":"left","rt":432,"correct":false,"confidence":4},{"trial_n":88,"n_dots":3.35,"target":"right","response":"left","rt":502,"correct":false,"confidence":4},{"trial_n":89,"n_dots":3.45,"target":"left","response":"left","rt":628,"correct":true,"confidence":4},{"trial_n":90,"n_dots":3.45,"target":"right","response":"right","rt":562,"correct":true,"confidence":4},{"trial_n":91,"n_dots":3.35,"target":"right","response":"left","rt":669,"correct":false,"confidence":4},{"trial_n":92,"n_dots":3.45,"target":"left","response":"left","rt":368,"correct":true,"confidence":4},{"trial_n":93,"n_dots":3.45,"target":"right","response":"right","rt":379,"correct":true,"confidence":4},{"trial_n":94,"n_dots":3.35,"target":"right","response":"right","rt":429,"correct":true,"confidence":4},{"trial_n":95,"n_dots":3.35,"target":"left","response":"left","rt":541,"correct":true,"confidence":4},{"trial_n":96,"n_dots":3.25,"target":"left","response":"left","rt":355,"correct":true,"confidence":4},{"trial_n":97,"n_dots":3.25,"target":"left","response":"left","rt":1287,"correct":true,"confidence":4},{"trial_n":98,"n_dots":3.15,"target":"right","response":"right","rt":809,"correct":true,"confidence":4},{"trial_n":99,"n_dots":3.15,"target":"left","response":"left","rt":459,"correct":true,"confidence":4},{"trial_n":100,"n_dots":3.05,"target":"left","response":"left","rt":350,"correct":true,"confidence":4},{"trial_n":101,"n_dots":3.05,"target":"right","response":"left","rt":437,"correct":false,"confidence":4},{"trial_n":102,"n_dots":3.15,"target":"right","response":"right","rt":343,"correct":true,"confidence":4},{"trial_n":103,"n_dots":3.15,"target":"right","response":"right","rt":382.99999999988,"correct":true,"confidence":4},{"trial_n":104,"n_dots":3.05,"target":"left","response":"left","rt":719,"correct":true,"confidence":4},{"trial_n":105,"n_dots":3.05,"target":"right","response":"left","rt":445,"correct":false,"confidence":4},{"trial_n":106,"n_dots":3.15,"target":"left","response":"left","rt":680,"correct":true,"confidence":4},{"trial_n":107,"n_dots":3.15,"target":"right","response":"left","rt":628,"correct":false,"confidence":4},{"trial_n":108,"n_dots":3.25,"target":"right","response":"right","rt":413,"correct":true,"confidence":4},{"trial_n":109,"n_dots":3.25,"target":"right","response":"left","rt":482,"correct":false,"confidence":4},{"trial_n":110,"n_dots":3.35,"target":"left","response":"left","rt":381,"correct":true,"confidence":4},{"trial_n":111,"n_dots":3.35,"target":"right","response":"left","rt":309,"correct":false,"confidence":4},{"trial_n":112,"n_dots":3.45,"target":"left","response":"right","rt":347,"correct":false,"confidence":4},{"trial_n":113,"n_dots":3.55,"target":"left","response":"left","rt":442,"correct":true,"confidence":4},{"trial_n":114,"n_dots":3.55,"target":"left","response":"left","rt":462.99999999988,"correct":true,"confidence":4},{"trial_n":115,"n_dots":3.45,"target":"left","response":"left","rt":365,"correct":true,"confidence":4},{"trial_n":116,"n_dots":3.45,"target":"right","response":"right","rt":604,"correct":true,"confidence":4},{"trial_n":117,"n_dots":3.35,"target":"left","response":"left","rt":332,"correct":true,"confidence":4},{"trial_n":118,"n_dots":3.35,"target":"left","response":"right","rt":1531,"correct":false,"confidence":4},{"trial_n":119,"n_dots":3.45,"target":"left","response":"left","rt":437,"correct":true,"confidence":4},{"trial_n":120,"n_dots":3.45,"target":"right","response":"right","rt":389,"correct":true,"confidence":4}]