[{"trial_n":1,"min":25,"max":230,"target":"present","response":"present","rt":3975,"correct":true,"confidence":-1},{"trial_n":2,"min":25,"max":230,"target":"present","response":"present","rt":1114,"correct":true,"confidence":-1},{"trial_n":3,"min":41,"max":214,"target":"absent","response":"absent","rt":1002,"correct":true,"confidence":-1},{"trial_n":4,"min":41,"max":214,"target":"absent","response":"absent","rt":947,"correct":true,"confidence":-1},{"trial_n":5,"min":57,"max":198,"target":"present","response":"present","rt":1063,"correct":true,"confidence":-1},{"trial_n":6,"min":57,"max":198,"target":"present","response":"present","rt":773,"correct":true,"confidence":-1},{"trial_n":7,"min":73,"max":182,"target":"absent","response":"absent","rt":957,"correct":true,"confidence":-1},{"trial_n":8,"min":73,"max":182,"target":"present","response":"absent","rt":695,"correct":false,"confidence":-1},{"trial_n":9,"min":57,"max":198,"target":"absent","response":"absent","rt":959,"correct":true,"confidence":-1},{"trial_n":10,"min":57,"max":198,"target":"present","response":"present","rt":800,"correct":true,"confidence":-1},{"trial_n":11,"min":65,"max":190,"target":"absent","response":"absent","rt":1051,"correct":true,"confidence":-1},{"trial_n":12,"min":65,"max":190,"target":"present","response":"absent","rt":1126,"correct":false,"confidence":-1},{"trial_n":13,"min":57,"max":198,"target":"absent","response":"absent","rt":860.99999999997,"correct":true,"confidence":-1},{"trial_n":14,"min":57,"max":198,"target":"absent","response":"absent","rt":857.99999999997,"correct":true,"confidence":-1},{"trial_n":15,"min":65,"max":190,"target":"absent","response":"absent","rt":876,"correct":true,"confidence":-1},{"trial_n":16,"min":65,"max":190,"target":"absent","response":"absent","rt":897,"correct":true,"confidence":-1},{"trial_n":17,"min":73,"max":182,"target":"absent","response":"absent","rt":791,"correct":true,"confidence":-1},{"trial_n":18,"min":73,"max":182,"target":"absent","response":"absent","rt":732.99999999997,"correct":true,"confidence":-1},{"trial_n":19,"min":81,"max":174,"target":"absent","response":"absent","rt":755,"correct":true,"confidence":-1},{"trial_n":20,"min":81,"max":174,"target":"absent","response":"absent","rt":655,"correct":true,"confidence":-1},{"trial_n":21,"min":85,"max":170,"target":"present","response":"absent","rt":1567,"correct":false,"confidence":4},{"trial_n":22,"min":81,"max":174,"target":"absent","response":"absent","rt":1015,"correct":true,"confidence":3},{"trial_n":23,"min":81,"max":174,"target":"absent","response":"absent","rt":1079,"correct":true,"confidence":3},{"trial_n":24,"min":85,"max":170,"target":"absent","response":"absent","rt":911.99999999997,"correct":true,"confidence":4},{"trial_n":25,"min":85,"max":170,"target":"present","response":"present","rt":1087,"correct":true,"confidence":3},{"trial_n":26,"min":89,"max":166,"target":"absent","response":"absent","rt":854,"correct":true,"confidence":4},{"trial_n":27,"min":89,"max":166,"target":"present","response":"absent","rt":773.00000000003,"correct":false,"confidence":4},{"trial_n":28,"min":85,"max":170,"target":"present","response":"present","rt":1083,"correct":true,"confidence":5},{"trial_n":29,"min":85,"max":170,"target":"present","response":"absent","rt":927,"correct":false,"confidence":4},{"trial_n":30,"min":81,"max":174,"target":"absent","response":"absent","rt":869,"correct":true,"confidence":4},{"trial_n":31,"min":81,"max":174,"target":"absent","response":"absent","rt":1097,"correct":true,"confidence":3},{"trial_n":32,"min":83,"max":172,"target":"absent","response":"absent","rt":825,"correct":true,"confidence":4},{"trial_n":33,"min":83,"max":172,"target":"present","response":"absent","rt":1286.9999999999,"correct":false,"confidence":4},{"trial_n":34,"min":81,"max":174,"target":"present","response":"present","rt":1047,"correct":true,"confidence":3},{"trial_n":35,"min":81,"max":174,"target":"absent","response":"absent","rt":862,"correct":true,"confidence":4},{"trial_n":36,"min":83,"max":172,"target":"present","response":"absent","rt":767.99999999994,"correct":false,"confidence":3},{"trial_n":37,"min":81,"max":174,"target":"present","response":"present","rt":951.99999999994,"correct":true,"confidence":4},{"trial_n":38,"min":81,"max":174,"target":"present","response":"present","rt":1147.0000000001,"correct":true,"confidence":5},{"trial_n":39,"min":83,"max":172,"target":"absent","response":"absent","rt":877,"correct":true,"confidence":3},{"trial_n":40,"min":83,"max":172,"target":"present","response":"present","rt":1187,"correct":true,"confidence":5},{"trial_n":41,"min":84,"max":171,"target":"present","response":"present","rt":1429,"correct":true,"confidence":5},{"trial_n":42,"min":84,"max":171,"target":"present","response":"absent","rt":1016,"correct":false,"confidence":2},{"trial_n":43,"min":83,"max":172,"target":"present","response":"present","rt":1110.9999999999,"correct":true,"confidence":3},{"trial_n":44,"min":83,"max":172,"target":"present","response":"absent","rt":907,"correct":false,"confidence":3},{"trial_n":45,"min":82,"max":173,"target":"present","response":"absent","rt":910.00000000006,"correct":false,"confidence":4},{"trial_n":46,"min":81,"max":174,"target":"absent","response":"absent","rt":840,"correct":true,"confidence":3},{"trial_n":47,"min":81,"max":174,"target":"absent","response":"absent","rt":815.99999999994,"correct":true,"confidence":4},{"trial_n":48,"min":82,"max":173,"target":"present","response":"absent","rt":883,"correct":false,"confidence":4},{"trial_n":49,"min":81,"max":174,"target":"absent","response":"absent","rt":728,"correct":true,"confidence":5},{"trial_n":50,"min":81,"max":174,"target":"absent","response":"present","rt":996.00000000006,"correct":false,"confidence":2},{"trial_n":51,"min":80,"max":175,"target":"absent","response":"absent","rt":923,"correct":true,"confidence":4},{"trial_n":52,"min":80,"max":175,"target":"present","response":"present","rt":988,"correct":true,"confidence":4},{"trial_n":53,"min":81,"max":174,"target":"absent","response":"absent","rt":1176,"correct":true,"confidence":3},{"trial_n":54,"min":81,"max":174,"target":"present","response":"present","rt":946.00000000006,"correct":true,"confidence":5},{"trial_n":55,"min":82,"max":173,"target":"present","response":"present","rt":1884.9999999999,"correct":true,"confidence":3},{"trial_n":56,"min":82,"max":173,"target":"absent","response":"absent","rt":1241.9999999999,"correct":true,"confidence":3},{"trial_n":57,"min":83,"max":172,"target":"present","response":"present","rt":922,"correct":true,"confidence":2},{"trial_n":58,"min":83,"max":172,"target":"present","response":"present","rt":859,"correct":true,"confidence":4},{"trial_n":59,"min":84,"max":171,"target":"present","response":"absent","rt":1143,"correct":false,"confidence":3},{"trial_n":60,"min":83,"max":172,"target":"present","response":"present","rt":827,"correct":true,"confidence":5},{"trial_n":61,"min":83,"max":172,"target":"present","response":"present","rt":1214.0000000001,"correct":true,"confidence":4},{"trial_n":62,"min":84,"max":171,"target":"absent","response":"present","rt":726,"correct":false,"confidence":3},{"trial_n":63,"min":83,"max":172,"target":"absent","response":"absent","rt":946,"correct":true,"confidence":4},{"trial_n":64,"min":83,"max":172,"target":"present","response":"present","rt":868,"correct":true,"confidence":4},{"trial_n":65,"min":84,"max":171,"target":"present","response":"absent","rt":1506.0000000001,"correct":false,"confidence":3},{"trial_n":66,"min":83,"max":172,"target":"absent","response":"absent","rt":909,"correct":true,"confidence":3},{"trial_n":67,"min":83,"max":172,"target":"absent","response":"absent","rt":1908,"correct":true,"confidence":3},{"trial_n":68,"min":84,"max":171,"target":"present","response":"present","rt":849,"correct":true,"confidence":4},{"trial_n":69,"min":84,"max":171,"target":"present","response":"present","rt":1327,"correct":true,"confidence":2},{"trial_n":70,"min":85,"max":170,"target":"absent","response":"absent","rt":1512.9999999999,"correct":true,"confidence":3},{"trial_n":71,"min":41,"max":214,"target":"present","response":"present","rt":1740,"correct":true,"confidence":-1},{"trial_n":72,"min":41,"max":214,"target":"present","response":"present","rt":1105,"correct":true,"confidence":-1},{"trial_n":73,"min":57,"max":198,"target":"absent","response":"absent","rt":1273,"correct":true,"confidence":-1},{"trial_n":74,"min":57,"max":198,"target":"absent","response":"absent","rt":2420.9999999999,"correct":true,"confidence":-1},{"trial_n":75,"min":73,"max":182,"target":"present","response":"present","rt":1011.9999999999,"correct":true,"confidence":-1},{"trial_n":76,"min":73,"max":182,"target":"present","response":"present","rt":921,"correct":true,"confidence":-1},{"trial_n":77,"min":89,"max":166,"target":"absent","response":"absent","rt":1165,"correct":true,"confidence":-1},{"trial_n":78,"min":89,"max":166,"target":"present","response":"present","rt":952,"correct":true,"confidence":-1},{"trial_n":79,"min":105,"max":150,"target":"present","response":"absent","rt":1000,"correct":false,"confidence":-1},{"trial_n":80,"min":89,"max":166,"target":"absent","response":"present","rt":1051,"correct":false,"confidence":-1},{"trial_n":81,"min":81,"max":174,"target":"absent","response":"present","rt":1018,"correct":false,"confidence":-1},{"trial_n":82,"min":73,"max":182,"target":"present","response":"present","rt":4736.9999999999,"correct":true,"confidence":-1},{"trial_n":83,"min":73,"max":182,"target":"present","response":"present","rt":894.00000000012,"correct":true,"confidence":-1},{"trial_n":84,"min":81,"max":174,"target":"present","response":"present","rt":2199,"correct":true,"confidence":-1},{"trial_n":85,"min":81,"max":174,"target":"present","response":"present","rt":2295,"correct":true,"confidence":-1},{"trial_n":86,"min":89,"max":166,"target":"present","response":"present","rt":1992,"correct":true,"confidence":-1},{"trial_n":87,"min":89,"max":166,"target":"absent","response":"absent","rt":1568,"correct":true,"confidence":-1},{"trial_n":88,"min":97,"max":158,"target":"present","response":"absent","rt":996,"correct":false,"confidence":-1},{"trial_n":89,"min":89,"max":166,"target":"absent","response":"absent","rt":1179,"correct":true,"confidence":-1},{"trial_n":90,"min":89,"max":166,"target":"present","response":"present","rt":954,"correct":true,"confidence":-1},{"trial_n":91,"min":93,"max":162,"target":"absent","response":"absent","rt":1272,"correct":true,"confidence":1},{"trial_n":92,"min":93,"max":162,"target":"absent","response":"present","rt":881,"correct":false,"confidence":4},{"trial_n":93,"min":89,"max":166,"target":"absent","response":"present","rt":1547,"correct":false,"confidence":1},{"trial_n":94,"min":85,"max":170,"target":"absent","response":"absent","rt":1954,"correct":true,"confidence":3},{"trial_n":95,"min":85,"max":170,"target":"absent","response":"absent","rt":1043.9999999999,"correct":true,"confidence":1},{"trial_n":96,"min":89,"max":166,"target":"present","response":"present","rt":854.99999999988,"correct":true,"confidence":5},{"trial_n":97,"min":89,"max":166,"target":"absent","response":"absent","rt":1167,"correct":true,"confidence":4},{"trial_n":98,"min":93,"max":162,"target":"present","response":"present","rt":1387,"correct":true,"confidence":3},{"trial_n":99,"min":93,"max":162,"target":"absent","response":"absent","rt":1125,"correct":true,"confidence":3},{"trial_n":100,"min":97,"max":158,"target":"present","response":"present","rt":1364,"correct":true,"confidence":1},{"trial_n":101,"min":97,"max":158,"target":"present","response":"absent","rt":933,"correct":false,"confidence":3},{"trial_n":102,"min":95,"max":160,"target":"present","response":"present","rt":1076,"correct":true,"confidence":1},{"trial_n":103,"min":95,"max":160,"target":"absent","response":"present","rt":848,"correct":false,"confidence":4},{"trial_n":104,"min":93,"max":162,"target":"absent","response":"present","rt":1837,"correct":false,"confidence":4},{"trial_n":105,"min":91,"max":164,"target":"absent","response":"present","rt":1406.0000000001,"correct":false,"confidence":3},{"trial_n":106,"min":89,"max":166,"target":"present","response":"absent","rt":1321,"correct":false,"confidence":1},{"trial_n":107,"min":87,"max":168,"target":"present","response":"present","rt":944,"correct":true,"confidence":4},{"trial_n":108,"min":87,"max":168,"target":"present","response":"present","rt":1406,"correct":true,"confidence":4},{"trial_n":109,"min":89,"max":166,"target":"absent","response":"present","rt":1014,"correct":false,"confidence":1},{"trial_n":110,"min":87,"max":168,"target":"present","response":"present","rt":836,"correct":true,"confidence":5},{"trial_n":111,"min":87,"max":168,"target":"absent","response":"absent","rt":984,"correct":true,"confidence":3},{"trial_n":112,"min":88,"max":167,"target":"present","response":"present","rt":835.99999999988,"correct":true,"confidence":1},{"trial_n":113,"min":88,"max":167,"target":"absent","response":"present","rt":924,"correct":false,"confidence":2},{"trial_n":114,"min":87,"max":168,"target":"present","response":"present","rt":1220,"correct":true,"confidence":3},{"trial_n":115,"min":87,"max":168,"target":"present","response":"present","rt":1427,"correct":true,"confidence":4},{"trial_n":116,"min":88,"max":167,"target":"present","response":"absent","rt":1329.0000000001,"correct":false,"confidence":2},{"trial_n":117,"min":87,"max":168,"target":"absent","response":"present","rt":1835.0000000001,"correct":false,"confidence":3},{"trial_n":118,"min":86,"max":169,"target":"absent","response":"absent","rt":1772,"correct":true,"confidence":2},{"trial_n":119,"min":86,"max":169,"target":"present","response":"present","rt":950.99999999988,"correct":true,"confidence":5},{"trial_n":120,"min":87,"max":168,"target":"absent","response":"present","rt":1270.9999999999,"correct":false,"confidence":1},{"trial_n":121,"min":86,"max":169,"target":"present","response":"present","rt":851,"correct":true,"confidence":5},{"trial_n":122,"min":86,"max":169,"target":"absent","response":"absent","rt":1469,"correct":true,"confidence":3},{"trial_n":123,"min":87,"max":168,"target":"absent","response":"absent","rt":1047,"correct":true,"confidence":1},{"trial_n":124,"min":87,"max":168,"target":"present","response":"present","rt":1104,"correct":true,"confidence":5},{"trial_n":125,"min":88,"max":167,"target":"absent","response":"present","rt":907.99999999988,"correct":false,"confidence":4},{"trial_n":126,"min":87,"max":168,"target":"absent","response":"present","rt":1000.9999999999,"correct":false,"confidence":2},{"trial_n":127,"min":86,"max":169,"target":"absent","response":"absent","rt":1029,"correct":true,"confidence":3},{"trial_n":128,"min":86,"max":169,"target":"absent","response":"present","rt":1091,"correct":false,"confidence":2},{"trial_n":129,"min":85,"max":170,"target":"absent","response":"absent","rt":1148,"correct":true,"confidence":1},{"trial_n":130,"min":85,"max":170,"target":"absent","response":"absent","rt":977,"correct":true,"confidence":1},{"trial_n":131,"min":86,"max":169,"target":"absent","response":"absent","rt":819,"correct":true,"confidence":2},{"trial_n":132,"min":86,"max":169,"target":"present","response":"present","rt":2164,"correct":true,"confidence":3},{"trial_n":133,"min":87,"max":168,"target":"present","response":"present","rt":1618,"correct":true,"confidence":1},{"trial_n":134,"min":87,"max":168,"target":"present","response":"absent","rt":1244,"correct":false,"confidence":1},{"trial_n":135,"min":86,"max":169,"target":"present","response":"present","rt":1025,"correct":true,"confidence":3},{"trial_n":136,"min":86,"max":169,"target":"absent","response":"absent","rt":905,"correct":true,"confidence":4},{"trial_n":137,"min":87,"max":168,"target":"present","response":"present","rt":1109.0000000002,"correct":true,"confidence":5},{"trial_n":138,"min":87,"max":168,"target":"absent","response":"absent","rt":1422.0000000002,"correct":true,"confidence":4},{"trial_n":139,"min":88,"max":167,"target":"present","response":"present","rt":1751,"correct":true,"confidence":3},{"trial_n":140,"min":88,"max":167,"target":"present","response":"present","rt":1606,"correct":true,"confidence":4}]