[{"trial_n":1,"n_dots":4.25,"target":"left","response":"left","rt":9735.8999999762,"correct":true,"confidence":-1},{"trial_n":2,"n_dots":4.25,"target":"right","response":"right","rt":648.89999997616,"correct":true,"confidence":-1},{"trial_n":3,"n_dots":3.85,"target":"left","response":"left","rt":849.59999990463,"correct":true,"confidence":-1},{"trial_n":4,"n_dots":3.85,"target":"right","response":"left","rt":746.5,"correct":false,"confidence":-1},{"trial_n":5,"n_dots":4.25,"target":"right","response":"right","rt":374.89999997616,"correct":true,"confidence":-1},{"trial_n":6,"n_dots":4.25,"target":"left","response":"left","rt":523.79999995232,"correct":true,"confidence":-1},{"trial_n":7,"n_dots":3.85,"target":"right","response":"right","rt":370.39999997616,"correct":true,"confidence":-1},{"trial_n":8,"n_dots":3.85,"target":"right","response":"right","rt":450.90000009537,"correct":true,"confidence":-1},{"trial_n":9,"n_dots":3.65,"target":"right","response":"left","rt":451.5,"correct":false,"confidence":-1},{"trial_n":10,"n_dots":3.85,"target":"left","response":"left","rt":376.79999995232,"correct":true,"confidence":-1},{"trial_n":11,"n_dots":3.85,"target":"right","response":"right","rt":699.09999990463,"correct":true,"confidence":-1},{"trial_n":12,"n_dots":3.65,"target":"right","response":"right","rt":386.09999990463,"correct":true,"confidence":-1},{"trial_n":13,"n_dots":3.65,"target":"left","response":"left","rt":404.90000009537,"correct":true,"confidence":-1},{"trial_n":14,"n_dots":3.55,"target":"left","response":"left","rt":481.60000002384,"correct":true,"confidence":-1},{"trial_n":15,"n_dots":3.55,"target":"left","response":"right","rt":1001.6000000238,"correct":false,"confidence":-1},{"trial_n":16,"n_dots":3.65,"target":"left","response":"left","rt":314.90000009537,"correct":true,"confidence":-1},{"trial_n":17,"n_dots":3.65,"target":"right","response":"right","rt":323.5,"correct":true,"confidence":-1},{"trial_n":18,"n_dots":3.55,"target":"right","response":"left","rt":418.09999990463,"correct":false,"confidence":-1},{"trial_n":19,"n_dots":3.65,"target":"right","response":"right","rt":96.800000071526,"correct":true,"confidence":-1},{"trial_n":20,"n_dots":3.65,"target":"left","response":"left","rt":307.39999997616,"correct":true,"confidence":-1},{"trial_n":21,"n_dots":3.55,"target":"right","response":"right","rt":258.80000007153,"correct":true,"confidence":3},{"trial_n":22,"n_dots":3.55,"target":"left","response":"right","rt":212.60000002384,"correct":false,"confidence":2},{"trial_n":23,"n_dots":3.65,"target":"right","response":"left","rt":715.39999997616,"correct":false,"confidence":2},{"trial_n":24,"n_dots":3.75,"target":"right","response":"right","rt":567.20000004768,"correct":true,"confidence":3},{"trial_n":25,"n_dots":3.75,"target":"left","response":"left","rt":271.60000002384,"correct":true,"confidence":4},{"trial_n":26,"n_dots":3.65,"target":"left","response":"left","rt":652.70000004768,"correct":true,"confidence":3},{"trial_n":27,"n_dots":3.65,"target":"right","response":"right","rt":312.59999990463,"correct":true,"confidence":2},{"trial_n":28,"n_dots":3.55,"target":"left","response":"left","rt":1361.2000000477,"correct":true,"confidence":3},{"trial_n":29,"n_dots":3.55,"target":"left","response":"left","rt":3592.5,"correct":true,"confidence":2},{"trial_n":30,"n_dots":3.45,"target":"left","response":"right","rt":1455,"correct":false,"confidence":1},{"trial_n":31,"n_dots":3.55,"target":"left","response":"left","rt":1011.8000000715,"correct":true,"confidence":2},{"trial_n":32,"n_dots":3.55,"target":"right","response":"right","rt":958.5,"correct":true,"confidence":3},{"trial_n":33,"n_dots":3.45,"target":"right","response":"right","rt":926.09999990463,"correct":true,"confidence":2},{"trial_n":34,"n_dots":3.45,"target":"right","response":"right","rt":1278.5,"correct":true,"confidence":1},{"trial_n":35,"n_dots":3.35,"target":"right","response":"right","rt":1512.8999999762,"correct":true,"confidence":2},{"trial_n":36,"n_dots":3.35,"target":"right","response":"right","rt":1074.9000000954,"correct":true,"confidence":3},{"trial_n":37,"n_dots":3.25,"target":"left","response":"left","rt":758.19999992847,"correct":true,"confidence":4},{"trial_n":38,"n_dots":3.25,"target":"left","response":"left","rt":854.79999995232,"correct":true,"confidence":4},{"trial_n":39,"n_dots":3.15,"target":"left","response":"left","rt":1007.9000000954,"correct":true,"confidence":3},{"trial_n":40,"n_dots":3.15,"target":"right","response":"left","rt":1177.1000000238,"correct":false,"confidence":2},{"trial_n":41,"n_dots":3.25,"target":"left","response":"left","rt":899.89999997616,"correct":true,"confidence":3},{"trial_n":42,"n_dots":3.25,"target":"left","response":"left","rt":581.69999992847,"correct":true,"confidence":3},{"trial_n":43,"n_dots":3.15,"target":"left","response":"right","rt":860.60000002384,"correct":false,"confidence":2},{"trial_n":44,"n_dots":3.25,"target":"right","response":"right","rt":1272.6000000238,"correct":true,"confidence":1},{"trial_n":45,"n_dots":3.25,"target":"left","response":"left","rt":678,"correct":true,"confidence":2},{"trial_n":46,"n_dots":3.15,"target":"right","response":"right","rt":956.29999995232,"correct":true,"confidence":2},{"trial_n":47,"n_dots":3.15,"target":"right","response":"left","rt":943.89999997616,"correct":false,"confidence":2},{"trial_n":48,"n_dots":3.25,"target":"left","response":"left","rt":646.60000002384,"correct":true,"confidence":2},{"trial_n":49,"n_dots":3.25,"target":"left","response":"right","rt":870.10000002384,"correct":false,"confidence":3},{"trial_n":50,"n_dots":3.35,"target":"right","response":"right","rt":991.5,"correct":true,"confidence":2},{"trial_n":51,"n_dots":3.35,"target":"right","response":"right","rt":796.69999992847,"correct":true,"confidence":2},{"trial_n":52,"n_dots":3.25,"target":"left","response":"right","rt":940.20000004768,"correct":false,"confidence":4},{"trial_n":53,"n_dots":3.35,"target":"right","response":"left","rt":1028,"correct":false,"confidence":1},{"trial_n":54,"n_dots":3.45,"target":"right","response":"right","rt":646.79999995232,"correct":true,"confidence":3},{"trial_n":55,"n_dots":3.45,"target":"right","response":"right","rt":1191.7999999523,"correct":true,"confidence":3},{"trial_n":56,"n_dots":3.35,"target":"right","response":"left","rt":713.60000002384,"correct":false,"confidence":2},{"trial_n":57,"n_dots":3.45,"target":"right","response":"right","rt":488.60000002384,"correct":true,"confidence":3},{"trial_n":58,"n_dots":3.45,"target":"left","response":"left","rt":568.69999992847,"correct":true,"confidence":2},{"trial_n":59,"n_dots":3.35,"target":"left","response":"left","rt":569.59999990463,"correct":true,"confidence":4},{"trial_n":60,"n_dots":3.35,"target":"right","response":"right","rt":596.89999997616,"correct":true,"confidence":3},{"trial_n":61,"n_dots":3.25,"target":"left","response":"left","rt":1265,"correct":true,"confidence":1},{"trial_n":62,"n_dots":3.25,"target":"left","response":"left","rt":987.59999990463,"correct":true,"confidence":3},{"trial_n":63,"n_dots":3.15,"target":"right","response":"right","rt":1364.6000000238,"correct":true,"confidence":3},{"trial_n":64,"n_dots":3.15,"target":"right","response":"right","rt":1528.2999999523,"correct":true,"confidence":3},{"trial_n":65,"n_dots":3.05,"target":"right","response":"right","rt":2395.7999999523,"correct":true,"confidence":3},{"trial_n":66,"n_dots":3.05,"target":"left","response":"left","rt":870.89999997616,"correct":true,"confidence":2},{"trial_n":67,"n_dots":2.95,"target":"left","response":"right","rt":784,"correct":false,"confidence":1},{"trial_n":68,"n_dots":3.05,"target":"left","response":"right","rt":1159.2999999523,"correct":false,"confidence":1},{"trial_n":69,"n_dots":3.15,"target":"right","response":"right","rt":610.20000004768,"correct":true,"confidence":3},{"trial_n":70,"n_dots":3.15,"target":"left","response":"left","rt":468.39999997616,"correct":true,"confidence":2},{"trial_n":71,"n_dots":3.05,"target":"right","response":"right","rt":1287.2000000477,"correct":true,"confidence":2},{"trial_n":72,"n_dots":3.05,"target":"left","response":"left","rt":480.19999992847,"correct":true,"confidence":3},{"trial_n":73,"n_dots":2.95,"target":"right","response":"right","rt":1123,"correct":true,"confidence":4},{"trial_n":74,"n_dots":2.95,"target":"right","response":"left","rt":1471.5,"correct":false,"confidence":1},{"trial_n":75,"n_dots":3.05,"target":"right","response":"right","rt":1019.7999999523,"correct":true,"confidence":3},{"trial_n":76,"n_dots":3.05,"target":"left","response":"right","rt":1724.6000000238,"correct":false,"confidence":3},{"trial_n":77,"n_dots":3.15,"target":"right","response":"right","rt":816.79999995232,"correct":true,"confidence":1},{"trial_n":78,"n_dots":3.15,"target":"right","response":"right","rt":1194,"correct":true,"confidence":2},{"trial_n":79,"n_dots":3.05,"target":"right","response":"left","rt":1051.2999999523,"correct":false,"confidence":3},{"trial_n":80,"n_dots":3.15,"target":"left","response":"left","rt":1245,"correct":true,"confidence":2},{"trial_n":81,"n_dots":3.15,"target":"right","response":"right","rt":467.5,"correct":true,"confidence":3},{"trial_n":82,"n_dots":3.05,"target":"right","response":"right","rt":863.5,"correct":true,"confidence":2},{"trial_n":83,"n_dots":3.05,"target":"left","response":"left","rt":617.39999997616,"correct":true,"confidence":3},{"trial_n":84,"n_dots":2.95,"target":"left","response":"left","rt":847.29999995232,"correct":true,"confidence":2},{"trial_n":85,"n_dots":2.95,"target":"left","response":"right","rt":604.89999997616,"correct":false,"confidence":4},{"trial_n":86,"n_dots":3.05,"target":"left","response":"left","rt":374.10000002384,"correct":true,"confidence":4},{"trial_n":87,"n_dots":3.05,"target":"right","response":"right","rt":569,"correct":true,"confidence":5},{"trial_n":88,"n_dots":2.95,"target":"left","response":"left","rt":513.29999995232,"correct":true,"confidence":3},{"trial_n":89,"n_dots":2.95,"target":"right","response":"right","rt":614.89999997616,"correct":true,"confidence":3},{"trial_n":90,"n_dots":2.85,"target":"left","response":"left","rt":502.39999997616,"correct":true,"confidence":3},{"trial_n":91,"n_dots":2.85,"target":"right","response":"right","rt":743.69999992847,"correct":true,"confidence":3},{"trial_n":92,"n_dots":2.75,"target":"right","response":"right","rt":930.69999992847,"correct":true,"confidence":2},{"trial_n":93,"n_dots":2.75,"target":"left","response":"left","rt":402.10000002384,"correct":true,"confidence":3},{"trial_n":94,"n_dots":2.65,"target":"left","response":"right","rt":879.29999995232,"correct":false,"confidence":2},{"trial_n":95,"n_dots":2.75,"target":"right","response":"left","rt":847.30000007153,"correct":false,"confidence":1},{"trial_n":96,"n_dots":2.85,"target":"left","response":"left","rt":516.19999992847,"correct":true,"confidence":2},{"trial_n":97,"n_dots":2.85,"target":"left","response":"right","rt":434.10000002384,"correct":false,"confidence":2},{"trial_n":98,"n_dots":2.95,"target":"left","response":"left","rt":458.29999995232,"correct":true,"confidence":1},{"trial_n":99,"n_dots":2.95,"target":"right","response":"right","rt":793.5,"correct":true,"confidence":1},{"trial_n":100,"n_dots":2.85,"target":"right","response":"right","rt":737.19999992847,"correct":true,"confidence":2},{"trial_n":101,"n_dots":2.85,"target":"left","response":"left","rt":535,"correct":true,"confidence":1},{"trial_n":102,"n_dots":2.75,"target":"left","response":"right","rt":954,"correct":false,"confidence":1},{"trial_n":103,"n_dots":2.85,"target":"right","response":"left","rt":609.19999992847,"correct":false,"confidence":2},{"trial_n":104,"n_dots":2.95,"target":"right","response":"right","rt":638.39999997616,"correct":true,"confidence":3},{"trial_n":105,"n_dots":2.95,"target":"left","response":"left","rt":1083.6000000238,"correct":true,"confidence":4},{"trial_n":106,"n_dots":2.85,"target":"left","response":"left","rt":548.10000002384,"correct":true,"confidence":2},{"trial_n":107,"n_dots":2.85,"target":"left","response":"left","rt":651.79999995232,"correct":true,"confidence":1},{"trial_n":108,"n_dots":2.75,"target":"right","response":"right","rt":646.10000002384,"correct":true,"confidence":1},{"trial_n":109,"n_dots":2.75,"target":"right","response":"right","rt":549.39999997616,"correct":true,"confidence":2},{"trial_n":110,"n_dots":2.65,"target":"left","response":"left","rt":825.70000004768,"correct":true,"confidence":1},{"trial_n":111,"n_dots":2.65,"target":"right","response":"left","rt":644.5,"correct":false,"confidence":1},{"trial_n":112,"n_dots":2.75,"target":"right","response":"right","rt":964.5,"correct":true,"confidence":2},{"trial_n":113,"n_dots":2.75,"target":"right","response":"right","rt":885.70000004768,"correct":true,"confidence":1},{"trial_n":114,"n_dots":2.65,"target":"left","response":"right","rt":1069.7000000477,"correct":false,"confidence":2},{"trial_n":115,"n_dots":2.75,"target":"left","response":"left","rt":752,"correct":true,"confidence":2},{"trial_n":116,"n_dots":2.75,"target":"right","response":"right","rt":795.40000009537,"correct":true,"confidence":3},{"trial_n":117,"n_dots":2.65,"target":"left","response":"left","rt":614.10000002384,"correct":true,"confidence":3},{"trial_n":118,"n_dots":2.65,"target":"left","response":"left","rt":694.39999997616,"correct":true,"confidence":3},{"trial_n":119,"n_dots":2.55,"target":"left","response":"right","rt":692.59999990463,"correct":false,"confidence":1},{"trial_n":120,"n_dots":2.65,"target":"left","response":"left","rt":548,"correct":true,"confidence":2}]