[{"trial_n":1,"min":25,"max":230,"target":"present","response":"absent","rt":4699.2000000477,"correct":false,"confidence":-1},{"trial_n":2,"min":25,"max":230,"target":"present","response":"present","rt":1364.5,"correct":true,"confidence":-1},{"trial_n":3,"min":25,"max":230,"target":"absent","response":"absent","rt":1284.7000000477,"correct":true,"confidence":-1},{"trial_n":4,"min":41,"max":214,"target":"absent","response":"absent","rt":666.29999995232,"correct":true,"confidence":-1},{"trial_n":5,"min":41,"max":214,"target":"present","response":"present","rt":1124.5,"correct":true,"confidence":-1},{"trial_n":6,"min":57,"max":198,"target":"present","response":"present","rt":861.39999997616,"correct":true,"confidence":-1},{"trial_n":7,"min":57,"max":198,"target":"present","response":"present","rt":809.60000002384,"correct":true,"confidence":-1},{"trial_n":8,"min":73,"max":182,"target":"present","response":"present","rt":1260.1999999285,"correct":true,"confidence":-1},{"trial_n":9,"min":73,"max":182,"target":"present","response":"present","rt":774.20000004768,"correct":true,"confidence":-1},{"trial_n":10,"min":89,"max":166,"target":"absent","response":"absent","rt":1509.2999999523,"correct":true,"confidence":-1},{"trial_n":11,"min":89,"max":166,"target":"absent","response":"absent","rt":1826.3000000715,"correct":true,"confidence":-1},{"trial_n":12,"min":97,"max":158,"target":"present","response":"absent","rt":869.70000004768,"correct":false,"confidence":-1},{"trial_n":13,"min":89,"max":166,"target":"absent","response":"absent","rt":909.10000002384,"correct":true,"confidence":-1},{"trial_n":14,"min":89,"max":166,"target":"absent","response":"present","rt":923.30000007153,"correct":false,"confidence":-1},{"trial_n":15,"min":81,"max":174,"target":"absent","response":"present","rt":1659.3999999762,"correct":false,"confidence":-1},{"trial_n":16,"min":73,"max":182,"target":"present","response":"present","rt":1503.8999999762,"correct":true,"confidence":-1},{"trial_n":17,"min":73,"max":182,"target":"absent","response":"absent","rt":1777.5,"correct":true,"confidence":-1},{"trial_n":18,"min":81,"max":174,"target":"absent","response":"absent","rt":882.70000004768,"correct":true,"confidence":-1},{"trial_n":19,"min":81,"max":174,"target":"present","response":"absent","rt":512.80000007153,"correct":false,"confidence":-1},{"trial_n":20,"min":73,"max":182,"target":"absent","response":"present","rt":1124.1999999285,"correct":false,"confidence":-1},{"trial_n":21,"min":69,"max":186,"target":"absent","response":"absent","rt":873.39999997616,"correct":true,"confidence":4},{"trial_n":22,"min":69,"max":186,"target":"present","response":"present","rt":1395.2999999523,"correct":true,"confidence":5},{"trial_n":23,"min":73,"max":182,"target":"absent","response":"absent","rt":1140.1999999285,"correct":true,"confidence":3},{"trial_n":24,"min":73,"max":182,"target":"present","response":"present","rt":739,"correct":true,"confidence":5},{"trial_n":25,"min":77,"max":178,"target":"present","response":"present","rt":1106.1000000238,"correct":true,"confidence":5},{"trial_n":26,"min":77,"max":178,"target":"absent","response":"present","rt":847.30000007153,"correct":false,"confidence":3},{"trial_n":27,"min":73,"max":182,"target":"present","response":"present","rt":1592.8000000715,"correct":true,"confidence":3},{"trial_n":28,"min":73,"max":182,"target":"present","response":"present","rt":848.5,"correct":true,"confidence":5},{"trial_n":29,"min":77,"max":178,"target":"absent","response":"absent","rt":1428.6000000238,"correct":true,"confidence":2},{"trial_n":30,"min":77,"max":178,"target":"absent","response":"absent","rt":1131.1999999285,"correct":true,"confidence":3},{"trial_n":31,"min":79,"max":176,"target":"present","response":"present","rt":2827.1000000238,"correct":true,"confidence":2},{"trial_n":32,"min":79,"max":176,"target":"absent","response":"absent","rt":1011.6000000238,"correct":true,"confidence":3},{"trial_n":33,"min":81,"max":174,"target":"absent","response":"absent","rt":1170.8000000715,"correct":true,"confidence":2},{"trial_n":34,"min":81,"max":174,"target":"absent","response":"absent","rt":1213.3000000715,"correct":true,"confidence":2},{"trial_n":35,"min":83,"max":172,"target":"absent","response":"absent","rt":953.80000007153,"correct":true,"confidence":3},{"trial_n":36,"min":83,"max":172,"target":"present","response":"present","rt":1903.5,"correct":true,"confidence":5},{"trial_n":37,"min":85,"max":170,"target":"absent","response":"absent","rt":1164.3000000715,"correct":true,"confidence":4},{"trial_n":38,"min":85,"max":170,"target":"present","response":"present","rt":1636.8000000715,"correct":true,"confidence":2},{"trial_n":39,"min":87,"max":168,"target":"present","response":"absent","rt":2196.3000000715,"correct":false,"confidence":2},{"trial_n":40,"min":85,"max":170,"target":"present","response":"absent","rt":1571.7000000477,"correct":false,"confidence":2},{"trial_n":41,"min":84,"max":171,"target":"absent","response":"absent","rt":1202.5,"correct":true,"confidence":2},{"trial_n":42,"min":84,"max":171,"target":"present","response":"present","rt":1443.6999999285,"correct":true,"confidence":2},{"trial_n":43,"min":85,"max":170,"target":"absent","response":"absent","rt":2251.4000000954,"correct":true,"confidence":2},{"trial_n":44,"min":85,"max":170,"target":"absent","response":"absent","rt":1289.2000000477,"correct":true,"confidence":2},{"trial_n":45,"min":86,"max":169,"target":"absent","response":"absent","rt":1147.8999999762,"correct":true,"confidence":2},{"trial_n":46,"min":86,"max":169,"target":"present","response":"absent","rt":2123.8999999762,"correct":false,"confidence":3},{"trial_n":47,"min":85,"max":170,"target":"absent","response":"absent","rt":1503.2000000477,"correct":true,"confidence":2},{"trial_n":48,"min":85,"max":170,"target":"absent","response":"absent","rt":1654.1999999285,"correct":true,"confidence":2},{"trial_n":49,"min":86,"max":169,"target":"present","response":"present","rt":3490.4000000954,"correct":true,"confidence":2},{"trial_n":50,"min":86,"max":169,"target":"absent","response":"present","rt":1506.1000000238,"correct":false,"confidence":1},{"trial_n":51,"min":85,"max":170,"target":"present","response":"present","rt":1229.6999999285,"correct":true,"confidence":3},{"trial_n":52,"min":85,"max":170,"target":"present","response":"present","rt":1908.2999999523,"correct":true,"confidence":3},{"trial_n":53,"min":86,"max":169,"target":"present","response":"present","rt":1221.8000000715,"correct":true,"confidence":3},{"trial_n":54,"min":86,"max":169,"target":"absent","response":"absent","rt":1642.1999999285,"correct":true,"confidence":2},{"trial_n":55,"min":87,"max":168,"target":"absent","response":"absent","rt":1464.3999999762,"correct":true,"confidence":3},{"trial_n":56,"min":87,"max":168,"target":"present","response":"absent","rt":1052,"correct":false,"confidence":2},{"trial_n":57,"min":86,"max":169,"target":"present","response":"present","rt":996.79999995232,"correct":true,"confidence":2},{"trial_n":58,"min":86,"max":169,"target":"absent","response":"absent","rt":1529.6000000238,"correct":true,"confidence":1},{"trial_n":59,"min":87,"max":168,"target":"absent","response":"absent","rt":1195.6999999285,"correct":true,"confidence":3},{"trial_n":60,"min":87,"max":168,"target":"present","response":"absent","rt":1558.7999999523,"correct":false,"confidence":1},{"trial_n":61,"min":86,"max":169,"target":"absent","response":"present","rt":1031.3999999762,"correct":false,"confidence":2},{"trial_n":62,"min":85,"max":170,"target":"present","response":"present","rt":1751.8999999762,"correct":true,"confidence":1},{"trial_n":63,"min":85,"max":170,"target":"present","response":"present","rt":1066.1000000238,"correct":true,"confidence":4},{"trial_n":64,"min":86,"max":169,"target":"present","response":"present","rt":956.59999990463,"correct":true,"confidence":2},{"trial_n":65,"min":86,"max":169,"target":"present","response":"present","rt":1349.3999999762,"correct":true,"confidence":1},{"trial_n":66,"min":87,"max":168,"target":"present","response":"absent","rt":1160.3999999762,"correct":false,"confidence":2},{"trial_n":67,"min":86,"max":169,"target":"absent","response":"absent","rt":1388.6000000238,"correct":true,"confidence":1},{"trial_n":68,"min":86,"max":169,"target":"present","response":"present","rt":1066.5999999046,"correct":true,"confidence":3},{"trial_n":69,"min":87,"max":168,"target":"present","response":"absent","rt":1706.5999999046,"correct":false,"confidence":1},{"trial_n":70,"min":86,"max":169,"target":"absent","response":"absent","rt":1394.3999999762,"correct":true,"confidence":2},{"trial_n":71,"min":41,"max":214,"target":"present","response":"present","rt":2173.6000000238,"correct":true,"confidence":-1},{"trial_n":72,"min":41,"max":214,"target":"present","response":"present","rt":1514.7000000477,"correct":true,"confidence":-1},{"trial_n":73,"min":57,"max":198,"target":"absent","response":"present","rt":1062.7000000477,"correct":false,"confidence":-1},{"trial_n":74,"min":41,"max":214,"target":"absent","response":"absent","rt":1797.3999999762,"correct":true,"confidence":-1},{"trial_n":75,"min":41,"max":214,"target":"present","response":"present","rt":1171.7000000477,"correct":true,"confidence":-1},{"trial_n":76,"min":57,"max":198,"target":"absent","response":"absent","rt":1207,"correct":true,"confidence":-1},{"trial_n":77,"min":57,"max":198,"target":"present","response":"present","rt":1915,"correct":true,"confidence":-1},{"trial_n":78,"min":73,"max":182,"target":"present","response":"present","rt":831.60000002384,"correct":true,"confidence":-1},{"trial_n":79,"min":73,"max":182,"target":"absent","response":"absent","rt":1781.8999999762,"correct":true,"confidence":-1},{"trial_n":80,"min":89,"max":166,"target":"absent","response":"absent","rt":1664.8000000715,"correct":true,"confidence":-1},{"trial_n":81,"min":89,"max":166,"target":"present","response":"absent","rt":2124.7000000477,"correct":false,"confidence":-1},{"trial_n":82,"min":81,"max":174,"target":"present","response":"present","rt":1290.1999999285,"correct":true,"confidence":-1},{"trial_n":83,"min":81,"max":174,"target":"absent","response":"present","rt":740.70000004768,"correct":false,"confidence":-1},{"trial_n":84,"min":73,"max":182,"target":"present","response":"present","rt":1920.7000000477,"correct":true,"confidence":-1},{"trial_n":85,"min":73,"max":182,"target":"absent","response":"present","rt":888.90000009537,"correct":false,"confidence":-1},{"trial_n":86,"min":65,"max":190,"target":"absent","response":"absent","rt":1284.6999999285,"correct":true,"confidence":-1},{"trial_n":87,"min":65,"max":190,"target":"present","response":"present","rt":1234.8999999762,"correct":true,"confidence":-1},{"trial_n":88,"min":73,"max":182,"target":"present","response":"present","rt":1975.4000000954,"correct":true,"confidence":-1},{"trial_n":89,"min":73,"max":182,"target":"present","response":"present","rt":640,"correct":true,"confidence":-1},{"trial_n":90,"min":81,"max":174,"target":"absent","response":"absent","rt":1854.3999999762,"correct":true,"confidence":-1},{"trial_n":91,"min":81,"max":174,"target":"present","response":"present","rt":2100.7000000477,"correct":true,"confidence":2},{"trial_n":92,"min":85,"max":170,"target":"present","response":"present","rt":1103.3999999762,"correct":true,"confidence":3},{"trial_n":93,"min":85,"max":170,"target":"present","response":"present","rt":1042.9000000954,"correct":true,"confidence":3},{"trial_n":94,"min":89,"max":166,"target":"absent","response":"absent","rt":4819.8000000715,"correct":true,"confidence":1},{"trial_n":95,"min":89,"max":166,"target":"absent","response":"absent","rt":1612.2000000477,"correct":true,"confidence":2},{"trial_n":96,"min":93,"max":162,"target":"present","response":"present","rt":1363.6999999285,"correct":true,"confidence":1},{"trial_n":97,"min":93,"max":162,"target":"absent","response":"present","rt":2186.8999999762,"correct":false,"confidence":1},{"trial_n":98,"min":89,"max":166,"target":"absent","response":"absent","rt":1345.7999999523,"correct":true,"confidence":2},{"trial_n":99,"min":89,"max":166,"target":"absent","response":"present","rt":1148.6999999285,"correct":false,"confidence":1},{"trial_n":100,"min":85,"max":170,"target":"present","response":"present","rt":751.30000007153,"correct":true,"confidence":1},{"trial_n":101,"min":85,"max":170,"target":"absent","response":"absent","rt":1022.2999999523,"correct":true,"confidence":1},{"trial_n":102,"min":87,"max":168,"target":"present","response":"present","rt":1914.5999999046,"correct":true,"confidence":1},{"trial_n":103,"min":87,"max":168,"target":"absent","response":"present","rt":1140.2999999523,"correct":false,"confidence":1},{"trial_n":104,"min":85,"max":170,"target":"absent","response":"absent","rt":1373.2000000477,"correct":true,"confidence":2},{"trial_n":105,"min":85,"max":170,"target":"absent","response":"present","rt":1303.8999999762,"correct":false,"confidence":2},{"trial_n":106,"min":83,"max":172,"target":"present","response":"absent","rt":1867.7000000477,"correct":false,"confidence":2},{"trial_n":107,"min":81,"max":174,"target":"absent","response":"absent","rt":1712.3000000715,"correct":true,"confidence":1},{"trial_n":108,"min":81,"max":174,"target":"absent","response":"absent","rt":1528.6000000238,"correct":true,"confidence":3},{"trial_n":109,"min":83,"max":172,"target":"present","response":"absent","rt":741.30000007153,"correct":false,"confidence":3},{"trial_n":110,"min":81,"max":174,"target":"present","response":"present","rt":1369.5999999046,"correct":true,"confidence":2},{"trial_n":111,"min":81,"max":174,"target":"absent","response":"absent","rt":1287,"correct":true,"confidence":3},{"trial_n":112,"min":82,"max":173,"target":"present","response":"absent","rt":847.69999992847,"correct":false,"confidence":3},{"trial_n":113,"min":81,"max":174,"target":"absent","response":"absent","rt":1060.1000000238,"correct":true,"confidence":3},{"trial_n":114,"min":81,"max":174,"target":"present","response":"present","rt":745.5,"correct":true,"confidence":2},{"trial_n":115,"min":82,"max":173,"target":"present","response":"present","rt":1389.5,"correct":true,"confidence":3},{"trial_n":116,"min":82,"max":173,"target":"absent","response":"absent","rt":1027.9000000954,"correct":true,"confidence":1},{"trial_n":117,"min":83,"max":172,"target":"present","response":"present","rt":1297.6000000238,"correct":true,"confidence":2},{"trial_n":118,"min":83,"max":172,"target":"absent","response":"absent","rt":1043,"correct":true,"confidence":1},{"trial_n":119,"min":84,"max":171,"target":"present","response":"present","rt":962.20000004768,"correct":true,"confidence":2},{"trial_n":120,"min":84,"max":171,"target":"present","response":"present","rt":1367.5,"correct":true,"confidence":2},{"trial_n":121,"min":85,"max":170,"target":"present","response":"present","rt":1500.6000000238,"correct":true,"confidence":1},{"trial_n":122,"min":85,"max":170,"target":"absent","response":"absent","rt":1808.6000000238,"correct":true,"confidence":1},{"trial_n":123,"min":86,"max":169,"target":"absent","response":"present","rt":1332.2000000477,"correct":false,"confidence":1},{"trial_n":124,"min":85,"max":170,"target":"absent","response":"present","rt":1414,"correct":false,"confidence":1},{"trial_n":125,"min":84,"max":171,"target":"absent","response":"present","rt":1445.8999999762,"correct":false,"confidence":1},{"trial_n":126,"min":83,"max":172,"target":"present","response":"present","rt":1399,"correct":true,"confidence":2},{"trial_n":127,"min":83,"max":172,"target":"present","response":"present","rt":1365.2999999523,"correct":true,"confidence":1},{"trial_n":128,"min":84,"max":171,"target":"absent","response":"absent","rt":1256.2000000477,"correct":true,"confidence":2},{"trial_n":129,"min":84,"max":171,"target":"absent","response":"present","rt":951.20000004768,"correct":false,"confidence":2},{"trial_n":130,"min":83,"max":172,"target":"absent","response":"present","rt":1171.0999999046,"correct":false,"confidence":1},{"trial_n":131,"min":82,"max":173,"target":"present","response":"absent","rt":1419.2999999523,"correct":false,"confidence":1},{"trial_n":132,"min":81,"max":174,"target":"present","response":"present","rt":1087,"correct":true,"confidence":1},{"trial_n":133,"min":81,"max":174,"target":"present","response":"present","rt":1446.5999999046,"correct":true,"confidence":2},{"trial_n":134,"min":82,"max":173,"target":"absent","response":"absent","rt":1358.3999999762,"correct":true,"confidence":1},{"trial_n":135,"min":82,"max":173,"target":"present","response":"present","rt":993.19999992847,"correct":true,"confidence":2},{"trial_n":136,"min":83,"max":172,"target":"absent","response":"absent","rt":1607.2000000477,"correct":true,"confidence":1},{"trial_n":137,"min":83,"max":172,"target":"present","response":"present","rt":3188.1999999285,"correct":true,"confidence":1},{"trial_n":138,"min":84,"max":171,"target":"absent","response":"present","rt":3188.3000000715,"correct":false,"confidence":1},{"trial_n":139,"min":83,"max":172,"target":"present","response":"present","rt":2161.3999999762,"correct":true,"confidence":2},{"trial_n":140,"min":83,"max":172,"target":"present","response":"present","rt":1363.1000000238,"correct":true,"confidence":3}]