[{"trial_n":1,"span":8,"encoder":"38870071","distractor":"38870077","target":"present","response":"present","rt":"471711","correct":true,"confidence":-1},{"trial_n":2,"span":8,"encoder":"35420132","distractor":"35520132","target":"present","response":"present","rt":"3356.6999999285","correct":true,"confidence":-1},{"trial_n":3,"span":10,"encoder":"3401979437","distractor":"3401979137","target":"absent","response":"present","rt":"1553.1000000238","correct":false,"confidence":-1},{"trial_n":4,"span":8,"encoder":"30430896","distractor":"20430896","target":"absent","response":"present","rt":"1606.7999999523","correct":false,"confidence":-1},{"trial_n":5,"span":6,"encoder":"870754","distractor":"870755","target":"present","response":"present","rt":"1906.8999999762","correct":true,"confidence":-1},{"trial_n":6,"span":6,"encoder":"859561","distractor":"859571","target":"present","response":"present","rt":"1960.8000000715","correct":true,"confidence":-1},{"trial_n":7,"span":8,"encoder":"61048075","distractor":"61008075","target":"present","response":"present","rt":"3760.1999999285","correct":true,"confidence":-1},{"trial_n":8,"span":8,"encoder":"57018208","distractor":"57014208","target":"present","response":"present","rt":"2189.1000000238","correct":true,"confidence":-1},{"trial_n":9,"span":10,"encoder":"6519518345","distractor":"6219518345","target":"absent","response":"absent","rt":"2200.3000000715","correct":true,"confidence":-1},{"trial_n":10,"span":10,"encoder":"4172846377","distractor":"4171846377","target":"present","response":"absent","rt":"351.60000002384","correct":false,"confidence":-1},{"trial_n":11,"span":8,"encoder":"39474097","distractor":"39974097","target":"present","response":"present","rt":"1912.8999999762","correct":true,"confidence":-1},{"trial_n":12,"span":8,"encoder":"86368080","distractor":"86568080","target":"absent","response":"absent","rt":"1189","correct":true,"confidence":-1},{"trial_n":13,"span":9,"encoder":"116516282","distractor":"166516282","target":"absent","response":"present","rt":"446.5","correct":false,"confidence":-1},{"trial_n":14,"span":8,"encoder":"28976995","distractor":"28976993","target":"present","response":"absent","rt":"474.79999995232","correct":false,"confidence":-1},{"trial_n":15,"span":7,"encoder":"7768965","distractor":"7768962","target":"absent","response":"present","rt":"934.89999997616","correct":false,"confidence":-1},{"trial_n":16,"span":6,"encoder":"265570","distractor":"265870","target":"absent","response":"present","rt":"761.30000007153","correct":false,"confidence":-1},{"trial_n":17,"span":5,"encoder":"87948","distractor":"17948","target":"absent","response":"present","rt":"427.60000002384","correct":false,"confidence":-1},{"trial_n":18,"span":4,"encoder":"4010","distractor":"0010","target":"absent","response":"absent","rt":"1292.5","correct":true,"confidence":-1},{"trial_n":19,"span":4,"encoder":"5764","distractor":"5064","target":"absent","response":"present","rt":"2221.6000000238","correct":false,"confidence":-1},{"trial_n":20,"span":3,"encoder":"655","distractor":"695","target":"present","response":"present","rt":"1110.5","correct":true,"confidence":-1},{"trial_n":21,"span":3,"encoder":"931","distractor":"939","target":"present","response":"present","rt":"1434.5","correct":true,"confidence":5},{"trial_n":22,"span":4,"encoder":"5205","distractor":"5202","target":"present","response":"present","rt":"2961.5999999046","correct":true,"confidence":5},{"trial_n":23,"span":4,"encoder":"9601","distractor":"9701","target":"present","response":"present","rt":"1882.1000000238","correct":true,"confidence":5},{"trial_n":24,"span":5,"encoder":"90880","distractor":"90884","target":"present","response":"present","rt":"1979","correct":true,"confidence":5},{"trial_n":25,"span":5,"encoder":"72263","distractor":"72283","target":"absent","response":"absent","rt":"2765.2000000477","correct":true,"confidence":5},{"trial_n":26,"span":6,"encoder":"605894","distractor":"605895","target":"present","response":"absent","rt":"4551.8999999762","correct":false,"confidence":5},{"trial_n":27,"span":5,"encoder":"11282","distractor":"12282","target":"present","response":"present","rt":"2044.9000000954","correct":true,"confidence":5},{"trial_n":28,"span":5,"encoder":"45462","distractor":"44462","target":"absent","response":"absent","rt":"2201.5","correct":true,"confidence":5},{"trial_n":29,"span":6,"encoder":"403778","distractor":"404778","target":"present","response":"present","rt":"2156.3999999762","correct":true,"confidence":5},{"trial_n":30,"span":6,"encoder":"606815","distractor":"706815","target":"present","response":"present","rt":"2915.5","correct":true,"confidence":5},{"trial_n":31,"span":7,"encoder":"4704685","distractor":"3704685","target":"present","response":"present","rt":"5627.6000000238","correct":true,"confidence":4},{"trial_n":32,"span":7,"encoder":"0131845","distractor":"0131815","target":"absent","response":"present","rt":"4602","correct":false,"confidence":2},{"trial_n":33,"span":6,"encoder":"609492","distractor":"909492","target":"present","response":"present","rt":"3190.5","correct":true,"confidence":3},{"trial_n":34,"span":6,"encoder":"872086","distractor":"872986","target":"absent","response":"absent","rt":"2918.7999999523","correct":true,"confidence":4},{"trial_n":35,"span":7,"encoder":"3516918","distractor":"3516911","target":"present","response":"absent","rt":"4628.5","correct":false,"confidence":1},{"trial_n":36,"span":6,"encoder":"227534","distractor":"221534","target":"absent","response":"absent","rt":"2258.3000000715","correct":true,"confidence":5},{"trial_n":37,"span":6,"encoder":"097996","distractor":"098996","target":"absent","response":"present","rt":"3507","correct":false,"confidence":5},{"trial_n":38,"span":5,"encoder":"28440","distractor":"28740","target":"absent","response":"absent","rt":"2100.7000000477","correct":true,"confidence":5},{"trial_n":39,"span":5,"encoder":"29245","distractor":"59245","target":"present","response":"present","rt":"2055.5999999046","correct":true,"confidence":5},{"trial_n":40,"span":6,"encoder":"592622","distractor":"592922","target":"present","response":"present","rt":"1993.6999999285","correct":true,"confidence":5},{"trial_n":41,"span":6,"encoder":"851278","distractor":"821278","target":"present","response":"present","rt":"3504.3999999762","correct":true,"confidence":3},{"trial_n":42,"span":7,"encoder":"2738913","distractor":"2738919","target":"present","response":"present","rt":"2781.8999999762","correct":true,"confidence":3},{"trial_n":43,"span":7,"encoder":"1263198","distractor":"6263198","target":"present","response":"present","rt":"2380.3999999762","correct":true,"confidence":5},{"trial_n":44,"span":8,"encoder":"58548801","distractor":"38548801","target":"present","response":"present","rt":"2064.5","correct":true,"confidence":5},{"trial_n":45,"span":8,"encoder":"14464590","distractor":"14494590","target":"absent","response":"present","rt":"4546.2999999523","correct":false,"confidence":3},{"trial_n":46,"span":7,"encoder":"4756419","distractor":"4256419","target":"absent","response":"absent","rt":"2059.7000000477","correct":true,"confidence":5},{"trial_n":47,"span":7,"encoder":"3400005","distractor":"3400004","target":"absent","response":"absent","rt":"1920.7000000477","correct":true,"confidence":5},{"trial_n":48,"span":8,"encoder":"63577513","distractor":"60577513","target":"absent","response":"present","rt":"4754","correct":false,"confidence":5},{"trial_n":49,"span":7,"encoder":"2956946","distractor":"2956246","target":"absent","response":"absent","rt":"3352.2999999523","correct":true,"confidence":4},{"trial_n":50,"span":7,"encoder":"4300398","distractor":"4300598","target":"absent","response":"absent","rt":"9319","correct":true,"confidence":3},{"trial_n":51,"span":8,"encoder":"51592865","distractor":"51592869","target":"present","response":"present","rt":"3078.4000000954","correct":true,"confidence":3},{"trial_n":52,"span":8,"encoder":"20951341","distractor":"20952341","target":"absent","response":"absent","rt":"3882.2999999523","correct":true,"confidence":4},{"trial_n":53,"span":9,"encoder":"403387771","distractor":"403387774","target":"present","response":"present","rt":"2799.1000000238","correct":true,"confidence":4},{"trial_n":54,"span":9,"encoder":"462689454","distractor":"462609454","target":"absent","response":"present","rt":"2698.2999999523","correct":false,"confidence":2},{"trial_n":55,"span":8,"encoder":"07816196","distractor":"07616196","target":"present","response":"present","rt":"3572.3999999762","correct":true,"confidence":5},{"trial_n":56,"span":8,"encoder":"61924565","distractor":"61924515","target":"absent","response":"absent","rt":"1999","correct":true,"confidence":5},{"trial_n":57,"span":9,"encoder":"429208177","distractor":"429208187","target":"present","response":"present","rt":"3366.3000000715","correct":true,"confidence":3},{"trial_n":58,"span":9,"encoder":"075149789","distractor":"075144789","target":"absent","response":"absent","rt":"4019.2000000477","correct":true,"confidence":2},{"trial_n":59,"span":10,"encoder":"7329030274","distractor":"5329030274","target":"absent","response":"absent","rt":"5029.1999999285","correct":true,"confidence":1},{"trial_n":60,"span":10,"encoder":"1449013057","distractor":"1442013057","target":"absent","response":"absent","rt":"2914.9000000954","correct":true,"confidence":5},{"trial_n":61,"span":11,"encoder":"24158335100","distractor":"24158335300","target":"present","response":"present","rt":"1980.1000000238","correct":true,"confidence":3},{"trial_n":62,"span":11,"encoder":"78244979659","distractor":"78244979657","target":"absent","response":"present","rt":"2616.5","correct":false,"confidence":4},{"trial_n":63,"span":10,"encoder":"2815665121","distractor":"2815665921","target":"absent","response":"present","rt":"7565.0999999046","correct":false,"confidence":4},{"trial_n":64,"span":9,"encoder":"676218023","distractor":"674218023","target":"absent","response":"absent","rt":"2158.5","correct":true,"confidence":5},{"trial_n":65,"span":9,"encoder":"591698158","distractor":"591688158","target":"absent","response":"absent","rt":"2747.6999999285","correct":true,"confidence":5},{"trial_n":66,"span":10,"encoder":"1821615894","distractor":"1821675894","target":"absent","response":"absent","rt":"3183.2000000477","correct":true,"confidence":5},{"trial_n":67,"span":10,"encoder":"1207220673","distractor":"1207220677","target":"present","response":"present","rt":"3777.1999999285","correct":true,"confidence":4},{"trial_n":68,"span":11,"encoder":"03172170345","distractor":"23172170345","target":"present","response":"absent","rt":"3544.1999999285","correct":false,"confidence":1},{"trial_n":69,"span":10,"encoder":"5771669480","distractor":"5771269480","target":"present","response":"present","rt":"2583.1000000238","correct":true,"confidence":4},{"trial_n":70,"span":10,"encoder":"8697030293","distractor":"9697030293","target":"present","response":"absent","rt":"4333.7000000477","correct":false,"confidence":4},{"trial_n":71,"span":8,"encoder":"97631990","distractor":"97231990","target":"present","response":"present","rt":"4528.5","correct":true,"confidence":-1},{"trial_n":72,"span":8,"encoder":"86270791","distractor":"87270791","target":"present","response":"absent","rt":"6081.7999999523","correct":false,"confidence":-1},{"trial_n":73,"span":7,"encoder":"4819982","distractor":"4819962","target":"absent","response":"absent","rt":"2263.5999999046","correct":true,"confidence":-1},{"trial_n":74,"span":7,"encoder":"2261297","distractor":"2361297","target":"absent","response":"absent","rt":"4976.0999999046","correct":true,"confidence":-1},{"trial_n":75,"span":8,"encoder":"47354115","distractor":"47314115","target":"present","response":"present","rt":"4750.1000000238","correct":true,"confidence":-1},{"trial_n":76,"span":8,"encoder":"71358501","distractor":"71398501","target":"absent","response":"absent","rt":"7306","correct":true,"confidence":-1},{"trial_n":77,"span":9,"encoder":"679273141","distractor":"679277141","target":"present","response":"present","rt":"606.39999997616","correct":true,"confidence":-1},{"trial_n":78,"span":9,"encoder":"424061107","distractor":"424061103","target":"present","response":"present","rt":"1083.8999999762","correct":true,"confidence":-1},{"trial_n":79,"span":10,"encoder":"4813532003","distractor":"4313532003","target":"absent","response":"absent","rt":"907.29999995232","correct":true,"confidence":-1},{"trial_n":80,"span":10,"encoder":"9736391777","distractor":"9736392777","target":"absent","response":"absent","rt":"2858.8999999762","correct":true,"confidence":-1},{"trial_n":81,"span":11,"encoder":"60348567170","distractor":"60348567178","target":"absent","response":"absent","rt":"2614.2000000477","correct":true,"confidence":-1},{"trial_n":82,"span":11,"encoder":"77275417058","distractor":"77275417050","target":"present","response":"present","rt":"744.5","correct":true,"confidence":-1},{"trial_n":83,"span":12,"encoder":"883021739483","distractor":"883021739484","target":"absent","response":"absent","rt":"2212.5","correct":true,"confidence":-1},{"trial_n":84,"span":12,"encoder":"987043642001","distractor":"987043622001","target":"present","response":"present","rt":"1432.5","correct":true,"confidence":-1},{"trial_n":85,"span":13,"encoder":"4412190915038","distractor":"4412196915038","target":"absent","response":"absent","rt":"1053","correct":true,"confidence":-1},{"trial_n":86,"span":13,"encoder":"3549169997799","distractor":"3549149997799","target":"absent","response":"present","rt":"5100.3999999762","correct":false,"confidence":-1},{"trial_n":87,"span":12,"encoder":"306372281728","distractor":"306372281628","target":"absent","response":"present","rt":"1692.3999999762","correct":false,"confidence":-1},{"trial_n":88,"span":11,"encoder":"64177346653","distractor":"64157346653","target":"present","response":"absent","rt":"3246.1000000238","correct":false,"confidence":-1},{"trial_n":89,"span":10,"encoder":"8563432608","distractor":"8563462608","target":"absent","response":"absent","rt":"1379.8999999762","correct":true,"confidence":-1},{"trial_n":90,"span":10,"encoder":"1965312094","distractor":"1965310094","target":"present","response":"absent","rt":"1512.6000000238","correct":false,"confidence":-1},{"trial_n":91,"span":9,"encoder":"848411468","distractor":"848711468","target":"present","response":"present","rt":"4479.6000000238","correct":true,"confidence":5},{"trial_n":92,"span":9,"encoder":"236258030","distractor":"236238030","target":"present","response":"absent","rt":"9473.1000000238","correct":false,"confidence":3},{"trial_n":93,"span":8,"encoder":"26595731","distractor":"26595738","target":"absent","response":"present","rt":"7243.1000000238","correct":false,"confidence":2},{"trial_n":94,"span":7,"encoder":"1964945","distractor":"7964945","target":"present","response":"present","rt":"11899.600000024","correct":true,"confidence":5},{"trial_n":95,"span":7,"encoder":"9892348","distractor":"9292348","target":"present","response":"present","rt":"3933.2000000477","correct":true,"confidence":5},{"trial_n":96,"span":8,"encoder":"37968685","distractor":"37568685","target":"present","response":"present","rt":"3889.7999999523","correct":true,"confidence":5},{"trial_n":97,"span":8,"encoder":"26565968","distractor":"26569968","target":"present","response":"present","rt":"3844.2999999523","correct":true,"confidence":4},{"trial_n":98,"span":9,"encoder":"083933297","distractor":"083233297","target":"absent","response":"absent","rt":"8709","correct":true,"confidence":4},{"trial_n":99,"span":9,"encoder":"378030081","distractor":"078030081","target":"absent","response":"absent","rt":"5822.7999999523","correct":true,"confidence":4},{"trial_n":100,"span":10,"encoder":"0746866498","distractor":"0746886498","target":"absent","response":"absent","rt":"9051","correct":true,"confidence":2},{"trial_n":101,"span":10,"encoder":"9938187881","distractor":"9968187881","target":"present","response":"absent","rt":"8519.3999999762","correct":false,"confidence":3},{"trial_n":102,"span":9,"encoder":"548779676","distractor":"548779576","target":"present","response":"absent","rt":"4793.8000000715","correct":false,"confidence":3},{"trial_n":103,"span":8,"encoder":"03785066","distractor":"03785064","target":"absent","response":"absent","rt":"2825.8999999762","correct":true,"confidence":5},{"trial_n":104,"span":8,"encoder":"42617754","distractor":"82617754","target":"present","response":"present","rt":"3666.5","correct":true,"confidence":4},{"trial_n":105,"span":9,"encoder":"362687105","distractor":"262687105","target":"absent","response":"absent","rt":"3323.5","correct":true,"confidence":5},{"trial_n":106,"span":9,"encoder":"878588975","distractor":"898588975","target":"absent","response":"absent","rt":"2530.8999999762","correct":true,"confidence":5},{"trial_n":107,"span":10,"encoder":"6977301749","distractor":"6977301949","target":"absent","response":"present","rt":"6356","correct":false,"confidence":3},{"trial_n":108,"span":9,"encoder":"522345266","distractor":"572345266","target":"absent","response":"present","rt":"6809.5","correct":false,"confidence":1},{"trial_n":109,"span":8,"encoder":"47931126","distractor":"47931121","target":"present","response":"present","rt":"3874.1000000238","correct":true,"confidence":3},{"trial_n":110,"span":8,"encoder":"64992197","distractor":"64992597","target":"present","response":"present","rt":"2166.2000000477","correct":true,"confidence":1},{"trial_n":111,"span":9,"encoder":"144566965","distractor":"144666965","target":"present","response":"present","rt":"7253.5","correct":true,"confidence":4},{"trial_n":112,"span":9,"encoder":"850022036","distractor":"850022031","target":"present","response":"absent","rt":"9146.7000000477","correct":false,"confidence":2},{"trial_n":113,"span":8,"encoder":"34739908","distractor":"34739308","target":"absent","response":"absent","rt":"5830.6000000238","correct":true,"confidence":3},{"trial_n":114,"span":8,"encoder":"66701533","distractor":"66701633","target":"absent","response":"absent","rt":"3139.7999999523","correct":true,"confidence":4},{"trial_n":115,"span":9,"encoder":"347259047","distractor":"347259007","target":"absent","response":"absent","rt":"2468.9000000954","correct":true,"confidence":5},{"trial_n":116,"span":9,"encoder":"909537449","distractor":"905537449","target":"present","response":"present","rt":"11949.399999976","correct":true,"confidence":3},{"trial_n":117,"span":10,"encoder":"1667057111","distractor":"1667057151","target":"absent","response":"absent","rt":"2589.1999999285","correct":true,"confidence":5},{"trial_n":118,"span":10,"encoder":"8989373908","distractor":"8989375908","target":"absent","response":"absent","rt":"3713.3000000715","correct":true,"confidence":5},{"trial_n":119,"span":11,"encoder":"72482135694","distractor":"72482135394","target":"present","response":"present","rt":"5019.8999999762","correct":true,"confidence":5},{"trial_n":120,"span":11,"encoder":"06492818514","distractor":"06492818504","target":"present","response":"present","rt":"4512.6000000238","correct":true,"confidence":4},{"trial_n":121,"span":12,"encoder":"293007471841","distractor":"294007471841","target":"absent","response":"absent","rt":"8266.2000000477","correct":true,"confidence":1},{"trial_n":122,"span":12,"encoder":"775248410091","distractor":"775248410061","target":"present","response":"present","rt":"2474.7999999523","correct":true,"confidence":3},{"trial_n":123,"span":13,"encoder":"6391399391498","distractor":"6311399391498","target":"absent","response":"present","rt":"2752.3999999762","correct":false,"confidence":1},{"trial_n":124,"span":12,"encoder":"268042027376","distractor":"268442027376","target":"present","response":"present","rt":"15705.700000048","correct":true,"confidence":2},{"trial_n":125,"span":12,"encoder":"684957588952","distractor":"684957288952","target":"absent","response":"absent","rt":"19181.600000024","correct":true,"confidence":1},{"trial_n":126,"span":13,"encoder":"9414425637957","distractor":"9014425637957","target":"absent","response":"present","rt":"13999.5","correct":false,"confidence":2},{"trial_n":127,"span":12,"encoder":"675810311099","distractor":"679810311099","target":"absent","response":"absent","rt":"13831.800000072","correct":true,"confidence":4},{"trial_n":128,"span":12,"encoder":"221441915775","distractor":"221441912775","target":"present","response":"absent","rt":"5009.5","correct":false,"confidence":1},{"trial_n":129,"span":11,"encoder":"00674542963","distractor":"00675542963","target":"absent","response":"absent","rt":"2976.2000000477","correct":true,"confidence":5},{"trial_n":130,"span":11,"encoder":"89646411529","distractor":"89346411529","target":"present","response":"present","rt":"3062.1000000238","correct":true,"confidence":4},{"trial_n":131,"span":12,"encoder":"052656485830","distractor":"052656488830","target":"present","response":"present","rt":"3677.8999999762","correct":true,"confidence":5},{"trial_n":132,"span":12,"encoder":"930468209723","distractor":"930468279723","target":"present","response":"present","rt":"10321.5","correct":true,"confidence":1},{"trial_n":133,"span":13,"encoder":"3307889034036","distractor":"3307889034636","target":"absent","response":"absent","rt":"5751.9000000954","correct":true,"confidence":2},{"trial_n":134,"span":13,"encoder":"3795014905073","distractor":"0795014905073","target":"absent","response":"absent","rt":"2334.1000000238","correct":true,"confidence":5},{"trial_n":135,"span":14,"encoder":"78979921849532","distractor":"78979921849537","target":"present","response":"absent","rt":"8737","correct":false,"confidence":1},{"trial_n":136,"span":13,"encoder":"1702753158816","distractor":"1702753958816","target":"present","response":"present","rt":"12307.400000095","correct":true,"confidence":1},{"trial_n":137,"span":13,"encoder":"1107339017752","distractor":"9107339017752","target":"present","response":"present","rt":"4421.5","correct":true,"confidence":5},{"trial_n":138,"span":14,"encoder":"14263327209370","distractor":"14263327209570","target":"present","response":"present","rt":"9624.3000000715","correct":true,"confidence":1},{"trial_n":139,"span":14,"encoder":"45109416505169","distractor":"45109416205169","target":"absent","response":"absent","rt":"7860.1000000238","correct":true,"confidence":1},{"trial_n":140,"span":15,"encoder":"047954381061309","distractor":"047354381061309","target":"present","response":"present","rt":"12565.600000024","correct":true,"confidence":2}]