[{"trial_n":1,"n_dots":4.25,"target":"left","response":"right","rt":4214,"correct":false,"confidence":-1},{"trial_n":2,"n_dots":4.25,"target":"left","response":"left","rt":1040,"correct":true,"confidence":-1},{"trial_n":3,"n_dots":4.25,"target":"right","response":"left","rt":721,"correct":false,"confidence":-1},{"trial_n":4,"n_dots":4.65,"target":"right","response":"right","rt":473,"correct":true,"confidence":-1},{"trial_n":5,"n_dots":4.65,"target":"right","response":"right","rt":588,"correct":true,"confidence":-1},{"trial_n":6,"n_dots":4.25,"target":"left","response":"left","rt":672,"correct":true,"confidence":-1},{"trial_n":7,"n_dots":4.25,"target":"right","response":"right","rt":606,"correct":true,"confidence":-1},{"trial_n":8,"n_dots":4.05,"target":"right","response":"right","rt":556.00000000001,"correct":true,"confidence":-1},{"trial_n":9,"n_dots":4.05,"target":"right","response":"left","rt":726.99999999999,"correct":false,"confidence":-1},{"trial_n":10,"n_dots":4.25,"target":"right","response":"left","rt":857,"correct":false,"confidence":-1},{"trial_n":11,"n_dots":4.45,"target":"right","response":"right","rt":730.99999999999,"correct":true,"confidence":-1},{"trial_n":12,"n_dots":4.45,"target":"right","response":"right","rt":-6,"correct":true,"confidence":-1},{"trial_n":13,"n_dots":4.35,"target":"right","response":"right","rt":399,"correct":true,"confidence":-1},{"trial_n":14,"n_dots":4.35,"target":"right","response":"right","rt":1359,"correct":true,"confidence":-1},{"trial_n":15,"n_dots":4.25,"target":"right","response":"right","rt":538,"correct":true,"confidence":-1},{"trial_n":16,"n_dots":4.25,"target":"left","response":"left","rt":643,"correct":true,"confidence":-1},{"trial_n":17,"n_dots":4.15,"target":"left","response":"left","rt":662,"correct":true,"confidence":-1},{"trial_n":18,"n_dots":4.15,"target":"right","response":"right","rt":732,"correct":true,"confidence":-1},{"trial_n":19,"n_dots":4.05,"target":"right","response":"right","rt":713,"correct":true,"confidence":-1},{"trial_n":20,"n_dots":4.05,"target":"right","response":"right","rt":713,"correct":true,"confidence":-1},{"trial_n":21,"n_dots":3.95,"target":"right","response":"right","rt":821,"correct":true,"confidence":3},{"trial_n":22,"n_dots":3.95,"target":"left","response":"left","rt":518.99999999999,"correct":true,"confidence":4},{"trial_n":23,"n_dots":3.85,"target":"right","response":"right","rt":743,"correct":true,"confidence":4},{"trial_n":24,"n_dots":3.85,"target":"right","response":"right","rt":637,"correct":true,"confidence":4},{"trial_n":25,"n_dots":3.75,"target":"left","response":"left","rt":810.99999999997,"correct":true,"confidence":2},{"trial_n":26,"n_dots":3.75,"target":"right","response":"right","rt":712,"correct":true,"confidence":4},{"trial_n":27,"n_dots":3.65,"target":"left","response":"left","rt":551,"correct":true,"confidence":3},{"trial_n":28,"n_dots":3.65,"target":"right","response":"right","rt":711,"correct":true,"confidence":3},{"trial_n":29,"n_dots":3.55,"target":"right","response":"left","rt":580,"correct":false,"confidence":2},{"trial_n":30,"n_dots":3.65,"target":"right","response":"right","rt":636,"correct":true,"confidence":4},{"trial_n":31,"n_dots":3.65,"target":"right","response":"right","rt":563.99999999997,"correct":true,"confidence":4},{"trial_n":32,"n_dots":3.55,"target":"left","response":"right","rt":1690,"correct":false,"confidence":2},{"trial_n":33,"n_dots":3.65,"target":"left","response":"right","rt":720,"correct":false,"confidence":2},{"trial_n":34,"n_dots":3.75,"target":"left","response":"left","rt":450.99999999997,"correct":true,"confidence":1},{"trial_n":35,"n_dots":3.75,"target":"right","response":"right","rt":797,"correct":true,"confidence":3},{"trial_n":36,"n_dots":3.65,"target":"right","response":"right","rt":698.00000000003,"correct":true,"confidence":3},{"trial_n":37,"n_dots":3.65,"target":"right","response":"right","rt":666,"correct":true,"confidence":3},{"trial_n":38,"n_dots":3.55,"target":"left","response":"left","rt":386,"correct":true,"confidence":4},{"trial_n":39,"n_dots":3.55,"target":"left","response":"left","rt":525,"correct":true,"confidence":4},{"trial_n":40,"n_dots":3.45,"target":"right","response":"right","rt":640,"correct":true,"confidence":3},{"trial_n":41,"n_dots":3.45,"target":"left","response":"left","rt":695,"correct":true,"confidence":2},{"trial_n":42,"n_dots":3.35,"target":"left","response":"right","rt":753,"correct":false,"confidence":1},{"trial_n":43,"n_dots":3.45,"target":"right","response":"left","rt":375,"correct":false,"confidence":1},{"trial_n":44,"n_dots":3.55,"target":"right","response":"right","rt":480,"correct":true,"confidence":4},{"trial_n":45,"n_dots":3.55,"target":"right","response":"right","rt":505,"correct":true,"confidence":3},{"trial_n":46,"n_dots":3.45,"target":"left","response":"right","rt":878,"correct":false,"confidence":2},{"trial_n":47,"n_dots":3.55,"target":"right","response":"right","rt":915.00000000006,"correct":true,"confidence":1},{"trial_n":48,"n_dots":3.55,"target":"left","response":"left","rt":558,"correct":true,"confidence":1},{"trial_n":49,"n_dots":3.45,"target":"left","response":"right","rt":454,"correct":false,"confidence":2},{"trial_n":50,"n_dots":3.55,"target":"left","response":"left","rt":1668,"correct":true,"confidence":1},{"trial_n":51,"n_dots":3.55,"target":"right","response":"right","rt":465,"correct":true,"confidence":4},{"trial_n":52,"n_dots":3.45,"target":"left","response":"left","rt":342,"correct":true,"confidence":4},{"trial_n":53,"n_dots":3.45,"target":"left","response":"left","rt":670,"correct":true,"confidence":4},{"trial_n":54,"n_dots":3.35,"target":"right","response":"right","rt":365,"correct":true,"confidence":4},{"trial_n":55,"n_dots":3.35,"target":"left","response":"left","rt":1039,"correct":true,"confidence":1},{"trial_n":56,"n_dots":3.25,"target":"left","response":"left","rt":433,"correct":true,"confidence":3},{"trial_n":57,"n_dots":3.25,"target":"right","response":"right","rt":855,"correct":true,"confidence":1},{"trial_n":58,"n_dots":3.15,"target":"left","response":"right","rt":619,"correct":false,"confidence":3},{"trial_n":59,"n_dots":3.25,"target":"left","response":"left","rt":328,"correct":true,"confidence":4},{"trial_n":60,"n_dots":3.25,"target":"left","response":"left","rt":428.99999999994,"correct":true,"confidence":4},{"trial_n":61,"n_dots":3.15,"target":"right","response":"right","rt":565,"correct":true,"confidence":1},{"trial_n":62,"n_dots":3.15,"target":"right","response":"right","rt":555,"correct":true,"confidence":3},{"trial_n":63,"n_dots":3.05,"target":"left","response":"left","rt":436,"correct":true,"confidence":1},{"trial_n":64,"n_dots":3.05,"target":"right","response":"right","rt":468,"correct":true,"confidence":5},{"trial_n":65,"n_dots":2.95,"target":"left","response":"left","rt":2047,"correct":true,"confidence":2},{"trial_n":66,"n_dots":2.95,"target":"left","response":"right","rt":675,"correct":false,"confidence":3},{"trial_n":67,"n_dots":3.05,"target":"right","response":"right","rt":374,"correct":true,"confidence":3},{"trial_n":68,"n_dots":3.05,"target":"right","response":"right","rt":895,"correct":true,"confidence":3},{"trial_n":69,"n_dots":2.95,"target":"left","response":"right","rt":676,"correct":false,"confidence":4},{"trial_n":70,"n_dots":3.05,"target":"left","response":"right","rt":798,"correct":false,"confidence":3},{"trial_n":71,"n_dots":3.15,"target":"left","response":"left","rt":755,"correct":true,"confidence":4},{"trial_n":72,"n_dots":3.15,"target":"right","response":"right","rt":729.00000000012,"correct":true,"confidence":3},{"trial_n":73,"n_dots":3.05,"target":"left","response":"left","rt":376,"correct":true,"confidence":1},{"trial_n":74,"n_dots":3.05,"target":"left","response":"left","rt":1258,"correct":true,"confidence":2},{"trial_n":75,"n_dots":2.95,"target":"right","response":"left","rt":682,"correct":false,"confidence":3},{"trial_n":76,"n_dots":3.05,"target":"left","response":"left","rt":427,"correct":true,"confidence":4},{"trial_n":77,"n_dots":3.05,"target":"left","response":"left","rt":587,"correct":true,"confidence":4},{"trial_n":78,"n_dots":2.95,"target":"left","response":"right","rt":521,"correct":false,"confidence":3},{"trial_n":79,"n_dots":3.05,"target":"left","response":"right","rt":835,"correct":false,"confidence":2},{"trial_n":80,"n_dots":3.15,"target":"left","response":"left","rt":982.00000000012,"correct":true,"confidence":2},{"trial_n":81,"n_dots":3.15,"target":"right","response":"left","rt":566,"correct":false,"confidence":2},{"trial_n":82,"n_dots":3.25,"target":"left","response":"right","rt":1642,"correct":false,"confidence":1},{"trial_n":83,"n_dots":3.35,"target":"left","response":"right","rt":908,"correct":false,"confidence":1},{"trial_n":84,"n_dots":3.45,"target":"right","response":"right","rt":563,"correct":true,"confidence":3},{"trial_n":85,"n_dots":3.45,"target":"left","response":"left","rt":373,"correct":true,"confidence":2},{"trial_n":86,"n_dots":3.35,"target":"right","response":"right","rt":135,"correct":true,"confidence":4},{"trial_n":87,"n_dots":3.35,"target":"left","response":"right","rt":690,"correct":false,"confidence":3},{"trial_n":88,"n_dots":3.45,"target":"right","response":"right","rt":615.99999999988,"correct":true,"confidence":2},{"trial_n":89,"n_dots":3.45,"target":"left","response":"right","rt":544.00000000012,"correct":false,"confidence":4},{"trial_n":90,"n_dots":3.55,"target":"right","response":"left","rt":447,"correct":false,"confidence":3},{"trial_n":91,"n_dots":3.65,"target":"right","response":"right","rt":415.99999999988,"correct":true,"confidence":4},{"trial_n":92,"n_dots":3.65,"target":"left","response":"left","rt":243,"correct":true,"confidence":3},{"trial_n":93,"n_dots":3.55,"target":"right","response":"right","rt":212,"correct":true,"confidence":4},{"trial_n":94,"n_dots":3.55,"target":"left","response":"left","rt":428.99999999988,"correct":true,"confidence":5},{"trial_n":95,"n_dots":3.45,"target":"right","response":"right","rt":332,"correct":true,"confidence":5},{"trial_n":96,"n_dots":3.45,"target":"left","response":"left","rt":388,"correct":true,"confidence":4},{"trial_n":97,"n_dots":3.35,"target":"left","response":"right","rt":628.00000000012,"correct":false,"confidence":3},{"trial_n":98,"n_dots":3.45,"target":"left","response":"left","rt":435,"correct":true,"confidence":4},{"trial_n":99,"n_dots":3.45,"target":"left","response":"left","rt":547,"correct":true,"confidence":3},{"trial_n":100,"n_dots":3.35,"target":"right","response":"right","rt":1108,"correct":true,"confidence":1},{"trial_n":101,"n_dots":3.35,"target":"right","response":"left","rt":488,"correct":false,"confidence":1},{"trial_n":102,"n_dots":3.45,"target":"right","response":"left","rt":343,"correct":false,"confidence":1},{"trial_n":103,"n_dots":3.55,"target":"left","response":"left","rt":432,"correct":true,"confidence":3},{"trial_n":104,"n_dots":3.55,"target":"left","response":"left","rt":248.00000000012,"correct":true,"confidence":4},{"trial_n":105,"n_dots":3.45,"target":"left","response":"right","rt":80.999999999884,"correct":false,"confidence":1},{"trial_n":106,"n_dots":3.55,"target":"left","response":"left","rt":146.99999999988,"correct":true,"confidence":3},{"trial_n":107,"n_dots":3.55,"target":"right","response":"left","rt":695.99999999988,"correct":false,"confidence":3},{"trial_n":108,"n_dots":3.65,"target":"left","response":"right","rt":728,"correct":false,"confidence":2},{"trial_n":109,"n_dots":3.75,"target":"right","response":"left","rt":312,"correct":false,"confidence":2},{"trial_n":110,"n_dots":3.85,"target":"left","response":"left","rt":203.00000000023,"correct":true,"confidence":3},{"trial_n":111,"n_dots":3.85,"target":"left","response":"left","rt":568,"correct":true,"confidence":4},{"trial_n":112,"n_dots":3.75,"target":"right","response":"right","rt":440,"correct":true,"confidence":4},{"trial_n":113,"n_dots":3.75,"target":"right","response":"left","rt":1542.9999999998,"correct":false,"confidence":1},{"trial_n":114,"n_dots":3.85,"target":"left","response":"left","rt":364,"correct":true,"confidence":3},{"trial_n":115,"n_dots":3.85,"target":"right","response":"right","rt":270,"correct":true,"confidence":3},{"trial_n":116,"n_dots":3.75,"target":"left","response":"left","rt":504.00000000023,"correct":true,"confidence":2},{"trial_n":117,"n_dots":3.75,"target":"right","response":"right","rt":680,"correct":true,"confidence":4},{"trial_n":118,"n_dots":3.65,"target":"right","response":"right","rt":573.99999999977,"correct":true,"confidence":3},{"trial_n":119,"n_dots":3.65,"target":"left","response":"left","rt":511,"correct":true,"confidence":5},{"trial_n":120,"n_dots":3.55,"target":"right","response":"right","rt":228,"correct":true,"confidence":4}]