[{"trial_n":1,"span":8,"encoder":"47102447","distractor":"46102447","target":"present","response":"present","rt":"4467","correct":true,"confidence":-1},{"trial_n":2,"span":8,"encoder":"40725735","distractor":"50725735","target":"present","response":"present","rt":"3226.0000000001","correct":true,"confidence":-1},{"trial_n":3,"span":10,"encoder":"9093878846","distractor":"9093818846","target":"absent","response":"absent","rt":"2315","correct":true,"confidence":-1},{"trial_n":4,"span":10,"encoder":"1662631437","distractor":"1662631457","target":"absent","response":"present","rt":"3649","correct":false,"confidence":-1},{"trial_n":5,"span":8,"encoder":"70595359","distractor":"72595359","target":"present","response":"present","rt":"3668","correct":true,"confidence":-1},{"trial_n":6,"span":8,"encoder":"29138595","distractor":"59138595","target":"present","response":"present","rt":"4329","correct":true,"confidence":-1},{"trial_n":7,"span":10,"encoder":"7012256022","distractor":"7012246022","target":"absent","response":"absent","rt":"2924","correct":true,"confidence":-1},{"trial_n":8,"span":10,"encoder":"1195966174","distractor":"1165966174","target":"absent","response":"present","rt":"2302","correct":false,"confidence":-1},{"trial_n":9,"span":8,"encoder":"55051056","distractor":"55751056","target":"present","response":"present","rt":"2472","correct":true,"confidence":-1},{"trial_n":10,"span":8,"encoder":"55303881","distractor":"55303781","target":"absent","response":"absent","rt":"3323","correct":true,"confidence":-1},{"trial_n":11,"span":10,"encoder":"8811792196","distractor":"8811792126","target":"present","response":"present","rt":"3164","correct":true,"confidence":-1},{"trial_n":12,"span":10,"encoder":"3762878712","distractor":"3762858712","target":"absent","response":"absent","rt":"2105","correct":true,"confidence":-1},{"trial_n":13,"span":11,"encoder":"55278346462","distractor":"55278746462","target":"absent","response":"present","rt":"4341","correct":false,"confidence":-1},{"trial_n":14,"span":10,"encoder":"2721675637","distractor":"2721675937","target":"absent","response":"absent","rt":"1465","correct":true,"confidence":-1},{"trial_n":15,"span":10,"encoder":"6194841847","distractor":"6194441847","target":"absent","response":"absent","rt":"4301","correct":true,"confidence":-1},{"trial_n":16,"span":11,"encoder":"31319625463","distractor":"31319605463","target":"absent","response":"present","rt":"3844","correct":false,"confidence":-1},{"trial_n":17,"span":10,"encoder":"2163039999","distractor":"2163839999","target":"absent","response":"absent","rt":"3825","correct":true,"confidence":-1},{"trial_n":18,"span":10,"encoder":"3850102819","distractor":"3858102819","target":"absent","response":"present","rt":"4021","correct":false,"confidence":-1},{"trial_n":19,"span":9,"encoder":"591244506","distractor":"091244506","target":"present","response":"present","rt":"3639.0000000001","correct":true,"confidence":-1},{"trial_n":20,"span":9,"encoder":"189249955","distractor":"199249955","target":"absent","response":"absent","rt":"2813.0000000001","correct":true,"confidence":-1},{"trial_n":21,"span":10,"encoder":"4477948469","distractor":"4467948469","target":"present","response":"present","rt":"3751.9999999999","correct":true,"confidence":4},{"trial_n":22,"span":10,"encoder":"9300098561","distractor":"9300998561","target":"present","response":"present","rt":"3604","correct":true,"confidence":5},{"trial_n":23,"span":11,"encoder":"74622385475","distractor":"70622385475","target":"absent","response":"absent","rt":"4742","correct":true,"confidence":3},{"trial_n":24,"span":11,"encoder":"63717002260","distractor":"63717002460","target":"absent","response":"absent","rt":"4531.9999999999","correct":true,"confidence":5},{"trial_n":25,"span":12,"encoder":"570466254786","distractor":"570460254786","target":"present","response":"absent","rt":"5941.9999999999","correct":false,"confidence":3},{"trial_n":26,"span":11,"encoder":"40245155033","distractor":"40245155013","target":"present","response":"present","rt":"6054","correct":true,"confidence":2},{"trial_n":27,"span":11,"encoder":"06964030970","distractor":"06964080970","target":"present","response":"present","rt":"5319","correct":true,"confidence":2},{"trial_n":28,"span":12,"encoder":"532456159189","distractor":"532456158189","target":"absent","response":"absent","rt":"5852","correct":true,"confidence":3},{"trial_n":29,"span":12,"encoder":"375037881778","distractor":"375037881718","target":"present","response":"present","rt":"4168","correct":true,"confidence":4},{"trial_n":30,"span":13,"encoder":"0193319085967","distractor":"0193319085987","target":"absent","response":"absent","rt":"8041.0000000001","correct":true,"confidence":3},{"trial_n":31,"span":13,"encoder":"0746216688478","distractor":"0746216688078","target":"absent","response":"present","rt":"3290","correct":false,"confidence":3},{"trial_n":32,"span":12,"encoder":"324131791623","distractor":"324131791625","target":"absent","response":"absent","rt":"7676.9999999999","correct":true,"confidence":2},{"trial_n":33,"span":12,"encoder":"539506060505","distractor":"529506060505","target":"present","response":"absent","rt":"5486.9999999999","correct":false,"confidence":5},{"trial_n":34,"span":11,"encoder":"72512970955","distractor":"72512970755","target":"present","response":"present","rt":"3936","correct":true,"confidence":3},{"trial_n":35,"span":11,"encoder":"66623873698","distractor":"64623873698","target":"absent","response":"absent","rt":"3323","correct":true,"confidence":5},{"trial_n":36,"span":12,"encoder":"690362414575","distractor":"290362414575","target":"absent","response":"present","rt":"5952.9999999999","correct":false,"confidence":3},{"trial_n":37,"span":11,"encoder":"40052477528","distractor":"40052777528","target":"absent","response":"present","rt":"2684","correct":false,"confidence":4},{"trial_n":38,"span":10,"encoder":"2243546593","distractor":"2243516593","target":"absent","response":"present","rt":"3680","correct":false,"confidence":4},{"trial_n":39,"span":9,"encoder":"979773322","distractor":"979703322","target":"present","response":"present","rt":"2946","correct":true,"confidence":5},{"trial_n":40,"span":9,"encoder":"254926239","distractor":"259926239","target":"present","response":"present","rt":"3281","correct":true,"confidence":3},{"trial_n":41,"span":10,"encoder":"2921770828","distractor":"2021770828","target":"present","response":"present","rt":"3322","correct":true,"confidence":3},{"trial_n":42,"span":10,"encoder":"3429169452","distractor":"3439169452","target":"absent","response":"absent","rt":"2276.9999999999","correct":true,"confidence":1},{"trial_n":43,"span":11,"encoder":"98795172988","distractor":"98795182988","target":"absent","response":"present","rt":"13025","correct":false,"confidence":2},{"trial_n":44,"span":10,"encoder":"8041391364","distractor":"8041391264","target":"absent","response":"present","rt":"3749","correct":false,"confidence":4},{"trial_n":45,"span":9,"encoder":"912209690","distractor":"912208690","target":"absent","response":"absent","rt":"6103","correct":true,"confidence":3},{"trial_n":46,"span":9,"encoder":"910793800","distractor":"910793880","target":"present","response":"present","rt":"3086","correct":true,"confidence":5},{"trial_n":47,"span":10,"encoder":"6658743350","distractor":"6658743650","target":"present","response":"present","rt":"3350.0000000001","correct":true,"confidence":3},{"trial_n":48,"span":10,"encoder":"7743823823","distractor":"7743823813","target":"present","response":"present","rt":"4190.9999999999","correct":true,"confidence":4},{"trial_n":49,"span":11,"encoder":"31486196649","distractor":"31486106649","target":"present","response":"present","rt":"3652","correct":true,"confidence":5},{"trial_n":50,"span":11,"encoder":"73608923472","distractor":"73638923472","target":"present","response":"absent","rt":"6932","correct":false,"confidence":3},{"trial_n":51,"span":10,"encoder":"1949484896","distractor":"1949484296","target":"present","response":"present","rt":"3791.9999999999","correct":true,"confidence":5},{"trial_n":52,"span":10,"encoder":"5954150671","distractor":"5954155671","target":"present","response":"present","rt":"7954.0000000001","correct":true,"confidence":4},{"trial_n":53,"span":11,"encoder":"04004295748","distractor":"04004595748","target":"absent","response":"present","rt":"5084","correct":false,"confidence":3},{"trial_n":54,"span":10,"encoder":"1399708210","distractor":"1399708280","target":"present","response":"present","rt":"-974822","correct":true,"confidence":3},{"trial_n":55,"span":10,"encoder":"9717900822","distractor":"9717900722","target":"absent","response":"present","rt":"3160","correct":false,"confidence":4},{"trial_n":56,"span":9,"encoder":"405098428","distractor":"404098428","target":"absent","response":"present","rt":"4024.9999999999","correct":false,"confidence":5},{"trial_n":57,"span":8,"encoder":"37931401","distractor":"37936401","target":"present","response":"present","rt":"2904.9999999999","correct":true,"confidence":5},{"trial_n":58,"span":8,"encoder":"46239081","distractor":"46231081","target":"present","response":"present","rt":"3364","correct":true,"confidence":5},{"trial_n":59,"span":9,"encoder":"329694918","distractor":"329694948","target":"present","response":"present","rt":"5723.9999999999","correct":true,"confidence":5},{"trial_n":60,"span":9,"encoder":"078995193","distractor":"078998193","target":"present","response":"absent","rt":"2911.0000000001","correct":false,"confidence":5},{"trial_n":61,"span":8,"encoder":"93740118","distractor":"99740118","target":"present","response":"present","rt":"3100.0000000002","correct":true,"confidence":5},{"trial_n":62,"span":8,"encoder":"19881165","distractor":"19881365","target":"absent","response":"absent","rt":"6374","correct":true,"confidence":4},{"trial_n":63,"span":9,"encoder":"892940959","distractor":"892840959","target":"absent","response":"present","rt":"4776","correct":false,"confidence":3},{"trial_n":64,"span":8,"encoder":"17365206","distractor":"17368206","target":"present","response":"absent","rt":"4453","correct":false,"confidence":4},{"trial_n":65,"span":7,"encoder":"0367802","distractor":"0367892","target":"absent","response":"absent","rt":"4741","correct":true,"confidence":5},{"trial_n":66,"span":7,"encoder":"0828209","distractor":"7828209","target":"absent","response":"present","rt":"3521","correct":false,"confidence":5},{"trial_n":67,"span":6,"encoder":"342698","distractor":"382698","target":"present","response":"present","rt":"2705","correct":true,"confidence":5},{"trial_n":68,"span":6,"encoder":"682446","distractor":"682445","target":"present","response":"present","rt":"1904","correct":true,"confidence":5},{"trial_n":69,"span":7,"encoder":"1229523","distractor":"1279523","target":"present","response":"present","rt":"2464","correct":true,"confidence":5},{"trial_n":70,"span":7,"encoder":"2346544","distractor":"2346844","target":"present","response":"present","rt":"3780","correct":true,"confidence":5},{"trial_n":71,"span":8,"encoder":"04269557","distractor":"04269507","target":"present","response":"present","rt":"4723.0000000002","correct":true,"confidence":-1},{"trial_n":72,"span":8,"encoder":"13698286","distractor":"13698486","target":"present","response":"present","rt":"5113","correct":true,"confidence":-1},{"trial_n":73,"span":9,"encoder":"070259625","distractor":"070250625","target":"absent","response":"absent","rt":"3172.0000000002","correct":true,"confidence":-1},{"trial_n":74,"span":9,"encoder":"952046575","distractor":"952006575","target":"absent","response":"absent","rt":"5682","correct":true,"confidence":-1},{"trial_n":75,"span":10,"encoder":"3806338519","distractor":"3806338619","target":"present","response":"present","rt":"1837","correct":true,"confidence":-1},{"trial_n":76,"span":10,"encoder":"5685454831","distractor":"5688454831","target":"absent","response":"absent","rt":"7006.0000000002","correct":true,"confidence":-1},{"trial_n":77,"span":11,"encoder":"12544723359","distractor":"12544623359","target":"present","response":"absent","rt":"8071","correct":false,"confidence":-1},{"trial_n":78,"span":10,"encoder":"3822033860","distractor":"3822733860","target":"absent","response":"absent","rt":"6543","correct":true,"confidence":-1},{"trial_n":79,"span":10,"encoder":"3819765520","distractor":"3819766520","target":"present","response":"present","rt":"13025","correct":true,"confidence":-1},{"trial_n":80,"span":11,"encoder":"66694694426","distractor":"66694698426","target":"present","response":"present","rt":"6978","correct":true,"confidence":-1},{"trial_n":81,"span":11,"encoder":"83531683035","distractor":"83531633035","target":"absent","response":"absent","rt":"9902","correct":true,"confidence":-1},{"trial_n":82,"span":12,"encoder":"188431140042","distractor":"188931140042","target":"present","response":"absent","rt":"6792","correct":false,"confidence":-1},{"trial_n":83,"span":11,"encoder":"55173913227","distractor":"55174913227","target":"absent","response":"absent","rt":"3612","correct":true,"confidence":-1},{"trial_n":84,"span":11,"encoder":"09989296776","distractor":"09986296776","target":"present","response":"present","rt":"11979","correct":true,"confidence":-1},{"trial_n":85,"span":12,"encoder":"800061559588","distractor":"800061556588","target":"present","response":"present","rt":"12185","correct":true,"confidence":-1},{"trial_n":86,"span":12,"encoder":"824357669035","distractor":"824357669025","target":"present","response":"present","rt":"3909","correct":true,"confidence":-1},{"trial_n":87,"span":13,"encoder":"9406207425654","distractor":"9406207435654","target":"present","response":"present","rt":"17378","correct":true,"confidence":-1},{"trial_n":88,"span":13,"encoder":"2909949558669","distractor":"2909946558669","target":"present","response":"absent","rt":"10911","correct":false,"confidence":-1},{"trial_n":89,"span":12,"encoder":"541457864662","distractor":"547457864662","target":"present","response":"absent","rt":"13852","correct":false,"confidence":-1},{"trial_n":90,"span":11,"encoder":"88615884260","distractor":"88612884260","target":"present","response":"present","rt":"8058","correct":true,"confidence":-1},{"trial_n":91,"span":11,"encoder":"25259323174","distractor":"25258323174","target":"present","response":"present","rt":"6749","correct":true,"confidence":4},{"trial_n":92,"span":12,"encoder":"480972618884","distractor":"780972618884","target":"present","response":"absent","rt":"10921","correct":false,"confidence":3},{"trial_n":93,"span":11,"encoder":"60184903646","distractor":"60183903646","target":"absent","response":"absent","rt":"5735","correct":true,"confidence":4},{"trial_n":94,"span":11,"encoder":"11797705824","distractor":"11797705724","target":"present","response":"absent","rt":"8160","correct":false,"confidence":5},{"trial_n":95,"span":10,"encoder":"0392995406","distractor":"0592995406","target":"absent","response":"present","rt":"9046","correct":false,"confidence":2},{"trial_n":96,"span":9,"encoder":"799319136","distractor":"799329136","target":"absent","response":"absent","rt":"4484","correct":true,"confidence":5},{"trial_n":97,"span":9,"encoder":"113878329","distractor":"113478329","target":"absent","response":"absent","rt":"3093","correct":true,"confidence":5},{"trial_n":98,"span":10,"encoder":"7001319761","distractor":"7021319761","target":"absent","response":"absent","rt":"7722","correct":true,"confidence":5},{"trial_n":99,"span":10,"encoder":"5856531142","distractor":"5856231142","target":"absent","response":"absent","rt":"10681","correct":true,"confidence":4},{"trial_n":100,"span":11,"encoder":"93247744504","distractor":"73247744504","target":"present","response":"present","rt":"8840.0000000002","correct":true,"confidence":5},{"trial_n":101,"span":11,"encoder":"78980252476","distractor":"08980252476","target":"absent","response":"present","rt":"4737","correct":false,"confidence":3},{"trial_n":102,"span":10,"encoder":"3383165065","distractor":"3383165045","target":"absent","response":"absent","rt":"6388","correct":true,"confidence":4},{"trial_n":103,"span":10,"encoder":"0171139693","distractor":"0171139673","target":"absent","response":"absent","rt":"5874","correct":true,"confidence":4},{"trial_n":104,"span":11,"encoder":"99604100915","distractor":"99604190915","target":"absent","response":"present","rt":"9443.9999999998","correct":false,"confidence":2},{"trial_n":105,"span":10,"encoder":"2001749911","distractor":"9001749911","target":"present","response":"present","rt":"7975","correct":true,"confidence":5},{"trial_n":106,"span":10,"encoder":"3200735516","distractor":"3203735516","target":"absent","response":"absent","rt":"4938","correct":true,"confidence":5},{"trial_n":107,"span":11,"encoder":"71917678989","distractor":"71917678985","target":"present","response":"present","rt":"8339","correct":true,"confidence":4},{"trial_n":108,"span":11,"encoder":"71746604411","distractor":"71746104411","target":"absent","response":"absent","rt":"6725","correct":true,"confidence":3},{"trial_n":109,"span":12,"encoder":"934549485891","distractor":"934539485891","target":"absent","response":"absent","rt":"7810.9999999998","correct":true,"confidence":2},{"trial_n":110,"span":12,"encoder":"983294916438","distractor":"983214916438","target":"present","response":"present","rt":"7443","correct":true,"confidence":4},{"trial_n":111,"span":13,"encoder":"6893820902338","distractor":"6893820902378","target":"absent","response":"absent","rt":"7852","correct":true,"confidence":5},{"trial_n":112,"span":13,"encoder":"1361981360908","distractor":"1361951360908","target":"absent","response":"absent","rt":"11310","correct":true,"confidence":4},{"trial_n":113,"span":14,"encoder":"93763833941175","distractor":"93763833949175","target":"present","response":"absent","rt":"16338","correct":false,"confidence":2},{"trial_n":114,"span":13,"encoder":"8067047675693","distractor":"8057047675693","target":"absent","response":"absent","rt":"4279.9999999998","correct":true,"confidence":5},{"trial_n":115,"span":13,"encoder":"9445706651952","distractor":"9445706671952","target":"absent","response":"absent","rt":"7137","correct":true,"confidence":4},{"trial_n":116,"span":14,"encoder":"57124027457573","distractor":"57824027457573","target":"absent","response":"absent","rt":"6961","correct":true,"confidence":5},{"trial_n":117,"span":14,"encoder":"74237981045539","distractor":"74238981045539","target":"absent","response":"absent","rt":"8397","correct":true,"confidence":3},{"trial_n":118,"span":15,"encoder":"112575506303148","distractor":"118575506303148","target":"present","response":"present","rt":"3725.0000000005","correct":true,"confidence":5},{"trial_n":119,"span":15,"encoder":"176587077629265","distractor":"176587067629265","target":"present","response":"absent","rt":"9287.0000000002","correct":false,"confidence":4},{"trial_n":120,"span":14,"encoder":"91907754768440","distractor":"98907754768440","target":"present","response":"present","rt":"5482","correct":true,"confidence":5},{"trial_n":121,"span":14,"encoder":"46524791183920","distractor":"46524791183924","target":"absent","response":"present","rt":"10722","correct":false,"confidence":1},{"trial_n":122,"span":13,"encoder":"8999061045801","distractor":"8999561045801","target":"present","response":"present","rt":"4522","correct":true,"confidence":5},{"trial_n":123,"span":13,"encoder":"0546776410830","distractor":"0546776430830","target":"present","response":"absent","rt":"7536","correct":false,"confidence":4},{"trial_n":124,"span":12,"encoder":"412957661337","distractor":"712957661337","target":"present","response":"present","rt":"5652","correct":true,"confidence":4},{"trial_n":125,"span":12,"encoder":"616252945998","distractor":"616252745998","target":"present","response":"absent","rt":"9049","correct":false,"confidence":3},{"trial_n":126,"span":11,"encoder":"02398092176","distractor":"02498092176","target":"present","response":"present","rt":"5000","correct":true,"confidence":3},{"trial_n":127,"span":11,"encoder":"21101568982","distractor":"21191568982","target":"absent","response":"absent","rt":"8632","correct":true,"confidence":3},{"trial_n":128,"span":12,"encoder":"856516368580","distractor":"856516366580","target":"absent","response":"absent","rt":"8299","correct":true,"confidence":2},{"trial_n":129,"span":12,"encoder":"018751153774","distractor":"018751143774","target":"present","response":"absent","rt":"6797","correct":false,"confidence":3},{"trial_n":130,"span":11,"encoder":"72078020464","distractor":"72078020414","target":"absent","response":"present","rt":"4143","correct":false,"confidence":4},{"trial_n":131,"span":10,"encoder":"3885950694","distractor":"3887950694","target":"absent","response":"absent","rt":"4197","correct":true,"confidence":4},{"trial_n":132,"span":10,"encoder":"1573878480","distractor":"1073878480","target":"present","response":"present","rt":"3329","correct":true,"confidence":4},{"trial_n":133,"span":11,"encoder":"22247582293","distractor":"22247582263","target":"present","response":"present","rt":"7042","correct":true,"confidence":5},{"trial_n":134,"span":11,"encoder":"62120136221","distractor":"62120126221","target":"present","response":"absent","rt":"7832","correct":false,"confidence":4},{"trial_n":135,"span":10,"encoder":"8370761817","distractor":"8370761867","target":"present","response":"absent","rt":"8455","correct":false,"confidence":3},{"trial_n":136,"span":9,"encoder":"394605187","distractor":"394605167","target":"absent","response":"absent","rt":"7171","correct":true,"confidence":4},{"trial_n":137,"span":9,"encoder":"354391552","distractor":"354390552","target":"absent","response":"present","rt":"8695","correct":false,"confidence":3},{"trial_n":138,"span":8,"encoder":"16926823","distractor":"16026823","target":"absent","response":"absent","rt":"2479.0000000005","correct":true,"confidence":5},{"trial_n":139,"span":8,"encoder":"01604152","distractor":"01608152","target":"absent","response":"present","rt":"7043","correct":false,"confidence":5},{"trial_n":140,"span":7,"encoder":"0915608","distractor":"5915608","target":"present","response":"present","rt":"2884","correct":true,"confidence":5}]