[{"trial_n":1,"span":8,"encoder":"71311431","distractor":"76311431","target":"present","response":"present","rt":"2712","correct":true,"confidence":-1},{"trial_n":2,"span":8,"encoder":"10067058","distractor":"10087058","target":"present","response":"present","rt":"1746","correct":true,"confidence":-1},{"trial_n":3,"span":10,"encoder":"1921456135","distractor":"1921156135","target":"absent","response":"present","rt":"1958","correct":false,"confidence":-1},{"trial_n":4,"span":8,"encoder":"16701792","distractor":"16701392","target":"absent","response":"present","rt":"1093","correct":false,"confidence":-1},{"trial_n":5,"span":6,"encoder":"726205","distractor":"326205","target":"present","response":"absent","rt":"1531","correct":false,"confidence":-1},{"trial_n":6,"span":4,"encoder":"8972","distractor":"8672","target":"absent","response":"present","rt":"1584","correct":false,"confidence":-1},{"trial_n":7,"span":2,"encoder":"14","distractor":"19","target":"absent","response":"absent","rt":"2259","correct":true,"confidence":-1},{"trial_n":8,"span":2,"encoder":"15","distractor":"35","target":"absent","response":"absent","rt":"1161","correct":true,"confidence":-1},{"trial_n":9,"span":4,"encoder":"0502","distractor":"0505","target":"present","response":"present","rt":"1241","correct":true,"confidence":-1},{"trial_n":10,"span":4,"encoder":"0099","distractor":"1099","target":"present","response":"present","rt":"780","correct":true,"confidence":-1},{"trial_n":11,"span":6,"encoder":"122802","distractor":"122842","target":"absent","response":"absent","rt":"1485","correct":true,"confidence":-1},{"trial_n":12,"span":6,"encoder":"255089","distractor":"295089","target":"absent","response":"absent","rt":"3002","correct":true,"confidence":-1},{"trial_n":13,"span":7,"encoder":"7967806","distractor":"2967806","target":"absent","response":"present","rt":"1626","correct":false,"confidence":-1},{"trial_n":14,"span":6,"encoder":"092808","distractor":"062808","target":"present","response":"present","rt":"3808","correct":true,"confidence":-1},{"trial_n":15,"span":6,"encoder":"850254","distractor":"950254","target":"present","response":"present","rt":"783","correct":true,"confidence":-1},{"trial_n":16,"span":7,"encoder":"5541814","distractor":"5541854","target":"present","response":"present","rt":"670","correct":true,"confidence":-1},{"trial_n":17,"span":7,"encoder":"1213156","distractor":"1213176","target":"absent","response":"absent","rt":"1902","correct":true,"confidence":-1},{"trial_n":18,"span":8,"encoder":"72382170","distractor":"82382170","target":"present","response":"present","rt":"1352","correct":true,"confidence":-1},{"trial_n":19,"span":8,"encoder":"31381577","distractor":"35381577","target":"present","response":"absent","rt":"1439","correct":false,"confidence":-1},{"trial_n":20,"span":7,"encoder":"3679029","distractor":"3676029","target":"absent","response":"present","rt":"1281","correct":false,"confidence":-1},{"trial_n":21,"span":6,"encoder":"739273","distractor":"739272","target":"present","response":"present","rt":"1324","correct":true,"confidence":3},{"trial_n":22,"span":6,"encoder":"723025","distractor":"720025","target":"present","response":"present","rt":"1727","correct":true,"confidence":2},{"trial_n":23,"span":7,"encoder":"0795160","distractor":"0790160","target":"absent","response":"absent","rt":"2207","correct":true,"confidence":4},{"trial_n":24,"span":7,"encoder":"6861622","distractor":"6864622","target":"present","response":"absent","rt":"3816","correct":false,"confidence":3},{"trial_n":25,"span":6,"encoder":"773300","distractor":"773400","target":"absent","response":"absent","rt":"2240","correct":true,"confidence":5},{"trial_n":26,"span":6,"encoder":"998709","distractor":"798709","target":"absent","response":"present","rt":"1167","correct":false,"confidence":2},{"trial_n":27,"span":5,"encoder":"30426","distractor":"31426","target":"present","response":"present","rt":"1964","correct":true,"confidence":5},{"trial_n":28,"span":5,"encoder":"38941","distractor":"38945","target":"absent","response":"absent","rt":"1536","correct":true,"confidence":5},{"trial_n":29,"span":6,"encoder":"360433","distractor":"360403","target":"absent","response":"absent","rt":"1858","correct":true,"confidence":5},{"trial_n":30,"span":6,"encoder":"439087","distractor":"439081","target":"absent","response":"absent","rt":"2462","correct":true,"confidence":5},{"trial_n":31,"span":7,"encoder":"4225075","distractor":"4225015","target":"absent","response":"absent","rt":"2340","correct":true,"confidence":5},{"trial_n":32,"span":7,"encoder":"4692043","distractor":"4692003","target":"absent","response":"absent","rt":"2521","correct":true,"confidence":5},{"trial_n":33,"span":8,"encoder":"38942854","distractor":"38942154","target":"absent","response":"present","rt":"2453","correct":false,"confidence":4},{"trial_n":34,"span":7,"encoder":"6236644","distractor":"6236604","target":"present","response":"present","rt":"2954","correct":true,"confidence":4},{"trial_n":35,"span":7,"encoder":"0342531","distractor":"0382531","target":"absent","response":"present","rt":"2227","correct":false,"confidence":4},{"trial_n":36,"span":6,"encoder":"871200","distractor":"841200","target":"absent","response":"absent","rt":"1486","correct":true,"confidence":5},{"trial_n":37,"span":6,"encoder":"572880","distractor":"572889","target":"present","response":"present","rt":"1899","correct":true,"confidence":5},{"trial_n":38,"span":7,"encoder":"5543619","distractor":"5593619","target":"present","response":"present","rt":"2721","correct":true,"confidence":5},{"trial_n":39,"span":7,"encoder":"7145213","distractor":"7175213","target":"present","response":"absent","rt":"2764","correct":false,"confidence":1},{"trial_n":40,"span":6,"encoder":"429255","distractor":"479255","target":"absent","response":"present","rt":"2762","correct":false,"confidence":4},{"trial_n":41,"span":5,"encoder":"19628","distractor":"19622","target":"absent","response":"absent","rt":"1196","correct":true,"confidence":5},{"trial_n":42,"span":5,"encoder":"89462","distractor":"39462","target":"absent","response":"absent","rt":"3286","correct":true,"confidence":5},{"trial_n":43,"span":6,"encoder":"195504","distractor":"195304","target":"absent","response":"absent","rt":"1832","correct":true,"confidence":5},{"trial_n":44,"span":6,"encoder":"928211","distractor":"228211","target":"present","response":"present","rt":"2572","correct":true,"confidence":5},{"trial_n":45,"span":7,"encoder":"3203769","distractor":"3209769","target":"present","response":"present","rt":"3185","correct":true,"confidence":4},{"trial_n":46,"span":7,"encoder":"2870413","distractor":"2870713","target":"absent","response":"absent","rt":"1868","correct":true,"confidence":5},{"trial_n":47,"span":8,"encoder":"04420697","distractor":"04920697","target":"absent","response":"absent","rt":"1640","correct":true,"confidence":5},{"trial_n":48,"span":8,"encoder":"44716404","distractor":"44616404","target":"absent","response":"absent","rt":"3841","correct":true,"confidence":4},{"trial_n":49,"span":9,"encoder":"042330842","distractor":"842330842","target":"present","response":"absent","rt":"1512","correct":false,"confidence":2},{"trial_n":50,"span":8,"encoder":"87735909","distractor":"87735969","target":"present","response":"present","rt":"2540","correct":true,"confidence":4},{"trial_n":51,"span":8,"encoder":"10643121","distractor":"10643321","target":"absent","response":"present","rt":"3747","correct":false,"confidence":3},{"trial_n":52,"span":7,"encoder":"0025391","distractor":"2025391","target":"present","response":"present","rt":"1435","correct":true,"confidence":4},{"trial_n":53,"span":7,"encoder":"7789412","distractor":"7789712","target":"absent","response":"present","rt":"3906","correct":false,"confidence":4},{"trial_n":54,"span":6,"encoder":"218329","distractor":"218349","target":"present","response":"present","rt":"3376","correct":true,"confidence":4},{"trial_n":55,"span":6,"encoder":"374211","distractor":"344211","target":"present","response":"present","rt":"1739","correct":true,"confidence":5},{"trial_n":56,"span":7,"encoder":"0591796","distractor":"0592796","target":"present","response":"present","rt":"4470","correct":true,"confidence":4},{"trial_n":57,"span":7,"encoder":"6956002","distractor":"6556002","target":"absent","response":"present","rt":"2402","correct":false,"confidence":3},{"trial_n":58,"span":6,"encoder":"481710","distractor":"481110","target":"present","response":"present","rt":"2738","correct":true,"confidence":4},{"trial_n":59,"span":6,"encoder":"776137","distractor":"776737","target":"present","response":"present","rt":"2151","correct":true,"confidence":5},{"trial_n":60,"span":7,"encoder":"1441774","distractor":"7441774","target":"present","response":"present","rt":"3555","correct":true,"confidence":4},{"trial_n":61,"span":7,"encoder":"3541267","distractor":"3541260","target":"present","response":"present","rt":"4586","correct":true,"confidence":4},{"trial_n":62,"span":8,"encoder":"78567153","distractor":"78367153","target":"absent","response":"present","rt":"2701","correct":false,"confidence":4},{"trial_n":63,"span":7,"encoder":"9688786","distractor":"9688886","target":"present","response":"present","rt":"5373","correct":true,"confidence":3},{"trial_n":64,"span":7,"encoder":"6702952","distractor":"6703952","target":"present","response":"present","rt":"2574","correct":true,"confidence":4},{"trial_n":65,"span":8,"encoder":"77124542","distractor":"77124442","target":"present","response":"absent","rt":"3842","correct":false,"confidence":3},{"trial_n":66,"span":7,"encoder":"6685353","distractor":"6385353","target":"present","response":"present","rt":"2702","correct":true,"confidence":4},{"trial_n":67,"span":7,"encoder":"0678282","distractor":"6678282","target":"present","response":"present","rt":"2353","correct":true,"confidence":5},{"trial_n":68,"span":8,"encoder":"85154841","distractor":"85154811","target":"absent","response":"present","rt":"3645","correct":false,"confidence":4},{"trial_n":69,"span":7,"encoder":"9977378","distractor":"9975378","target":"absent","response":"absent","rt":"2248","correct":true,"confidence":5},{"trial_n":70,"span":7,"encoder":"6287507","distractor":"6277507","target":"present","response":"present","rt":"3457","correct":true,"confidence":3},{"trial_n":71,"span":8,"encoder":"23725775","distractor":"13725775","target":"present","response":"present","rt":"2534","correct":true,"confidence":-1},{"trial_n":72,"span":8,"encoder":"38185177","distractor":"38585177","target":"present","response":"present","rt":"2887","correct":true,"confidence":-1},{"trial_n":73,"span":9,"encoder":"597333416","distractor":"797333416","target":"absent","response":"absent","rt":"877","correct":true,"confidence":-1},{"trial_n":74,"span":9,"encoder":"425037846","distractor":"423037846","target":"absent","response":"absent","rt":"4260","correct":true,"confidence":-1},{"trial_n":75,"span":10,"encoder":"1556049335","distractor":"3556049335","target":"present","response":"present","rt":"1587","correct":true,"confidence":-1},{"trial_n":76,"span":10,"encoder":"3376643675","distractor":"3376643615","target":"absent","response":"present","rt":"386","correct":false,"confidence":-1},{"trial_n":77,"span":9,"encoder":"082088009","distractor":"782088009","target":"present","response":"present","rt":"1790","correct":true,"confidence":-1},{"trial_n":78,"span":9,"encoder":"006519679","distractor":"046519679","target":"absent","response":"absent","rt":"1331","correct":true,"confidence":-1},{"trial_n":79,"span":10,"encoder":"0180610740","distractor":"0880610740","target":"present","response":"present","rt":"1296","correct":true,"confidence":-1},{"trial_n":80,"span":10,"encoder":"4636759915","distractor":"4636759945","target":"absent","response":"absent","rt":"1236","correct":true,"confidence":-1},{"trial_n":81,"span":11,"encoder":"38322739381","distractor":"38322739081","target":"absent","response":"present","rt":"1410","correct":false,"confidence":-1},{"trial_n":82,"span":10,"encoder":"4874589556","distractor":"4874589506","target":"present","response":"present","rt":"1153","correct":true,"confidence":-1},{"trial_n":83,"span":10,"encoder":"9399874435","distractor":"5399874435","target":"absent","response":"absent","rt":"1237","correct":true,"confidence":-1},{"trial_n":84,"span":11,"encoder":"61062836040","distractor":"01062836040","target":"absent","response":"absent","rt":"631","correct":true,"confidence":-1},{"trial_n":85,"span":11,"encoder":"78281163653","distractor":"78283163653","target":"absent","response":"present","rt":"1341","correct":false,"confidence":-1},{"trial_n":86,"span":10,"encoder":"9946291213","distractor":"9941291213","target":"absent","response":"absent","rt":"744","correct":true,"confidence":-1},{"trial_n":87,"span":10,"encoder":"3939836460","distractor":"3959836460","target":"absent","response":"present","rt":"1218","correct":false,"confidence":-1},{"trial_n":88,"span":9,"encoder":"001782319","distractor":"001742319","target":"present","response":"absent","rt":"903","correct":false,"confidence":-1},{"trial_n":89,"span":8,"encoder":"40005044","distractor":"40805044","target":"present","response":"present","rt":"1785","correct":true,"confidence":-1},{"trial_n":90,"span":8,"encoder":"81215064","distractor":"81215054","target":"present","response":"present","rt":"1055","correct":true,"confidence":-1},{"trial_n":91,"span":9,"encoder":"704881230","distractor":"700881230","target":"present","response":"absent","rt":"2695","correct":false,"confidence":3},{"trial_n":92,"span":8,"encoder":"87031940","distractor":"87031970","target":"absent","response":"absent","rt":"2347","correct":true,"confidence":5},{"trial_n":93,"span":8,"encoder":"20085849","distractor":"23085849","target":"absent","response":"absent","rt":"2524","correct":true,"confidence":4},{"trial_n":94,"span":9,"encoder":"927402756","distractor":"927402754","target":"absent","response":"absent","rt":"1813","correct":true,"confidence":5},{"trial_n":95,"span":9,"encoder":"314262239","distractor":"314262839","target":"present","response":"present","rt":"1560","correct":true,"confidence":5},{"trial_n":96,"span":10,"encoder":"5049033798","distractor":"5009033798","target":"present","response":"absent","rt":"5008","correct":false,"confidence":3},{"trial_n":97,"span":9,"encoder":"194958734","distractor":"194958731","target":"present","response":"present","rt":"1310","correct":true,"confidence":5},{"trial_n":98,"span":9,"encoder":"246136668","distractor":"256136668","target":"absent","response":"absent","rt":"6116","correct":true,"confidence":5},{"trial_n":99,"span":10,"encoder":"4308921211","distractor":"4308921212","target":"present","response":"present","rt":"1357","correct":true,"confidence":5},{"trial_n":100,"span":10,"encoder":"2227448336","distractor":"2227449336","target":"present","response":"absent","rt":"6887","correct":false,"confidence":3},{"trial_n":101,"span":9,"encoder":"323831655","distractor":"323871655","target":"present","response":"present","rt":"4551","correct":true,"confidence":4},{"trial_n":102,"span":9,"encoder":"751753343","distractor":"751753344","target":"absent","response":"absent","rt":"7924","correct":true,"confidence":5},{"trial_n":103,"span":10,"encoder":"8252565108","distractor":"8253565108","target":"absent","response":"absent","rt":"5942","correct":true,"confidence":4},{"trial_n":104,"span":10,"encoder":"0243661169","distractor":"0243661161","target":"absent","response":"absent","rt":"2157","correct":true,"confidence":5},{"trial_n":105,"span":11,"encoder":"83875758833","distractor":"83875458833","target":"present","response":"present","rt":"6142","correct":true,"confidence":3},{"trial_n":106,"span":11,"encoder":"68517642438","distractor":"68517642938","target":"absent","response":"present","rt":"1573","correct":false,"confidence":1},{"trial_n":107,"span":10,"encoder":"2802859807","distractor":"2802819807","target":"present","response":"absent","rt":"4454","correct":false,"confidence":2},{"trial_n":108,"span":9,"encoder":"653151395","distractor":"653151325","target":"absent","response":"absent","rt":"2271","correct":true,"confidence":5},{"trial_n":109,"span":9,"encoder":"768240384","distractor":"268240384","target":"present","response":"present","rt":"3719","correct":true,"confidence":4},{"trial_n":110,"span":10,"encoder":"1103277217","distractor":"1103577217","target":"absent","response":"absent","rt":"7593","correct":true,"confidence":3},{"trial_n":111,"span":10,"encoder":"5278498938","distractor":"5278488938","target":"absent","response":"present","rt":"1141","correct":false,"confidence":1},{"trial_n":112,"span":9,"encoder":"493630318","distractor":"493030318","target":"present","response":"absent","rt":"6652","correct":false,"confidence":2},{"trial_n":113,"span":8,"encoder":"54482363","distractor":"54452363","target":"absent","response":"present","rt":"2360","correct":false,"confidence":4},{"trial_n":114,"span":7,"encoder":"7122173","distractor":"9122173","target":"present","response":"present","rt":"1191","correct":true,"confidence":5},{"trial_n":115,"span":7,"encoder":"8690943","distractor":"8690949","target":"present","response":"present","rt":"1729","correct":true,"confidence":5},{"trial_n":116,"span":8,"encoder":"17466271","distractor":"17466471","target":"present","response":"absent","rt":"3077","correct":false,"confidence":4},{"trial_n":117,"span":7,"encoder":"9890349","distractor":"9890319","target":"present","response":"present","rt":"3278","correct":true,"confidence":5},{"trial_n":118,"span":7,"encoder":"7669257","distractor":"7669287","target":"present","response":"present","rt":"7741","correct":true,"confidence":3},{"trial_n":119,"span":8,"encoder":"61374297","distractor":"61374299","target":"absent","response":"absent","rt":"3525","correct":true,"confidence":5},{"trial_n":120,"span":8,"encoder":"34358794","distractor":"34558794","target":"absent","response":"absent","rt":"5293","correct":true,"confidence":4},{"trial_n":121,"span":9,"encoder":"888134870","distractor":"888834870","target":"present","response":"absent","rt":"6021","correct":false,"confidence":3},{"trial_n":122,"span":8,"encoder":"24666917","distractor":"24664917","target":"absent","response":"present","rt":"2333","correct":false,"confidence":1},{"trial_n":123,"span":7,"encoder":"9911071","distractor":"9921071","target":"absent","response":"absent","rt":"2627","correct":true,"confidence":4},{"trial_n":124,"span":7,"encoder":"5127720","distractor":"5127710","target":"present","response":"present","rt":"1757","correct":true,"confidence":4},{"trial_n":125,"span":8,"encoder":"71636813","distractor":"71636873","target":"present","response":"present","rt":"2160","correct":true,"confidence":5},{"trial_n":126,"span":8,"encoder":"69115715","distractor":"69145715","target":"present","response":"present","rt":"3810","correct":true,"confidence":4},{"trial_n":127,"span":9,"encoder":"266747951","distractor":"266347951","target":"present","response":"present","rt":"4205","correct":true,"confidence":3},{"trial_n":128,"span":9,"encoder":"967223167","distractor":"967223767","target":"present","response":"present","rt":"3092","correct":true,"confidence":5},{"trial_n":129,"span":10,"encoder":"6227271147","distractor":"6226271147","target":"present","response":"present","rt":"3723","correct":true,"confidence":3},{"trial_n":130,"span":10,"encoder":"7022824154","distractor":"7022324154","target":"present","response":"absent","rt":"5345","correct":false,"confidence":1},{"trial_n":131,"span":9,"encoder":"428343158","distractor":"428343058","target":"present","response":"present","rt":"2919","correct":true,"confidence":3},{"trial_n":132,"span":9,"encoder":"480781545","distractor":"480782545","target":"absent","response":"absent","rt":"2992","correct":true,"confidence":3},{"trial_n":133,"span":10,"encoder":"4635036368","distractor":"4435036368","target":"present","response":"present","rt":"4805","correct":true,"confidence":3},{"trial_n":134,"span":10,"encoder":"1210724986","distractor":"6210724986","target":"present","response":"present","rt":"1577","correct":true,"confidence":5},{"trial_n":135,"span":11,"encoder":"62123538642","distractor":"62123598642","target":"absent","response":"absent","rt":"2977","correct":true,"confidence":1},{"trial_n":136,"span":11,"encoder":"07398635909","distractor":"04398635909","target":"absent","response":"absent","rt":"4977","correct":true,"confidence":1},{"trial_n":137,"span":12,"encoder":"425781742808","distractor":"425781762808","target":"absent","response":"absent","rt":"5120","correct":true,"confidence":3},{"trial_n":138,"span":12,"encoder":"519238010448","distractor":"519238010748","target":"absent","response":"absent","rt":"1488","correct":true,"confidence":4},{"trial_n":139,"span":13,"encoder":"7055815622068","distractor":"7055815628068","target":"absent","response":"absent","rt":"1718","correct":true,"confidence":4},{"trial_n":140,"span":13,"encoder":"7795953416495","distractor":"7795553416495","target":"absent","response":"absent","rt":"3863","correct":true,"confidence":1}]