[{"trial_n":1,"n_dots":4.25,"target":"right","response":"left","rt":3418,"correct":false,"confidence":-1},{"trial_n":2,"n_dots":4.25,"target":"left","response":"left","rt":7872,"correct":true,"confidence":-1},{"trial_n":3,"n_dots":4.25,"target":"right","response":"left","rt":891,"correct":false,"confidence":-1},{"trial_n":4,"n_dots":4.65,"target":"left","response":"left","rt":598,"correct":true,"confidence":-1},{"trial_n":5,"n_dots":4.65,"target":"right","response":"right","rt":613,"correct":true,"confidence":-1},{"trial_n":6,"n_dots":4.25,"target":"right","response":"right","rt":526,"correct":true,"confidence":-1},{"trial_n":7,"n_dots":4.25,"target":"right","response":"right","rt":511,"correct":true,"confidence":-1},{"trial_n":8,"n_dots":4.05,"target":"right","response":"right","rt":342,"correct":true,"confidence":-1},{"trial_n":9,"n_dots":4.05,"target":"left","response":"left","rt":585,"correct":true,"confidence":-1},{"trial_n":10,"n_dots":3.85,"target":"left","response":"right","rt":780,"correct":false,"confidence":-1},{"trial_n":11,"n_dots":4.05,"target":"left","response":"left","rt":616,"correct":true,"confidence":-1},{"trial_n":12,"n_dots":4.05,"target":"left","response":"left","rt":573,"correct":true,"confidence":-1},{"trial_n":13,"n_dots":3.95,"target":"left","response":"left","rt":449,"correct":true,"confidence":-1},{"trial_n":14,"n_dots":3.95,"target":"right","response":"right","rt":547,"correct":true,"confidence":-1},{"trial_n":15,"n_dots":3.85,"target":"left","response":"left","rt":495,"correct":true,"confidence":-1},{"trial_n":16,"n_dots":3.85,"target":"right","response":"right","rt":468,"correct":true,"confidence":-1},{"trial_n":17,"n_dots":3.75,"target":"left","response":"left","rt":536,"correct":true,"confidence":-1},{"trial_n":18,"n_dots":3.75,"target":"left","response":"left","rt":512,"correct":true,"confidence":-1},{"trial_n":19,"n_dots":3.65,"target":"left","response":"right","rt":575,"correct":false,"confidence":-1},{"trial_n":20,"n_dots":3.75,"target":"left","response":"left","rt":463,"correct":true,"confidence":-1},{"trial_n":21,"n_dots":3.75,"target":"right","response":"right","rt":462,"correct":true,"confidence":3},{"trial_n":22,"n_dots":3.65,"target":"right","response":"left","rt":573,"correct":false,"confidence":3},{"trial_n":23,"n_dots":3.75,"target":"left","response":"left","rt":592,"correct":true,"confidence":4},{"trial_n":24,"n_dots":3.75,"target":"right","response":"right","rt":567,"correct":true,"confidence":4},{"trial_n":25,"n_dots":3.65,"target":"left","response":"left","rt":613,"correct":true,"confidence":2},{"trial_n":26,"n_dots":3.65,"target":"left","response":"left","rt":647,"correct":true,"confidence":3},{"trial_n":27,"n_dots":3.55,"target":"right","response":"right","rt":1245,"correct":true,"confidence":2},{"trial_n":28,"n_dots":3.55,"target":"left","response":"left","rt":448,"correct":true,"confidence":4},{"trial_n":29,"n_dots":3.45,"target":"right","response":"right","rt":506,"correct":true,"confidence":2},{"trial_n":30,"n_dots":3.45,"target":"right","response":"right","rt":571,"correct":true,"confidence":2},{"trial_n":31,"n_dots":3.35,"target":"right","response":"left","rt":805,"correct":false,"confidence":2},{"trial_n":32,"n_dots":3.45,"target":"right","response":"right","rt":581,"correct":true,"confidence":2},{"trial_n":33,"n_dots":3.45,"target":"right","response":"right","rt":1295,"correct":true,"confidence":2},{"trial_n":34,"n_dots":3.35,"target":"left","response":"left","rt":712,"correct":true,"confidence":2},{"trial_n":35,"n_dots":3.35,"target":"left","response":"left","rt":683,"correct":true,"confidence":2},{"trial_n":36,"n_dots":3.25,"target":"right","response":"right","rt":588,"correct":true,"confidence":3},{"trial_n":37,"n_dots":3.25,"target":"right","response":"right","rt":570,"correct":true,"confidence":2},{"trial_n":38,"n_dots":3.15,"target":"right","response":"right","rt":772,"correct":true,"confidence":2},{"trial_n":39,"n_dots":3.15,"target":"right","response":"right","rt":504,"correct":true,"confidence":2},{"trial_n":40,"n_dots":3.05,"target":"left","response":"left","rt":528,"correct":true,"confidence":2},{"trial_n":41,"n_dots":3.05,"target":"left","response":"left","rt":527,"correct":true,"confidence":1},{"trial_n":42,"n_dots":2.95,"target":"right","response":"right","rt":526,"correct":true,"confidence":2},{"trial_n":43,"n_dots":2.95,"target":"left","response":"left","rt":551,"correct":true,"confidence":2},{"trial_n":44,"n_dots":2.85,"target":"right","response":"right","rt":548,"correct":true,"confidence":2},{"trial_n":45,"n_dots":2.85,"target":"left","response":"left","rt":530,"correct":true,"confidence":2},{"trial_n":46,"n_dots":2.75,"target":"right","response":"left","rt":779,"correct":false,"confidence":2},{"trial_n":47,"n_dots":2.85,"target":"right","response":"right","rt":726,"correct":true,"confidence":2},{"trial_n":48,"n_dots":2.85,"target":"left","response":"right","rt":434,"correct":false,"confidence":2},{"trial_n":49,"n_dots":2.95,"target":"right","response":"right","rt":778,"correct":true,"confidence":2},{"trial_n":50,"n_dots":2.95,"target":"right","response":"left","rt":745,"correct":false,"confidence":2},{"trial_n":51,"n_dots":3.05,"target":"right","response":"right","rt":578,"correct":true,"confidence":2},{"trial_n":52,"n_dots":3.05,"target":"right","response":"left","rt":509,"correct":false,"confidence":2},{"trial_n":53,"n_dots":3.15,"target":"left","response":"left","rt":606,"correct":true,"confidence":2},{"trial_n":54,"n_dots":3.15,"target":"left","response":"right","rt":635,"correct":false,"confidence":2},{"trial_n":55,"n_dots":3.25,"target":"left","response":"left","rt":499,"correct":true,"confidence":3},{"trial_n":56,"n_dots":3.25,"target":"right","response":"right","rt":427,"correct":true,"confidence":3},{"trial_n":57,"n_dots":3.15,"target":"left","response":"left","rt":602,"correct":true,"confidence":3},{"trial_n":58,"n_dots":3.15,"target":"right","response":"right","rt":573,"correct":true,"confidence":3},{"trial_n":59,"n_dots":3.05,"target":"left","response":"left","rt":580,"correct":true,"confidence":3},{"trial_n":60,"n_dots":3.05,"target":"right","response":"right","rt":546,"correct":true,"confidence":4},{"trial_n":61,"n_dots":2.95,"target":"right","response":"right","rt":461,"correct":true,"confidence":2},{"trial_n":62,"n_dots":2.95,"target":"right","response":"right","rt":458,"correct":true,"confidence":3},{"trial_n":63,"n_dots":2.85,"target":"right","response":"right","rt":529,"correct":true,"confidence":3},{"trial_n":64,"n_dots":2.85,"target":"left","response":"right","rt":627,"correct":false,"confidence":4},{"trial_n":65,"n_dots":2.95,"target":"left","response":"right","rt":512,"correct":false,"confidence":3},{"trial_n":66,"n_dots":3.05,"target":"left","response":"left","rt":594,"correct":true,"confidence":3},{"trial_n":67,"n_dots":3.05,"target":"left","response":"right","rt":471,"correct":false,"confidence":3},{"trial_n":68,"n_dots":3.15,"target":"left","response":"left","rt":627,"correct":true,"confidence":2},{"trial_n":69,"n_dots":3.15,"target":"left","response":"left","rt":712,"correct":true,"confidence":3},{"trial_n":70,"n_dots":3.05,"target":"right","response":"right","rt":615,"correct":true,"confidence":2},{"trial_n":71,"n_dots":3.05,"target":"left","response":"right","rt":745,"correct":false,"confidence":2},{"trial_n":72,"n_dots":3.15,"target":"left","response":"right","rt":1038,"correct":false,"confidence":2},{"trial_n":73,"n_dots":3.25,"target":"right","response":"right","rt":622,"correct":true,"confidence":3},{"trial_n":74,"n_dots":3.25,"target":"right","response":"right","rt":609,"correct":true,"confidence":2},{"trial_n":75,"n_dots":3.15,"target":"right","response":"right","rt":609,"correct":true,"confidence":3},{"trial_n":76,"n_dots":3.15,"target":"left","response":"left","rt":458,"correct":true,"confidence":3},{"trial_n":77,"n_dots":3.05,"target":"left","response":"left","rt":2644,"correct":true,"confidence":1},{"trial_n":78,"n_dots":3.05,"target":"left","response":"left","rt":646,"correct":true,"confidence":3},{"trial_n":79,"n_dots":2.95,"target":"right","response":"right","rt":672,"correct":true,"confidence":3},{"trial_n":80,"n_dots":2.95,"target":"left","response":"left","rt":1158,"correct":true,"confidence":2},{"trial_n":81,"n_dots":2.85,"target":"left","response":"left","rt":699,"correct":true,"confidence":3},{"trial_n":82,"n_dots":2.85,"target":"right","response":"right","rt":458,"correct":true,"confidence":3},{"trial_n":83,"n_dots":2.75,"target":"left","response":"right","rt":501,"correct":false,"confidence":2},{"trial_n":84,"n_dots":2.85,"target":"left","response":"left","rt":309,"correct":true,"confidence":3},{"trial_n":85,"n_dots":2.85,"target":"right","response":"right","rt":473,"correct":true,"confidence":3},{"trial_n":86,"n_dots":2.75,"target":"left","response":"left","rt":510,"correct":true,"confidence":4},{"trial_n":87,"n_dots":2.75,"target":"left","response":"right","rt":1111,"correct":false,"confidence":1},{"trial_n":88,"n_dots":2.85,"target":"right","response":"left","rt":449,"correct":false,"confidence":3},{"trial_n":89,"n_dots":2.95,"target":"right","response":"right","rt":594,"correct":true,"confidence":2},{"trial_n":90,"n_dots":2.95,"target":"right","response":"left","rt":495,"correct":false,"confidence":2},{"trial_n":91,"n_dots":3.05,"target":"left","response":"left","rt":275,"correct":true,"confidence":3},{"trial_n":92,"n_dots":3.05,"target":"right","response":"right","rt":345,"correct":true,"confidence":3},{"trial_n":93,"n_dots":2.95,"target":"right","response":"left","rt":296,"correct":false,"confidence":2},{"trial_n":94,"n_dots":3.05,"target":"right","response":"right","rt":571,"correct":true,"confidence":3},{"trial_n":95,"n_dots":3.05,"target":"left","response":"left","rt":539,"correct":true,"confidence":4},{"trial_n":96,"n_dots":2.95,"target":"left","response":"left","rt":642,"correct":true,"confidence":3},{"trial_n":97,"n_dots":2.95,"target":"left","response":"left","rt":546,"correct":true,"confidence":3},{"trial_n":98,"n_dots":2.85,"target":"right","response":"left","rt":506,"correct":false,"confidence":3},{"trial_n":99,"n_dots":2.95,"target":"right","response":"left","rt":499,"correct":false,"confidence":2},{"trial_n":100,"n_dots":3.05,"target":"right","response":"left","rt":905,"correct":false,"confidence":2},{"trial_n":101,"n_dots":3.15,"target":"left","response":"left","rt":389,"correct":true,"confidence":3},{"trial_n":102,"n_dots":3.15,"target":"right","response":"left","rt":581,"correct":false,"confidence":2},{"trial_n":103,"n_dots":3.25,"target":"left","response":"left","rt":296,"correct":true,"confidence":3},{"trial_n":104,"n_dots":3.25,"target":"right","response":"right","rt":562,"correct":true,"confidence":3},{"trial_n":105,"n_dots":3.15,"target":"right","response":"right","rt":931,"correct":true,"confidence":2},{"trial_n":106,"n_dots":3.15,"target":"left","response":"left","rt":363,"correct":true,"confidence":3},{"trial_n":107,"n_dots":3.05,"target":"left","response":"left","rt":381,"correct":true,"confidence":3},{"trial_n":108,"n_dots":3.05,"target":"right","response":"left","rt":426,"correct":false,"confidence":3},{"trial_n":109,"n_dots":3.15,"target":"left","response":"left","rt":1023,"correct":true,"confidence":3},{"trial_n":110,"n_dots":3.15,"target":"left","response":"left","rt":1191,"correct":true,"confidence":3},{"trial_n":111,"n_dots":3.05,"target":"left","response":"left","rt":691,"correct":true,"confidence":3},{"trial_n":112,"n_dots":3.05,"target":"right","response":"left","rt":415,"correct":false,"confidence":2},{"trial_n":113,"n_dots":3.15,"target":"left","response":"right","rt":532,"correct":false,"confidence":2},{"trial_n":114,"n_dots":3.25,"target":"left","response":"left","rt":344,"correct":true,"confidence":3},{"trial_n":115,"n_dots":3.25,"target":"right","response":"right","rt":860,"correct":true,"confidence":2},{"trial_n":116,"n_dots":3.15,"target":"right","response":"right","rt":626,"correct":true,"confidence":2},{"trial_n":117,"n_dots":3.15,"target":"right","response":"right","rt":385,"correct":true,"confidence":3},{"trial_n":118,"n_dots":3.05,"target":"left","response":"right","rt":590,"correct":false,"confidence":2},{"trial_n":119,"n_dots":3.15,"target":"right","response":"left","rt":710,"correct":false,"confidence":2},{"trial_n":120,"n_dots":3.25,"target":"left","response":"left","rt":325,"correct":true,"confidence":3}]