[{"trial_n":1,"min":25,"max":230,"target":"present","response":"present","rt":1106,"correct":true,"confidence":-1},{"trial_n":2,"min":25,"max":230,"target":"present","response":"present","rt":1184,"correct":true,"confidence":-1},{"trial_n":3,"min":41,"max":214,"target":"absent","response":"absent","rt":882,"correct":true,"confidence":-1},{"trial_n":4,"min":41,"max":214,"target":"absent","response":"absent","rt":531,"correct":true,"confidence":-1},{"trial_n":5,"min":57,"max":198,"target":"present","response":"present","rt":693,"correct":true,"confidence":-1},{"trial_n":6,"min":57,"max":198,"target":"present","response":"present","rt":433,"correct":true,"confidence":-1},{"trial_n":7,"min":73,"max":182,"target":"absent","response":"absent","rt":675,"correct":true,"confidence":-1},{"trial_n":8,"min":73,"max":182,"target":"absent","response":"absent","rt":520,"correct":true,"confidence":-1},{"trial_n":9,"min":89,"max":166,"target":"present","response":"present","rt":678,"correct":true,"confidence":-1},{"trial_n":10,"min":89,"max":166,"target":"absent","response":"absent","rt":921,"correct":true,"confidence":-1},{"trial_n":11,"min":97,"max":158,"target":"absent","response":"absent","rt":554,"correct":true,"confidence":-1},{"trial_n":12,"min":97,"max":158,"target":"present","response":"absent","rt":538,"correct":false,"confidence":-1},{"trial_n":13,"min":89,"max":166,"target":"present","response":"absent","rt":2759,"correct":false,"confidence":-1},{"trial_n":14,"min":81,"max":174,"target":"present","response":"present","rt":722,"correct":true,"confidence":-1},{"trial_n":15,"min":81,"max":174,"target":"present","response":"present","rt":493,"correct":true,"confidence":-1},{"trial_n":16,"min":89,"max":166,"target":"present","response":"present","rt":290,"correct":true,"confidence":-1},{"trial_n":17,"min":89,"max":166,"target":"present","response":"present","rt":329,"correct":true,"confidence":-1},{"trial_n":18,"min":97,"max":158,"target":"present","response":"present","rt":498,"correct":true,"confidence":-1},{"trial_n":19,"min":97,"max":158,"target":"absent","response":"present","rt":368,"correct":false,"confidence":-1},{"trial_n":20,"min":89,"max":166,"target":"absent","response":"present","rt":433,"correct":false,"confidence":-1},{"trial_n":21,"min":85,"max":170,"target":"present","response":"present","rt":866,"correct":true,"confidence":4},{"trial_n":22,"min":85,"max":170,"target":"present","response":"present","rt":662,"correct":true,"confidence":4},{"trial_n":23,"min":89,"max":166,"target":"absent","response":"absent","rt":870,"correct":true,"confidence":3},{"trial_n":24,"min":89,"max":166,"target":"absent","response":"absent","rt":1005,"correct":true,"confidence":3},{"trial_n":25,"min":93,"max":162,"target":"absent","response":"present","rt":1137,"correct":false,"confidence":4},{"trial_n":26,"min":89,"max":166,"target":"absent","response":"present","rt":726,"correct":false,"confidence":4},{"trial_n":27,"min":85,"max":170,"target":"absent","response":"present","rt":1192,"correct":false,"confidence":3},{"trial_n":28,"min":81,"max":174,"target":"absent","response":"present","rt":623,"correct":false,"confidence":3},{"trial_n":29,"min":77,"max":178,"target":"absent","response":"present","rt":643,"correct":false,"confidence":3},{"trial_n":30,"min":73,"max":182,"target":"present","response":"present","rt":963,"correct":true,"confidence":5},{"trial_n":31,"min":73,"max":182,"target":"present","response":"present","rt":745,"correct":true,"confidence":5},{"trial_n":32,"min":75,"max":180,"target":"present","response":"present","rt":546,"correct":true,"confidence":5},{"trial_n":33,"min":75,"max":180,"target":"present","response":"present","rt":615,"correct":true,"confidence":5},{"trial_n":34,"min":77,"max":178,"target":"absent","response":"present","rt":576,"correct":false,"confidence":4},{"trial_n":35,"min":75,"max":180,"target":"absent","response":"present","rt":1256,"correct":false,"confidence":3},{"trial_n":36,"min":73,"max":182,"target":"present","response":"present","rt":564,"correct":true,"confidence":5},{"trial_n":37,"min":73,"max":182,"target":"absent","response":"absent","rt":1038,"correct":true,"confidence":3},{"trial_n":38,"min":75,"max":180,"target":"absent","response":"absent","rt":974,"correct":true,"confidence":3},{"trial_n":39,"min":75,"max":180,"target":"present","response":"present","rt":529,"correct":true,"confidence":5},{"trial_n":40,"min":77,"max":178,"target":"present","response":"present","rt":1078,"correct":true,"confidence":5},{"trial_n":41,"min":77,"max":178,"target":"absent","response":"present","rt":772,"correct":false,"confidence":3},{"trial_n":42,"min":76,"max":179,"target":"present","response":"present","rt":468,"correct":true,"confidence":4},{"trial_n":43,"min":76,"max":179,"target":"present","response":"present","rt":827,"correct":true,"confidence":5},{"trial_n":44,"min":77,"max":178,"target":"absent","response":"present","rt":760,"correct":false,"confidence":3},{"trial_n":45,"min":76,"max":179,"target":"present","response":"present","rt":434,"correct":true,"confidence":4},{"trial_n":46,"min":76,"max":179,"target":"present","response":"present","rt":646,"correct":true,"confidence":5},{"trial_n":47,"min":77,"max":178,"target":"present","response":"present","rt":576,"correct":true,"confidence":5},{"trial_n":48,"min":77,"max":178,"target":"absent","response":"absent","rt":1204,"correct":true,"confidence":3},{"trial_n":49,"min":78,"max":177,"target":"absent","response":"absent","rt":821,"correct":true,"confidence":4},{"trial_n":50,"min":78,"max":177,"target":"absent","response":"absent","rt":706,"correct":true,"confidence":4},{"trial_n":51,"min":79,"max":176,"target":"present","response":"present","rt":1219,"correct":true,"confidence":5},{"trial_n":52,"min":79,"max":176,"target":"present","response":"present","rt":630,"correct":true,"confidence":5},{"trial_n":53,"min":80,"max":175,"target":"absent","response":"absent","rt":771,"correct":true,"confidence":3},{"trial_n":54,"min":80,"max":175,"target":"present","response":"present","rt":1016,"correct":true,"confidence":5},{"trial_n":55,"min":81,"max":174,"target":"present","response":"present","rt":551,"correct":true,"confidence":5},{"trial_n":56,"min":81,"max":174,"target":"present","response":"present","rt":531,"correct":true,"confidence":5},{"trial_n":57,"min":82,"max":173,"target":"absent","response":"absent","rt":840,"correct":true,"confidence":3},{"trial_n":58,"min":82,"max":173,"target":"present","response":"present","rt":548,"correct":true,"confidence":5},{"trial_n":59,"min":83,"max":172,"target":"absent","response":"absent","rt":822,"correct":true,"confidence":3},{"trial_n":60,"min":83,"max":172,"target":"absent","response":"absent","rt":657,"correct":true,"confidence":3},{"trial_n":61,"min":84,"max":171,"target":"present","response":"present","rt":632,"correct":true,"confidence":3},{"trial_n":62,"min":84,"max":171,"target":"present","response":"present","rt":2312,"correct":true,"confidence":3},{"trial_n":63,"min":85,"max":170,"target":"absent","response":"absent","rt":871,"correct":true,"confidence":3},{"trial_n":64,"min":85,"max":170,"target":"absent","response":"absent","rt":987,"correct":true,"confidence":3},{"trial_n":65,"min":86,"max":169,"target":"absent","response":"absent","rt":752,"correct":true,"confidence":4},{"trial_n":66,"min":86,"max":169,"target":"absent","response":"absent","rt":755,"correct":true,"confidence":4},{"trial_n":67,"min":87,"max":168,"target":"absent","response":"absent","rt":744,"correct":true,"confidence":4},{"trial_n":68,"min":87,"max":168,"target":"present","response":"absent","rt":845,"correct":false,"confidence":4},{"trial_n":69,"min":86,"max":169,"target":"absent","response":"absent","rt":1658,"correct":true,"confidence":3},{"trial_n":70,"min":86,"max":169,"target":"present","response":"present","rt":751,"correct":true,"confidence":4},{"trial_n":71,"min":41,"max":214,"target":"present","response":"present","rt":4206,"correct":true,"confidence":-1},{"trial_n":72,"min":41,"max":214,"target":"present","response":"present","rt":592,"correct":true,"confidence":-1},{"trial_n":73,"min":57,"max":198,"target":"absent","response":"absent","rt":1036,"correct":true,"confidence":-1},{"trial_n":74,"min":57,"max":198,"target":"absent","response":"absent","rt":621,"correct":true,"confidence":-1},{"trial_n":75,"min":73,"max":182,"target":"present","response":"present","rt":669,"correct":true,"confidence":-1},{"trial_n":76,"min":73,"max":182,"target":"absent","response":"absent","rt":868,"correct":true,"confidence":-1},{"trial_n":77,"min":89,"max":166,"target":"present","response":"present","rt":722,"correct":true,"confidence":-1},{"trial_n":78,"min":89,"max":166,"target":"present","response":"present","rt":1724,"correct":true,"confidence":-1},{"trial_n":79,"min":105,"max":150,"target":"present","response":"present","rt":603,"correct":true,"confidence":-1},{"trial_n":80,"min":105,"max":150,"target":"absent","response":"present","rt":489,"correct":false,"confidence":-1},{"trial_n":81,"min":97,"max":158,"target":"absent","response":"absent","rt":1295,"correct":true,"confidence":-1},{"trial_n":82,"min":97,"max":158,"target":"absent","response":"absent","rt":602,"correct":true,"confidence":-1},{"trial_n":83,"min":105,"max":150,"target":"absent","response":"absent","rt":552,"correct":true,"confidence":-1},{"trial_n":84,"min":105,"max":150,"target":"absent","response":"absent","rt":368,"correct":true,"confidence":-1},{"trial_n":85,"min":113,"max":142,"target":"absent","response":"absent","rt":407,"correct":true,"confidence":-1},{"trial_n":86,"min":113,"max":142,"target":"present","response":"absent","rt":478,"correct":false,"confidence":-1},{"trial_n":87,"min":105,"max":150,"target":"present","response":"present","rt":577,"correct":true,"confidence":-1},{"trial_n":88,"min":105,"max":150,"target":"present","response":"present","rt":375,"correct":true,"confidence":-1},{"trial_n":89,"min":113,"max":142,"target":"absent","response":"present","rt":552,"correct":false,"confidence":-1},{"trial_n":90,"min":105,"max":150,"target":"present","response":"absent","rt":868,"correct":false,"confidence":-1},{"trial_n":91,"min":101,"max":154,"target":"present","response":"absent","rt":1027,"correct":false,"confidence":3},{"trial_n":92,"min":97,"max":158,"target":"absent","response":"present","rt":704,"correct":false,"confidence":2},{"trial_n":93,"min":93,"max":162,"target":"absent","response":"present","rt":826,"correct":false,"confidence":3},{"trial_n":94,"min":89,"max":166,"target":"present","response":"present","rt":587,"correct":true,"confidence":4},{"trial_n":95,"min":89,"max":166,"target":"present","response":"present","rt":541,"correct":true,"confidence":5},{"trial_n":96,"min":93,"max":162,"target":"present","response":"present","rt":485,"correct":true,"confidence":5},{"trial_n":97,"min":93,"max":162,"target":"present","response":"present","rt":882,"correct":true,"confidence":5},{"trial_n":98,"min":97,"max":158,"target":"present","response":"absent","rt":1600,"correct":false,"confidence":1},{"trial_n":99,"min":93,"max":162,"target":"absent","response":"present","rt":784,"correct":false,"confidence":4},{"trial_n":100,"min":89,"max":166,"target":"present","response":"present","rt":1192,"correct":true,"confidence":5},{"trial_n":101,"min":89,"max":166,"target":"present","response":"present","rt":504,"correct":true,"confidence":5},{"trial_n":102,"min":91,"max":164,"target":"present","response":"present","rt":856,"correct":true,"confidence":5},{"trial_n":103,"min":91,"max":164,"target":"present","response":"present","rt":1076,"correct":true,"confidence":4},{"trial_n":104,"min":93,"max":162,"target":"present","response":"present","rt":646,"correct":true,"confidence":3},{"trial_n":105,"min":93,"max":162,"target":"present","response":"present","rt":478,"correct":true,"confidence":5},{"trial_n":106,"min":95,"max":160,"target":"absent","response":"present","rt":1104,"correct":false,"confidence":1},{"trial_n":107,"min":93,"max":162,"target":"absent","response":"absent","rt":1309,"correct":true,"confidence":2},{"trial_n":108,"min":93,"max":162,"target":"absent","response":"absent","rt":790,"correct":true,"confidence":2},{"trial_n":109,"min":95,"max":160,"target":"absent","response":"present","rt":1492,"correct":false,"confidence":2},{"trial_n":110,"min":93,"max":162,"target":"absent","response":"present","rt":1293,"correct":false,"confidence":2},{"trial_n":111,"min":92,"max":163,"target":"present","response":"present","rt":1028,"correct":true,"confidence":3},{"trial_n":112,"min":92,"max":163,"target":"absent","response":"absent","rt":1149,"correct":true,"confidence":3},{"trial_n":113,"min":93,"max":162,"target":"absent","response":"present","rt":737,"correct":false,"confidence":1},{"trial_n":114,"min":92,"max":163,"target":"present","response":"present","rt":1088,"correct":true,"confidence":4},{"trial_n":115,"min":92,"max":163,"target":"present","response":"present","rt":647,"correct":true,"confidence":4},{"trial_n":116,"min":93,"max":162,"target":"present","response":"present","rt":777,"correct":true,"confidence":4},{"trial_n":117,"min":93,"max":162,"target":"absent","response":"absent","rt":1378,"correct":true,"confidence":3},{"trial_n":118,"min":94,"max":161,"target":"present","response":"present","rt":868,"correct":true,"confidence":5},{"trial_n":119,"min":94,"max":161,"target":"absent","response":"absent","rt":1295,"correct":true,"confidence":2},{"trial_n":120,"min":95,"max":160,"target":"present","response":"present","rt":696,"correct":true,"confidence":3},{"trial_n":121,"min":95,"max":160,"target":"present","response":"present","rt":640,"correct":true,"confidence":5},{"trial_n":122,"min":96,"max":159,"target":"absent","response":"present","rt":823,"correct":false,"confidence":2},{"trial_n":123,"min":95,"max":160,"target":"present","response":"present","rt":739,"correct":true,"confidence":3},{"trial_n":124,"min":95,"max":160,"target":"present","response":"present","rt":765,"correct":true,"confidence":3},{"trial_n":125,"min":96,"max":159,"target":"absent","response":"present","rt":708,"correct":false,"confidence":1},{"trial_n":126,"min":95,"max":160,"target":"absent","response":"present","rt":3158,"correct":false,"confidence":2},{"trial_n":127,"min":94,"max":161,"target":"absent","response":"present","rt":1141,"correct":false,"confidence":1},{"trial_n":128,"min":93,"max":162,"target":"absent","response":"present","rt":877,"correct":false,"confidence":2},{"trial_n":129,"min":92,"max":163,"target":"absent","response":"present","rt":956,"correct":false,"confidence":2},{"trial_n":130,"min":91,"max":164,"target":"present","response":"present","rt":725,"correct":true,"confidence":2},{"trial_n":131,"min":91,"max":164,"target":"present","response":"present","rt":547,"correct":true,"confidence":4},{"trial_n":132,"min":92,"max":163,"target":"absent","response":"absent","rt":1186,"correct":true,"confidence":4},{"trial_n":133,"min":92,"max":163,"target":"present","response":"present","rt":681,"correct":true,"confidence":5},{"trial_n":134,"min":93,"max":162,"target":"absent","response":"present","rt":780,"correct":false,"confidence":1},{"trial_n":135,"min":92,"max":163,"target":"present","response":"present","rt":780,"correct":true,"confidence":3},{"trial_n":136,"min":92,"max":163,"target":"absent","response":"present","rt":833,"correct":false,"confidence":1},{"trial_n":137,"min":91,"max":164,"target":"absent","response":"present","rt":743,"correct":false,"confidence":1},{"trial_n":138,"min":90,"max":165,"target":"present","response":"present","rt":827,"correct":true,"confidence":3},{"trial_n":139,"min":90,"max":165,"target":"absent","response":"present","rt":810,"correct":false,"confidence":2},{"trial_n":140,"min":89,"max":166,"target":"absent","response":"present","rt":1127,"correct":false,"confidence":3}]