[{"trial_n":1,"span":8,"encoder":"19360695","distractor":"13360695","target":"present","response":"present","rt":"2507.5","correct":true,"confidence":-1},{"trial_n":2,"span":8,"encoder":"08527230","distractor":"08527830","target":"present","response":"absent","rt":"946.39999961853","correct":false,"confidence":-1},{"trial_n":3,"span":6,"encoder":"952807","distractor":"952407","target":"absent","response":"absent","rt":"1504","correct":true,"confidence":-1},{"trial_n":4,"span":6,"encoder":"847657","distractor":"847656","target":"absent","response":"present","rt":"1745.4000000954","correct":false,"confidence":-1},{"trial_n":5,"span":4,"encoder":"9218","distractor":"9258","target":"present","response":"present","rt":"1000.2000002861","correct":true,"confidence":-1},{"trial_n":6,"span":4,"encoder":"4190","distractor":"4990","target":"absent","response":"absent","rt":"1008.5","correct":true,"confidence":-1},{"trial_n":7,"span":6,"encoder":"782180","distractor":"782780","target":"present","response":"present","rt":"1052.1000003815","correct":true,"confidence":-1},{"trial_n":8,"span":6,"encoder":"955880","distractor":"953880","target":"present","response":"present","rt":"949.69999980927","correct":true,"confidence":-1},{"trial_n":9,"span":8,"encoder":"08485943","distractor":"08435943","target":"present","response":"present","rt":"898","correct":true,"confidence":-1},{"trial_n":10,"span":8,"encoder":"33121201","distractor":"38121201","target":"present","response":"absent","rt":"763.2999997139","correct":false,"confidence":-1},{"trial_n":11,"span":6,"encoder":"470237","distractor":"470937","target":"present","response":"present","rt":"580.2999997139","correct":true,"confidence":-1},{"trial_n":12,"span":6,"encoder":"203209","distractor":"203409","target":"absent","response":"present","rt":"686.69999980927","correct":false,"confidence":-1},{"trial_n":13,"span":5,"encoder":"80150","distractor":"80156","target":"present","response":"present","rt":"823.90000009537","correct":true,"confidence":-1},{"trial_n":14,"span":5,"encoder":"83301","distractor":"63301","target":"absent","response":"absent","rt":"719.90000009537","correct":true,"confidence":-1},{"trial_n":15,"span":6,"encoder":"280311","distractor":"280317","target":"present","response":"present","rt":"1128.5999999046","correct":true,"confidence":-1},{"trial_n":16,"span":6,"encoder":"300266","distractor":"600266","target":"absent","response":"present","rt":"934.90000009537","correct":false,"confidence":-1},{"trial_n":17,"span":5,"encoder":"77670","distractor":"74670","target":"present","response":"present","rt":"732.09999990463","correct":true,"confidence":-1},{"trial_n":18,"span":5,"encoder":"68275","distractor":"68205","target":"present","response":"present","rt":"471.40000009537","correct":true,"confidence":-1},{"trial_n":19,"span":6,"encoder":"222774","distractor":"222772","target":"absent","response":"present","rt":"900.30000019073","correct":false,"confidence":-1},{"trial_n":20,"span":5,"encoder":"17139","distractor":"17539","target":"absent","response":"present","rt":"810.2999997139","correct":false,"confidence":-1},{"trial_n":21,"span":4,"encoder":"3587","distractor":"3507","target":"present","response":"present","rt":"1599.1999998093","correct":true,"confidence":3},{"trial_n":22,"span":4,"encoder":"6627","distractor":"6667","target":"absent","response":"absent","rt":"1172.6999998093","correct":true,"confidence":4},{"trial_n":23,"span":5,"encoder":"36032","distractor":"76032","target":"present","response":"present","rt":"1829.6999998093","correct":true,"confidence":5},{"trial_n":24,"span":5,"encoder":"32300","distractor":"02300","target":"present","response":"absent","rt":"1086.5999999046","correct":false,"confidence":3},{"trial_n":25,"span":4,"encoder":"0430","distractor":"0130","target":"absent","response":"absent","rt":"1202.5999999046","correct":true,"confidence":4},{"trial_n":26,"span":4,"encoder":"5240","distractor":"5230","target":"present","response":"present","rt":"1961.9000000954","correct":true,"confidence":5},{"trial_n":27,"span":5,"encoder":"80053","distractor":"80853","target":"present","response":"present","rt":"919.30000019073","correct":true,"confidence":5},{"trial_n":28,"span":5,"encoder":"31747","distractor":"31749","target":"present","response":"present","rt":"1049.2000002861","correct":true,"confidence":3},{"trial_n":29,"span":6,"encoder":"433229","distractor":"433220","target":"present","response":"present","rt":"1456.2999997139","correct":true,"confidence":4},{"trial_n":30,"span":6,"encoder":"237115","distractor":"537115","target":"absent","response":"absent","rt":"1742.5","correct":true,"confidence":2},{"trial_n":31,"span":7,"encoder":"9911766","distractor":"9411766","target":"absent","response":"absent","rt":"5922.6999998093","correct":true,"confidence":3},{"trial_n":32,"span":7,"encoder":"1580314","distractor":"1580315","target":"absent","response":"absent","rt":"1915","correct":true,"confidence":4},{"trial_n":33,"span":8,"encoder":"52363630","distractor":"52363639","target":"absent","response":"absent","rt":"1938.4000000954","correct":true,"confidence":3},{"trial_n":34,"span":8,"encoder":"23476267","distractor":"28476267","target":"absent","response":"absent","rt":"3940.1999998093","correct":true,"confidence":3},{"trial_n":35,"span":9,"encoder":"784380452","distractor":"784780452","target":"absent","response":"present","rt":"3043.5999999046","correct":false,"confidence":3},{"trial_n":36,"span":8,"encoder":"10365047","distractor":"10365847","target":"absent","response":"absent","rt":"2563.0999999046","correct":true,"confidence":4},{"trial_n":37,"span":8,"encoder":"43988466","distractor":"43788466","target":"absent","response":"present","rt":"1632.8000001907","correct":false,"confidence":2},{"trial_n":38,"span":7,"encoder":"9949638","distractor":"9749638","target":"absent","response":"present","rt":"1123.9000000954","correct":false,"confidence":2},{"trial_n":39,"span":6,"encoder":"227006","distractor":"227066","target":"present","response":"absent","rt":"5183.4000000954","correct":false,"confidence":2},{"trial_n":40,"span":5,"encoder":"33083","distractor":"33283","target":"absent","response":"present","rt":"1320.3000001907","correct":false,"confidence":4},{"trial_n":41,"span":4,"encoder":"7898","distractor":"7498","target":"absent","response":"absent","rt":"4080.4000000954","correct":true,"confidence":2},{"trial_n":42,"span":4,"encoder":"8301","distractor":"8601","target":"present","response":"present","rt":"939.7000002861","correct":true,"confidence":5},{"trial_n":43,"span":5,"encoder":"50301","distractor":"50361","target":"absent","response":"absent","rt":"2137.1999998093","correct":true,"confidence":4},{"trial_n":44,"span":5,"encoder":"13536","distractor":"53536","target":"present","response":"present","rt":"2361.7000002861","correct":true,"confidence":5},{"trial_n":45,"span":6,"encoder":"713820","distractor":"713870","target":"present","response":"present","rt":"2031.8000001907","correct":true,"confidence":3},{"trial_n":46,"span":6,"encoder":"703232","distractor":"403232","target":"present","response":"present","rt":"1342.7000002861","correct":true,"confidence":4},{"trial_n":47,"span":7,"encoder":"7858540","distractor":"7858545","target":"present","response":"present","rt":"2490.2000002861","correct":true,"confidence":4},{"trial_n":48,"span":7,"encoder":"9893419","distractor":"9293419","target":"present","response":"present","rt":"2540.5999999046","correct":true,"confidence":3},{"trial_n":49,"span":8,"encoder":"03285334","distractor":"03285339","target":"absent","response":"absent","rt":"1197.9000000954","correct":true,"confidence":3},{"trial_n":50,"span":8,"encoder":"12268055","distractor":"11268055","target":"absent","response":"absent","rt":"3110.4000000954","correct":true,"confidence":2},{"trial_n":51,"span":9,"encoder":"309077230","distractor":"309077240","target":"present","response":"present","rt":"1282","correct":true,"confidence":2},{"trial_n":52,"span":9,"encoder":"939497148","distractor":"639497148","target":"present","response":"present","rt":"2508.3000001907","correct":true,"confidence":3},{"trial_n":53,"span":10,"encoder":"4898519783","distractor":"4898519703","target":"absent","response":"absent","rt":"1791.0999999046","correct":true,"confidence":2},{"trial_n":54,"span":10,"encoder":"3915605950","distractor":"3915205950","target":"present","response":"present","rt":"1496.3999996185","correct":true,"confidence":3},{"trial_n":55,"span":11,"encoder":"17910710816","distractor":"17910760816","target":"absent","response":"present","rt":"1736.1999998093","correct":false,"confidence":3},{"trial_n":56,"span":10,"encoder":"6155341980","distractor":"6855341980","target":"absent","response":"absent","rt":"1781","correct":true,"confidence":2},{"trial_n":57,"span":10,"encoder":"9274792412","distractor":"9274732412","target":"absent","response":"present","rt":"1695.0999999046","correct":false,"confidence":3},{"trial_n":58,"span":9,"encoder":"453683397","distractor":"453683399","target":"present","response":"present","rt":"1419.8000001907","correct":true,"confidence":4},{"trial_n":59,"span":9,"encoder":"736226048","distractor":"736226058","target":"absent","response":"absent","rt":"1892.1000003815","correct":true,"confidence":3},{"trial_n":60,"span":10,"encoder":"4981141356","distractor":"4481141356","target":"absent","response":"present","rt":"2178","correct":false,"confidence":2},{"trial_n":61,"span":9,"encoder":"130390372","distractor":"120390372","target":"absent","response":"present","rt":"1584.5","correct":false,"confidence":2},{"trial_n":62,"span":8,"encoder":"25556212","distractor":"25556112","target":"present","response":"present","rt":"1649.0999999046","correct":true,"confidence":3},{"trial_n":63,"span":8,"encoder":"03905861","distractor":"03908861","target":"absent","response":"absent","rt":"1409.7999997139","correct":true,"confidence":4},{"trial_n":64,"span":9,"encoder":"118810081","distractor":"118870081","target":"absent","response":"absent","rt":"1641.8999996185","correct":true,"confidence":4},{"trial_n":65,"span":9,"encoder":"240771182","distractor":"250771182","target":"present","response":"present","rt":"1460.0999999046","correct":true,"confidence":3},{"trial_n":66,"span":10,"encoder":"6696472445","distractor":"6656472445","target":"absent","response":"present","rt":"1563.8999996185","correct":false,"confidence":2},{"trial_n":67,"span":9,"encoder":"685614173","distractor":"682614173","target":"present","response":"present","rt":"1802","correct":true,"confidence":1},{"trial_n":68,"span":9,"encoder":"697228876","distractor":"697238876","target":"present","response":"present","rt":"2948.2000002861","correct":true,"confidence":2},{"trial_n":69,"span":10,"encoder":"0662502102","distractor":"0662502192","target":"present","response":"present","rt":"2451.2000002861","correct":true,"confidence":3},{"trial_n":70,"span":10,"encoder":"8517371375","distractor":"8516371375","target":"present","response":"present","rt":"1146.5999999046","correct":true,"confidence":2},{"trial_n":71,"span":8,"encoder":"20094125","distractor":"20094128","target":"present","response":"absent","rt":"4157.5","correct":false,"confidence":-1},{"trial_n":72,"span":7,"encoder":"4237054","distractor":"2237054","target":"present","response":"absent","rt":"3982.0999999046","correct":false,"confidence":-1},{"trial_n":73,"span":6,"encoder":"360555","distractor":"360055","target":"absent","response":"present","rt":"4287.4000000954","correct":false,"confidence":-1},{"trial_n":74,"span":5,"encoder":"73328","distractor":"53328","target":"absent","response":"absent","rt":"1103.3000001907","correct":true,"confidence":-1},{"trial_n":75,"span":5,"encoder":"78567","distractor":"88567","target":"present","response":"absent","rt":"680.59999990463","correct":false,"confidence":-1},{"trial_n":76,"span":4,"encoder":"2559","distractor":"2555","target":"absent","response":"absent","rt":"1126","correct":true,"confidence":-1},{"trial_n":77,"span":4,"encoder":"7260","distractor":"7269","target":"present","response":"present","rt":"1136.3000001907","correct":true,"confidence":-1},{"trial_n":78,"span":5,"encoder":"44307","distractor":"44347","target":"absent","response":"absent","rt":"314.7999997139","correct":true,"confidence":-1},{"trial_n":79,"span":5,"encoder":"11022","distractor":"11023","target":"present","response":"absent","rt":"238.5","correct":false,"confidence":-1},{"trial_n":80,"span":4,"encoder":"9353","distractor":"9153","target":"present","response":"absent","rt":"285.19999980927","correct":false,"confidence":-1},{"trial_n":81,"span":3,"encoder":"444","distractor":"484","target":"absent","response":"absent","rt":"517.59999990463","correct":true,"confidence":-1},{"trial_n":82,"span":3,"encoder":"890","distractor":"190","target":"absent","response":"present","rt":"624.7999997139","correct":false,"confidence":-1},{"trial_n":83,"span":2,"encoder":"57","distractor":"87","target":"present","response":"present","rt":"2317","correct":true,"confidence":-1},{"trial_n":84,"span":2,"encoder":"07","distractor":"02","target":"present","response":"present","rt":"628.40000009537","correct":true,"confidence":-1},{"trial_n":85,"span":3,"encoder":"643","distractor":"645","target":"absent","response":"absent","rt":"1090.5","correct":true,"confidence":-1},{"trial_n":86,"span":3,"encoder":"261","distractor":"361","target":"absent","response":"absent","rt":"960.59999990463","correct":true,"confidence":-1},{"trial_n":87,"span":4,"encoder":"7541","distractor":"4541","target":"present","response":"present","rt":"935.69999980927","correct":true,"confidence":-1},{"trial_n":88,"span":4,"encoder":"2400","distractor":"2405","target":"absent","response":"absent","rt":"1951","correct":true,"confidence":-1},{"trial_n":89,"span":5,"encoder":"14490","distractor":"04490","target":"absent","response":"absent","rt":"2688.8000001907","correct":true,"confidence":-1},{"trial_n":90,"span":5,"encoder":"85856","distractor":"85876","target":"present","response":"absent","rt":"2855.5","correct":false,"confidence":-1},{"trial_n":91,"span":4,"encoder":"4910","distractor":"4911","target":"absent","response":"present","rt":"1409","correct":false,"confidence":4},{"trial_n":92,"span":3,"encoder":"584","distractor":"284","target":"absent","response":"present","rt":"1225.2999997139","correct":false,"confidence":2},{"trial_n":93,"span":2,"encoder":"10","distractor":"19","target":"present","response":"present","rt":"998.90000009537","correct":true,"confidence":3},{"trial_n":94,"span":2,"encoder":"44","distractor":"74","target":"present","response":"present","rt":"1347.7999997139","correct":true,"confidence":5},{"trial_n":95,"span":3,"encoder":"450","distractor":"453","target":"absent","response":"absent","rt":"1235.0999999046","correct":true,"confidence":5},{"trial_n":96,"span":3,"encoder":"450","distractor":"250","target":"present","response":"present","rt":"1275.4000000954","correct":true,"confidence":5},{"trial_n":97,"span":4,"encoder":"1397","distractor":"1357","target":"absent","response":"absent","rt":"1766.4000000954","correct":true,"confidence":5},{"trial_n":98,"span":4,"encoder":"0955","distractor":"1955","target":"absent","response":"absent","rt":"1445.5999999046","correct":true,"confidence":5},{"trial_n":99,"span":5,"encoder":"97400","distractor":"97800","target":"present","response":"present","rt":"2641.9000000954","correct":true,"confidence":4},{"trial_n":100,"span":5,"encoder":"96358","distractor":"96158","target":"absent","response":"absent","rt":"4979.4000000954","correct":true,"confidence":3},{"trial_n":101,"span":6,"encoder":"464086","distractor":"464286","target":"absent","response":"absent","rt":"5050.2000002861","correct":true,"confidence":2},{"trial_n":102,"span":6,"encoder":"584779","distractor":"584777","target":"absent","response":"absent","rt":"3672.0999999046","correct":true,"confidence":4},{"trial_n":103,"span":7,"encoder":"5268272","distractor":"5263272","target":"present","response":"present","rt":"3803.6999998093","correct":true,"confidence":3},{"trial_n":104,"span":7,"encoder":"7777837","distractor":"7777838","target":"present","response":"present","rt":"1771.6999998093","correct":true,"confidence":3},{"trial_n":105,"span":8,"encoder":"69691064","distractor":"69671064","target":"present","response":"present","rt":"3685.5","correct":true,"confidence":3},{"trial_n":106,"span":8,"encoder":"61710208","distractor":"61720208","target":"absent","response":"present","rt":"1636.6000003815","correct":false,"confidence":3},{"trial_n":107,"span":7,"encoder":"4856009","distractor":"4756009","target":"present","response":"present","rt":"2967.8000001907","correct":true,"confidence":3},{"trial_n":108,"span":7,"encoder":"4721664","distractor":"4761664","target":"present","response":"present","rt":"2387.2000002861","correct":true,"confidence":4},{"trial_n":109,"span":8,"encoder":"06886105","distractor":"08886105","target":"present","response":"absent","rt":"4805.0999999046","correct":false,"confidence":2},{"trial_n":110,"span":7,"encoder":"6456681","distractor":"6456621","target":"absent","response":"absent","rt":"4241.1999998093","correct":true,"confidence":3},{"trial_n":111,"span":7,"encoder":"7548600","distractor":"7518600","target":"present","response":"present","rt":"3824.5","correct":true,"confidence":3},{"trial_n":112,"span":8,"encoder":"77673629","distractor":"77679629","target":"absent","response":"present","rt":"4236.3000001907","correct":false,"confidence":3},{"trial_n":113,"span":7,"encoder":"6354021","distractor":"8354021","target":"present","response":"present","rt":"5903.5","correct":true,"confidence":4},{"trial_n":114,"span":7,"encoder":"6425308","distractor":"6425338","target":"absent","response":"absent","rt":"2295.8000001907","correct":true,"confidence":5},{"trial_n":115,"span":8,"encoder":"43909505","distractor":"13909505","target":"absent","response":"absent","rt":"2329.8000001907","correct":true,"confidence":5},{"trial_n":116,"span":8,"encoder":"08903363","distractor":"08903303","target":"present","response":"present","rt":"1959.9000000954","correct":true,"confidence":4},{"trial_n":117,"span":9,"encoder":"514443341","distractor":"514443541","target":"absent","response":"absent","rt":"2880.8999996185","correct":true,"confidence":5},{"trial_n":118,"span":9,"encoder":"408611833","distractor":"008611833","target":"absent","response":"absent","rt":"3488","correct":true,"confidence":5},{"trial_n":119,"span":10,"encoder":"0814858043","distractor":"0214858043","target":"present","response":"absent","rt":"8041","correct":false,"confidence":2},{"trial_n":120,"span":9,"encoder":"670118490","distractor":"670118450","target":"present","response":"present","rt":"2762.0999999046","correct":true,"confidence":4},{"trial_n":121,"span":9,"encoder":"061241864","distractor":"061241464","target":"absent","response":"present","rt":"4827.1999998093","correct":false,"confidence":1},{"trial_n":122,"span":8,"encoder":"63218298","distractor":"63218293","target":"present","response":"present","rt":"4428.8000001907","correct":true,"confidence":3},{"trial_n":123,"span":8,"encoder":"63758551","distractor":"63658551","target":"present","response":"absent","rt":"6576","correct":false,"confidence":2},{"trial_n":124,"span":7,"encoder":"4394357","distractor":"4394857","target":"present","response":"present","rt":"4775.3999996185","correct":true,"confidence":5},{"trial_n":125,"span":7,"encoder":"8237112","distractor":"0237112","target":"present","response":"present","rt":"2302","correct":true,"confidence":5},{"trial_n":126,"span":8,"encoder":"02364539","distractor":"02364739","target":"present","response":"present","rt":"3269.1999998093","correct":true,"confidence":5},{"trial_n":127,"span":8,"encoder":"91757233","distractor":"61757233","target":"absent","response":"absent","rt":"2568.5999999046","correct":true,"confidence":5},{"trial_n":128,"span":9,"encoder":"797865155","distractor":"795865155","target":"absent","response":"absent","rt":"8269.0999999046","correct":true,"confidence":1},{"trial_n":129,"span":9,"encoder":"146719924","distractor":"446719924","target":"present","response":"present","rt":"3128.1999998093","correct":true,"confidence":4},{"trial_n":130,"span":10,"encoder":"9933432369","distractor":"9933432769","target":"absent","response":"absent","rt":"2890.9000000954","correct":true,"confidence":4},{"trial_n":131,"span":10,"encoder":"1637253402","distractor":"1637273402","target":"present","response":"present","rt":"2627.2000002861","correct":true,"confidence":4},{"trial_n":132,"span":11,"encoder":"21156419358","distractor":"20156419358","target":"absent","response":"absent","rt":"4912.8000001907","correct":true,"confidence":3},{"trial_n":133,"span":11,"encoder":"63277064811","distractor":"63277064815","target":"present","response":"present","rt":"2387.0999999046","correct":true,"confidence":5},{"trial_n":134,"span":12,"encoder":"445696174233","distractor":"449696174233","target":"present","response":"present","rt":"5766.0999999046","correct":true,"confidence":3},{"trial_n":135,"span":12,"encoder":"260990550503","distractor":"260990550203","target":"present","response":"present","rt":"4725.0999999046","correct":true,"confidence":1},{"trial_n":136,"span":13,"encoder":"5352480393973","distractor":"5352480399973","target":"absent","response":"absent","rt":"3057.5","correct":true,"confidence":4},{"trial_n":137,"span":13,"encoder":"7018689734118","distractor":"7018689734128","target":"absent","response":"absent","rt":"6466.6999998093","correct":true,"confidence":3},{"trial_n":138,"span":14,"encoder":"84392426302601","distractor":"84382426302601","target":"absent","response":"present","rt":"8074.9000000954","correct":false,"confidence":1},{"trial_n":139,"span":13,"encoder":"6857566319558","distractor":"6857166319558","target":"present","response":"absent","rt":"4038.1999998093","correct":false,"confidence":1},{"trial_n":140,"span":12,"encoder":"429716361604","distractor":"426716361604","target":"absent","response":"present","rt":"3980.5","correct":false,"confidence":2}]