[{"trial_n":1,"min":25,"max":230,"target":"present","response":"present","rt":11266.400000095,"correct":true,"confidence":-1},{"trial_n":2,"min":25,"max":230,"target":"present","response":"present","rt":3284.1999998093,"correct":true,"confidence":-1},{"trial_n":3,"min":41,"max":214,"target":"absent","response":"absent","rt":749.69999980927,"correct":true,"confidence":-1},{"trial_n":4,"min":41,"max":214,"target":"absent","response":"absent","rt":502.40000009537,"correct":true,"confidence":-1},{"trial_n":5,"min":57,"max":198,"target":"present","response":"absent","rt":415.69999980927,"correct":false,"confidence":-1},{"trial_n":6,"min":41,"max":214,"target":"present","response":"present","rt":409.2000002861,"correct":true,"confidence":-1},{"trial_n":7,"min":41,"max":214,"target":"absent","response":"absent","rt":723.7999997139,"correct":true,"confidence":-1},{"trial_n":8,"min":57,"max":198,"target":"absent","response":"absent","rt":288.89999961853,"correct":true,"confidence":-1},{"trial_n":9,"min":57,"max":198,"target":"present","response":"present","rt":249.40000009537,"correct":true,"confidence":-1},{"trial_n":10,"min":73,"max":182,"target":"present","response":"absent","rt":409.19999980927,"correct":false,"confidence":-1},{"trial_n":11,"min":65,"max":190,"target":"present","response":"present","rt":363,"correct":true,"confidence":-1},{"trial_n":12,"min":65,"max":190,"target":"absent","response":"absent","rt":373,"correct":true,"confidence":-1},{"trial_n":13,"min":73,"max":182,"target":"present","response":"present","rt":356.2000002861,"correct":true,"confidence":-1},{"trial_n":14,"min":73,"max":182,"target":"absent","response":"absent","rt":739.90000009537,"correct":true,"confidence":-1},{"trial_n":15,"min":81,"max":174,"target":"absent","response":"present","rt":375.2999997139,"correct":false,"confidence":-1},{"trial_n":16,"min":73,"max":182,"target":"present","response":"absent","rt":422,"correct":false,"confidence":-1},{"trial_n":17,"min":65,"max":190,"target":"present","response":"absent","rt":452.30000019073,"correct":false,"confidence":-1},{"trial_n":18,"min":57,"max":198,"target":"present","response":"absent","rt":415.5,"correct":false,"confidence":-1},{"trial_n":19,"min":49,"max":206,"target":"absent","response":"absent","rt":838.59999990463,"correct":true,"confidence":-1},{"trial_n":20,"min":49,"max":206,"target":"absent","response":"absent","rt":478.59999990463,"correct":true,"confidence":-1},{"trial_n":21,"min":53,"max":202,"target":"present","response":"absent","rt":765,"correct":false,"confidence":2},{"trial_n":22,"min":49,"max":206,"target":"absent","response":"absent","rt":454.39999961853,"correct":true,"confidence":4},{"trial_n":23,"min":49,"max":206,"target":"present","response":"present","rt":966,"correct":true,"confidence":5},{"trial_n":24,"min":53,"max":202,"target":"present","response":"present","rt":411.2000002861,"correct":true,"confidence":5},{"trial_n":25,"min":53,"max":202,"target":"absent","response":"absent","rt":506.2000002861,"correct":true,"confidence":3},{"trial_n":26,"min":57,"max":198,"target":"absent","response":"absent","rt":453,"correct":true,"confidence":3},{"trial_n":27,"min":57,"max":198,"target":"absent","response":"absent","rt":472.40000009537,"correct":true,"confidence":5},{"trial_n":28,"min":61,"max":194,"target":"absent","response":"absent","rt":377.5,"correct":true,"confidence":5},{"trial_n":29,"min":61,"max":194,"target":"absent","response":"present","rt":692.59999990463,"correct":false,"confidence":3},{"trial_n":30,"min":57,"max":198,"target":"absent","response":"present","rt":571.59999990463,"correct":false,"confidence":3},{"trial_n":31,"min":55,"max":200,"target":"present","response":"present","rt":516.30000019073,"correct":true,"confidence":5},{"trial_n":32,"min":55,"max":200,"target":"absent","response":"absent","rt":518,"correct":true,"confidence":3},{"trial_n":33,"min":57,"max":198,"target":"present","response":"present","rt":458.59999990463,"correct":true,"confidence":4},{"trial_n":34,"min":57,"max":198,"target":"present","response":"present","rt":421.10000038147,"correct":true,"confidence":4},{"trial_n":35,"min":59,"max":196,"target":"present","response":"present","rt":1345.5,"correct":true,"confidence":5},{"trial_n":36,"min":59,"max":196,"target":"present","response":"present","rt":509.10000038147,"correct":true,"confidence":4},{"trial_n":37,"min":61,"max":194,"target":"present","response":"absent","rt":453.19999980927,"correct":false,"confidence":3},{"trial_n":38,"min":59,"max":196,"target":"present","response":"present","rt":1442.1000003815,"correct":true,"confidence":4},{"trial_n":39,"min":59,"max":196,"target":"absent","response":"absent","rt":364.90000009537,"correct":true,"confidence":5},{"trial_n":40,"min":61,"max":194,"target":"present","response":"present","rt":550.2999997139,"correct":true,"confidence":3},{"trial_n":41,"min":61,"max":194,"target":"absent","response":"absent","rt":405.59999990463,"correct":true,"confidence":3},{"trial_n":42,"min":62,"max":193,"target":"absent","response":"absent","rt":457.5,"correct":true,"confidence":3},{"trial_n":43,"min":62,"max":193,"target":"absent","response":"absent","rt":563.5,"correct":true,"confidence":4},{"trial_n":44,"min":63,"max":192,"target":"absent","response":"present","rt":489.30000019073,"correct":false,"confidence":3},{"trial_n":45,"min":62,"max":193,"target":"present","response":"present","rt":370.19999980927,"correct":true,"confidence":5},{"trial_n":46,"min":62,"max":193,"target":"absent","response":"absent","rt":542.40000009537,"correct":true,"confidence":3},{"trial_n":47,"min":63,"max":192,"target":"present","response":"present","rt":615.69999980927,"correct":true,"confidence":2},{"trial_n":48,"min":63,"max":192,"target":"absent","response":"absent","rt":562.69999980927,"correct":true,"confidence":3},{"trial_n":49,"min":64,"max":191,"target":"absent","response":"absent","rt":472.80000019073,"correct":true,"confidence":3},{"trial_n":50,"min":64,"max":191,"target":"present","response":"present","rt":466.90000009537,"correct":true,"confidence":3},{"trial_n":51,"min":65,"max":190,"target":"present","response":"present","rt":487.5,"correct":true,"confidence":3},{"trial_n":52,"min":65,"max":190,"target":"present","response":"present","rt":714.40000009537,"correct":true,"confidence":3},{"trial_n":53,"min":66,"max":189,"target":"present","response":"present","rt":351.90000009537,"correct":true,"confidence":2},{"trial_n":54,"min":66,"max":189,"target":"present","response":"absent","rt":1131.8000001907,"correct":false,"confidence":1},{"trial_n":55,"min":65,"max":190,"target":"absent","response":"absent","rt":405.40000009537,"correct":true,"confidence":2},{"trial_n":56,"min":65,"max":190,"target":"absent","response":"absent","rt":1103.5999999046,"correct":true,"confidence":4},{"trial_n":57,"min":66,"max":189,"target":"present","response":"absent","rt":898.09999990463,"correct":false,"confidence":3},{"trial_n":58,"min":65,"max":190,"target":"present","response":"present","rt":1023.4000000954,"correct":true,"confidence":3},{"trial_n":59,"min":65,"max":190,"target":"absent","response":"absent","rt":493.59999990463,"correct":true,"confidence":2},{"trial_n":60,"min":66,"max":189,"target":"absent","response":"absent","rt":863.30000019073,"correct":true,"confidence":4},{"trial_n":61,"min":66,"max":189,"target":"absent","response":"absent","rt":366.5,"correct":true,"confidence":4},{"trial_n":62,"min":67,"max":188,"target":"present","response":"present","rt":388.60000038147,"correct":true,"confidence":4},{"trial_n":63,"min":67,"max":188,"target":"absent","response":"absent","rt":617.09999990463,"correct":true,"confidence":4},{"trial_n":64,"min":68,"max":187,"target":"present","response":"present","rt":738.80000019073,"correct":true,"confidence":2},{"trial_n":65,"min":68,"max":187,"target":"absent","response":"absent","rt":430,"correct":true,"confidence":3},{"trial_n":66,"min":69,"max":186,"target":"present","response":"absent","rt":1005.1999998093,"correct":false,"confidence":2},{"trial_n":67,"min":68,"max":187,"target":"absent","response":"absent","rt":421.7000002861,"correct":true,"confidence":4},{"trial_n":68,"min":68,"max":187,"target":"present","response":"present","rt":443.59999990463,"correct":true,"confidence":3},{"trial_n":69,"min":69,"max":186,"target":"absent","response":"absent","rt":712.40000009537,"correct":true,"confidence":2},{"trial_n":70,"min":69,"max":186,"target":"present","response":"present","rt":501.40000009537,"correct":true,"confidence":3},{"trial_n":71,"min":41,"max":214,"target":"present","response":"present","rt":5524.8000001907,"correct":true,"confidence":-1},{"trial_n":72,"min":41,"max":214,"target":"present","response":"absent","rt":56.599999904633,"correct":false,"confidence":-1},{"trial_n":73,"min":25,"max":230,"target":"absent","response":"absent","rt":601.40000009537,"correct":true,"confidence":-1},{"trial_n":74,"min":25,"max":230,"target":"absent","response":"absent","rt":355.5,"correct":true,"confidence":-1},{"trial_n":75,"min":41,"max":214,"target":"present","response":"present","rt":307.90000009537,"correct":true,"confidence":-1},{"trial_n":76,"min":41,"max":214,"target":"present","response":"present","rt":112,"correct":true,"confidence":-1},{"trial_n":77,"min":57,"max":198,"target":"absent","response":"present","rt":409.90000009537,"correct":false,"confidence":-1},{"trial_n":78,"min":41,"max":214,"target":"present","response":"present","rt":423.5,"correct":true,"confidence":-1},{"trial_n":79,"min":41,"max":214,"target":"present","response":"present","rt":338,"correct":true,"confidence":-1},{"trial_n":80,"min":57,"max":198,"target":"absent","response":"absent","rt":621.90000009537,"correct":true,"confidence":-1},{"trial_n":81,"min":57,"max":198,"target":"absent","response":"absent","rt":507.90000009537,"correct":true,"confidence":-1},{"trial_n":82,"min":65,"max":190,"target":"present","response":"present","rt":555.80000019073,"correct":true,"confidence":-1},{"trial_n":83,"min":65,"max":190,"target":"present","response":"absent","rt":2.1999998092651,"correct":false,"confidence":-1},{"trial_n":84,"min":57,"max":198,"target":"present","response":"present","rt":548,"correct":true,"confidence":-1},{"trial_n":85,"min":57,"max":198,"target":"present","response":"present","rt":429.09999990463,"correct":true,"confidence":-1},{"trial_n":86,"min":65,"max":190,"target":"present","response":"absent","rt":675.7999997139,"correct":false,"confidence":-1},{"trial_n":87,"min":57,"max":198,"target":"absent","response":"present","rt":466.7000002861,"correct":false,"confidence":-1},{"trial_n":88,"min":49,"max":206,"target":"absent","response":"absent","rt":602.5,"correct":true,"confidence":-1},{"trial_n":89,"min":49,"max":206,"target":"absent","response":"absent","rt":556.90000009537,"correct":true,"confidence":-1},{"trial_n":90,"min":57,"max":198,"target":"present","response":"present","rt":447.40000009537,"correct":true,"confidence":-1},{"trial_n":91,"min":57,"max":198,"target":"absent","response":"absent","rt":641.30000019073,"correct":true,"confidence":2},{"trial_n":92,"min":61,"max":194,"target":"present","response":"present","rt":529.7999997139,"correct":true,"confidence":3},{"trial_n":93,"min":61,"max":194,"target":"absent","response":"absent","rt":579.69999980927,"correct":true,"confidence":4},{"trial_n":94,"min":65,"max":190,"target":"absent","response":"absent","rt":429.2999997139,"correct":true,"confidence":5},{"trial_n":95,"min":65,"max":190,"target":"absent","response":"absent","rt":367.80000019073,"correct":true,"confidence":5},{"trial_n":96,"min":69,"max":186,"target":"absent","response":"present","rt":852.09999990463,"correct":false,"confidence":2},{"trial_n":97,"min":65,"max":190,"target":"present","response":"present","rt":805.19999980927,"correct":true,"confidence":2},{"trial_n":98,"min":65,"max":190,"target":"absent","response":"absent","rt":386.19999980927,"correct":true,"confidence":3},{"trial_n":99,"min":69,"max":186,"target":"present","response":"present","rt":376.19999980927,"correct":true,"confidence":3},{"trial_n":100,"min":69,"max":186,"target":"absent","response":"absent","rt":487.19999980927,"correct":true,"confidence":2},{"trial_n":101,"min":71,"max":184,"target":"present","response":"present","rt":398.80000019073,"correct":true,"confidence":3},{"trial_n":102,"min":71,"max":184,"target":"present","response":"present","rt":318.19999980927,"correct":true,"confidence":3},{"trial_n":103,"min":73,"max":182,"target":"absent","response":"absent","rt":342.90000009537,"correct":true,"confidence":3},{"trial_n":104,"min":73,"max":182,"target":"present","response":"present","rt":674.5,"correct":true,"confidence":2},{"trial_n":105,"min":75,"max":180,"target":"present","response":"present","rt":927.40000009537,"correct":true,"confidence":1},{"trial_n":106,"min":75,"max":180,"target":"present","response":"present","rt":442.09999990463,"correct":true,"confidence":2},{"trial_n":107,"min":77,"max":178,"target":"absent","response":"absent","rt":459.5,"correct":true,"confidence":3},{"trial_n":108,"min":77,"max":178,"target":"absent","response":"present","rt":534.7999997139,"correct":false,"confidence":2},{"trial_n":109,"min":75,"max":180,"target":"present","response":"present","rt":505.80000019073,"correct":true,"confidence":1},{"trial_n":110,"min":75,"max":180,"target":"absent","response":"absent","rt":899,"correct":true,"confidence":2},{"trial_n":111,"min":76,"max":179,"target":"absent","response":"present","rt":469,"correct":false,"confidence":1},{"trial_n":112,"min":75,"max":180,"target":"absent","response":"absent","rt":666,"correct":true,"confidence":2},{"trial_n":113,"min":75,"max":180,"target":"present","response":"absent","rt":717.5,"correct":false,"confidence":3},{"trial_n":114,"min":74,"max":181,"target":"absent","response":"absent","rt":508.60000038147,"correct":true,"confidence":3},{"trial_n":115,"min":74,"max":181,"target":"present","response":"absent","rt":1076.3999996185,"correct":false,"confidence":3},{"trial_n":116,"min":73,"max":182,"target":"absent","response":"absent","rt":416.40000009537,"correct":true,"confidence":3},{"trial_n":117,"min":73,"max":182,"target":"present","response":"present","rt":444.90000009537,"correct":true,"confidence":3},{"trial_n":118,"min":74,"max":181,"target":"absent","response":"absent","rt":486.69999980927,"correct":true,"confidence":4},{"trial_n":119,"min":74,"max":181,"target":"absent","response":"present","rt":618.19999980927,"correct":false,"confidence":1},{"trial_n":120,"min":73,"max":182,"target":"absent","response":"absent","rt":760.90000009537,"correct":true,"confidence":2},{"trial_n":121,"min":73,"max":182,"target":"absent","response":"present","rt":601.40000009537,"correct":false,"confidence":1},{"trial_n":122,"min":72,"max":183,"target":"absent","response":"absent","rt":368.80000019073,"correct":true,"confidence":2},{"trial_n":123,"min":72,"max":183,"target":"present","response":"present","rt":451.40000009537,"correct":true,"confidence":2},{"trial_n":124,"min":73,"max":182,"target":"present","response":"present","rt":443.09999990463,"correct":true,"confidence":1},{"trial_n":125,"min":73,"max":182,"target":"absent","response":"absent","rt":377.69999980927,"correct":true,"confidence":3},{"trial_n":126,"min":74,"max":181,"target":"present","response":"present","rt":390.7999997139,"correct":true,"confidence":2},{"trial_n":127,"min":74,"max":181,"target":"absent","response":"absent","rt":371.59999990463,"correct":true,"confidence":5},{"trial_n":128,"min":75,"max":180,"target":"present","response":"present","rt":1364.6999998093,"correct":true,"confidence":4},{"trial_n":129,"min":75,"max":180,"target":"absent","response":"absent","rt":517,"correct":true,"confidence":3},{"trial_n":130,"min":76,"max":179,"target":"absent","response":"present","rt":894.69999980927,"correct":false,"confidence":1},{"trial_n":131,"min":75,"max":180,"target":"absent","response":"absent","rt":598.5,"correct":true,"confidence":5},{"trial_n":132,"min":75,"max":180,"target":"present","response":"absent","rt":849.60000038147,"correct":false,"confidence":2},{"trial_n":133,"min":74,"max":181,"target":"present","response":"present","rt":377.40000009537,"correct":true,"confidence":4},{"trial_n":134,"min":74,"max":181,"target":"absent","response":"absent","rt":510.60000038147,"correct":true,"confidence":4},{"trial_n":135,"min":75,"max":180,"target":"present","response":"present","rt":388.5,"correct":true,"confidence":4},{"trial_n":136,"min":75,"max":180,"target":"present","response":"absent","rt":927.2000002861,"correct":false,"confidence":3},{"trial_n":137,"min":74,"max":181,"target":"present","response":"present","rt":690,"correct":true,"confidence":2},{"trial_n":138,"min":74,"max":181,"target":"present","response":"present","rt":851.90000009537,"correct":true,"confidence":1},{"trial_n":139,"min":75,"max":180,"target":"present","response":"present","rt":1071.5,"correct":true,"confidence":1},{"trial_n":140,"min":75,"max":180,"target":"present","response":"present","rt":445.90000009537,"correct":true,"confidence":3}]