[{"trial_n":1,"min":25,"max":230,"target":"present","response":"absent","rt":6583.7999999989,"correct":false,"confidence":-1},{"trial_n":2,"min":25,"max":230,"target":"present","response":"present","rt":651.10000000149,"correct":true,"confidence":-1},{"trial_n":3,"min":25,"max":230,"target":"absent","response":"absent","rt":473.79999999888,"correct":true,"confidence":-1},{"trial_n":4,"min":41,"max":214,"target":"absent","response":"absent","rt":359.39999999851,"correct":true,"confidence":-1},{"trial_n":5,"min":41,"max":214,"target":"present","response":"present","rt":390.20000000112,"correct":true,"confidence":-1},{"trial_n":6,"min":57,"max":198,"target":"absent","response":"absent","rt":279.59999999963,"correct":true,"confidence":-1},{"trial_n":7,"min":57,"max":198,"target":"present","response":"present","rt":564.5,"correct":true,"confidence":-1},{"trial_n":8,"min":73,"max":182,"target":"absent","response":"absent","rt":316,"correct":true,"confidence":-1},{"trial_n":9,"min":73,"max":182,"target":"present","response":"present","rt":488.19999999925,"correct":true,"confidence":-1},{"trial_n":10,"min":89,"max":166,"target":"present","response":"absent","rt":378.79999999888,"correct":false,"confidence":-1},{"trial_n":11,"min":81,"max":174,"target":"present","response":"present","rt":705.59999999963,"correct":true,"confidence":-1},{"trial_n":12,"min":81,"max":174,"target":"absent","response":"present","rt":818.09999999963,"correct":false,"confidence":-1},{"trial_n":13,"min":73,"max":182,"target":"present","response":"present","rt":766.69999999925,"correct":true,"confidence":-1},{"trial_n":14,"min":73,"max":182,"target":"absent","response":"absent","rt":491.29999999888,"correct":true,"confidence":-1},{"trial_n":15,"min":81,"max":174,"target":"present","response":"absent","rt":458.89999999851,"correct":false,"confidence":-1},{"trial_n":16,"min":73,"max":182,"target":"present","response":"present","rt":421.90000000037,"correct":true,"confidence":-1},{"trial_n":17,"min":73,"max":182,"target":"present","response":"absent","rt":452.09999999963,"correct":false,"confidence":-1},{"trial_n":18,"min":65,"max":190,"target":"present","response":"present","rt":399.59999999963,"correct":true,"confidence":-1},{"trial_n":19,"min":65,"max":190,"target":"present","response":"present","rt":418,"correct":true,"confidence":-1},{"trial_n":20,"min":73,"max":182,"target":"present","response":"absent","rt":429.90000000037,"correct":false,"confidence":-1},{"trial_n":21,"min":69,"max":186,"target":"present","response":"present","rt":489.29999999888,"correct":true,"confidence":5},{"trial_n":22,"min":69,"max":186,"target":"absent","response":"absent","rt":680.19999999925,"correct":true,"confidence":5},{"trial_n":23,"min":73,"max":182,"target":"absent","response":"absent","rt":650.59999999963,"correct":true,"confidence":5},{"trial_n":24,"min":73,"max":182,"target":"present","response":"present","rt":1190.5,"correct":true,"confidence":5},{"trial_n":25,"min":77,"max":178,"target":"absent","response":"absent","rt":651.90000000037,"correct":true,"confidence":5},{"trial_n":26,"min":77,"max":178,"target":"present","response":"present","rt":608.29999999888,"correct":true,"confidence":5},{"trial_n":27,"min":81,"max":174,"target":"absent","response":"absent","rt":519.19999999925,"correct":true,"confidence":5},{"trial_n":28,"min":81,"max":174,"target":"absent","response":"absent","rt":9478.2000000011,"correct":true,"confidence":2},{"trial_n":29,"min":85,"max":170,"target":"present","response":"absent","rt":669.20000000112,"correct":false,"confidence":3},{"trial_n":30,"min":81,"max":174,"target":"absent","response":"absent","rt":496.79999999888,"correct":true,"confidence":3},{"trial_n":31,"min":81,"max":174,"target":"absent","response":"absent","rt":591,"correct":true,"confidence":5},{"trial_n":32,"min":83,"max":172,"target":"absent","response":"absent","rt":478.40000000037,"correct":true,"confidence":5},{"trial_n":33,"min":83,"max":172,"target":"absent","response":"absent","rt":440,"correct":true,"confidence":5},{"trial_n":34,"min":85,"max":170,"target":"absent","response":"absent","rt":505.90000000037,"correct":true,"confidence":5},{"trial_n":35,"min":85,"max":170,"target":"absent","response":"absent","rt":449.5,"correct":true,"confidence":5},{"trial_n":36,"min":87,"max":168,"target":"present","response":"absent","rt":1516.6999999993,"correct":false,"confidence":1},{"trial_n":37,"min":85,"max":170,"target":"present","response":"absent","rt":651.30000000075,"correct":false,"confidence":1},{"trial_n":38,"min":83,"max":172,"target":"present","response":"absent","rt":621.19999999925,"correct":false,"confidence":4},{"trial_n":39,"min":81,"max":174,"target":"absent","response":"present","rt":1353.6999999993,"correct":false,"confidence":3},{"trial_n":40,"min":79,"max":176,"target":"absent","response":"absent","rt":517.80000000075,"correct":true,"confidence":4},{"trial_n":41,"min":79,"max":176,"target":"present","response":"present","rt":2864.6999999993,"correct":true,"confidence":5},{"trial_n":42,"min":80,"max":175,"target":"absent","response":"absent","rt":1038.5999999996,"correct":true,"confidence":5},{"trial_n":43,"min":80,"max":175,"target":"present","response":"absent","rt":744.69999999925,"correct":false,"confidence":5},{"trial_n":44,"min":79,"max":176,"target":"present","response":"present","rt":2201.4000000004,"correct":true,"confidence":5},{"trial_n":45,"min":79,"max":176,"target":"absent","response":"absent","rt":573.5,"correct":true,"confidence":5},{"trial_n":46,"min":80,"max":175,"target":"absent","response":"absent","rt":654.29999999888,"correct":true,"confidence":5},{"trial_n":47,"min":80,"max":175,"target":"absent","response":"absent","rt":822.19999999925,"correct":true,"confidence":5},{"trial_n":48,"min":81,"max":174,"target":"absent","response":"absent","rt":2073.3000000007,"correct":true,"confidence":5},{"trial_n":49,"min":81,"max":174,"target":"absent","response":"absent","rt":684.90000000037,"correct":true,"confidence":5},{"trial_n":50,"min":82,"max":173,"target":"present","response":"absent","rt":415.09999999963,"correct":false,"confidence":5},{"trial_n":51,"min":81,"max":174,"target":"present","response":"present","rt":1040.7000000011,"correct":true,"confidence":4},{"trial_n":52,"min":81,"max":174,"target":"present","response":"present","rt":741.09999999963,"correct":true,"confidence":4},{"trial_n":53,"min":82,"max":173,"target":"absent","response":"absent","rt":986.5,"correct":true,"confidence":3},{"trial_n":54,"min":82,"max":173,"target":"absent","response":"absent","rt":835.90000000037,"correct":true,"confidence":3},{"trial_n":55,"min":83,"max":172,"target":"present","response":"absent","rt":539.30000000075,"correct":false,"confidence":3},{"trial_n":56,"min":82,"max":173,"target":"present","response":"absent","rt":720.90000000037,"correct":false,"confidence":3},{"trial_n":57,"min":81,"max":174,"target":"absent","response":"absent","rt":674.5,"correct":true,"confidence":3},{"trial_n":58,"min":81,"max":174,"target":"present","response":"present","rt":580.09999999963,"correct":true,"confidence":5},{"trial_n":59,"min":82,"max":173,"target":"present","response":"present","rt":591.20000000112,"correct":true,"confidence":5},{"trial_n":60,"min":82,"max":173,"target":"absent","response":"absent","rt":812,"correct":true,"confidence":3},{"trial_n":61,"min":83,"max":172,"target":"absent","response":"absent","rt":942.69999999925,"correct":true,"confidence":3},{"trial_n":62,"min":83,"max":172,"target":"present","response":"absent","rt":666.20000000112,"correct":false,"confidence":3},{"trial_n":63,"min":82,"max":173,"target":"absent","response":"absent","rt":356.69999999925,"correct":true,"confidence":5},{"trial_n":64,"min":82,"max":173,"target":"absent","response":"absent","rt":511,"correct":true,"confidence":5},{"trial_n":65,"min":83,"max":172,"target":"absent","response":"absent","rt":430.80000000075,"correct":true,"confidence":5},{"trial_n":66,"min":83,"max":172,"target":"present","response":"present","rt":595.59999999963,"correct":true,"confidence":4},{"trial_n":67,"min":84,"max":171,"target":"present","response":"absent","rt":643,"correct":false,"confidence":4},{"trial_n":68,"min":83,"max":172,"target":"absent","response":"absent","rt":733.09999999963,"correct":true,"confidence":4},{"trial_n":69,"min":83,"max":172,"target":"present","response":"present","rt":598.19999999925,"correct":true,"confidence":5},{"trial_n":70,"min":84,"max":171,"target":"present","response":"present","rt":506.80000000075,"correct":true,"confidence":4},{"trial_n":71,"min":41,"max":214,"target":"present","response":"present","rt":1794.5999999996,"correct":true,"confidence":-1},{"trial_n":72,"min":41,"max":214,"target":"present","response":"present","rt":509.79999999888,"correct":true,"confidence":-1},{"trial_n":73,"min":57,"max":198,"target":"absent","response":"absent","rt":337.90000000037,"correct":true,"confidence":-1},{"trial_n":74,"min":57,"max":198,"target":"absent","response":"absent","rt":473.30000000075,"correct":true,"confidence":-1},{"trial_n":75,"min":73,"max":182,"target":"present","response":"present","rt":556.20000000112,"correct":true,"confidence":-1},{"trial_n":76,"min":73,"max":182,"target":"absent","response":"absent","rt":469.80000000075,"correct":true,"confidence":-1},{"trial_n":77,"min":89,"max":166,"target":"absent","response":"absent","rt":1026,"correct":true,"confidence":-1},{"trial_n":78,"min":89,"max":166,"target":"present","response":"present","rt":677.5,"correct":true,"confidence":-1},{"trial_n":79,"min":105,"max":150,"target":"present","response":"present","rt":631.40000000037,"correct":true,"confidence":-1},{"trial_n":80,"min":105,"max":150,"target":"absent","response":"present","rt":3286.8000000007,"correct":false,"confidence":-1},{"trial_n":81,"min":97,"max":158,"target":"absent","response":"present","rt":768.40000000037,"correct":false,"confidence":-1},{"trial_n":82,"min":89,"max":166,"target":"absent","response":"absent","rt":446.29999999888,"correct":true,"confidence":-1},{"trial_n":83,"min":89,"max":166,"target":"absent","response":"present","rt":941,"correct":false,"confidence":-1},{"trial_n":84,"min":81,"max":174,"target":"absent","response":"absent","rt":317.09999999963,"correct":true,"confidence":-1},{"trial_n":85,"min":81,"max":174,"target":"present","response":"present","rt":301.40000000037,"correct":true,"confidence":-1},{"trial_n":86,"min":89,"max":166,"target":"absent","response":"absent","rt":599.20000000112,"correct":true,"confidence":-1},{"trial_n":87,"min":89,"max":166,"target":"present","response":"absent","rt":1037.2000000011,"correct":false,"confidence":-1},{"trial_n":88,"min":81,"max":174,"target":"present","response":"present","rt":296.5,"correct":true,"confidence":-1},{"trial_n":89,"min":81,"max":174,"target":"absent","response":"absent","rt":506.40000000037,"correct":true,"confidence":-1},{"trial_n":90,"min":89,"max":166,"target":"present","response":"absent","rt":820.59999999963,"correct":false,"confidence":-1},{"trial_n":91,"min":85,"max":170,"target":"present","response":"absent","rt":635.59999999963,"correct":false,"confidence":4},{"trial_n":92,"min":81,"max":174,"target":"absent","response":"absent","rt":812.30000000075,"correct":true,"confidence":3},{"trial_n":93,"min":81,"max":174,"target":"present","response":"present","rt":20.400000000373,"correct":true,"confidence":5},{"trial_n":94,"min":85,"max":170,"target":"absent","response":"present","rt":11463,"correct":false,"confidence":2},{"trial_n":95,"min":81,"max":174,"target":"present","response":"present","rt":175.20000000112,"correct":true,"confidence":5},{"trial_n":96,"min":81,"max":174,"target":"absent","response":"present","rt":684.80000000075,"correct":false,"confidence":4},{"trial_n":97,"min":77,"max":178,"target":"absent","response":"present","rt":402.5,"correct":false,"confidence":1},{"trial_n":98,"min":73,"max":182,"target":"present","response":"present","rt":319.69999999925,"correct":true,"confidence":5},{"trial_n":99,"min":73,"max":182,"target":"absent","response":"absent","rt":352,"correct":true,"confidence":5},{"trial_n":100,"min":77,"max":178,"target":"present","response":"present","rt":367.69999999925,"correct":true,"confidence":5},{"trial_n":101,"min":77,"max":178,"target":"absent","response":"present","rt":500.59999999963,"correct":false,"confidence":5},{"trial_n":102,"min":75,"max":180,"target":"absent","response":"present","rt":503.30000000075,"correct":false,"confidence":4},{"trial_n":103,"min":73,"max":182,"target":"present","response":"present","rt":440,"correct":true,"confidence":5},{"trial_n":104,"min":73,"max":182,"target":"present","response":"present","rt":112.5,"correct":true,"confidence":5},{"trial_n":105,"min":75,"max":180,"target":"present","response":"present","rt":518.69999999925,"correct":true,"confidence":5},{"trial_n":106,"min":75,"max":180,"target":"present","response":"present","rt":522.09999999963,"correct":true,"confidence":5},{"trial_n":107,"min":77,"max":178,"target":"present","response":"present","rt":469,"correct":true,"confidence":5},{"trial_n":108,"min":77,"max":178,"target":"absent","response":"present","rt":705.19999999925,"correct":false,"confidence":5},{"trial_n":109,"min":75,"max":180,"target":"absent","response":"absent","rt":623.60000000149,"correct":true,"confidence":5},{"trial_n":110,"min":75,"max":180,"target":"absent","response":"absent","rt":749.20000000112,"correct":true,"confidence":5},{"trial_n":111,"min":76,"max":179,"target":"absent","response":"absent","rt":700.20000000112,"correct":true,"confidence":4},{"trial_n":112,"min":76,"max":179,"target":"present","response":"present","rt":398.59999999963,"correct":true,"confidence":5},{"trial_n":113,"min":77,"max":178,"target":"absent","response":"absent","rt":388.09999999963,"correct":true,"confidence":5},{"trial_n":114,"min":77,"max":178,"target":"present","response":"present","rt":574,"correct":true,"confidence":5},{"trial_n":115,"min":78,"max":177,"target":"present","response":"present","rt":415.20000000112,"correct":true,"confidence":4},{"trial_n":116,"min":78,"max":177,"target":"absent","response":"absent","rt":495,"correct":true,"confidence":5},{"trial_n":117,"min":79,"max":176,"target":"absent","response":"absent","rt":479.59999999963,"correct":true,"confidence":5},{"trial_n":118,"min":79,"max":176,"target":"absent","response":"absent","rt":524.5,"correct":true,"confidence":5},{"trial_n":119,"min":80,"max":175,"target":"absent","response":"absent","rt":496.29999999888,"correct":true,"confidence":5},{"trial_n":120,"min":80,"max":175,"target":"present","response":"present","rt":310.69999999925,"correct":true,"confidence":5},{"trial_n":121,"min":81,"max":174,"target":"present","response":"present","rt":552.5,"correct":true,"confidence":5},{"trial_n":122,"min":81,"max":174,"target":"present","response":"present","rt":301.5,"correct":true,"confidence":5},{"trial_n":123,"min":82,"max":173,"target":"present","response":"present","rt":324.80000000075,"correct":true,"confidence":5},{"trial_n":124,"min":82,"max":173,"target":"present","response":"present","rt":392.90000000037,"correct":true,"confidence":5},{"trial_n":125,"min":83,"max":172,"target":"present","response":"present","rt":353.90000000037,"correct":true,"confidence":5},{"trial_n":126,"min":83,"max":172,"target":"absent","response":"present","rt":433.90000000037,"correct":false,"confidence":5},{"trial_n":127,"min":82,"max":173,"target":"absent","response":"absent","rt":493.40000000037,"correct":true,"confidence":5},{"trial_n":128,"min":82,"max":173,"target":"present","response":"absent","rt":962.70000000112,"correct":false,"confidence":5},{"trial_n":129,"min":81,"max":174,"target":"absent","response":"absent","rt":595.70000000112,"correct":true,"confidence":5},{"trial_n":130,"min":81,"max":174,"target":"present","response":"present","rt":182,"correct":true,"confidence":5},{"trial_n":131,"min":82,"max":173,"target":"absent","response":"present","rt":335.59999999963,"correct":false,"confidence":5},{"trial_n":132,"min":81,"max":174,"target":"absent","response":"present","rt":656.20000000112,"correct":false,"confidence":5},{"trial_n":133,"min":80,"max":175,"target":"present","response":"present","rt":29433.4,"correct":true,"confidence":5},{"trial_n":134,"min":80,"max":175,"target":"present","response":"present","rt":510.20000000112,"correct":true,"confidence":5},{"trial_n":135,"min":81,"max":174,"target":"present","response":"present","rt":440.59999999963,"correct":true,"confidence":5},{"trial_n":136,"min":81,"max":174,"target":"present","response":"present","rt":1505.6999999993,"correct":true,"confidence":5},{"trial_n":137,"min":82,"max":173,"target":"absent","response":"present","rt":481.20000000112,"correct":false,"confidence":5},{"trial_n":138,"min":81,"max":174,"target":"absent","response":"absent","rt":465.30000000075,"correct":true,"confidence":5},{"trial_n":139,"min":81,"max":174,"target":"present","response":"present","rt":337.59999999963,"correct":true,"confidence":5},{"trial_n":140,"min":82,"max":173,"target":"present","response":"present","rt":653,"correct":true,"confidence":5}]