[{"trial_n":1,"n_dots":4.25,"target":"right","response":"left","rt":5231.4000000954,"correct":false,"confidence":-1},{"trial_n":2,"n_dots":4.25,"target":"left","response":"left","rt":644.59999990463,"correct":true,"confidence":-1},{"trial_n":3,"n_dots":4.25,"target":"right","response":"right","rt":416.80000019073,"correct":true,"confidence":-1},{"trial_n":4,"n_dots":3.85,"target":"right","response":"right","rt":431.90000009537,"correct":true,"confidence":-1},{"trial_n":5,"n_dots":3.85,"target":"left","response":"right","rt":835.90000009537,"correct":false,"confidence":-1},{"trial_n":6,"n_dots":4.25,"target":"left","response":"left","rt":541,"correct":true,"confidence":-1},{"trial_n":7,"n_dots":4.25,"target":"right","response":"right","rt":355.09999990463,"correct":true,"confidence":-1},{"trial_n":8,"n_dots":4.05,"target":"right","response":"right","rt":454.60000038147,"correct":true,"confidence":-1},{"trial_n":9,"n_dots":4.05,"target":"left","response":"left","rt":377.80000019073,"correct":true,"confidence":-1},{"trial_n":10,"n_dots":3.85,"target":"right","response":"right","rt":391.69999980927,"correct":true,"confidence":-1},{"trial_n":11,"n_dots":3.85,"target":"right","response":"right","rt":414.19999980927,"correct":true,"confidence":-1},{"trial_n":12,"n_dots":3.65,"target":"left","response":"left","rt":100.60000038147,"correct":true,"confidence":-1},{"trial_n":13,"n_dots":3.65,"target":"left","response":"left","rt":226.30000019073,"correct":true,"confidence":-1},{"trial_n":14,"n_dots":3.55,"target":"right","response":"right","rt":345.09999990463,"correct":true,"confidence":-1},{"trial_n":15,"n_dots":3.55,"target":"right","response":"right","rt":391,"correct":true,"confidence":-1},{"trial_n":16,"n_dots":3.45,"target":"right","response":"right","rt":218.40000009537,"correct":true,"confidence":-1},{"trial_n":17,"n_dots":3.45,"target":"right","response":"right","rt":915.2000002861,"correct":true,"confidence":-1},{"trial_n":18,"n_dots":3.35,"target":"left","response":"left","rt":153,"correct":true,"confidence":-1},{"trial_n":19,"n_dots":3.35,"target":"right","response":"right","rt":407.40000009537,"correct":true,"confidence":-1},{"trial_n":20,"n_dots":3.25,"target":"right","response":"right","rt":397,"correct":true,"confidence":-1},{"trial_n":21,"n_dots":3.25,"target":"left","response":"right","rt":688.2999997139,"correct":false,"confidence":3},{"trial_n":22,"n_dots":3.35,"target":"left","response":"left","rt":444,"correct":true,"confidence":3},{"trial_n":23,"n_dots":3.35,"target":"right","response":"right","rt":438.69999980927,"correct":true,"confidence":4},{"trial_n":24,"n_dots":3.25,"target":"right","response":"left","rt":607.40000009537,"correct":false,"confidence":3},{"trial_n":25,"n_dots":3.35,"target":"left","response":"left","rt":428.5,"correct":true,"confidence":4},{"trial_n":26,"n_dots":3.35,"target":"right","response":"left","rt":460.80000019073,"correct":false,"confidence":2},{"trial_n":27,"n_dots":3.45,"target":"right","response":"right","rt":538.7000002861,"correct":true,"confidence":3},{"trial_n":28,"n_dots":3.45,"target":"right","response":"right","rt":394.09999990463,"correct":true,"confidence":3},{"trial_n":29,"n_dots":3.35,"target":"right","response":"right","rt":430,"correct":true,"confidence":4},{"trial_n":30,"n_dots":3.35,"target":"right","response":"right","rt":457.89999961853,"correct":true,"confidence":4},{"trial_n":31,"n_dots":3.25,"target":"left","response":"left","rt":407,"correct":true,"confidence":5},{"trial_n":32,"n_dots":3.25,"target":"left","response":"left","rt":554.60000038147,"correct":true,"confidence":4},{"trial_n":33,"n_dots":3.15,"target":"left","response":"left","rt":471.7000002861,"correct":true,"confidence":5},{"trial_n":34,"n_dots":3.15,"target":"left","response":"left","rt":553.80000019073,"correct":true,"confidence":4},{"trial_n":35,"n_dots":3.05,"target":"right","response":"right","rt":457.80000019073,"correct":true,"confidence":3},{"trial_n":36,"n_dots":3.05,"target":"right","response":"left","rt":386.19999980927,"correct":false,"confidence":4},{"trial_n":37,"n_dots":3.15,"target":"left","response":"left","rt":459.59999990463,"correct":true,"confidence":3},{"trial_n":38,"n_dots":3.15,"target":"left","response":"left","rt":375.7000002861,"correct":true,"confidence":4},{"trial_n":39,"n_dots":3.05,"target":"right","response":"right","rt":423.09999990463,"correct":true,"confidence":3},{"trial_n":40,"n_dots":3.05,"target":"left","response":"left","rt":382,"correct":true,"confidence":3},{"trial_n":41,"n_dots":2.95,"target":"left","response":"left","rt":383.7999997139,"correct":true,"confidence":4},{"trial_n":42,"n_dots":2.95,"target":"right","response":"right","rt":480.2999997139,"correct":true,"confidence":2},{"trial_n":43,"n_dots":2.85,"target":"right","response":"left","rt":547.09999990463,"correct":false,"confidence":2},{"trial_n":44,"n_dots":2.95,"target":"right","response":"right","rt":330.09999990463,"correct":true,"confidence":3},{"trial_n":45,"n_dots":2.95,"target":"right","response":"right","rt":693.09999990463,"correct":true,"confidence":2},{"trial_n":46,"n_dots":2.85,"target":"left","response":"left","rt":374.19999980927,"correct":true,"confidence":3},{"trial_n":47,"n_dots":2.85,"target":"right","response":"right","rt":422.39999961853,"correct":true,"confidence":4},{"trial_n":48,"n_dots":2.75,"target":"left","response":"left","rt":293.7999997139,"correct":true,"confidence":3},{"trial_n":49,"n_dots":2.75,"target":"right","response":"right","rt":619,"correct":true,"confidence":2},{"trial_n":50,"n_dots":2.65,"target":"right","response":"right","rt":307.19999980927,"correct":true,"confidence":3},{"trial_n":51,"n_dots":2.65,"target":"left","response":"left","rt":393.60000038147,"correct":true,"confidence":2},{"trial_n":52,"n_dots":2.55,"target":"right","response":"right","rt":373.5,"correct":true,"confidence":3},{"trial_n":53,"n_dots":2.55,"target":"left","response":"left","rt":236.30000019073,"correct":true,"confidence":3},{"trial_n":54,"n_dots":2.45,"target":"left","response":"right","rt":180.7999997139,"correct":false,"confidence":2},{"trial_n":55,"n_dots":2.55,"target":"left","response":"left","rt":246.7999997139,"correct":true,"confidence":3},{"trial_n":56,"n_dots":2.55,"target":"left","response":"right","rt":552.39999961853,"correct":false,"confidence":2},{"trial_n":57,"n_dots":2.65,"target":"left","response":"left","rt":266.7999997139,"correct":true,"confidence":4},{"trial_n":58,"n_dots":2.65,"target":"left","response":"left","rt":374.90000009537,"correct":true,"confidence":4},{"trial_n":59,"n_dots":2.55,"target":"right","response":"right","rt":401.7999997139,"correct":true,"confidence":3},{"trial_n":60,"n_dots":2.55,"target":"left","response":"left","rt":306,"correct":true,"confidence":2},{"trial_n":61,"n_dots":2.45,"target":"right","response":"left","rt":480.2000002861,"correct":false,"confidence":2},{"trial_n":62,"n_dots":2.55,"target":"right","response":"right","rt":421.5,"correct":true,"confidence":3},{"trial_n":63,"n_dots":2.55,"target":"right","response":"left","rt":453.30000019073,"correct":false,"confidence":2},{"trial_n":64,"n_dots":2.65,"target":"left","response":"right","rt":191.09999990463,"correct":false,"confidence":3},{"trial_n":65,"n_dots":2.75,"target":"right","response":"right","rt":254.5,"correct":true,"confidence":4},{"trial_n":66,"n_dots":2.75,"target":"right","response":"left","rt":306.09999990463,"correct":false,"confidence":3},{"trial_n":67,"n_dots":2.85,"target":"left","response":"left","rt":456.09999990463,"correct":true,"confidence":2},{"trial_n":68,"n_dots":2.85,"target":"left","response":"left","rt":558.59999990463,"correct":true,"confidence":3},{"trial_n":69,"n_dots":2.75,"target":"left","response":"right","rt":664.80000019073,"correct":false,"confidence":2},{"trial_n":70,"n_dots":2.85,"target":"left","response":"left","rt":498.69999980927,"correct":true,"confidence":3},{"trial_n":71,"n_dots":2.85,"target":"left","response":"left","rt":928.89999961853,"correct":true,"confidence":3},{"trial_n":72,"n_dots":2.75,"target":"right","response":"right","rt":360.30000019073,"correct":true,"confidence":4},{"trial_n":73,"n_dots":2.75,"target":"right","response":"left","rt":379,"correct":false,"confidence":4},{"trial_n":74,"n_dots":2.85,"target":"right","response":"right","rt":386.5,"correct":true,"confidence":4},{"trial_n":75,"n_dots":2.85,"target":"left","response":"left","rt":310.30000019073,"correct":true,"confidence":3},{"trial_n":76,"n_dots":2.75,"target":"right","response":"right","rt":2713.5,"correct":true,"confidence":3},{"trial_n":77,"n_dots":2.75,"target":"left","response":"left","rt":344.09999990463,"correct":true,"confidence":3},{"trial_n":78,"n_dots":2.65,"target":"left","response":"right","rt":690.60000038147,"correct":false,"confidence":3},{"trial_n":79,"n_dots":2.75,"target":"left","response":"left","rt":490.40000009537,"correct":true,"confidence":3},{"trial_n":80,"n_dots":2.75,"target":"left","response":"right","rt":499.89999961853,"correct":false,"confidence":3},{"trial_n":81,"n_dots":2.85,"target":"right","response":"right","rt":300.19999980927,"correct":true,"confidence":3},{"trial_n":82,"n_dots":2.85,"target":"right","response":"right","rt":313.2999997139,"correct":true,"confidence":4},{"trial_n":83,"n_dots":2.75,"target":"right","response":"left","rt":457.09999990463,"correct":false,"confidence":2},{"trial_n":84,"n_dots":2.85,"target":"right","response":"right","rt":384.09999990463,"correct":true,"confidence":5},{"trial_n":85,"n_dots":2.85,"target":"left","response":"left","rt":348.5,"correct":true,"confidence":3},{"trial_n":86,"n_dots":2.75,"target":"left","response":"left","rt":364.7000002861,"correct":true,"confidence":4},{"trial_n":87,"n_dots":2.75,"target":"left","response":"left","rt":833,"correct":true,"confidence":2},{"trial_n":88,"n_dots":2.65,"target":"left","response":"left","rt":404.40000009537,"correct":true,"confidence":3},{"trial_n":89,"n_dots":2.65,"target":"right","response":"right","rt":704.7999997139,"correct":true,"confidence":4},{"trial_n":90,"n_dots":2.55,"target":"left","response":"left","rt":267.69999980927,"correct":true,"confidence":3},{"trial_n":91,"n_dots":2.55,"target":"left","response":"left","rt":276.59999990463,"correct":true,"confidence":4},{"trial_n":92,"n_dots":2.45,"target":"right","response":"right","rt":1226.1999998093,"correct":true,"confidence":2},{"trial_n":93,"n_dots":2.45,"target":"right","response":"left","rt":374.19999980927,"correct":false,"confidence":2},{"trial_n":94,"n_dots":2.55,"target":"left","response":"right","rt":340.7999997139,"correct":false,"confidence":3},{"trial_n":95,"n_dots":2.65,"target":"right","response":"right","rt":680.90000009537,"correct":true,"confidence":3},{"trial_n":96,"n_dots":2.65,"target":"left","response":"left","rt":401.2999997139,"correct":true,"confidence":3},{"trial_n":97,"n_dots":2.55,"target":"left","response":"left","rt":536.90000009537,"correct":true,"confidence":2},{"trial_n":98,"n_dots":2.55,"target":"left","response":"left","rt":475.5,"correct":true,"confidence":3},{"trial_n":99,"n_dots":2.45,"target":"left","response":"left","rt":293.5,"correct":true,"confidence":4},{"trial_n":100,"n_dots":2.45,"target":"left","response":"left","rt":710.19999980927,"correct":true,"confidence":2},{"trial_n":101,"n_dots":2.35,"target":"left","response":"right","rt":1641.3000001907,"correct":false,"confidence":3},{"trial_n":102,"n_dots":2.45,"target":"left","response":"left","rt":320.7999997139,"correct":true,"confidence":3},{"trial_n":103,"n_dots":2.45,"target":"right","response":"right","rt":865.19999980927,"correct":true,"confidence":4},{"trial_n":104,"n_dots":2.35,"target":"right","response":"left","rt":270.7999997139,"correct":false,"confidence":2},{"trial_n":105,"n_dots":2.45,"target":"left","response":"left","rt":236.40000009537,"correct":true,"confidence":2},{"trial_n":106,"n_dots":2.45,"target":"right","response":"left","rt":395.5,"correct":false,"confidence":3},{"trial_n":107,"n_dots":2.55,"target":"right","response":"right","rt":234.30000019073,"correct":true,"confidence":2},{"trial_n":108,"n_dots":2.55,"target":"right","response":"right","rt":696.5,"correct":true,"confidence":3},{"trial_n":109,"n_dots":2.45,"target":"left","response":"left","rt":667.39999961853,"correct":true,"confidence":3},{"trial_n":110,"n_dots":2.45,"target":"right","response":"right","rt":304.09999990463,"correct":true,"confidence":3},{"trial_n":111,"n_dots":2.35,"target":"left","response":"left","rt":490.59999990463,"correct":true,"confidence":3},{"trial_n":112,"n_dots":2.35,"target":"left","response":"right","rt":680.10000038147,"correct":false,"confidence":3},{"trial_n":113,"n_dots":2.45,"target":"left","response":"left","rt":214.40000009537,"correct":true,"confidence":4},{"trial_n":114,"n_dots":2.45,"target":"left","response":"left","rt":201.7999997139,"correct":true,"confidence":5},{"trial_n":115,"n_dots":2.35,"target":"right","response":"left","rt":279.09999990463,"correct":false,"confidence":2},{"trial_n":116,"n_dots":2.45,"target":"left","response":"right","rt":717.2999997139,"correct":false,"confidence":2},{"trial_n":117,"n_dots":2.55,"target":"right","response":"right","rt":957.7000002861,"correct":true,"confidence":3},{"trial_n":118,"n_dots":2.55,"target":"right","response":"left","rt":446.5,"correct":false,"confidence":3},{"trial_n":119,"n_dots":2.65,"target":"right","response":"left","rt":348.2999997139,"correct":false,"confidence":4},{"trial_n":120,"n_dots":2.75,"target":"right","response":"right","rt":621.60000038147,"correct":true,"confidence":3}]