[{"trial_n":1,"min":25,"max":230,"target":"present","response":"present","rt":12297,"correct":true,"confidence":-1},{"trial_n":2,"min":25,"max":230,"target":"present","response":"present","rt":2095,"correct":true,"confidence":-1},{"trial_n":3,"min":41,"max":214,"target":"absent","response":"absent","rt":561,"correct":true,"confidence":-1},{"trial_n":4,"min":41,"max":214,"target":"absent","response":"absent","rt":503,"correct":true,"confidence":-1},{"trial_n":5,"min":57,"max":198,"target":"present","response":"present","rt":570,"correct":true,"confidence":-1},{"trial_n":6,"min":57,"max":198,"target":"absent","response":"absent","rt":903.99999999999,"correct":true,"confidence":-1},{"trial_n":7,"min":73,"max":182,"target":"absent","response":"absent","rt":569,"correct":true,"confidence":-1},{"trial_n":8,"min":73,"max":182,"target":"absent","response":"absent","rt":544,"correct":true,"confidence":-1},{"trial_n":9,"min":89,"max":166,"target":"present","response":"present","rt":851.00000000001,"correct":true,"confidence":-1},{"trial_n":10,"min":89,"max":166,"target":"present","response":"present","rt":585,"correct":true,"confidence":-1},{"trial_n":11,"min":97,"max":158,"target":"present","response":"absent","rt":546,"correct":false,"confidence":-1},{"trial_n":12,"min":89,"max":166,"target":"absent","response":"absent","rt":960.00000000001,"correct":true,"confidence":-1},{"trial_n":13,"min":89,"max":166,"target":"absent","response":"absent","rt":881,"correct":true,"confidence":-1},{"trial_n":14,"min":97,"max":158,"target":"absent","response":"absent","rt":695,"correct":true,"confidence":-1},{"trial_n":15,"min":97,"max":158,"target":"absent","response":"absent","rt":608,"correct":true,"confidence":-1},{"trial_n":16,"min":105,"max":150,"target":"absent","response":"absent","rt":545,"correct":true,"confidence":-1},{"trial_n":17,"min":105,"max":150,"target":"present","response":"present","rt":649.99999999999,"correct":true,"confidence":-1},{"trial_n":18,"min":113,"max":142,"target":"absent","response":"absent","rt":608,"correct":true,"confidence":-1},{"trial_n":19,"min":113,"max":142,"target":"present","response":"absent","rt":553.00000000001,"correct":false,"confidence":-1},{"trial_n":20,"min":105,"max":150,"target":"present","response":"present","rt":736,"correct":true,"confidence":-1},{"trial_n":21,"min":105,"max":150,"target":"absent","response":"present","rt":703,"correct":false,"confidence":3},{"trial_n":22,"min":101,"max":154,"target":"present","response":"present","rt":719,"correct":true,"confidence":4},{"trial_n":23,"min":101,"max":154,"target":"absent","response":"absent","rt":694.99999999999,"correct":true,"confidence":4},{"trial_n":24,"min":105,"max":150,"target":"present","response":"present","rt":1199,"correct":true,"confidence":5},{"trial_n":25,"min":105,"max":150,"target":"present","response":"present","rt":528,"correct":true,"confidence":5},{"trial_n":26,"min":109,"max":146,"target":"absent","response":"present","rt":1511,"correct":false,"confidence":4},{"trial_n":27,"min":105,"max":150,"target":"present","response":"absent","rt":463.00000000001,"correct":false,"confidence":4},{"trial_n":28,"min":101,"max":154,"target":"present","response":"absent","rt":1390,"correct":false,"confidence":4},{"trial_n":29,"min":97,"max":158,"target":"absent","response":"present","rt":487,"correct":false,"confidence":5},{"trial_n":30,"min":93,"max":162,"target":"absent","response":"present","rt":1078,"correct":false,"confidence":4},{"trial_n":31,"min":91,"max":164,"target":"present","response":"present","rt":751.00000000001,"correct":true,"confidence":5},{"trial_n":32,"min":91,"max":164,"target":"present","response":"absent","rt":1535,"correct":false,"confidence":3},{"trial_n":33,"min":89,"max":166,"target":"present","response":"present","rt":672.00000000001,"correct":true,"confidence":4},{"trial_n":34,"min":89,"max":166,"target":"present","response":"absent","rt":449.00000000001,"correct":false,"confidence":4},{"trial_n":35,"min":87,"max":168,"target":"absent","response":"present","rt":821.00000000001,"correct":false,"confidence":5},{"trial_n":36,"min":85,"max":170,"target":"absent","response":"absent","rt":423,"correct":true,"confidence":5},{"trial_n":37,"min":85,"max":170,"target":"absent","response":"present","rt":429,"correct":false,"confidence":5},{"trial_n":38,"min":83,"max":172,"target":"present","response":"present","rt":601.00000000001,"correct":true,"confidence":5},{"trial_n":39,"min":83,"max":172,"target":"present","response":"present","rt":616,"correct":true,"confidence":5},{"trial_n":40,"min":85,"max":170,"target":"absent","response":"absent","rt":382,"correct":true,"confidence":5},{"trial_n":41,"min":85,"max":170,"target":"present","response":"present","rt":520,"correct":true,"confidence":3},{"trial_n":42,"min":86,"max":169,"target":"absent","response":"present","rt":558,"correct":false,"confidence":5},{"trial_n":43,"min":85,"max":170,"target":"present","response":"absent","rt":608.00000000001,"correct":false,"confidence":4},{"trial_n":44,"min":84,"max":171,"target":"present","response":"present","rt":441,"correct":true,"confidence":5},{"trial_n":45,"min":84,"max":171,"target":"absent","response":"present","rt":455,"correct":false,"confidence":5},{"trial_n":46,"min":83,"max":172,"target":"absent","response":"present","rt":504,"correct":false,"confidence":5},{"trial_n":47,"min":82,"max":173,"target":"absent","response":"absent","rt":582.99999999997,"correct":true,"confidence":5},{"trial_n":48,"min":82,"max":173,"target":"present","response":"present","rt":896,"correct":true,"confidence":5},{"trial_n":49,"min":83,"max":172,"target":"absent","response":"present","rt":535,"correct":false,"confidence":5},{"trial_n":50,"min":82,"max":173,"target":"present","response":"present","rt":609,"correct":true,"confidence":5},{"trial_n":51,"min":82,"max":173,"target":"absent","response":"absent","rt":559,"correct":true,"confidence":5},{"trial_n":52,"min":83,"max":172,"target":"absent","response":"present","rt":759,"correct":false,"confidence":5},{"trial_n":53,"min":82,"max":173,"target":"present","response":"present","rt":423.00000000003,"correct":true,"confidence":5},{"trial_n":54,"min":82,"max":173,"target":"present","response":"present","rt":434,"correct":true,"confidence":5},{"trial_n":55,"min":83,"max":172,"target":"present","response":"present","rt":450,"correct":true,"confidence":5},{"trial_n":56,"min":83,"max":172,"target":"present","response":"present","rt":456,"correct":true,"confidence":5},{"trial_n":57,"min":84,"max":171,"target":"absent","response":"present","rt":1254,"correct":false,"confidence":5},{"trial_n":58,"min":83,"max":172,"target":"present","response":"present","rt":369,"correct":true,"confidence":5},{"trial_n":59,"min":83,"max":172,"target":"present","response":"present","rt":344,"correct":true,"confidence":5},{"trial_n":60,"min":84,"max":171,"target":"absent","response":"present","rt":398,"correct":false,"confidence":5},{"trial_n":61,"min":83,"max":172,"target":"present","response":"absent","rt":1058,"correct":false,"confidence":5},{"trial_n":62,"min":82,"max":173,"target":"absent","response":"absent","rt":809,"correct":true,"confidence":3},{"trial_n":63,"min":82,"max":173,"target":"present","response":"present","rt":448.99999999997,"correct":true,"confidence":5},{"trial_n":64,"min":83,"max":172,"target":"present","response":"present","rt":426,"correct":true,"confidence":5},{"trial_n":65,"min":83,"max":172,"target":"present","response":"present","rt":432.99999999997,"correct":true,"confidence":5},{"trial_n":66,"min":84,"max":171,"target":"absent","response":"absent","rt":1113,"correct":true,"confidence":5},{"trial_n":67,"min":84,"max":171,"target":"absent","response":"absent","rt":609,"correct":true,"confidence":3},{"trial_n":68,"min":85,"max":170,"target":"absent","response":"absent","rt":458,"correct":true,"confidence":5},{"trial_n":69,"min":85,"max":170,"target":"absent","response":"absent","rt":697,"correct":true,"confidence":4},{"trial_n":70,"min":86,"max":169,"target":"present","response":"absent","rt":1241,"correct":false,"confidence":4},{"trial_n":71,"min":41,"max":214,"target":"present","response":"present","rt":3599,"correct":true,"confidence":-1},{"trial_n":72,"min":41,"max":214,"target":"present","response":"present","rt":621,"correct":true,"confidence":-1},{"trial_n":73,"min":57,"max":198,"target":"absent","response":"absent","rt":421.00000000003,"correct":true,"confidence":-1},{"trial_n":74,"min":57,"max":198,"target":"absent","response":"absent","rt":459.99999999997,"correct":true,"confidence":-1},{"trial_n":75,"min":73,"max":182,"target":"present","response":"present","rt":556,"correct":true,"confidence":-1},{"trial_n":76,"min":73,"max":182,"target":"absent","response":"absent","rt":565,"correct":true,"confidence":-1},{"trial_n":77,"min":89,"max":166,"target":"absent","response":"absent","rt":573,"correct":true,"confidence":-1},{"trial_n":78,"min":89,"max":166,"target":"present","response":"present","rt":1115,"correct":true,"confidence":-1},{"trial_n":79,"min":105,"max":150,"target":"present","response":"present","rt":717,"correct":true,"confidence":-1},{"trial_n":80,"min":105,"max":150,"target":"present","response":"absent","rt":1166,"correct":false,"confidence":-1},{"trial_n":81,"min":97,"max":158,"target":"present","response":"absent","rt":501,"correct":false,"confidence":-1},{"trial_n":82,"min":89,"max":166,"target":"present","response":"present","rt":471,"correct":true,"confidence":-1},{"trial_n":83,"min":89,"max":166,"target":"present","response":"present","rt":509.00000000003,"correct":true,"confidence":-1},{"trial_n":84,"min":97,"max":158,"target":"absent","response":"absent","rt":598.00000000003,"correct":true,"confidence":-1},{"trial_n":85,"min":97,"max":158,"target":"present","response":"absent","rt":597.00000000003,"correct":false,"confidence":-1},{"trial_n":86,"min":89,"max":166,"target":"present","response":"present","rt":1293,"correct":true,"confidence":-1},{"trial_n":87,"min":89,"max":166,"target":"present","response":"absent","rt":852.00000000003,"correct":false,"confidence":-1},{"trial_n":88,"min":81,"max":174,"target":"absent","response":"absent","rt":579,"correct":true,"confidence":-1},{"trial_n":89,"min":81,"max":174,"target":"present","response":"present","rt":453.99999999997,"correct":true,"confidence":-1},{"trial_n":90,"min":89,"max":166,"target":"absent","response":"absent","rt":576,"correct":true,"confidence":-1},{"trial_n":91,"min":89,"max":166,"target":"present","response":"absent","rt":443,"correct":false,"confidence":1},{"trial_n":92,"min":85,"max":170,"target":"absent","response":"absent","rt":750,"correct":true,"confidence":4},{"trial_n":93,"min":85,"max":170,"target":"absent","response":"absent","rt":715,"correct":true,"confidence":5},{"trial_n":94,"min":89,"max":166,"target":"absent","response":"present","rt":495,"correct":false,"confidence":5},{"trial_n":95,"min":85,"max":170,"target":"absent","response":"present","rt":2016,"correct":false,"confidence":3},{"trial_n":96,"min":81,"max":174,"target":"absent","response":"absent","rt":488,"correct":true,"confidence":5},{"trial_n":97,"min":81,"max":174,"target":"absent","response":"absent","rt":522,"correct":true,"confidence":5},{"trial_n":98,"min":85,"max":170,"target":"absent","response":"absent","rt":783,"correct":true,"confidence":5},{"trial_n":99,"min":85,"max":170,"target":"present","response":"present","rt":664,"correct":true,"confidence":3},{"trial_n":100,"min":89,"max":166,"target":"present","response":"present","rt":921,"correct":true,"confidence":5},{"trial_n":101,"min":89,"max":166,"target":"absent","response":"present","rt":601,"correct":false,"confidence":5},{"trial_n":102,"min":87,"max":168,"target":"present","response":"present","rt":448,"correct":true,"confidence":5},{"trial_n":103,"min":87,"max":168,"target":"present","response":"present","rt":608,"correct":true,"confidence":4},{"trial_n":104,"min":89,"max":166,"target":"present","response":"present","rt":353,"correct":true,"confidence":5},{"trial_n":105,"min":89,"max":166,"target":"present","response":"present","rt":289,"correct":true,"confidence":5},{"trial_n":106,"min":91,"max":164,"target":"present","response":"present","rt":466,"correct":true,"confidence":5},{"trial_n":107,"min":91,"max":164,"target":"absent","response":"absent","rt":1618.0000000001,"correct":true,"confidence":5},{"trial_n":108,"min":93,"max":162,"target":"absent","response":"absent","rt":1116,"correct":true,"confidence":3},{"trial_n":109,"min":93,"max":162,"target":"absent","response":"absent","rt":1201,"correct":true,"confidence":1},{"trial_n":110,"min":95,"max":160,"target":"absent","response":"present","rt":1281,"correct":false,"confidence":1},{"trial_n":111,"min":94,"max":161,"target":"absent","response":"absent","rt":640,"correct":true,"confidence":1},{"trial_n":112,"min":94,"max":161,"target":"present","response":"present","rt":960,"correct":true,"confidence":4},{"trial_n":113,"min":95,"max":160,"target":"absent","response":"absent","rt":642,"correct":true,"confidence":5},{"trial_n":114,"min":95,"max":160,"target":"present","response":"absent","rt":704,"correct":false,"confidence":5},{"trial_n":115,"min":94,"max":161,"target":"absent","response":"absent","rt":735.00000000006,"correct":true,"confidence":5},{"trial_n":116,"min":94,"max":161,"target":"absent","response":"present","rt":776,"correct":false,"confidence":3},{"trial_n":117,"min":93,"max":162,"target":"present","response":"present","rt":632.99999999994,"correct":true,"confidence":5},{"trial_n":118,"min":93,"max":162,"target":"present","response":"absent","rt":3539,"correct":false,"confidence":2},{"trial_n":119,"min":92,"max":163,"target":"absent","response":"absent","rt":1282.0000000001,"correct":true,"confidence":1},{"trial_n":120,"min":92,"max":163,"target":"present","response":"absent","rt":1324,"correct":false,"confidence":4},{"trial_n":121,"min":91,"max":164,"target":"absent","response":"present","rt":729,"correct":false,"confidence":3},{"trial_n":122,"min":90,"max":165,"target":"present","response":"present","rt":338,"correct":true,"confidence":5},{"trial_n":123,"min":90,"max":165,"target":"present","response":"present","rt":832,"correct":true,"confidence":1},{"trial_n":124,"min":91,"max":164,"target":"absent","response":"absent","rt":801.99999999994,"correct":true,"confidence":1},{"trial_n":125,"min":91,"max":164,"target":"present","response":"present","rt":880.99999999994,"correct":true,"confidence":4},{"trial_n":126,"min":92,"max":163,"target":"present","response":"present","rt":506,"correct":true,"confidence":5},{"trial_n":127,"min":92,"max":163,"target":"absent","response":"present","rt":521,"correct":false,"confidence":5},{"trial_n":128,"min":91,"max":164,"target":"present","response":"absent","rt":691,"correct":false,"confidence":2},{"trial_n":129,"min":90,"max":165,"target":"absent","response":"present","rt":2098,"correct":false,"confidence":2},{"trial_n":130,"min":89,"max":166,"target":"present","response":"present","rt":533,"correct":true,"confidence":5},{"trial_n":131,"min":89,"max":166,"target":"present","response":"present","rt":496,"correct":true,"confidence":4},{"trial_n":132,"min":90,"max":165,"target":"absent","response":"present","rt":623.99999999994,"correct":false,"confidence":5},{"trial_n":133,"min":89,"max":166,"target":"absent","response":"present","rt":849,"correct":false,"confidence":3},{"trial_n":134,"min":88,"max":167,"target":"absent","response":"present","rt":412,"correct":false,"confidence":5},{"trial_n":135,"min":87,"max":168,"target":"present","response":"present","rt":2161,"correct":true,"confidence":1},{"trial_n":136,"min":87,"max":168,"target":"absent","response":"absent","rt":1089,"correct":true,"confidence":5},{"trial_n":137,"min":88,"max":167,"target":"absent","response":"present","rt":945.99999999994,"correct":false,"confidence":4},{"trial_n":138,"min":87,"max":168,"target":"present","response":"present","rt":643,"correct":true,"confidence":5},{"trial_n":139,"min":87,"max":168,"target":"present","response":"present","rt":563,"correct":true,"confidence":5},{"trial_n":140,"min":88,"max":167,"target":"absent","response":"present","rt":2812,"correct":false,"confidence":1}]