[{"trial_n":1,"n_dots":4.25,"target":"left","response":"left","rt":8670,"correct":true,"confidence":-1},{"trial_n":2,"n_dots":4.25,"target":"right","response":"left","rt":3502,"correct":false,"confidence":-1},{"trial_n":3,"n_dots":4.65,"target":"right","response":"right","rt":884,"correct":true,"confidence":-1},{"trial_n":4,"n_dots":4.65,"target":"right","response":"right","rt":706,"correct":true,"confidence":-1},{"trial_n":5,"n_dots":4.25,"target":"left","response":"right","rt":3854,"correct":false,"confidence":-1},{"trial_n":6,"n_dots":4.65,"target":"left","response":"left","rt":634,"correct":true,"confidence":-1},{"trial_n":7,"n_dots":4.65,"target":"left","response":"left","rt":389,"correct":true,"confidence":-1},{"trial_n":8,"n_dots":4.45,"target":"left","response":"left","rt":380,"correct":true,"confidence":-1},{"trial_n":9,"n_dots":4.45,"target":"left","response":"left","rt":256,"correct":true,"confidence":-1},{"trial_n":10,"n_dots":4.25,"target":"left","response":"left","rt":349,"correct":true,"confidence":-1},{"trial_n":11,"n_dots":4.25,"target":"right","response":"right","rt":341,"correct":true,"confidence":-1},{"trial_n":12,"n_dots":4.05,"target":"right","response":"right","rt":348,"correct":true,"confidence":-1},{"trial_n":13,"n_dots":4.05,"target":"right","response":"right","rt":397,"correct":true,"confidence":-1},{"trial_n":14,"n_dots":3.95,"target":"right","response":"right","rt":357,"correct":true,"confidence":-1},{"trial_n":15,"n_dots":3.95,"target":"left","response":"left","rt":355,"correct":true,"confidence":-1},{"trial_n":16,"n_dots":3.85,"target":"left","response":"right","rt":332,"correct":false,"confidence":-1},{"trial_n":17,"n_dots":3.95,"target":"left","response":"left","rt":368,"correct":true,"confidence":-1},{"trial_n":18,"n_dots":3.95,"target":"left","response":"left","rt":373,"correct":true,"confidence":-1},{"trial_n":19,"n_dots":3.85,"target":"right","response":"right","rt":337,"correct":true,"confidence":-1},{"trial_n":20,"n_dots":3.85,"target":"left","response":"left","rt":361,"correct":true,"confidence":-1},{"trial_n":21,"n_dots":3.75,"target":"right","response":"right","rt":301,"correct":true,"confidence":3},{"trial_n":22,"n_dots":3.75,"target":"left","response":"left","rt":631,"correct":true,"confidence":1},{"trial_n":23,"n_dots":3.65,"target":"left","response":"right","rt":341,"correct":false,"confidence":1},{"trial_n":24,"n_dots":3.75,"target":"right","response":"right","rt":139,"correct":true,"confidence":3},{"trial_n":25,"n_dots":3.75,"target":"left","response":"left","rt":395,"correct":true,"confidence":1},{"trial_n":26,"n_dots":3.65,"target":"right","response":"right","rt":76,"correct":true,"confidence":3},{"trial_n":27,"n_dots":3.65,"target":"right","response":"right","rt":292,"correct":true,"confidence":4},{"trial_n":28,"n_dots":3.55,"target":"right","response":"right","rt":405,"correct":true,"confidence":3},{"trial_n":29,"n_dots":3.55,"target":"left","response":"left","rt":492,"correct":true,"confidence":1},{"trial_n":30,"n_dots":3.45,"target":"right","response":"right","rt":334,"correct":true,"confidence":1},{"trial_n":31,"n_dots":3.45,"target":"left","response":"left","rt":422,"correct":true,"confidence":1},{"trial_n":32,"n_dots":3.35,"target":"right","response":"right","rt":497,"correct":true,"confidence":1},{"trial_n":33,"n_dots":3.35,"target":"right","response":"right","rt":422,"correct":true,"confidence":1},{"trial_n":34,"n_dots":3.25,"target":"right","response":"right","rt":324,"correct":true,"confidence":1},{"trial_n":35,"n_dots":3.25,"target":"right","response":"right","rt":396,"correct":true,"confidence":1},{"trial_n":36,"n_dots":3.15,"target":"right","response":"right","rt":359,"correct":true,"confidence":1},{"trial_n":37,"n_dots":3.15,"target":"right","response":"right","rt":373,"correct":true,"confidence":1},{"trial_n":38,"n_dots":3.05,"target":"right","response":"left","rt":37520,"correct":false,"confidence":1},{"trial_n":39,"n_dots":3.15,"target":"left","response":"right","rt":2025,"correct":false,"confidence":1},{"trial_n":40,"n_dots":3.25,"target":"left","response":"left","rt":605,"correct":true,"confidence":1},{"trial_n":41,"n_dots":3.25,"target":"left","response":"right","rt":340,"correct":false,"confidence":1},{"trial_n":42,"n_dots":3.35,"target":"left","response":"left","rt":299,"correct":true,"confidence":1},{"trial_n":43,"n_dots":3.35,"target":"right","response":"right","rt":323,"correct":true,"confidence":1},{"trial_n":44,"n_dots":3.25,"target":"right","response":"left","rt":366,"correct":false,"confidence":1},{"trial_n":45,"n_dots":3.35,"target":"right","response":"left","rt":308,"correct":false,"confidence":1},{"trial_n":46,"n_dots":3.45,"target":"left","response":"right","rt":323,"correct":false,"confidence":1},{"trial_n":47,"n_dots":3.55,"target":"left","response":"left","rt":302,"correct":true,"confidence":1},{"trial_n":48,"n_dots":3.55,"target":"left","response":"left","rt":273,"correct":true,"confidence":1},{"trial_n":49,"n_dots":3.45,"target":"left","response":"left","rt":354,"correct":true,"confidence":1},{"trial_n":50,"n_dots":3.45,"target":"right","response":"left","rt":271,"correct":false,"confidence":1},{"trial_n":51,"n_dots":3.55,"target":"right","response":"right","rt":337,"correct":true,"confidence":1},{"trial_n":52,"n_dots":3.55,"target":"left","response":"left","rt":266,"correct":true,"confidence":1},{"trial_n":53,"n_dots":3.45,"target":"right","response":"left","rt":291,"correct":false,"confidence":1},{"trial_n":54,"n_dots":3.55,"target":"left","response":"left","rt":375,"correct":true,"confidence":1},{"trial_n":55,"n_dots":3.55,"target":"right","response":"left","rt":834,"correct":false,"confidence":1},{"trial_n":56,"n_dots":3.65,"target":"left","response":"right","rt":361,"correct":false,"confidence":1},{"trial_n":57,"n_dots":3.75,"target":"right","response":"right","rt":321,"correct":true,"confidence":1},{"trial_n":58,"n_dots":3.75,"target":"left","response":"left","rt":296,"correct":true,"confidence":1},{"trial_n":59,"n_dots":3.65,"target":"right","response":"right","rt":270,"correct":true,"confidence":1},{"trial_n":60,"n_dots":3.65,"target":"right","response":"right","rt":199,"correct":true,"confidence":1},{"trial_n":61,"n_dots":3.55,"target":"left","response":"right","rt":126,"correct":false,"confidence":1},{"trial_n":62,"n_dots":3.65,"target":"right","response":"right","rt":-3,"correct":true,"confidence":1},{"trial_n":63,"n_dots":3.65,"target":"right","response":"right","rt":384,"correct":true,"confidence":1},{"trial_n":64,"n_dots":3.55,"target":"right","response":"right","rt":370,"correct":true,"confidence":1},{"trial_n":65,"n_dots":3.55,"target":"left","response":"left","rt":279,"correct":true,"confidence":1},{"trial_n":66,"n_dots":3.45,"target":"right","response":"right","rt":341,"correct":true,"confidence":1},{"trial_n":67,"n_dots":3.45,"target":"left","response":"left","rt":429,"correct":true,"confidence":1},{"trial_n":68,"n_dots":3.35,"target":"left","response":"left","rt":403,"correct":true,"confidence":1},{"trial_n":69,"n_dots":3.35,"target":"left","response":"left","rt":1319,"correct":true,"confidence":1},{"trial_n":70,"n_dots":3.25,"target":"right","response":"right","rt":347,"correct":true,"confidence":1},{"trial_n":71,"n_dots":3.25,"target":"left","response":"left","rt":300,"correct":true,"confidence":1},{"trial_n":72,"n_dots":3.15,"target":"right","response":"right","rt":676,"correct":true,"confidence":2},{"trial_n":73,"n_dots":3.15,"target":"right","response":"left","rt":260,"correct":false,"confidence":1},{"trial_n":74,"n_dots":3.25,"target":"left","response":"left","rt":145,"correct":true,"confidence":1},{"trial_n":75,"n_dots":3.25,"target":"right","response":"right","rt":1033,"correct":true,"confidence":1},{"trial_n":76,"n_dots":3.15,"target":"left","response":"right","rt":307,"correct":false,"confidence":1},{"trial_n":77,"n_dots":3.25,"target":"left","response":"left","rt":153,"correct":true,"confidence":1},{"trial_n":78,"n_dots":3.25,"target":"left","response":"left","rt":277,"correct":true,"confidence":1},{"trial_n":79,"n_dots":3.15,"target":"right","response":"right","rt":375,"correct":true,"confidence":1},{"trial_n":80,"n_dots":3.15,"target":"right","response":"left","rt":83,"correct":false,"confidence":1},{"trial_n":81,"n_dots":3.25,"target":"right","response":"right","rt":107,"correct":true,"confidence":1},{"trial_n":82,"n_dots":3.25,"target":"right","response":"right","rt":690,"correct":true,"confidence":3},{"trial_n":83,"n_dots":3.15,"target":"right","response":"right","rt":588,"correct":true,"confidence":1},{"trial_n":84,"n_dots":3.15,"target":"right","response":"right","rt":384,"correct":true,"confidence":1},{"trial_n":85,"n_dots":3.05,"target":"left","response":"left","rt":259,"correct":true,"confidence":3},{"trial_n":86,"n_dots":3.05,"target":"right","response":"right","rt":361,"correct":true,"confidence":1},{"trial_n":87,"n_dots":2.95,"target":"left","response":"right","rt":280,"correct":false,"confidence":1},{"trial_n":88,"n_dots":3.05,"target":"right","response":"left","rt":366,"correct":false,"confidence":1},{"trial_n":89,"n_dots":3.15,"target":"left","response":"left","rt":387,"correct":true,"confidence":1},{"trial_n":90,"n_dots":3.15,"target":"right","response":"right","rt":458,"correct":true,"confidence":1},{"trial_n":91,"n_dots":3.05,"target":"left","response":"left","rt":823,"correct":true,"confidence":1},{"trial_n":92,"n_dots":3.05,"target":"left","response":"right","rt":331,"correct":false,"confidence":1},{"trial_n":93,"n_dots":3.15,"target":"right","response":"right","rt":162,"correct":true,"confidence":1},{"trial_n":94,"n_dots":3.15,"target":"left","response":"left","rt":43,"correct":true,"confidence":1},{"trial_n":95,"n_dots":3.05,"target":"right","response":"right","rt":368,"correct":true,"confidence":1},{"trial_n":96,"n_dots":3.05,"target":"left","response":"left","rt":400,"correct":true,"confidence":1},{"trial_n":97,"n_dots":2.95,"target":"left","response":"right","rt":361,"correct":false,"confidence":1},{"trial_n":98,"n_dots":3.05,"target":"right","response":"left","rt":322,"correct":false,"confidence":1},{"trial_n":99,"n_dots":3.15,"target":"right","response":"right","rt":256,"correct":true,"confidence":1},{"trial_n":100,"n_dots":3.15,"target":"left","response":"left","rt":1,"correct":true,"confidence":1},{"trial_n":101,"n_dots":3.05,"target":"right","response":"right","rt":994,"correct":true,"confidence":1},{"trial_n":102,"n_dots":3.05,"target":"left","response":"left","rt":162,"correct":true,"confidence":1},{"trial_n":103,"n_dots":2.95,"target":"right","response":"right","rt":85,"correct":true,"confidence":1},{"trial_n":104,"n_dots":2.95,"target":"right","response":"left","rt":435,"correct":false,"confidence":1},{"trial_n":105,"n_dots":3.05,"target":"left","response":"left","rt":328,"correct":true,"confidence":1},{"trial_n":106,"n_dots":3.05,"target":"left","response":"right","rt":331,"correct":false,"confidence":1},{"trial_n":107,"n_dots":3.15,"target":"right","response":"right","rt":297,"correct":true,"confidence":1},{"trial_n":108,"n_dots":3.15,"target":"left","response":"left","rt":266,"correct":true,"confidence":1},{"trial_n":109,"n_dots":3.05,"target":"left","response":"right","rt":115,"correct":false,"confidence":1},{"trial_n":110,"n_dots":3.15,"target":"right","response":"left","rt":256,"correct":false,"confidence":1},{"trial_n":111,"n_dots":3.25,"target":"left","response":"left","rt":385,"correct":true,"confidence":1},{"trial_n":112,"n_dots":3.25,"target":"left","response":"left","rt":363,"correct":true,"confidence":1},{"trial_n":113,"n_dots":3.15,"target":"left","response":"left","rt":369,"correct":true,"confidence":1},{"trial_n":114,"n_dots":3.15,"target":"left","response":"left","rt":351,"correct":true,"confidence":1},{"trial_n":115,"n_dots":3.05,"target":"left","response":"left","rt":323,"correct":true,"confidence":1},{"trial_n":116,"n_dots":3.05,"target":"right","response":"left","rt":333,"correct":false,"confidence":1},{"trial_n":117,"n_dots":3.15,"target":"right","response":"right","rt":294,"correct":true,"confidence":1},{"trial_n":118,"n_dots":3.15,"target":"left","response":"left","rt":380,"correct":true,"confidence":1},{"trial_n":119,"n_dots":3.05,"target":"left","response":"right","rt":371,"correct":false,"confidence":1},{"trial_n":120,"n_dots":3.15,"target":"right","response":"right","rt":316,"correct":true,"confidence":1}]