[{"trial_n":1,"n_dots":4.25,"target":"left","response":"right","rt":9546.5,"correct":false,"confidence":-1},{"trial_n":2,"n_dots":4.25,"target":"left","response":"right","rt":4896.5999999046,"correct":false,"confidence":-1},{"trial_n":3,"n_dots":4.65,"target":"left","response":"left","rt":4142.6999998093,"correct":true,"confidence":-1},{"trial_n":4,"n_dots":4.65,"target":"right","response":"left","rt":925.70000004768,"correct":false,"confidence":-1},{"trial_n":5,"n_dots":5.05,"target":"left","response":"right","rt":1291.9000000954,"correct":false,"confidence":-1},{"trial_n":6,"n_dots":5.45,"target":"right","response":"right","rt":1506.4000000954,"correct":true,"confidence":-1},{"trial_n":7,"n_dots":5.45,"target":"right","response":"right","rt":663,"correct":true,"confidence":-1},{"trial_n":8,"n_dots":5.25,"target":"left","response":"left","rt":627,"correct":true,"confidence":-1},{"trial_n":9,"n_dots":5.25,"target":"right","response":"right","rt":962.90000009537,"correct":true,"confidence":-1},{"trial_n":10,"n_dots":5.05,"target":"left","response":"left","rt":605.40000009537,"correct":true,"confidence":-1},{"trial_n":11,"n_dots":5.05,"target":"right","response":"right","rt":478.89999985695,"correct":true,"confidence":-1},{"trial_n":12,"n_dots":4.85,"target":"right","response":"right","rt":202.5,"correct":true,"confidence":-1},{"trial_n":13,"n_dots":4.85,"target":"right","response":"right","rt":-4.6999998092651,"correct":true,"confidence":-1},{"trial_n":14,"n_dots":4.75,"target":"left","response":"left","rt":699.60000014305,"correct":true,"confidence":-1},{"trial_n":15,"n_dots":4.75,"target":"right","response":"right","rt":790.59999990463,"correct":true,"confidence":-1},{"trial_n":16,"n_dots":4.65,"target":"right","response":"right","rt":741.29999995232,"correct":true,"confidence":-1},{"trial_n":17,"n_dots":4.65,"target":"right","response":"right","rt":362.09999990463,"correct":true,"confidence":-1},{"trial_n":18,"n_dots":4.55,"target":"right","response":"right","rt":31.5,"correct":true,"confidence":-1},{"trial_n":19,"n_dots":4.55,"target":"left","response":"right","rt":882.39999985695,"correct":false,"confidence":-1},{"trial_n":20,"n_dots":4.65,"target":"right","response":"right","rt":178.20000004768,"correct":true,"confidence":-1},{"trial_n":21,"n_dots":4.65,"target":"right","response":"right","rt":210.80000019073,"correct":true,"confidence":4},{"trial_n":22,"n_dots":4.55,"target":"left","response":"left","rt":1130.5,"correct":true,"confidence":4},{"trial_n":23,"n_dots":4.55,"target":"right","response":"right","rt":712.09999990463,"correct":true,"confidence":4},{"trial_n":24,"n_dots":4.45,"target":"right","response":"right","rt":588.70000004768,"correct":true,"confidence":5},{"trial_n":25,"n_dots":4.45,"target":"left","response":"left","rt":1243.7999999523,"correct":true,"confidence":3},{"trial_n":26,"n_dots":4.35,"target":"left","response":"left","rt":1220.5,"correct":true,"confidence":2},{"trial_n":27,"n_dots":4.35,"target":"right","response":"right","rt":996.70000004768,"correct":true,"confidence":4},{"trial_n":28,"n_dots":4.25,"target":"right","response":"right","rt":642.89999985695,"correct":true,"confidence":4},{"trial_n":29,"n_dots":4.25,"target":"left","response":"left","rt":1657.0999999046,"correct":true,"confidence":2},{"trial_n":30,"n_dots":4.15,"target":"right","response":"right","rt":971.20000004768,"correct":true,"confidence":4},{"trial_n":31,"n_dots":4.15,"target":"right","response":"right","rt":613.80000019073,"correct":true,"confidence":5},{"trial_n":32,"n_dots":4.05,"target":"right","response":"right","rt":443.79999995232,"correct":true,"confidence":3},{"trial_n":33,"n_dots":4.05,"target":"right","response":"left","rt":2396.9000000954,"correct":false,"confidence":1},{"trial_n":34,"n_dots":4.15,"target":"left","response":"left","rt":1682,"correct":true,"confidence":1},{"trial_n":35,"n_dots":4.15,"target":"left","response":"right","rt":2044.3000001907,"correct":false,"confidence":1},{"trial_n":36,"n_dots":4.25,"target":"right","response":"right","rt":821.89999985695,"correct":true,"confidence":5},{"trial_n":37,"n_dots":4.25,"target":"left","response":"left","rt":3125.4000000954,"correct":true,"confidence":2},{"trial_n":38,"n_dots":4.15,"target":"left","response":"left","rt":331.59999990463,"correct":true,"confidence":4},{"trial_n":39,"n_dots":4.15,"target":"left","response":"left","rt":668.5,"correct":true,"confidence":5},{"trial_n":40,"n_dots":4.05,"target":"right","response":"right","rt":539.80000019073,"correct":true,"confidence":4},{"trial_n":41,"n_dots":4.05,"target":"left","response":"left","rt":723.60000014305,"correct":true,"confidence":5},{"trial_n":42,"n_dots":3.95,"target":"left","response":"left","rt":577.59999990463,"correct":true,"confidence":5},{"trial_n":43,"n_dots":3.95,"target":"right","response":"left","rt":1596.5999999046,"correct":false,"confidence":4},{"trial_n":44,"n_dots":4.05,"target":"right","response":"left","rt":1566.5999999046,"correct":false,"confidence":3},{"trial_n":45,"n_dots":4.15,"target":"right","response":"right","rt":3029.5999999046,"correct":true,"confidence":1},{"trial_n":46,"n_dots":4.15,"target":"left","response":"left","rt":3756.5999999046,"correct":true,"confidence":1},{"trial_n":47,"n_dots":4.05,"target":"right","response":"right","rt":612.89999985695,"correct":true,"confidence":5},{"trial_n":48,"n_dots":4.05,"target":"right","response":"left","rt":4024.7000000477,"correct":false,"confidence":1},{"trial_n":49,"n_dots":4.15,"target":"left","response":"left","rt":796.10000014305,"correct":true,"confidence":5},{"trial_n":50,"n_dots":4.15,"target":"right","response":"right","rt":1952.9000000954,"correct":true,"confidence":2},{"trial_n":51,"n_dots":4.05,"target":"right","response":"left","rt":5919.4000000954,"correct":false,"confidence":1},{"trial_n":52,"n_dots":4.15,"target":"left","response":"right","rt":5924.3000001907,"correct":false,"confidence":1},{"trial_n":53,"n_dots":4.25,"target":"left","response":"left","rt":1019.3999998569,"correct":true,"confidence":2},{"trial_n":54,"n_dots":4.25,"target":"left","response":"left","rt":927.09999990463,"correct":true,"confidence":5},{"trial_n":55,"n_dots":4.15,"target":"right","response":"right","rt":1018.2999999523,"correct":true,"confidence":3},{"trial_n":56,"n_dots":4.15,"target":"right","response":"left","rt":1235.7000000477,"correct":false,"confidence":2},{"trial_n":57,"n_dots":4.25,"target":"left","response":"left","rt":760.19999980927,"correct":true,"confidence":4},{"trial_n":58,"n_dots":4.25,"target":"right","response":"right","rt":1009.5,"correct":true,"confidence":3},{"trial_n":59,"n_dots":4.15,"target":"left","response":"left","rt":809.70000004768,"correct":true,"confidence":4},{"trial_n":60,"n_dots":4.15,"target":"right","response":"right","rt":1314.0999999046,"correct":true,"confidence":2},{"trial_n":61,"n_dots":4.05,"target":"left","response":"right","rt":2220.5999999046,"correct":false,"confidence":1},{"trial_n":62,"n_dots":4.15,"target":"left","response":"right","rt":1547.9000000954,"correct":false,"confidence":1},{"trial_n":63,"n_dots":4.25,"target":"left","response":"left","rt":698.5,"correct":true,"confidence":3},{"trial_n":64,"n_dots":4.25,"target":"left","response":"left","rt":933.30000019073,"correct":true,"confidence":4},{"trial_n":65,"n_dots":4.15,"target":"right","response":"left","rt":851.60000014305,"correct":false,"confidence":3},{"trial_n":66,"n_dots":4.25,"target":"right","response":"right","rt":825,"correct":true,"confidence":3},{"trial_n":67,"n_dots":4.25,"target":"left","response":"left","rt":1164.7000000477,"correct":true,"confidence":3},{"trial_n":68,"n_dots":4.15,"target":"right","response":"right","rt":919.29999995232,"correct":true,"confidence":4},{"trial_n":69,"n_dots":4.15,"target":"right","response":"right","rt":1227.7999999523,"correct":true,"confidence":3},{"trial_n":70,"n_dots":4.05,"target":"left","response":"left","rt":1010.2000000477,"correct":true,"confidence":4},{"trial_n":71,"n_dots":4.05,"target":"left","response":"left","rt":1577.2000000477,"correct":true,"confidence":2},{"trial_n":72,"n_dots":3.95,"target":"right","response":"right","rt":890.09999990463,"correct":true,"confidence":4},{"trial_n":73,"n_dots":3.95,"target":"left","response":"left","rt":2430.1999998093,"correct":true,"confidence":2},{"trial_n":74,"n_dots":3.85,"target":"left","response":"left","rt":1422,"correct":true,"confidence":1},{"trial_n":75,"n_dots":3.85,"target":"left","response":"left","rt":1218.7000000477,"correct":true,"confidence":1},{"trial_n":76,"n_dots":3.75,"target":"right","response":"right","rt":1304.6999998093,"correct":true,"confidence":1},{"trial_n":77,"n_dots":3.75,"target":"left","response":"left","rt":1082.4000000954,"correct":true,"confidence":2},{"trial_n":78,"n_dots":3.65,"target":"left","response":"right","rt":1053.3999998569,"correct":false,"confidence":2},{"trial_n":79,"n_dots":3.75,"target":"left","response":"left","rt":1258.5999999046,"correct":true,"confidence":1},{"trial_n":80,"n_dots":3.75,"target":"right","response":"right","rt":1293.6000001431,"correct":true,"confidence":1},{"trial_n":81,"n_dots":3.65,"target":"right","response":"right","rt":670.5,"correct":true,"confidence":4},{"trial_n":82,"n_dots":3.65,"target":"right","response":"right","rt":1365.7000000477,"correct":true,"confidence":3},{"trial_n":83,"n_dots":3.55,"target":"right","response":"left","rt":1326.7999999523,"correct":false,"confidence":2},{"trial_n":84,"n_dots":3.65,"target":"right","response":"right","rt":1065.2000000477,"correct":true,"confidence":1},{"trial_n":85,"n_dots":3.65,"target":"left","response":"left","rt":1174.1999998093,"correct":true,"confidence":2},{"trial_n":86,"n_dots":3.55,"target":"left","response":"left","rt":783.39999985695,"correct":true,"confidence":2},{"trial_n":87,"n_dots":3.55,"target":"left","response":"left","rt":1016.5,"correct":true,"confidence":2},{"trial_n":88,"n_dots":3.45,"target":"right","response":"left","rt":2000.7000000477,"correct":false,"confidence":2},{"trial_n":89,"n_dots":3.55,"target":"right","response":"right","rt":1355.8000001907,"correct":true,"confidence":2},{"trial_n":90,"n_dots":3.55,"target":"right","response":"right","rt":825.39999985695,"correct":true,"confidence":3},{"trial_n":91,"n_dots":3.45,"target":"right","response":"right","rt":646.89999985695,"correct":true,"confidence":3},{"trial_n":92,"n_dots":3.45,"target":"right","response":"right","rt":645.20000004768,"correct":true,"confidence":4},{"trial_n":93,"n_dots":3.35,"target":"left","response":"right","rt":2096.5,"correct":false,"confidence":3},{"trial_n":94,"n_dots":3.45,"target":"right","response":"right","rt":1034.2999999523,"correct":true,"confidence":4},{"trial_n":95,"n_dots":3.45,"target":"left","response":"left","rt":976.29999995232,"correct":true,"confidence":2},{"trial_n":96,"n_dots":3.35,"target":"left","response":"left","rt":801,"correct":true,"confidence":3},{"trial_n":97,"n_dots":3.35,"target":"right","response":"right","rt":422.59999990463,"correct":true,"confidence":5},{"trial_n":98,"n_dots":3.25,"target":"left","response":"left","rt":764.79999995232,"correct":true,"confidence":3},{"trial_n":99,"n_dots":3.25,"target":"left","response":"left","rt":1061.5999999046,"correct":true,"confidence":2},{"trial_n":100,"n_dots":3.15,"target":"right","response":"right","rt":493.60000014305,"correct":true,"confidence":4},{"trial_n":101,"n_dots":3.15,"target":"left","response":"right","rt":781.89999985695,"correct":false,"confidence":4},{"trial_n":102,"n_dots":3.25,"target":"left","response":"left","rt":754.60000014305,"correct":true,"confidence":3},{"trial_n":103,"n_dots":3.25,"target":"left","response":"right","rt":1076.5,"correct":false,"confidence":2},{"trial_n":104,"n_dots":3.35,"target":"left","response":"left","rt":806.39999985695,"correct":true,"confidence":3},{"trial_n":105,"n_dots":3.35,"target":"left","response":"right","rt":1036.7000000477,"correct":false,"confidence":2},{"trial_n":106,"n_dots":3.45,"target":"left","response":"right","rt":1251.6999998093,"correct":false,"confidence":3},{"trial_n":107,"n_dots":3.55,"target":"right","response":"right","rt":931.59999990463,"correct":true,"confidence":4},{"trial_n":108,"n_dots":3.55,"target":"left","response":"left","rt":612.79999995232,"correct":true,"confidence":3},{"trial_n":109,"n_dots":3.45,"target":"left","response":"left","rt":686.20000004768,"correct":true,"confidence":4},{"trial_n":110,"n_dots":3.45,"target":"left","response":"left","rt":846.09999990463,"correct":true,"confidence":2},{"trial_n":111,"n_dots":3.35,"target":"left","response":"left","rt":434.20000004768,"correct":true,"confidence":5},{"trial_n":112,"n_dots":3.35,"target":"left","response":"right","rt":821,"correct":false,"confidence":2},{"trial_n":113,"n_dots":3.45,"target":"right","response":"left","rt":1258.7000000477,"correct":false,"confidence":1},{"trial_n":114,"n_dots":3.55,"target":"right","response":"right","rt":353.80000019073,"correct":true,"confidence":5},{"trial_n":115,"n_dots":3.55,"target":"left","response":"right","rt":1628.5,"correct":false,"confidence":2},{"trial_n":116,"n_dots":3.65,"target":"left","response":"right","rt":637.10000014305,"correct":false,"confidence":4},{"trial_n":117,"n_dots":3.75,"target":"right","response":"right","rt":478.59999990463,"correct":true,"confidence":5},{"trial_n":118,"n_dots":3.75,"target":"right","response":"right","rt":476.5,"correct":true,"confidence":3},{"trial_n":119,"n_dots":3.65,"target":"right","response":"left","rt":1453.5999999046,"correct":false,"confidence":2},{"trial_n":120,"n_dots":3.75,"target":"right","response":"right","rt":309.30000019073,"correct":true,"confidence":5}]