[{"trial_n":1,"span":8,"encoder":"90351023","distractor":"90551023","target":"present","response":"absent","rt":"12107.200000048","correct":false,"confidence":-1},{"trial_n":2,"span":6,"encoder":"940697","distractor":"940647","target":"present","response":"present","rt":"2739.5999999642","correct":true,"confidence":-1},{"trial_n":3,"span":6,"encoder":"024531","distractor":"028531","target":"absent","response":"absent","rt":"1872.8999999762","correct":true,"confidence":-1},{"trial_n":4,"span":8,"encoder":"73700837","distractor":"63700837","target":"absent","response":"absent","rt":"2436.2000000477","correct":true,"confidence":-1},{"trial_n":5,"span":8,"encoder":"02508858","distractor":"02538858","target":"present","response":"present","rt":"3577.6999999881","correct":true,"confidence":-1},{"trial_n":6,"span":10,"encoder":"1928181981","distractor":"1929181981","target":"present","response":"present","rt":"3708.8999999762","correct":true,"confidence":-1},{"trial_n":7,"span":10,"encoder":"9780953343","distractor":"9780953383","target":"present","response":"present","rt":"3491","correct":true,"confidence":-1},{"trial_n":8,"span":12,"encoder":"402014788713","distractor":"402014783713","target":"present","response":"absent","rt":"4425.3000000119","correct":false,"confidence":-1},{"trial_n":9,"span":10,"encoder":"4360334861","distractor":"4360304861","target":"present","response":"absent","rt":"4573.8000000119","correct":false,"confidence":-1},{"trial_n":10,"span":8,"encoder":"77449020","distractor":"77447020","target":"absent","response":"absent","rt":"2890.5999999642","correct":true,"confidence":-1},{"trial_n":11,"span":8,"encoder":"27048312","distractor":"27042312","target":"absent","response":"present","rt":"3790.5999999642","correct":false,"confidence":-1},{"trial_n":12,"span":7,"encoder":"1398487","distractor":"1393487","target":"absent","response":"absent","rt":"4427.5","correct":true,"confidence":-1},{"trial_n":13,"span":7,"encoder":"6761742","distractor":"6761792","target":"absent","response":"absent","rt":"5060.0999999642","correct":true,"confidence":-1},{"trial_n":14,"span":8,"encoder":"29499874","distractor":"29492874","target":"present","response":"present","rt":"4915.9000000358","correct":true,"confidence":-1},{"trial_n":15,"span":8,"encoder":"25926871","distractor":"25925871","target":"absent","response":"absent","rt":"4739.1999999881","correct":true,"confidence":-1},{"trial_n":16,"span":9,"encoder":"150747508","distractor":"150747507","target":"present","response":"present","rt":"4494.6999999881","correct":true,"confidence":-1},{"trial_n":17,"span":9,"encoder":"645039200","distractor":"245039200","target":"present","response":"present","rt":"5089.8000000119","correct":true,"confidence":-1},{"trial_n":18,"span":10,"encoder":"6597537462","distractor":"5597537462","target":"present","response":"present","rt":"3077.5","correct":true,"confidence":-1},{"trial_n":19,"span":10,"encoder":"4555216398","distractor":"4552216398","target":"present","response":"present","rt":"13521.399999976","correct":true,"confidence":-1},{"trial_n":20,"span":11,"encoder":"88959547047","distractor":"88959547087","target":"absent","response":"absent","rt":"12550.699999988","correct":true,"confidence":-1},{"trial_n":21,"span":11,"encoder":"85457284094","distractor":"85457184094","target":"absent","response":"absent","rt":"110351","correct":true,"confidence":2},{"trial_n":22,"span":12,"encoder":"357331628455","distractor":"357331628475","target":"absent","response":"absent","rt":"2413.3000000119","correct":true,"confidence":4},{"trial_n":23,"span":12,"encoder":"335479887111","distractor":"335479887114","target":"absent","response":"absent","rt":"2715.0999999642","correct":true,"confidence":4},{"trial_n":24,"span":13,"encoder":"2767194430602","distractor":"2767194130602","target":"absent","response":"absent","rt":"5512.9000000358","correct":true,"confidence":4},{"trial_n":25,"span":13,"encoder":"5041680599778","distractor":"5001680599778","target":"present","response":"present","rt":"3407.5999999642","correct":true,"confidence":3},{"trial_n":26,"span":14,"encoder":"79015214469288","distractor":"79015214439288","target":"present","response":"present","rt":"8158.4000000358","correct":true,"confidence":3},{"trial_n":27,"span":14,"encoder":"95830076296200","distractor":"95830073296200","target":"present","response":"present","rt":"4133.5","correct":true,"confidence":3},{"trial_n":28,"span":15,"encoder":"135021085456708","distractor":"135021085456908","target":"present","response":"absent","rt":"11055.899999976","correct":false,"confidence":1},{"trial_n":29,"span":14,"encoder":"48315528433421","distractor":"48315528033421","target":"absent","response":"present","rt":"3124.8000000119","correct":false,"confidence":3},{"trial_n":30,"span":13,"encoder":"6244734844157","distractor":"6244735844157","target":"absent","response":"present","rt":"4153.5","correct":false,"confidence":2},{"trial_n":31,"span":12,"encoder":"477696218996","distractor":"477696218696","target":"absent","response":"absent","rt":"3109.0999999642","correct":true,"confidence":5},{"trial_n":32,"span":12,"encoder":"916652318376","distractor":"916602318376","target":"present","response":"present","rt":"4338.6999999881","correct":true,"confidence":3},{"trial_n":33,"span":13,"encoder":"2251966703622","distractor":"2251962703622","target":"present","response":"absent","rt":"3519.5999999642","correct":false,"confidence":3},{"trial_n":34,"span":12,"encoder":"910302893040","distractor":"910302803040","target":"present","response":"present","rt":"5792.6999999881","correct":true,"confidence":2},{"trial_n":35,"span":12,"encoder":"915562328888","distractor":"915562326888","target":"absent","response":"absent","rt":"2695.5","correct":true,"confidence":3},{"trial_n":36,"span":13,"encoder":"2705357028569","distractor":"2705357025569","target":"present","response":"present","rt":"6293.5","correct":true,"confidence":1},{"trial_n":37,"span":13,"encoder":"2126189973700","distractor":"2121189973700","target":"present","response":"absent","rt":"5074.5999999642","correct":false,"confidence":2},{"trial_n":38,"span":12,"encoder":"027953656923","distractor":"027963656923","target":"absent","response":"present","rt":"5566.6999999881","correct":false,"confidence":2},{"trial_n":39,"span":11,"encoder":"70841309997","distractor":"90841309997","target":"absent","response":"present","rt":"2693.8000000119","correct":false,"confidence":1},{"trial_n":40,"span":10,"encoder":"1160828367","distractor":"1110828367","target":"present","response":"present","rt":"3207.1999999881","correct":true,"confidence":2},{"trial_n":41,"span":10,"encoder":"0602594675","distractor":"0600594675","target":"absent","response":"absent","rt":"6408.5","correct":true,"confidence":1},{"trial_n":42,"span":11,"encoder":"75995008991","distractor":"75995008981","target":"present","response":"present","rt":"3566.8999999762","correct":true,"confidence":3},{"trial_n":43,"span":11,"encoder":"93772024582","distractor":"93772024082","target":"present","response":"present","rt":"4187.6999999881","correct":true,"confidence":3},{"trial_n":44,"span":12,"encoder":"086423900509","distractor":"086423920509","target":"present","response":"present","rt":"3416.8000000119","correct":true,"confidence":2},{"trial_n":45,"span":12,"encoder":"895576729231","distractor":"895576729232","target":"present","response":"present","rt":"3443.5","correct":true,"confidence":1},{"trial_n":46,"span":13,"encoder":"2812848487790","distractor":"2812848487390","target":"present","response":"present","rt":"5928.1999999881","correct":true,"confidence":2},{"trial_n":47,"span":13,"encoder":"8548152216182","distractor":"8548152246182","target":"absent","response":"absent","rt":"42086.800000012","correct":true,"confidence":1},{"trial_n":48,"span":14,"encoder":"64841729067669","distractor":"64841729367669","target":"present","response":"present","rt":"2308.1999999881","correct":true,"confidence":1},{"trial_n":49,"span":14,"encoder":"93732079100970","distractor":"93732079102970","target":"present","response":"present","rt":"9398","correct":true,"confidence":2},{"trial_n":50,"span":15,"encoder":"388292242948810","distractor":"388392242948810","target":"absent","response":"present","rt":"5546.0999999642","correct":false,"confidence":2},{"trial_n":51,"span":14,"encoder":"08002511679253","distractor":"08002511979253","target":"absent","response":"absent","rt":"2614","correct":true,"confidence":1},{"trial_n":52,"span":14,"encoder":"73245952837539","distractor":"73245952837559","target":"absent","response":"absent","rt":"6160.1000000238","correct":true,"confidence":4},{"trial_n":53,"span":15,"encoder":"280913905056917","distractor":"280913901056917","target":"absent","response":"present","rt":"5589.4000000358","correct":false,"confidence":2},{"trial_n":54,"span":14,"encoder":"58421370278714","distractor":"58421370278734","target":"absent","response":"absent","rt":"3126.0999999642","correct":true,"confidence":5},{"trial_n":55,"span":14,"encoder":"44158906172572","distractor":"44158406172572","target":"absent","response":"present","rt":"2369.5","correct":false,"confidence":1},{"trial_n":56,"span":13,"encoder":"6494026428735","distractor":"6497026428735","target":"absent","response":"present","rt":"2666.6000000238","correct":false,"confidence":2},{"trial_n":57,"span":12,"encoder":"093474934613","distractor":"093474931613","target":"present","response":"present","rt":"2526.4000000358","correct":true,"confidence":3},{"trial_n":58,"span":12,"encoder":"139911334171","distractor":"129911334171","target":"present","response":"present","rt":"2344.8999999762","correct":true,"confidence":3},{"trial_n":59,"span":13,"encoder":"0092171735598","distractor":"2092171735598","target":"absent","response":"present","rt":"26893.300000012","correct":false,"confidence":1},{"trial_n":60,"span":12,"encoder":"790098545105","distractor":"790098945105","target":"absent","response":"absent","rt":"5969.0999999642","correct":true,"confidence":1},{"trial_n":61,"span":12,"encoder":"093235155221","distractor":"093335155221","target":"absent","response":"present","rt":"4315.1000000238","correct":false,"confidence":2},{"trial_n":62,"span":11,"encoder":"95988466773","distractor":"95988463773","target":"present","response":"present","rt":"2585.6000000238","correct":true,"confidence":3},{"trial_n":63,"span":11,"encoder":"01165738384","distractor":"01165138384","target":"absent","response":"present","rt":"2420.7000000477","correct":false,"confidence":1},{"trial_n":64,"span":10,"encoder":"3262789580","distractor":"3262789500","target":"present","response":"present","rt":"3104.5999999642","correct":true,"confidence":2},{"trial_n":65,"span":10,"encoder":"2901746215","distractor":"2901741215","target":"present","response":"present","rt":"2608.5","correct":true,"confidence":2},{"trial_n":66,"span":11,"encoder":"76395002759","distractor":"76397002759","target":"present","response":"present","rt":"3073","correct":true,"confidence":2},{"trial_n":67,"span":11,"encoder":"82845146169","distractor":"80845146169","target":"absent","response":"absent","rt":"4528.1999999881","correct":true,"confidence":2},{"trial_n":68,"span":12,"encoder":"376243376752","distractor":"576243376752","target":"absent","response":"present","rt":"3873.5","correct":false,"confidence":2},{"trial_n":69,"span":11,"encoder":"89801355490","distractor":"89801325490","target":"absent","response":"present","rt":"2245.3000000119","correct":false,"confidence":3},{"trial_n":70,"span":10,"encoder":"8589682081","distractor":"8589682281","target":"present","response":"absent","rt":"7275","correct":false,"confidence":1},{"trial_n":71,"span":8,"encoder":"19178321","distractor":"09178321","target":"present","response":"present","rt":"8203.5","correct":true,"confidence":-1},{"trial_n":72,"span":8,"encoder":"62907130","distractor":"62907120","target":"present","response":"present","rt":"3484.1000000238","correct":true,"confidence":-1},{"trial_n":73,"span":9,"encoder":"895798224","distractor":"895798294","target":"absent","response":"absent","rt":"1472.2000000477","correct":true,"confidence":-1},{"trial_n":74,"span":9,"encoder":"504558133","distractor":"504558833","target":"absent","response":"absent","rt":"7941.8999999762","correct":true,"confidence":-1},{"trial_n":75,"span":10,"encoder":"8665469756","distractor":"8615469756","target":"present","response":"present","rt":"5266.1000000238","correct":true,"confidence":-1},{"trial_n":76,"span":10,"encoder":"6137932746","distractor":"6137932946","target":"present","response":"absent","rt":"4784.3999999762","correct":false,"confidence":-1},{"trial_n":77,"span":9,"encoder":"037856951","distractor":"037859951","target":"present","response":"present","rt":"3187.5999999046","correct":true,"confidence":-1},{"trial_n":78,"span":9,"encoder":"785091682","distractor":"785091622","target":"absent","response":"absent","rt":"1751.6000000238","correct":true,"confidence":-1},{"trial_n":79,"span":10,"encoder":"1227611665","distractor":"1220611665","target":"present","response":"present","rt":"4585.5","correct":true,"confidence":-1},{"trial_n":80,"span":10,"encoder":"6367751494","distractor":"8367751494","target":"absent","response":"absent","rt":"2066.3000000715","correct":true,"confidence":-1},{"trial_n":81,"span":11,"encoder":"04681611337","distractor":"94681611337","target":"absent","response":"absent","rt":"5611.3999999762","correct":true,"confidence":-1},{"trial_n":82,"span":11,"encoder":"29418531807","distractor":"29418531507","target":"present","response":"absent","rt":"3793.8000000715","correct":false,"confidence":-1},{"trial_n":83,"span":10,"encoder":"2100711400","distractor":"8100711400","target":"present","response":"absent","rt":"5423.5","correct":false,"confidence":-1},{"trial_n":84,"span":9,"encoder":"253676926","distractor":"263676926","target":"present","response":"absent","rt":"3158.8999999762","correct":false,"confidence":-1},{"trial_n":85,"span":8,"encoder":"84753998","distractor":"64753998","target":"present","response":"absent","rt":"2338.6999999285","correct":false,"confidence":-1},{"trial_n":86,"span":7,"encoder":"8897802","distractor":"8899802","target":"present","response":"present","rt":"6493","correct":true,"confidence":-1},{"trial_n":87,"span":7,"encoder":"4525258","distractor":"4525158","target":"present","response":"absent","rt":"3739.5","correct":false,"confidence":-1},{"trial_n":88,"span":6,"encoder":"247583","distractor":"247683","target":"present","response":"absent","rt":"1044.7999999523","correct":false,"confidence":-1},{"trial_n":89,"span":5,"encoder":"49951","distractor":"48951","target":"absent","response":"absent","rt":"2708.5999999046","correct":true,"confidence":-1},{"trial_n":90,"span":5,"encoder":"46435","distractor":"47435","target":"present","response":"present","rt":"2263.3999999762","correct":true,"confidence":-1},{"trial_n":91,"span":6,"encoder":"430505","distractor":"430305","target":"absent","response":"present","rt":"6377.7000000477","correct":false,"confidence":1},{"trial_n":92,"span":5,"encoder":"81795","distractor":"81745","target":"absent","response":"absent","rt":"2719.6000000238","correct":true,"confidence":5},{"trial_n":93,"span":5,"encoder":"54175","distractor":"54170","target":"absent","response":"absent","rt":"2988.6000000238","correct":true,"confidence":4},{"trial_n":94,"span":6,"encoder":"672810","distractor":"672830","target":"present","response":"present","rt":"2008.6000000238","correct":true,"confidence":5},{"trial_n":95,"span":6,"encoder":"678269","distractor":"673269","target":"absent","response":"absent","rt":"3951.3999999762","correct":true,"confidence":4},{"trial_n":96,"span":7,"encoder":"4719348","distractor":"4759348","target":"absent","response":"present","rt":"4297.3000000715","correct":false,"confidence":4},{"trial_n":97,"span":6,"encoder":"633822","distractor":"633832","target":"present","response":"present","rt":"3323.8999999762","correct":true,"confidence":4},{"trial_n":98,"span":6,"encoder":"797901","distractor":"797401","target":"absent","response":"absent","rt":"1837.1000000238","correct":true,"confidence":3},{"trial_n":99,"span":7,"encoder":"9190157","distractor":"9190057","target":"present","response":"present","rt":"4509.2999999523","correct":true,"confidence":4},{"trial_n":100,"span":7,"encoder":"2993097","distractor":"2953097","target":"present","response":"present","rt":"29383.300000072","correct":true,"confidence":3},{"trial_n":101,"span":8,"encoder":"63416239","distractor":"63816239","target":"absent","response":"present","rt":"8166.5","correct":false,"confidence":3},{"trial_n":102,"span":7,"encoder":"2798153","distractor":"2998153","target":"present","response":"present","rt":"2587.7000000477","correct":true,"confidence":4},{"trial_n":103,"span":7,"encoder":"1731677","distractor":"1131677","target":"absent","response":"absent","rt":"4261.1000000238","correct":true,"confidence":3},{"trial_n":104,"span":8,"encoder":"02626568","distractor":"05626568","target":"present","response":"present","rt":"1858.5","correct":true,"confidence":4},{"trial_n":105,"span":8,"encoder":"19340011","distractor":"18340011","target":"present","response":"absent","rt":"3707.7000000477","correct":false,"confidence":2},{"trial_n":106,"span":7,"encoder":"0880585","distractor":"0880685","target":"present","response":"present","rt":"3193.6000000238","correct":true,"confidence":4},{"trial_n":107,"span":7,"encoder":"2114426","distractor":"2112426","target":"present","response":"present","rt":"4461.2000000477","correct":true,"confidence":4},{"trial_n":108,"span":8,"encoder":"46687595","distractor":"46687565","target":"present","response":"present","rt":"5638.7000000477","correct":true,"confidence":2},{"trial_n":109,"span":8,"encoder":"86650333","distractor":"86750333","target":"present","response":"absent","rt":"4954.8999999762","correct":false,"confidence":3},{"trial_n":110,"span":7,"encoder":"2901662","distractor":"1901662","target":"absent","response":"present","rt":"2602","correct":false,"confidence":3},{"trial_n":111,"span":6,"encoder":"401084","distractor":"402084","target":"absent","response":"present","rt":"8513","correct":false,"confidence":3},{"trial_n":112,"span":5,"encoder":"25438","distractor":"25538","target":"absent","response":"absent","rt":"2202.8000000715","correct":true,"confidence":3},{"trial_n":113,"span":5,"encoder":"19213","distractor":"13213","target":"present","response":"present","rt":"4264.1000000238","correct":true,"confidence":3},{"trial_n":114,"span":6,"encoder":"709879","distractor":"209879","target":"absent","response":"present","rt":"1914.7999999523","correct":false,"confidence":2},{"trial_n":115,"span":5,"encoder":"30331","distractor":"30431","target":"present","response":"present","rt":"1758.8999999762","correct":true,"confidence":5},{"trial_n":116,"span":5,"encoder":"22749","distractor":"82749","target":"present","response":"present","rt":"6472.7000000477","correct":true,"confidence":3},{"trial_n":117,"span":6,"encoder":"935851","distractor":"936851","target":"present","response":"present","rt":"4246.1999999285","correct":true,"confidence":4},{"trial_n":118,"span":6,"encoder":"069891","distractor":"019891","target":"present","response":"present","rt":"3144.8000000715","correct":true,"confidence":4},{"trial_n":119,"span":7,"encoder":"3213401","distractor":"3213701","target":"absent","response":"present","rt":"3594.5999999046","correct":false,"confidence":1},{"trial_n":120,"span":6,"encoder":"993313","distractor":"903313","target":"absent","response":"absent","rt":"2286.7999999523","correct":true,"confidence":5},{"trial_n":121,"span":6,"encoder":"565484","distractor":"565444","target":"absent","response":"absent","rt":"2328.7000000477","correct":true,"confidence":4},{"trial_n":122,"span":7,"encoder":"9097046","distractor":"1097046","target":"absent","response":"absent","rt":"1875.6000000238","correct":true,"confidence":5},{"trial_n":123,"span":7,"encoder":"6024532","distractor":"6524532","target":"absent","response":"present","rt":"8274.2999999523","correct":false,"confidence":1},{"trial_n":124,"span":6,"encoder":"785469","distractor":"785439","target":"absent","response":"absent","rt":"2142.0999999046","correct":true,"confidence":4},{"trial_n":125,"span":6,"encoder":"396068","distractor":"316068","target":"present","response":"present","rt":"2233.2999999523","correct":true,"confidence":4},{"trial_n":126,"span":7,"encoder":"8773609","distractor":"8778609","target":"present","response":"absent","rt":"10278.5","correct":false,"confidence":2},{"trial_n":127,"span":6,"encoder":"212754","distractor":"212854","target":"absent","response":"absent","rt":"3125.2000000477","correct":true,"confidence":4},{"trial_n":128,"span":6,"encoder":"633014","distractor":"643014","target":"present","response":"present","rt":"3021.9000000954","correct":true,"confidence":3},{"trial_n":129,"span":7,"encoder":"5295294","distractor":"5295244","target":"absent","response":"absent","rt":"2453","correct":true,"confidence":4},{"trial_n":130,"span":7,"encoder":"6018552","distractor":"6818552","target":"present","response":"present","rt":"3970.1999999285","correct":true,"confidence":3},{"trial_n":131,"span":8,"encoder":"10884834","distractor":"10884854","target":"absent","response":"absent","rt":"3106.3999999762","correct":true,"confidence":1},{"trial_n":132,"span":8,"encoder":"61683964","distractor":"61683914","target":"present","response":"present","rt":"3023.9000000954","correct":true,"confidence":2},{"trial_n":133,"span":9,"encoder":"460197176","distractor":"460197156","target":"absent","response":"present","rt":"5622.2000000477","correct":false,"confidence":1},{"trial_n":134,"span":8,"encoder":"68842606","distractor":"68842636","target":"absent","response":"absent","rt":"2860.1000000238","correct":true,"confidence":5},{"trial_n":135,"span":8,"encoder":"70892207","distractor":"70892807","target":"absent","response":"absent","rt":"2560.5999999046","correct":true,"confidence":5},{"trial_n":136,"span":9,"encoder":"040046613","distractor":"010046613","target":"absent","response":"absent","rt":"8853.7999999523","correct":true,"confidence":4},{"trial_n":137,"span":9,"encoder":"606893006","distractor":"626893006","target":"present","response":"absent","rt":"10607.200000048","correct":false,"confidence":2},{"trial_n":138,"span":8,"encoder":"53280895","distractor":"53280195","target":"absent","response":"absent","rt":"3440.8999999762","correct":true,"confidence":4},{"trial_n":139,"span":8,"encoder":"89362899","distractor":"69362899","target":"absent","response":"absent","rt":"9558","correct":true,"confidence":2},{"trial_n":140,"span":9,"encoder":"494177116","distractor":"494177111","target":"absent","response":"absent","rt":"3020.5999999046","correct":true,"confidence":5}]