[{"trial_n":1,"min":25,"max":230,"target":"present","response":"absent","rt":4430.5,"correct":false,"confidence":-1},{"trial_n":2,"min":25,"max":230,"target":"present","response":"present","rt":1500.1000001431,"correct":true,"confidence":-1},{"trial_n":3,"min":25,"max":230,"target":"absent","response":"absent","rt":1336.1000001431,"correct":true,"confidence":-1},{"trial_n":4,"min":41,"max":214,"target":"absent","response":"absent","rt":446.70000004768,"correct":true,"confidence":-1},{"trial_n":5,"min":41,"max":214,"target":"present","response":"present","rt":1281,"correct":true,"confidence":-1},{"trial_n":6,"min":57,"max":198,"target":"absent","response":"present","rt":1258.5,"correct":false,"confidence":-1},{"trial_n":7,"min":41,"max":214,"target":"absent","response":"absent","rt":1291,"correct":true,"confidence":-1},{"trial_n":8,"min":41,"max":214,"target":"present","response":"present","rt":977.69999980927,"correct":true,"confidence":-1},{"trial_n":9,"min":57,"max":198,"target":"present","response":"present","rt":370.29999995232,"correct":true,"confidence":-1},{"trial_n":10,"min":57,"max":198,"target":"present","response":"present","rt":1067.9000000954,"correct":true,"confidence":-1},{"trial_n":11,"min":65,"max":190,"target":"absent","response":"present","rt":631.70000004768,"correct":false,"confidence":-1},{"trial_n":12,"min":57,"max":198,"target":"absent","response":"absent","rt":1167.7000000477,"correct":true,"confidence":-1},{"trial_n":13,"min":57,"max":198,"target":"present","response":"present","rt":1345.8999998569,"correct":true,"confidence":-1},{"trial_n":14,"min":65,"max":190,"target":"absent","response":"absent","rt":1352.1999998093,"correct":true,"confidence":-1},{"trial_n":15,"min":65,"max":190,"target":"present","response":"present","rt":1292.9000000954,"correct":true,"confidence":-1},{"trial_n":16,"min":73,"max":182,"target":"present","response":"present","rt":366,"correct":true,"confidence":-1},{"trial_n":17,"min":73,"max":182,"target":"absent","response":"absent","rt":1566.4000000954,"correct":true,"confidence":-1},{"trial_n":18,"min":81,"max":174,"target":"absent","response":"absent","rt":2973.4000000954,"correct":true,"confidence":-1},{"trial_n":19,"min":81,"max":174,"target":"absent","response":"absent","rt":724.09999990463,"correct":true,"confidence":-1},{"trial_n":20,"min":89,"max":166,"target":"present","response":"absent","rt":590.70000004768,"correct":false,"confidence":-1},{"trial_n":21,"min":85,"max":170,"target":"present","response":"present","rt":406,"correct":true,"confidence":5},{"trial_n":22,"min":85,"max":170,"target":"absent","response":"absent","rt":1151.2000000477,"correct":true,"confidence":3},{"trial_n":23,"min":89,"max":166,"target":"present","response":"present","rt":1178.7000000477,"correct":true,"confidence":3},{"trial_n":24,"min":89,"max":166,"target":"present","response":"present","rt":1272,"correct":true,"confidence":4},{"trial_n":25,"min":93,"max":162,"target":"present","response":"present","rt":1208.2000000477,"correct":true,"confidence":3},{"trial_n":26,"min":93,"max":162,"target":"absent","response":"absent","rt":1216.6000001431,"correct":true,"confidence":3},{"trial_n":27,"min":97,"max":158,"target":"absent","response":"absent","rt":1589.9000000954,"correct":true,"confidence":2},{"trial_n":28,"min":97,"max":158,"target":"present","response":"absent","rt":9882.1000001431,"correct":false,"confidence":2},{"trial_n":29,"min":93,"max":162,"target":"present","response":"present","rt":942.19999980927,"correct":true,"confidence":4},{"trial_n":30,"min":93,"max":162,"target":"present","response":"present","rt":1237.6000001431,"correct":true,"confidence":4},{"trial_n":31,"min":95,"max":160,"target":"present","response":"absent","rt":1400.5,"correct":false,"confidence":2},{"trial_n":32,"min":93,"max":162,"target":"present","response":"present","rt":793.20000004768,"correct":true,"confidence":5},{"trial_n":33,"min":93,"max":162,"target":"absent","response":"present","rt":741,"correct":false,"confidence":5},{"trial_n":34,"min":91,"max":164,"target":"present","response":"present","rt":1503.5,"correct":true,"confidence":4},{"trial_n":35,"min":91,"max":164,"target":"absent","response":"present","rt":1359.8000001907,"correct":false,"confidence":3},{"trial_n":36,"min":89,"max":166,"target":"present","response":"present","rt":1783.0999999046,"correct":true,"confidence":3},{"trial_n":37,"min":89,"max":166,"target":"present","response":"present","rt":1314.8999998569,"correct":true,"confidence":3},{"trial_n":38,"min":91,"max":164,"target":"present","response":"present","rt":2180.5,"correct":true,"confidence":2},{"trial_n":39,"min":91,"max":164,"target":"absent","response":"present","rt":1099.1000001431,"correct":false,"confidence":3},{"trial_n":40,"min":89,"max":166,"target":"absent","response":"present","rt":1015.6000001431,"correct":false,"confidence":3},{"trial_n":41,"min":88,"max":167,"target":"absent","response":"absent","rt":1322.4000000954,"correct":true,"confidence":3},{"trial_n":42,"min":88,"max":167,"target":"absent","response":"present","rt":1727.0999999046,"correct":false,"confidence":2},{"trial_n":43,"min":87,"max":168,"target":"present","response":"present","rt":986,"correct":true,"confidence":4},{"trial_n":44,"min":87,"max":168,"target":"absent","response":"present","rt":990.79999995232,"correct":false,"confidence":3},{"trial_n":45,"min":86,"max":169,"target":"absent","response":"absent","rt":1702.9000000954,"correct":true,"confidence":2},{"trial_n":46,"min":86,"max":169,"target":"absent","response":"present","rt":1055.7000000477,"correct":false,"confidence":5},{"trial_n":47,"min":85,"max":170,"target":"absent","response":"present","rt":1533.6000001431,"correct":false,"confidence":5},{"trial_n":48,"min":84,"max":171,"target":"present","response":"present","rt":902.39999985695,"correct":true,"confidence":3},{"trial_n":49,"min":84,"max":171,"target":"present","response":"present","rt":1172.2000000477,"correct":true,"confidence":4},{"trial_n":50,"min":85,"max":170,"target":"absent","response":"present","rt":2372,"correct":false,"confidence":3},{"trial_n":51,"min":84,"max":171,"target":"absent","response":"absent","rt":1219.6999998093,"correct":true,"confidence":4},{"trial_n":52,"min":84,"max":171,"target":"absent","response":"present","rt":1231,"correct":false,"confidence":3},{"trial_n":53,"min":83,"max":172,"target":"present","response":"present","rt":1163.4000000954,"correct":true,"confidence":5},{"trial_n":54,"min":83,"max":172,"target":"present","response":"present","rt":1063,"correct":true,"confidence":5},{"trial_n":55,"min":84,"max":171,"target":"absent","response":"present","rt":1272,"correct":false,"confidence":3},{"trial_n":56,"min":83,"max":172,"target":"present","response":"present","rt":1010.5,"correct":true,"confidence":3},{"trial_n":57,"min":83,"max":172,"target":"present","response":"present","rt":1188.2999999523,"correct":true,"confidence":3},{"trial_n":58,"min":84,"max":171,"target":"absent","response":"present","rt":1421,"correct":false,"confidence":4},{"trial_n":59,"min":83,"max":172,"target":"absent","response":"absent","rt":1585.2000000477,"correct":true,"confidence":3},{"trial_n":60,"min":83,"max":172,"target":"absent","response":"absent","rt":2932,"correct":true,"confidence":3},{"trial_n":61,"min":84,"max":171,"target":"absent","response":"absent","rt":1350.2000000477,"correct":true,"confidence":4},{"trial_n":62,"min":84,"max":171,"target":"absent","response":"absent","rt":1971.0999999046,"correct":true,"confidence":1},{"trial_n":63,"min":85,"max":170,"target":"present","response":"present","rt":1002.5,"correct":true,"confidence":3},{"trial_n":64,"min":85,"max":170,"target":"present","response":"present","rt":1129.4000000954,"correct":true,"confidence":3},{"trial_n":65,"min":86,"max":169,"target":"present","response":"absent","rt":2267.9000000954,"correct":false,"confidence":2},{"trial_n":66,"min":85,"max":170,"target":"absent","response":"present","rt":1768.3000001907,"correct":false,"confidence":3},{"trial_n":67,"min":84,"max":171,"target":"present","response":"present","rt":941.40000009537,"correct":true,"confidence":4},{"trial_n":68,"min":84,"max":171,"target":"present","response":"present","rt":988.29999995232,"correct":true,"confidence":4},{"trial_n":69,"min":85,"max":170,"target":"absent","response":"absent","rt":2920.7000000477,"correct":true,"confidence":2},{"trial_n":70,"min":85,"max":170,"target":"present","response":"present","rt":982.89999985695,"correct":true,"confidence":3},{"trial_n":71,"min":41,"max":214,"target":"present","response":"absent","rt":7055.7999999523,"correct":false,"confidence":-1},{"trial_n":72,"min":41,"max":214,"target":"present","response":"present","rt":1845,"correct":true,"confidence":-1},{"trial_n":73,"min":41,"max":214,"target":"absent","response":"absent","rt":1847.5,"correct":true,"confidence":-1},{"trial_n":74,"min":57,"max":198,"target":"absent","response":"absent","rt":1389,"correct":true,"confidence":-1},{"trial_n":75,"min":57,"max":198,"target":"present","response":"present","rt":1065.8999998569,"correct":true,"confidence":-1},{"trial_n":76,"min":73,"max":182,"target":"present","response":"present","rt":1860.2999999523,"correct":true,"confidence":-1},{"trial_n":77,"min":73,"max":182,"target":"present","response":"present","rt":459,"correct":true,"confidence":-1},{"trial_n":78,"min":89,"max":166,"target":"present","response":"present","rt":521.70000004768,"correct":true,"confidence":-1},{"trial_n":79,"min":89,"max":166,"target":"absent","response":"absent","rt":1191.5999999046,"correct":true,"confidence":-1},{"trial_n":80,"min":105,"max":150,"target":"present","response":"present","rt":1161.7999999523,"correct":true,"confidence":-1},{"trial_n":81,"min":105,"max":150,"target":"absent","response":"present","rt":1221.9000000954,"correct":false,"confidence":-1},{"trial_n":82,"min":97,"max":158,"target":"present","response":"absent","rt":1965,"correct":false,"confidence":-1},{"trial_n":83,"min":89,"max":166,"target":"absent","response":"present","rt":1092,"correct":false,"confidence":-1},{"trial_n":84,"min":81,"max":174,"target":"absent","response":"present","rt":1198.7999999523,"correct":false,"confidence":-1},{"trial_n":85,"min":73,"max":182,"target":"absent","response":"absent","rt":1281.3000001907,"correct":true,"confidence":-1},{"trial_n":86,"min":73,"max":182,"target":"present","response":"present","rt":1033.7000000477,"correct":true,"confidence":-1},{"trial_n":87,"min":81,"max":174,"target":"present","response":"present","rt":569.70000004768,"correct":true,"confidence":-1},{"trial_n":88,"min":81,"max":174,"target":"present","response":"present","rt":474.09999990463,"correct":true,"confidence":-1},{"trial_n":89,"min":89,"max":166,"target":"present","response":"present","rt":736.79999995232,"correct":true,"confidence":-1},{"trial_n":90,"min":89,"max":166,"target":"present","response":"present","rt":695.20000004768,"correct":true,"confidence":-1},{"trial_n":91,"min":93,"max":162,"target":"absent","response":"present","rt":883.70000004768,"correct":false,"confidence":4},{"trial_n":92,"min":89,"max":166,"target":"absent","response":"absent","rt":1152.7999999523,"correct":true,"confidence":4},{"trial_n":93,"min":89,"max":166,"target":"present","response":"present","rt":1428.5,"correct":true,"confidence":5},{"trial_n":94,"min":93,"max":162,"target":"present","response":"present","rt":1508.5,"correct":true,"confidence":3},{"trial_n":95,"min":93,"max":162,"target":"present","response":"present","rt":1075.4000000954,"correct":true,"confidence":5},{"trial_n":96,"min":97,"max":158,"target":"absent","response":"present","rt":1141.6000001431,"correct":false,"confidence":3},{"trial_n":97,"min":93,"max":162,"target":"absent","response":"present","rt":3750.6000001431,"correct":false,"confidence":2},{"trial_n":98,"min":89,"max":166,"target":"present","response":"present","rt":1454.8000001907,"correct":true,"confidence":5},{"trial_n":99,"min":89,"max":166,"target":"absent","response":"present","rt":2221.1000001431,"correct":false,"confidence":2},{"trial_n":100,"min":85,"max":170,"target":"absent","response":"present","rt":2151.2000000477,"correct":false,"confidence":1},{"trial_n":101,"min":83,"max":172,"target":"present","response":"present","rt":1073.7999999523,"correct":true,"confidence":3},{"trial_n":102,"min":83,"max":172,"target":"present","response":"present","rt":1359.6999998093,"correct":true,"confidence":1},{"trial_n":103,"min":85,"max":170,"target":"absent","response":"present","rt":1086.5999999046,"correct":false,"confidence":4},{"trial_n":104,"min":83,"max":172,"target":"absent","response":"present","rt":1266.9000000954,"correct":false,"confidence":1},{"trial_n":105,"min":81,"max":174,"target":"present","response":"present","rt":908.40000009537,"correct":true,"confidence":5},{"trial_n":106,"min":81,"max":174,"target":"present","response":"present","rt":937.10000014305,"correct":true,"confidence":5},{"trial_n":107,"min":83,"max":172,"target":"present","response":"present","rt":1266.8000001907,"correct":true,"confidence":5},{"trial_n":108,"min":83,"max":172,"target":"absent","response":"absent","rt":1481.7000000477,"correct":true,"confidence":5},{"trial_n":109,"min":85,"max":170,"target":"present","response":"present","rt":1198.9000000954,"correct":true,"confidence":1},{"trial_n":110,"min":85,"max":170,"target":"present","response":"present","rt":906.59999990463,"correct":true,"confidence":5},{"trial_n":111,"min":86,"max":169,"target":"absent","response":"absent","rt":1287.5999999046,"correct":true,"confidence":3},{"trial_n":112,"min":86,"max":169,"target":"absent","response":"absent","rt":1676.0999999046,"correct":true,"confidence":1},{"trial_n":113,"min":87,"max":168,"target":"absent","response":"absent","rt":1790.7000000477,"correct":true,"confidence":2},{"trial_n":114,"min":87,"max":168,"target":"present","response":"present","rt":1631.2999999523,"correct":true,"confidence":1},{"trial_n":115,"min":88,"max":167,"target":"absent","response":"absent","rt":1006.1999998093,"correct":true,"confidence":4},{"trial_n":116,"min":88,"max":167,"target":"present","response":"present","rt":930.29999995232,"correct":true,"confidence":5},{"trial_n":117,"min":89,"max":166,"target":"present","response":"present","rt":4176.7000000477,"correct":true,"confidence":2},{"trial_n":118,"min":89,"max":166,"target":"absent","response":"present","rt":2561.8999998569,"correct":false,"confidence":1},{"trial_n":119,"min":88,"max":167,"target":"absent","response":"absent","rt":1647.8000001907,"correct":true,"confidence":3},{"trial_n":120,"min":88,"max":167,"target":"present","response":"present","rt":1275.7000000477,"correct":true,"confidence":4},{"trial_n":121,"min":89,"max":166,"target":"present","response":"present","rt":1882.5999999046,"correct":true,"confidence":3},{"trial_n":122,"min":89,"max":166,"target":"present","response":"present","rt":1428.2999999523,"correct":true,"confidence":4},{"trial_n":123,"min":90,"max":165,"target":"absent","response":"absent","rt":1180.5999999046,"correct":true,"confidence":3},{"trial_n":124,"min":90,"max":165,"target":"absent","response":"present","rt":1998.6000001431,"correct":false,"confidence":1},{"trial_n":125,"min":89,"max":166,"target":"present","response":"present","rt":1580.6000001431,"correct":true,"confidence":3},{"trial_n":126,"min":89,"max":166,"target":"present","response":"present","rt":1405.7000000477,"correct":true,"confidence":4},{"trial_n":127,"min":90,"max":165,"target":"absent","response":"absent","rt":1916.0999999046,"correct":true,"confidence":1},{"trial_n":128,"min":90,"max":165,"target":"absent","response":"absent","rt":1882.1000001431,"correct":true,"confidence":4},{"trial_n":129,"min":91,"max":164,"target":"present","response":"present","rt":1630.5999999046,"correct":true,"confidence":4},{"trial_n":130,"min":91,"max":164,"target":"absent","response":"absent","rt":1196.4000000954,"correct":true,"confidence":5},{"trial_n":131,"min":92,"max":163,"target":"absent","response":"present","rt":1317.3000001907,"correct":false,"confidence":1},{"trial_n":132,"min":91,"max":164,"target":"absent","response":"absent","rt":1457.9000000954,"correct":true,"confidence":1},{"trial_n":133,"min":91,"max":164,"target":"present","response":"present","rt":884.89999985695,"correct":true,"confidence":4},{"trial_n":134,"min":92,"max":163,"target":"present","response":"absent","rt":2024.3000001907,"correct":false,"confidence":3},{"trial_n":135,"min":91,"max":164,"target":"absent","response":"absent","rt":1229.5999999046,"correct":true,"confidence":5},{"trial_n":136,"min":91,"max":164,"target":"absent","response":"present","rt":1171.2999999523,"correct":false,"confidence":1},{"trial_n":137,"min":90,"max":165,"target":"absent","response":"absent","rt":1292.2000000477,"correct":true,"confidence":1},{"trial_n":138,"min":90,"max":165,"target":"present","response":"present","rt":1099.2000000477,"correct":true,"confidence":1},{"trial_n":139,"min":91,"max":164,"target":"absent","response":"absent","rt":1496.2999999523,"correct":true,"confidence":1},{"trial_n":140,"min":91,"max":164,"target":"absent","response":"absent","rt":1353.8999998569,"correct":true,"confidence":3}]