[{"trial_n":1,"span":8,"encoder":"29147348","distractor":"28147348","target":"present","response":"present","rt":"5114.5999999996","correct":true,"confidence":-1},{"trial_n":2,"span":8,"encoder":"39822780","distractor":"39822180","target":"present","response":"absent","rt":"2985.7999999998","correct":false,"confidence":-1},{"trial_n":3,"span":6,"encoder":"729525","distractor":"629525","target":"absent","response":"absent","rt":"5849.7999999998","correct":true,"confidence":-1},{"trial_n":4,"span":6,"encoder":"918324","distractor":"928324","target":"absent","response":"present","rt":"2292.8999999994","correct":false,"confidence":-1},{"trial_n":5,"span":4,"encoder":"4888","distractor":"4868","target":"present","response":"present","rt":"1547.8000000007","correct":true,"confidence":-1},{"trial_n":6,"span":4,"encoder":"7240","distractor":"7740","target":"present","response":"present","rt":"1476.2999999998","correct":true,"confidence":-1},{"trial_n":7,"span":6,"encoder":"063098","distractor":"062098","target":"present","response":"present","rt":"2691.3000000007","correct":true,"confidence":-1},{"trial_n":8,"span":6,"encoder":"150155","distractor":"950155","target":"present","response":"present","rt":"2307.8999999994","correct":true,"confidence":-1},{"trial_n":9,"span":8,"encoder":"55166742","distractor":"75166742","target":"present","response":"present","rt":"2120.6999999993","correct":true,"confidence":-1},{"trial_n":10,"span":8,"encoder":"02163434","distractor":"02163494","target":"present","response":"present","rt":"3300.2999999998","correct":true,"confidence":-1},{"trial_n":11,"span":10,"encoder":"3752998514","distractor":"3752998574","target":"present","response":"present","rt":"2778.6999999993","correct":true,"confidence":-1},{"trial_n":12,"span":10,"encoder":"8546136070","distractor":"8546136030","target":"present","response":"present","rt":"1608.3000000007","correct":true,"confidence":-1},{"trial_n":13,"span":11,"encoder":"36235580649","distractor":"36236580649","target":"present","response":"present","rt":"3494.5","correct":true,"confidence":-1},{"trial_n":14,"span":11,"encoder":"91439765913","distractor":"91439765914","target":"absent","response":"absent","rt":"2911.0999999996","correct":true,"confidence":-1},{"trial_n":15,"span":12,"encoder":"203623053864","distractor":"203620053864","target":"absent","response":"present","rt":"3210","correct":false,"confidence":-1},{"trial_n":16,"span":11,"encoder":"10453757937","distractor":"10459757937","target":"present","response":"present","rt":"2259","correct":true,"confidence":-1},{"trial_n":17,"span":11,"encoder":"66591582160","distractor":"66561582160","target":"present","response":"present","rt":"3573.7000000002","correct":true,"confidence":-1},{"trial_n":18,"span":12,"encoder":"870111501635","distractor":"870111511635","target":"absent","response":"present","rt":"2908.1000000006","correct":false,"confidence":-1},{"trial_n":19,"span":11,"encoder":"40469335988","distractor":"40469334988","target":"absent","response":"absent","rt":"2944.4000000004","correct":true,"confidence":-1},{"trial_n":20,"span":11,"encoder":"61142081300","distractor":"61142081100","target":"absent","response":"present","rt":"2180.7000000002","correct":false,"confidence":-1},{"trial_n":21,"span":10,"encoder":"1847218845","distractor":"1847218849","target":"absent","response":"absent","rt":"3139.7999999998","correct":true,"confidence":5},{"trial_n":22,"span":10,"encoder":"6040619128","distractor":"6640619128","target":"absent","response":"absent","rt":"3048.8999999994","correct":true,"confidence":4},{"trial_n":23,"span":11,"encoder":"04007062505","distractor":"04007062508","target":"present","response":"present","rt":"3965.0999999996","correct":true,"confidence":3},{"trial_n":24,"span":11,"encoder":"18349519969","distractor":"88349519969","target":"absent","response":"absent","rt":"4018.7000000002","correct":true,"confidence":4},{"trial_n":25,"span":12,"encoder":"367268022932","distractor":"360268022932","target":"present","response":"absent","rt":"4616.2999999998","correct":false,"confidence":3},{"trial_n":26,"span":11,"encoder":"51604201132","distractor":"51600201132","target":"present","response":"present","rt":"2247","correct":true,"confidence":4},{"trial_n":27,"span":11,"encoder":"00641959598","distractor":"00641959593","target":"absent","response":"absent","rt":"2725.2999999998","correct":true,"confidence":4},{"trial_n":28,"span":12,"encoder":"511495329037","distractor":"514495329037","target":"absent","response":"absent","rt":"7022.5","correct":true,"confidence":3},{"trial_n":29,"span":12,"encoder":"712187294841","distractor":"712387294841","target":"absent","response":"present","rt":"1506","correct":false,"confidence":4},{"trial_n":30,"span":11,"encoder":"74537731684","distractor":"04537731684","target":"absent","response":"present","rt":"4024.7999999998","correct":false,"confidence":4},{"trial_n":31,"span":10,"encoder":"7868878537","distractor":"7468878537","target":"present","response":"present","rt":"3217.7000000002","correct":true,"confidence":5},{"trial_n":32,"span":10,"encoder":"7707602204","distractor":"0707602204","target":"absent","response":"present","rt":"2217.6000000006","correct":false,"confidence":5},{"trial_n":33,"span":9,"encoder":"294979057","distractor":"274979057","target":"present","response":"present","rt":"1987.5","correct":true,"confidence":5},{"trial_n":34,"span":9,"encoder":"825290533","distractor":"825291533","target":"present","response":"present","rt":"2800.2000000002","correct":true,"confidence":3},{"trial_n":35,"span":10,"encoder":"4931209244","distractor":"4931239244","target":"present","response":"present","rt":"2493.1999999993","correct":true,"confidence":3},{"trial_n":36,"span":10,"encoder":"9530264811","distractor":"9530294811","target":"present","response":"present","rt":"2284.7000000002","correct":true,"confidence":4},{"trial_n":37,"span":11,"encoder":"90400567933","distractor":"90400567931","target":"absent","response":"absent","rt":"1787.2000000002","correct":true,"confidence":5},{"trial_n":38,"span":11,"encoder":"22642347477","distractor":"22642349477","target":"absent","response":"present","rt":"1827.0999999996","correct":false,"confidence":2},{"trial_n":39,"span":10,"encoder":"7654050568","distractor":"7656050568","target":"absent","response":"present","rt":"2544.2999999998","correct":false,"confidence":4},{"trial_n":40,"span":9,"encoder":"272968600","distractor":"272968610","target":"absent","response":"absent","rt":"2075.1999999993","correct":true,"confidence":1},{"trial_n":41,"span":9,"encoder":"944790806","distractor":"944790807","target":"absent","response":"absent","rt":"1537","correct":true,"confidence":5},{"trial_n":42,"span":10,"encoder":"2378490879","distractor":"6378490879","target":"absent","response":"present","rt":"2314.7999999998","correct":false,"confidence":4},{"trial_n":43,"span":9,"encoder":"477266493","distractor":"477266393","target":"absent","response":"absent","rt":"3724.1999999993","correct":true,"confidence":5},{"trial_n":44,"span":9,"encoder":"546030955","distractor":"546430955","target":"absent","response":"present","rt":"4082.2999999998","correct":false,"confidence":4},{"trial_n":45,"span":8,"encoder":"70819429","distractor":"70819439","target":"absent","response":"absent","rt":"2148.7000000002","correct":true,"confidence":4},{"trial_n":46,"span":8,"encoder":"44599276","distractor":"44519276","target":"absent","response":"absent","rt":"4178.0999999996","correct":true,"confidence":3},{"trial_n":47,"span":9,"encoder":"123830547","distractor":"723830547","target":"present","response":"present","rt":"2708.2000000002","correct":true,"confidence":3},{"trial_n":48,"span":9,"encoder":"430254953","distractor":"400254953","target":"present","response":"present","rt":"1773.9000000004","correct":true,"confidence":2},{"trial_n":49,"span":10,"encoder":"2627189301","distractor":"2627989301","target":"absent","response":"present","rt":"1909.2000000002","correct":false,"confidence":4},{"trial_n":50,"span":9,"encoder":"300943823","distractor":"300843823","target":"present","response":"present","rt":"1719.8999999994","correct":true,"confidence":5},{"trial_n":51,"span":9,"encoder":"073985120","distractor":"073985126","target":"present","response":"present","rt":"1797.8000000007","correct":true,"confidence":4},{"trial_n":52,"span":10,"encoder":"2942218976","distractor":"2942215976","target":"absent","response":"present","rt":"2156.0999999996","correct":false,"confidence":5},{"trial_n":53,"span":9,"encoder":"295738867","distractor":"295734867","target":"present","response":"present","rt":"1916.3000000007","correct":true,"confidence":4},{"trial_n":54,"span":9,"encoder":"064674053","distractor":"063674053","target":"absent","response":"absent","rt":"3104.7999999998","correct":true,"confidence":3},{"trial_n":55,"span":10,"encoder":"9990650758","distractor":"9990658758","target":"present","response":"present","rt":"3874.8000000007","correct":true,"confidence":5},{"trial_n":56,"span":10,"encoder":"5919977203","distractor":"5919577203","target":"absent","response":"present","rt":"2678.4000000004","correct":false,"confidence":4},{"trial_n":57,"span":9,"encoder":"713280120","distractor":"711280120","target":"present","response":"present","rt":"1776","correct":true,"confidence":3},{"trial_n":58,"span":9,"encoder":"892804266","distractor":"893804266","target":"present","response":"present","rt":"1574.3999999994","correct":true,"confidence":3},{"trial_n":59,"span":10,"encoder":"4594895750","distractor":"4599895750","target":"absent","response":"present","rt":"3205.1000000006","correct":false,"confidence":2},{"trial_n":60,"span":9,"encoder":"939098622","distractor":"909098622","target":"present","response":"present","rt":"1635.5","correct":true,"confidence":3},{"trial_n":61,"span":9,"encoder":"805655589","distractor":"805455589","target":"present","response":"present","rt":"2888.7000000002","correct":true,"confidence":3},{"trial_n":62,"span":10,"encoder":"7719936696","distractor":"8719936696","target":"present","response":"present","rt":"1335","correct":true,"confidence":4},{"trial_n":63,"span":10,"encoder":"8560208634","distractor":"8560201634","target":"present","response":"present","rt":"1742.1000000006","correct":true,"confidence":3},{"trial_n":64,"span":11,"encoder":"30052781528","distractor":"30052784528","target":"absent","response":"present","rt":"2353.5999999996","correct":false,"confidence":3},{"trial_n":65,"span":10,"encoder":"2352759792","distractor":"2352756792","target":"absent","response":"present","rt":"2007.1999999993","correct":false,"confidence":2},{"trial_n":66,"span":9,"encoder":"826973556","distractor":"876973556","target":"absent","response":"present","rt":"2138.0999999996","correct":false,"confidence":4},{"trial_n":67,"span":8,"encoder":"78988114","distractor":"58988114","target":"absent","response":"present","rt":"1739.4000000004","correct":false,"confidence":4},{"trial_n":68,"span":7,"encoder":"3188909","distractor":"3188999","target":"present","response":"present","rt":"1751.2000000002","correct":true,"confidence":5},{"trial_n":69,"span":7,"encoder":"6439823","distractor":"6469823","target":"present","response":"present","rt":"1209.7999999998","correct":true,"confidence":3},{"trial_n":70,"span":8,"encoder":"23720358","distractor":"23720356","target":"present","response":"present","rt":"1307.9000000004","correct":true,"confidence":4},{"trial_n":71,"span":8,"encoder":"15790144","distractor":"19790144","target":"present","response":"absent","rt":"2233.7999999998","correct":false,"confidence":-1},{"trial_n":72,"span":7,"encoder":"3502833","distractor":"3502813","target":"present","response":"present","rt":"1863.3999999994","correct":true,"confidence":-1},{"trial_n":73,"span":7,"encoder":"9469848","distractor":"9469148","target":"absent","response":"present","rt":"5079.1000000006","correct":false,"confidence":-1},{"trial_n":74,"span":6,"encoder":"487617","distractor":"487677","target":"absent","response":"present","rt":"3755.2999999998","correct":false,"confidence":-1},{"trial_n":75,"span":5,"encoder":"39884","distractor":"39784","target":"present","response":"absent","rt":"3812.4000000004","correct":false,"confidence":-1},{"trial_n":76,"span":4,"encoder":"7880","distractor":"6880","target":"present","response":"absent","rt":"1991.8999999994","correct":false,"confidence":-1},{"trial_n":77,"span":3,"encoder":"712","distractor":"772","target":"absent","response":"absent","rt":"1532.1000000006","correct":true,"confidence":-1},{"trial_n":78,"span":3,"encoder":"547","distractor":"545","target":"present","response":"present","rt":"1979.7000000002","correct":true,"confidence":-1},{"trial_n":79,"span":4,"encoder":"0318","distractor":"6318","target":"absent","response":"present","rt":"1535.8999999994","correct":false,"confidence":-1},{"trial_n":80,"span":3,"encoder":"578","distractor":"574","target":"present","response":"present","rt":"1259.2999999998","correct":true,"confidence":-1},{"trial_n":81,"span":3,"encoder":"092","distractor":"097","target":"absent","response":"absent","rt":"1903","correct":true,"confidence":-1},{"trial_n":82,"span":4,"encoder":"4731","distractor":"4531","target":"present","response":"present","rt":"1660.8999999994","correct":true,"confidence":-1},{"trial_n":83,"span":4,"encoder":"8605","distractor":"8305","target":"present","response":"present","rt":"2118.3000000007","correct":true,"confidence":-1},{"trial_n":84,"span":5,"encoder":"35881","distractor":"35871","target":"absent","response":"absent","rt":"1996.5","correct":true,"confidence":-1},{"trial_n":85,"span":5,"encoder":"08685","distractor":"08695","target":"absent","response":"absent","rt":"2124","correct":true,"confidence":-1},{"trial_n":86,"span":6,"encoder":"256483","distractor":"256482","target":"absent","response":"absent","rt":"2807","correct":true,"confidence":-1},{"trial_n":87,"span":6,"encoder":"156681","distractor":"856681","target":"present","response":"present","rt":"1944.0999999996","correct":true,"confidence":-1},{"trial_n":88,"span":7,"encoder":"0652868","distractor":"0654868","target":"absent","response":"absent","rt":"2751.9000000004","correct":true,"confidence":-1},{"trial_n":89,"span":7,"encoder":"1485354","distractor":"1485754","target":"absent","response":"absent","rt":"3394.5999999996","correct":true,"confidence":-1},{"trial_n":90,"span":8,"encoder":"01134626","distractor":"01034626","target":"absent","response":"absent","rt":"2698.1000000006","correct":true,"confidence":-1},{"trial_n":91,"span":8,"encoder":"36167610","distractor":"36160610","target":"absent","response":"present","rt":"4431","correct":false,"confidence":2},{"trial_n":92,"span":7,"encoder":"7491005","distractor":"7492005","target":"present","response":"present","rt":"2139.5","correct":true,"confidence":5},{"trial_n":93,"span":7,"encoder":"5825980","distractor":"5825985","target":"present","response":"present","rt":"2669.5","correct":true,"confidence":5},{"trial_n":94,"span":8,"encoder":"56147964","distractor":"56147944","target":"present","response":"present","rt":"1926.1000000006","correct":true,"confidence":4},{"trial_n":95,"span":8,"encoder":"94867519","distractor":"94867819","target":"absent","response":"present","rt":"5000.2999999998","correct":false,"confidence":3},{"trial_n":96,"span":7,"encoder":"8715230","distractor":"8755230","target":"absent","response":"present","rt":"3269","correct":false,"confidence":2},{"trial_n":97,"span":6,"encoder":"085234","distractor":"485234","target":"absent","response":"absent","rt":"2271.7999999998","correct":true,"confidence":4},{"trial_n":98,"span":6,"encoder":"663965","distractor":"653965","target":"present","response":"present","rt":"3168.9000000004","correct":true,"confidence":3},{"trial_n":99,"span":7,"encoder":"2936898","distractor":"2136898","target":"present","response":"absent","rt":"2631.7000000002","correct":false,"confidence":2},{"trial_n":100,"span":6,"encoder":"073079","distractor":"077079","target":"absent","response":"present","rt":"2466.4000000004","correct":false,"confidence":3},{"trial_n":101,"span":5,"encoder":"29385","distractor":"29885","target":"present","response":"present","rt":"1569.2999999998","correct":true,"confidence":4},{"trial_n":102,"span":5,"encoder":"30624","distractor":"30664","target":"present","response":"present","rt":"2690.1000000006","correct":true,"confidence":4},{"trial_n":103,"span":6,"encoder":"546284","distractor":"506284","target":"present","response":"present","rt":"2122","correct":true,"confidence":4},{"trial_n":104,"span":6,"encoder":"448893","distractor":"440893","target":"absent","response":"absent","rt":"2095.8999999994","correct":true,"confidence":5},{"trial_n":105,"span":7,"encoder":"9073131","distractor":"9073138","target":"absent","response":"absent","rt":"3121.5","correct":true,"confidence":5},{"trial_n":106,"span":7,"encoder":"7717654","distractor":"9717654","target":"present","response":"absent","rt":"3276","correct":false,"confidence":3},{"trial_n":107,"span":6,"encoder":"177580","distractor":"178580","target":"absent","response":"absent","rt":"1812.1999999993","correct":true,"confidence":4},{"trial_n":108,"span":6,"encoder":"315354","distractor":"515354","target":"absent","response":"absent","rt":"3373.1000000006","correct":true,"confidence":3},{"trial_n":109,"span":7,"encoder":"5420424","distractor":"5420425","target":"absent","response":"absent","rt":"4832.1999999993","correct":true,"confidence":3},{"trial_n":110,"span":7,"encoder":"8268885","distractor":"8268185","target":"present","response":"present","rt":"2242.8999999994","correct":true,"confidence":5},{"trial_n":111,"span":8,"encoder":"80025578","distractor":"80022578","target":"absent","response":"present","rt":"3220.5","correct":false,"confidence":3},{"trial_n":112,"span":7,"encoder":"5429893","distractor":"8429893","target":"present","response":"present","rt":"2136.4000000004","correct":true,"confidence":3},{"trial_n":113,"span":7,"encoder":"0122302","distractor":"0122309","target":"present","response":"present","rt":"2873.5","correct":true,"confidence":2},{"trial_n":114,"span":8,"encoder":"18356229","distractor":"18346229","target":"present","response":"present","rt":"3870.5999999996","correct":true,"confidence":3},{"trial_n":115,"span":8,"encoder":"37456243","distractor":"37456240","target":"absent","response":"absent","rt":"1969","correct":true,"confidence":5},{"trial_n":116,"span":9,"encoder":"604958148","distractor":"604958143","target":"absent","response":"absent","rt":"3932.9000000004","correct":true,"confidence":4},{"trial_n":117,"span":9,"encoder":"372037917","distractor":"312037917","target":"absent","response":"present","rt":"4897.2000000002","correct":false,"confidence":4},{"trial_n":118,"span":8,"encoder":"96406841","distractor":"96406871","target":"present","response":"present","rt":"5729.2000000002","correct":true,"confidence":3},{"trial_n":119,"span":8,"encoder":"15130765","distractor":"15130715","target":"absent","response":"absent","rt":"2032.7999999998","correct":true,"confidence":4},{"trial_n":120,"span":9,"encoder":"378666977","distractor":"378606977","target":"present","response":"present","rt":"2119.7000000002","correct":true,"confidence":4},{"trial_n":121,"span":9,"encoder":"957980559","distractor":"907980559","target":"present","response":"present","rt":"2986","correct":true,"confidence":3},{"trial_n":122,"span":10,"encoder":"0631962426","distractor":"0631962026","target":"absent","response":"present","rt":"4834.6000000006","correct":false,"confidence":2},{"trial_n":123,"span":9,"encoder":"023581453","distractor":"023381453","target":"present","response":"present","rt":"3275.4000000004","correct":true,"confidence":2},{"trial_n":124,"span":9,"encoder":"576630147","distractor":"576630143","target":"absent","response":"absent","rt":"1406","correct":true,"confidence":3},{"trial_n":125,"span":10,"encoder":"8628573876","distractor":"8688573876","target":"present","response":"present","rt":"4591.3999999994","correct":true,"confidence":4},{"trial_n":126,"span":10,"encoder":"7078444400","distractor":"7078448400","target":"absent","response":"absent","rt":"5079.1000000006","correct":true,"confidence":2},{"trial_n":127,"span":11,"encoder":"95502160602","distractor":"95502160302","target":"absent","response":"present","rt":"1677.3999999994","correct":false,"confidence":4},{"trial_n":128,"span":10,"encoder":"7775263406","distractor":"7775463406","target":"present","response":"present","rt":"2863.2000000002","correct":true,"confidence":2},{"trial_n":129,"span":10,"encoder":"4849993550","distractor":"6849993550","target":"absent","response":"absent","rt":"2767.2000000002","correct":true,"confidence":3},{"trial_n":130,"span":11,"encoder":"92727235578","distractor":"92727235478","target":"present","response":"present","rt":"2396.9000000004","correct":true,"confidence":2},{"trial_n":131,"span":11,"encoder":"60026831186","distractor":"60026836186","target":"absent","response":"present","rt":"2672","correct":false,"confidence":2},{"trial_n":132,"span":10,"encoder":"5921919336","distractor":"5921959336","target":"present","response":"present","rt":"2900.2000000002","correct":true,"confidence":4},{"trial_n":133,"span":10,"encoder":"9434527543","distractor":"9433527543","target":"absent","response":"present","rt":"2906.7999999998","correct":false,"confidence":4},{"trial_n":134,"span":9,"encoder":"440677657","distractor":"440677617","target":"present","response":"present","rt":"2091.1000000006","correct":true,"confidence":4},{"trial_n":135,"span":9,"encoder":"928554169","distractor":"428554169","target":"absent","response":"present","rt":"2454.7000000002","correct":false,"confidence":2},{"trial_n":136,"span":8,"encoder":"23902980","distractor":"20902980","target":"present","response":"absent","rt":"2816.7999999998","correct":false,"confidence":3},{"trial_n":137,"span":7,"encoder":"1060526","distractor":"1160526","target":"present","response":"absent","rt":"2464.4000000004","correct":false,"confidence":1},{"trial_n":138,"span":6,"encoder":"604690","distractor":"604610","target":"present","response":"present","rt":"1607.4000000004","correct":true,"confidence":4},{"trial_n":139,"span":6,"encoder":"083531","distractor":"083731","target":"present","response":"present","rt":"1741.8999999994","correct":true,"confidence":4},{"trial_n":140,"span":7,"encoder":"4310079","distractor":"9310079","target":"present","response":"present","rt":"2790.1000000006","correct":true,"confidence":3}]