[{"trial_n":1,"span":8,"encoder":"46810521","distractor":"46310521","target":"present","response":"absent","rt":"4208","correct":false,"confidence":-1},{"trial_n":2,"span":6,"encoder":"677231","distractor":"077231","target":"present","response":"present","rt":"2334","correct":true,"confidence":-1},{"trial_n":3,"span":6,"encoder":"119578","distractor":"719578","target":"absent","response":"absent","rt":"1232","correct":true,"confidence":-1},{"trial_n":4,"span":8,"encoder":"27041913","distractor":"27046913","target":"absent","response":"absent","rt":"1723","correct":true,"confidence":-1},{"trial_n":5,"span":8,"encoder":"49475807","distractor":"49475857","target":"present","response":"present","rt":"2054","correct":true,"confidence":-1},{"trial_n":6,"span":10,"encoder":"4513977995","distractor":"4513977925","target":"present","response":"absent","rt":"2298","correct":false,"confidence":-1},{"trial_n":7,"span":8,"encoder":"14162860","distractor":"44162860","target":"present","response":"present","rt":"1087","correct":true,"confidence":-1},{"trial_n":8,"span":8,"encoder":"17886978","distractor":"17889978","target":"present","response":"present","rt":"1539","correct":true,"confidence":-1},{"trial_n":9,"span":10,"encoder":"3396460196","distractor":"3396480196","target":"absent","response":"present","rt":"1380","correct":false,"confidence":-1},{"trial_n":10,"span":8,"encoder":"90775042","distractor":"90745042","target":"absent","response":"present","rt":"1666","correct":false,"confidence":-1},{"trial_n":11,"span":6,"encoder":"661866","distractor":"661266","target":"present","response":"present","rt":"1443","correct":true,"confidence":-1},{"trial_n":12,"span":6,"encoder":"457422","distractor":"467422","target":"absent","response":"absent","rt":"1250","correct":true,"confidence":-1},{"trial_n":13,"span":7,"encoder":"6292610","distractor":"6292613","target":"present","response":"present","rt":"1842","correct":true,"confidence":-1},{"trial_n":14,"span":7,"encoder":"9397670","distractor":"9387670","target":"absent","response":"absent","rt":"1290","correct":true,"confidence":-1},{"trial_n":15,"span":8,"encoder":"29881747","distractor":"29581747","target":"present","response":"absent","rt":"1053","correct":false,"confidence":-1},{"trial_n":16,"span":7,"encoder":"2598854","distractor":"2598853","target":"absent","response":"absent","rt":"1251","correct":true,"confidence":-1},{"trial_n":17,"span":7,"encoder":"8161176","distractor":"8161106","target":"absent","response":"absent","rt":"1013","correct":true,"confidence":-1},{"trial_n":18,"span":8,"encoder":"90427874","distractor":"90427834","target":"present","response":"present","rt":"1716","correct":true,"confidence":-1},{"trial_n":19,"span":8,"encoder":"09021330","distractor":"99021330","target":"present","response":"present","rt":"1235","correct":true,"confidence":-1},{"trial_n":20,"span":9,"encoder":"573870871","distractor":"573870879","target":"present","response":"absent","rt":"1359","correct":false,"confidence":-1},{"trial_n":21,"span":8,"encoder":"34533755","distractor":"30533755","target":"absent","response":"present","rt":"942.00000000003","correct":false,"confidence":5},{"trial_n":22,"span":7,"encoder":"5384901","distractor":"5384902","target":"present","response":"present","rt":"3292","correct":true,"confidence":3},{"trial_n":23,"span":7,"encoder":"0950509","distractor":"0950529","target":"present","response":"present","rt":"2218","correct":true,"confidence":3},{"trial_n":24,"span":8,"encoder":"97314247","distractor":"99314247","target":"absent","response":"present","rt":"1110","correct":false,"confidence":4},{"trial_n":25,"span":7,"encoder":"7943202","distractor":"7843202","target":"present","response":"absent","rt":"3805","correct":false,"confidence":4},{"trial_n":26,"span":6,"encoder":"342129","distractor":"341129","target":"absent","response":"absent","rt":"3207","correct":true,"confidence":3},{"trial_n":27,"span":6,"encoder":"081856","distractor":"081816","target":"present","response":"present","rt":"2714","correct":true,"confidence":5},{"trial_n":28,"span":7,"encoder":"8818990","distractor":"8815990","target":"present","response":"absent","rt":"2718","correct":false,"confidence":5},{"trial_n":29,"span":6,"encoder":"403523","distractor":"703523","target":"present","response":"present","rt":"2130","correct":true,"confidence":5},{"trial_n":30,"span":6,"encoder":"661891","distractor":"671891","target":"present","response":"absent","rt":"3030","correct":false,"confidence":2},{"trial_n":31,"span":5,"encoder":"43394","distractor":"63394","target":"present","response":"present","rt":"1266","correct":true,"confidence":5},{"trial_n":32,"span":5,"encoder":"40674","distractor":"40673","target":"absent","response":"absent","rt":"1445","correct":true,"confidence":4},{"trial_n":33,"span":6,"encoder":"379494","distractor":"279494","target":"absent","response":"absent","rt":"911.99999999997","correct":true,"confidence":5},{"trial_n":34,"span":6,"encoder":"468655","distractor":"488655","target":"absent","response":"present","rt":"2239.0000000001","correct":false,"confidence":1},{"trial_n":35,"span":5,"encoder":"77552","distractor":"77558","target":"absent","response":"absent","rt":"1921","correct":true,"confidence":5},{"trial_n":36,"span":5,"encoder":"17447","distractor":"17441","target":"present","response":"present","rt":"2532","correct":true,"confidence":5},{"trial_n":37,"span":6,"encoder":"755732","distractor":"755032","target":"absent","response":"absent","rt":"2277","correct":true,"confidence":5},{"trial_n":38,"span":6,"encoder":"404842","distractor":"604842","target":"present","response":"present","rt":"2541","correct":true,"confidence":5},{"trial_n":39,"span":7,"encoder":"2004932","distractor":"2504932","target":"absent","response":"absent","rt":"1637","correct":true,"confidence":5},{"trial_n":40,"span":7,"encoder":"9052994","distractor":"1052994","target":"present","response":"absent","rt":"1984.0000000001","correct":false,"confidence":1},{"trial_n":41,"span":6,"encoder":"496861","distractor":"476861","target":"present","response":"present","rt":"2235","correct":true,"confidence":3},{"trial_n":42,"span":6,"encoder":"095774","distractor":"095784","target":"absent","response":"absent","rt":"1353","correct":true,"confidence":4},{"trial_n":43,"span":7,"encoder":"2141233","distractor":"2041233","target":"present","response":"absent","rt":"4624","correct":false,"confidence":2},{"trial_n":44,"span":6,"encoder":"756626","distractor":"156626","target":"absent","response":"absent","rt":"977.99999999994","correct":true,"confidence":4},{"trial_n":45,"span":6,"encoder":"516124","distractor":"116124","target":"present","response":"present","rt":"2606","correct":true,"confidence":3},{"trial_n":46,"span":7,"encoder":"7067454","distractor":"7047454","target":"present","response":"present","rt":"1394.0000000001","correct":true,"confidence":5},{"trial_n":47,"span":7,"encoder":"0424350","distractor":"0420350","target":"present","response":"absent","rt":"2042","correct":false,"confidence":1},{"trial_n":48,"span":6,"encoder":"487364","distractor":"487164","target":"absent","response":"absent","rt":"1637","correct":true,"confidence":5},{"trial_n":49,"span":6,"encoder":"870124","distractor":"870524","target":"absent","response":"absent","rt":"1629","correct":true,"confidence":5},{"trial_n":50,"span":7,"encoder":"8043821","distractor":"8043820","target":"present","response":"present","rt":"4512","correct":true,"confidence":4},{"trial_n":51,"span":7,"encoder":"1977293","distractor":"1927293","target":"absent","response":"absent","rt":"2000","correct":true,"confidence":5},{"trial_n":52,"span":8,"encoder":"08994156","distractor":"08996156","target":"present","response":"absent","rt":"3081","correct":false,"confidence":2},{"trial_n":53,"span":7,"encoder":"0242755","distractor":"0142755","target":"absent","response":"present","rt":"3457","correct":false,"confidence":4},{"trial_n":54,"span":6,"encoder":"960547","distractor":"960597","target":"absent","response":"absent","rt":"1761","correct":true,"confidence":5},{"trial_n":55,"span":6,"encoder":"545060","distractor":"565060","target":"absent","response":"absent","rt":"6710.9999999999","correct":true,"confidence":2},{"trial_n":56,"span":7,"encoder":"1888602","distractor":"5888602","target":"absent","response":"absent","rt":"2202","correct":true,"confidence":2},{"trial_n":57,"span":7,"encoder":"9034458","distractor":"8034458","target":"absent","response":"absent","rt":"1096","correct":true,"confidence":5},{"trial_n":58,"span":8,"encoder":"64832075","distractor":"64833075","target":"present","response":"absent","rt":"4055.9999999999","correct":false,"confidence":3},{"trial_n":59,"span":7,"encoder":"7901385","distractor":"7901185","target":"absent","response":"absent","rt":"1859.0000000001","correct":true,"confidence":5},{"trial_n":60,"span":7,"encoder":"1471740","distractor":"1471770","target":"present","response":"present","rt":"2334","correct":true,"confidence":3},{"trial_n":61,"span":8,"encoder":"84974879","distractor":"84974579","target":"absent","response":"absent","rt":"1933","correct":true,"confidence":2},{"trial_n":62,"span":8,"encoder":"92534522","distractor":"92534529","target":"present","response":"present","rt":"3563","correct":true,"confidence":5},{"trial_n":63,"span":9,"encoder":"007257308","distractor":"307257308","target":"absent","response":"absent","rt":"2330","correct":true,"confidence":5},{"trial_n":64,"span":9,"encoder":"503130680","distractor":"503180680","target":"absent","response":"present","rt":"2435.9999999999","correct":false,"confidence":4},{"trial_n":65,"span":8,"encoder":"88470382","distractor":"88770382","target":"absent","response":"present","rt":"1442","correct":false,"confidence":3},{"trial_n":66,"span":7,"encoder":"5834219","distractor":"5834269","target":"absent","response":"absent","rt":"2426","correct":true,"confidence":5},{"trial_n":67,"span":7,"encoder":"4787607","distractor":"4787407","target":"absent","response":"absent","rt":"2056.0000000001","correct":true,"confidence":5},{"trial_n":68,"span":8,"encoder":"08675559","distractor":"58675559","target":"present","response":"absent","rt":"4477.9999999999","correct":false,"confidence":1},{"trial_n":69,"span":7,"encoder":"9481669","distractor":"9481699","target":"present","response":"present","rt":"1860","correct":true,"confidence":2},{"trial_n":70,"span":7,"encoder":"5698862","distractor":"5698802","target":"present","response":"present","rt":"2619.0000000001","correct":true,"confidence":2},{"trial_n":71,"span":8,"encoder":"34299398","distractor":"34299798","target":"present","response":"present","rt":"4509","correct":true,"confidence":-1},{"trial_n":72,"span":8,"encoder":"69901525","distractor":"69905525","target":"present","response":"present","rt":"3182","correct":true,"confidence":-1},{"trial_n":73,"span":9,"encoder":"008083774","distractor":"008083474","target":"absent","response":"absent","rt":"2991","correct":true,"confidence":-1},{"trial_n":74,"span":9,"encoder":"770208722","distractor":"770208723","target":"absent","response":"absent","rt":"4934","correct":true,"confidence":-1},{"trial_n":75,"span":10,"encoder":"1992924556","distractor":"1992924554","target":"present","response":"present","rt":"5855","correct":true,"confidence":-1},{"trial_n":76,"span":10,"encoder":"4715855465","distractor":"4715855475","target":"absent","response":"absent","rt":"3969","correct":true,"confidence":-1},{"trial_n":77,"span":11,"encoder":"35741263766","distractor":"35741263566","target":"absent","response":"absent","rt":"3219","correct":true,"confidence":-1},{"trial_n":78,"span":11,"encoder":"59537817918","distractor":"53537817918","target":"present","response":"absent","rt":"9088","correct":false,"confidence":-1},{"trial_n":79,"span":10,"encoder":"3533814131","distractor":"3533814137","target":"absent","response":"absent","rt":"2743","correct":true,"confidence":-1},{"trial_n":80,"span":10,"encoder":"5617789811","distractor":"5617789891","target":"absent","response":"absent","rt":"9495","correct":true,"confidence":-1},{"trial_n":81,"span":11,"encoder":"54187342921","distractor":"54187342927","target":"absent","response":"absent","rt":"2690","correct":true,"confidence":-1},{"trial_n":82,"span":11,"encoder":"98315138665","distractor":"98315138625","target":"present","response":"present","rt":"1455","correct":true,"confidence":-1},{"trial_n":83,"span":12,"encoder":"603046826986","distractor":"603046826936","target":"present","response":"absent","rt":"858","correct":false,"confidence":-1},{"trial_n":84,"span":11,"encoder":"50383792310","distractor":"50383732310","target":"present","response":"present","rt":"2903","correct":true,"confidence":-1},{"trial_n":85,"span":11,"encoder":"91380661875","distractor":"91350661875","target":"present","response":"present","rt":"19588","correct":true,"confidence":-1},{"trial_n":86,"span":12,"encoder":"449467460765","distractor":"489467460765","target":"present","response":"absent","rt":"3125","correct":false,"confidence":-1},{"trial_n":87,"span":11,"encoder":"66947364250","distractor":"66347364250","target":"absent","response":"absent","rt":"1881.0000000001","correct":true,"confidence":-1},{"trial_n":88,"span":11,"encoder":"25653832821","distractor":"45653832821","target":"absent","response":"present","rt":"1303","correct":false,"confidence":-1},{"trial_n":89,"span":10,"encoder":"0676193281","distractor":"5676193281","target":"present","response":"present","rt":"2102.0000000001","correct":true,"confidence":-1},{"trial_n":90,"span":10,"encoder":"0996811499","distractor":"0996813499","target":"present","response":"absent","rt":"2277","correct":false,"confidence":-1},{"trial_n":91,"span":9,"encoder":"965260259","distractor":"965269259","target":"absent","response":"absent","rt":"1287","correct":true,"confidence":5},{"trial_n":92,"span":9,"encoder":"288951641","distractor":"288951647","target":"absent","response":"present","rt":"4603","correct":false,"confidence":2},{"trial_n":93,"span":8,"encoder":"00803856","distractor":"00803850","target":"present","response":"present","rt":"3687.9999999999","correct":true,"confidence":5},{"trial_n":94,"span":8,"encoder":"42110078","distractor":"42510078","target":"present","response":"absent","rt":"3910","correct":false,"confidence":3},{"trial_n":95,"span":7,"encoder":"8927079","distractor":"0927079","target":"present","response":"present","rt":"2799","correct":true,"confidence":5},{"trial_n":96,"span":7,"encoder":"9564916","distractor":"9544916","target":"present","response":"present","rt":"3362.0000000001","correct":true,"confidence":4},{"trial_n":97,"span":8,"encoder":"70181064","distractor":"70981064","target":"absent","response":"absent","rt":"4055","correct":true,"confidence":4},{"trial_n":98,"span":8,"encoder":"56378267","distractor":"55378267","target":"absent","response":"absent","rt":"3630","correct":true,"confidence":4},{"trial_n":99,"span":9,"encoder":"430705157","distractor":"430705107","target":"present","response":"absent","rt":"2696","correct":false,"confidence":4},{"trial_n":100,"span":8,"encoder":"06048957","distractor":"06048958","target":"absent","response":"present","rt":"4251","correct":false,"confidence":3},{"trial_n":101,"span":7,"encoder":"4788029","distractor":"4588029","target":"present","response":"absent","rt":"1966","correct":false,"confidence":1},{"trial_n":102,"span":6,"encoder":"110727","distractor":"114727","target":"present","response":"present","rt":"1599","correct":true,"confidence":5},{"trial_n":103,"span":6,"encoder":"747285","distractor":"747485","target":"absent","response":"absent","rt":"3543","correct":true,"confidence":5},{"trial_n":104,"span":7,"encoder":"0758990","distractor":"0758995","target":"present","response":"present","rt":"2222","correct":true,"confidence":5},{"trial_n":105,"span":7,"encoder":"8279650","distractor":"8271650","target":"present","response":"present","rt":"3787","correct":true,"confidence":5},{"trial_n":106,"span":8,"encoder":"33355940","distractor":"33353940","target":"present","response":"present","rt":"5625","correct":true,"confidence":5},{"trial_n":107,"span":8,"encoder":"02591728","distractor":"01591728","target":"absent","response":"present","rt":"2285","correct":false,"confidence":3},{"trial_n":108,"span":7,"encoder":"7551451","distractor":"7551651","target":"present","response":"present","rt":"1881.0000000001","correct":true,"confidence":5},{"trial_n":109,"span":7,"encoder":"6869400","distractor":"6869100","target":"absent","response":"absent","rt":"4693.9999999999","correct":true,"confidence":4},{"trial_n":110,"span":8,"encoder":"10205296","distractor":"10505296","target":"present","response":"present","rt":"5363","correct":true,"confidence":2},{"trial_n":111,"span":8,"encoder":"58883832","distractor":"58887832","target":"present","response":"present","rt":"3857.0000000001","correct":true,"confidence":5},{"trial_n":112,"span":9,"encoder":"580336895","distractor":"580336695","target":"absent","response":"absent","rt":"4092","correct":true,"confidence":5},{"trial_n":113,"span":9,"encoder":"619583344","distractor":"659583344","target":"absent","response":"present","rt":"2553.0000000001","correct":false,"confidence":5},{"trial_n":114,"span":8,"encoder":"09348159","distractor":"09348139","target":"present","response":"absent","rt":"4616","correct":false,"confidence":3},{"trial_n":115,"span":7,"encoder":"0232669","distractor":"0232649","target":"present","response":"absent","rt":"3963","correct":false,"confidence":2},{"trial_n":116,"span":6,"encoder":"579777","distractor":"571777","target":"absent","response":"absent","rt":"2446.9999999999","correct":true,"confidence":5},{"trial_n":117,"span":6,"encoder":"085258","distractor":"285258","target":"absent","response":"absent","rt":"2997.9999999999","correct":true,"confidence":5},{"trial_n":118,"span":7,"encoder":"8384568","distractor":"8384068","target":"absent","response":"absent","rt":"3875","correct":true,"confidence":5},{"trial_n":119,"span":7,"encoder":"1900876","distractor":"1902876","target":"present","response":"present","rt":"3333","correct":true,"confidence":5},{"trial_n":120,"span":8,"encoder":"69315892","distractor":"99315892","target":"present","response":"present","rt":"2114","correct":true,"confidence":5},{"trial_n":121,"span":8,"encoder":"35000359","distractor":"85000359","target":"present","response":"present","rt":"2500","correct":true,"confidence":5},{"trial_n":122,"span":9,"encoder":"669170620","distractor":"769170620","target":"present","response":"present","rt":"4615","correct":true,"confidence":5},{"trial_n":123,"span":9,"encoder":"057380791","distractor":"057680791","target":"absent","response":"absent","rt":"2775.9999999998","correct":true,"confidence":2},{"trial_n":124,"span":10,"encoder":"9472434707","distractor":"9472414707","target":"present","response":"present","rt":"2600","correct":true,"confidence":4},{"trial_n":125,"span":10,"encoder":"8565693017","distractor":"8165693017","target":"present","response":"present","rt":"6331","correct":true,"confidence":3},{"trial_n":126,"span":11,"encoder":"26291441762","distractor":"28291441762","target":"present","response":"present","rt":"4557","correct":true,"confidence":5},{"trial_n":127,"span":11,"encoder":"89344526538","distractor":"89344516538","target":"absent","response":"absent","rt":"7254","correct":true,"confidence":2},{"trial_n":128,"span":12,"encoder":"966353037316","distractor":"966553037316","target":"absent","response":"absent","rt":"4535","correct":true,"confidence":1},{"trial_n":129,"span":12,"encoder":"984996140351","distractor":"984996140356","target":"absent","response":"absent","rt":"2224","correct":true,"confidence":5},{"trial_n":130,"span":13,"encoder":"5351648185819","distractor":"5351348185819","target":"absent","response":"absent","rt":"7888","correct":true,"confidence":2},{"trial_n":131,"span":13,"encoder":"6531309658218","distractor":"6531909658218","target":"present","response":"present","rt":"7811.9999999998","correct":true,"confidence":1},{"trial_n":132,"span":14,"encoder":"09195132818602","distractor":"09195137818602","target":"absent","response":"absent","rt":"4365","correct":true,"confidence":4},{"trial_n":133,"span":14,"encoder":"09669244264062","distractor":"09669244264562","target":"absent","response":"absent","rt":"4107","correct":true,"confidence":4},{"trial_n":134,"span":15,"encoder":"471693395878618","distractor":"451693395878618","target":"present","response":"absent","rt":"3394","correct":false,"confidence":1},{"trial_n":135,"span":14,"encoder":"70114588882362","distractor":"70114588872362","target":"absent","response":"present","rt":"9026","correct":false,"confidence":4},{"trial_n":136,"span":13,"encoder":"4535847175354","distractor":"2535847175354","target":"absent","response":"absent","rt":"5722","correct":true,"confidence":3},{"trial_n":137,"span":13,"encoder":"9428364109855","distractor":"9428364109853","target":"absent","response":"absent","rt":"7923","correct":true,"confidence":4},{"trial_n":138,"span":14,"encoder":"88131266198451","distractor":"88134266198451","target":"absent","response":"present","rt":"7284","correct":false,"confidence":3},{"trial_n":139,"span":13,"encoder":"0651832926136","distractor":"0651832906136","target":"present","response":"present","rt":"4770.9999999998","correct":true,"confidence":5},{"trial_n":140,"span":13,"encoder":"2753212383816","distractor":"2753212389816","target":"absent","response":"present","rt":"5147","correct":false,"confidence":1}]