[{"trial_n":1,"min":25,"max":230,"target":"present","response":"present","rt":10130.400000036,"correct":true,"confidence":-1},{"trial_n":2,"min":25,"max":230,"target":"present","response":"present","rt":2821.9000000358,"correct":true,"confidence":-1},{"trial_n":3,"min":41,"max":214,"target":"absent","response":"absent","rt":2308.8000000119,"correct":true,"confidence":-1},{"trial_n":4,"min":41,"max":214,"target":"absent","response":"absent","rt":1638.8000000119,"correct":true,"confidence":-1},{"trial_n":5,"min":57,"max":198,"target":"present","response":"present","rt":1289.5999999642,"correct":true,"confidence":-1},{"trial_n":6,"min":57,"max":198,"target":"present","response":"present","rt":691.5,"correct":true,"confidence":-1},{"trial_n":7,"min":73,"max":182,"target":"absent","response":"absent","rt":1538.3999999762,"correct":true,"confidence":-1},{"trial_n":8,"min":73,"max":182,"target":"absent","response":"absent","rt":1005.1999999881,"correct":true,"confidence":-1},{"trial_n":9,"min":89,"max":166,"target":"absent","response":"absent","rt":741.19999998808,"correct":true,"confidence":-1},{"trial_n":10,"min":89,"max":166,"target":"present","response":"present","rt":1221,"correct":true,"confidence":-1},{"trial_n":11,"min":97,"max":158,"target":"present","response":"present","rt":1327.0999999642,"correct":true,"confidence":-1},{"trial_n":12,"min":97,"max":158,"target":"absent","response":"present","rt":1569.3000000119,"correct":false,"confidence":-1},{"trial_n":13,"min":89,"max":166,"target":"absent","response":"absent","rt":1253.1999999881,"correct":true,"confidence":-1},{"trial_n":14,"min":89,"max":166,"target":"absent","response":"absent","rt":1587.7999999523,"correct":true,"confidence":-1},{"trial_n":15,"min":97,"max":158,"target":"present","response":"absent","rt":707,"correct":false,"confidence":-1},{"trial_n":16,"min":89,"max":166,"target":"present","response":"absent","rt":888.29999995232,"correct":false,"confidence":-1},{"trial_n":17,"min":81,"max":174,"target":"present","response":"absent","rt":3404,"correct":false,"confidence":-1},{"trial_n":18,"min":73,"max":182,"target":"absent","response":"present","rt":1493.8000000119,"correct":false,"confidence":-1},{"trial_n":19,"min":65,"max":190,"target":"absent","response":"absent","rt":2701.5999999642,"correct":true,"confidence":-1},{"trial_n":20,"min":65,"max":190,"target":"absent","response":"absent","rt":805.39999997616,"correct":true,"confidence":-1},{"trial_n":21,"min":69,"max":186,"target":"absent","response":"absent","rt":1461,"correct":true,"confidence":2},{"trial_n":22,"min":69,"max":186,"target":"absent","response":"absent","rt":9170.1999999881,"correct":true,"confidence":2},{"trial_n":23,"min":73,"max":182,"target":"present","response":"present","rt":829.40000003576,"correct":true,"confidence":4},{"trial_n":24,"min":73,"max":182,"target":"absent","response":"absent","rt":1705.5999999642,"correct":true,"confidence":3},{"trial_n":25,"min":77,"max":178,"target":"absent","response":"absent","rt":1140.8999999762,"correct":true,"confidence":3},{"trial_n":26,"min":77,"max":178,"target":"present","response":"absent","rt":1714.9000000358,"correct":false,"confidence":2},{"trial_n":27,"min":73,"max":182,"target":"present","response":"present","rt":1044,"correct":true,"confidence":3},{"trial_n":28,"min":73,"max":182,"target":"present","response":"present","rt":853.59999996424,"correct":true,"confidence":4},{"trial_n":29,"min":77,"max":178,"target":"absent","response":"absent","rt":1522.8999999762,"correct":true,"confidence":2},{"trial_n":30,"min":77,"max":178,"target":"absent","response":"absent","rt":2285.9000000358,"correct":true,"confidence":3},{"trial_n":31,"min":79,"max":176,"target":"present","response":"present","rt":859.90000003576,"correct":true,"confidence":4},{"trial_n":32,"min":79,"max":176,"target":"present","response":"present","rt":1283,"correct":true,"confidence":3},{"trial_n":33,"min":81,"max":174,"target":"absent","response":"absent","rt":1199.6999999881,"correct":true,"confidence":2},{"trial_n":34,"min":81,"max":174,"target":"present","response":"present","rt":782.90000003576,"correct":true,"confidence":3},{"trial_n":35,"min":83,"max":172,"target":"present","response":"present","rt":735.19999998808,"correct":true,"confidence":3},{"trial_n":36,"min":83,"max":172,"target":"present","response":"present","rt":849.89999997616,"correct":true,"confidence":3},{"trial_n":37,"min":85,"max":170,"target":"present","response":"present","rt":823.5,"correct":true,"confidence":3},{"trial_n":38,"min":85,"max":170,"target":"absent","response":"absent","rt":746.69999998808,"correct":true,"confidence":2},{"trial_n":39,"min":87,"max":168,"target":"present","response":"absent","rt":2046.5,"correct":false,"confidence":2},{"trial_n":40,"min":85,"max":170,"target":"present","response":"present","rt":698.5,"correct":true,"confidence":4},{"trial_n":41,"min":85,"max":170,"target":"absent","response":"absent","rt":1331.6999999881,"correct":true,"confidence":2},{"trial_n":42,"min":86,"max":169,"target":"absent","response":"absent","rt":670.80000001192,"correct":true,"confidence":3},{"trial_n":43,"min":86,"max":169,"target":"present","response":"present","rt":748.09999996424,"correct":true,"confidence":3},{"trial_n":44,"min":87,"max":168,"target":"absent","response":"present","rt":987.40000003576,"correct":false,"confidence":2},{"trial_n":45,"min":86,"max":169,"target":"absent","response":"present","rt":1122.1000000238,"correct":false,"confidence":3},{"trial_n":46,"min":85,"max":170,"target":"present","response":"present","rt":683.09999996424,"correct":true,"confidence":4},{"trial_n":47,"min":85,"max":170,"target":"absent","response":"present","rt":986.10000002384,"correct":false,"confidence":4},{"trial_n":48,"min":84,"max":171,"target":"present","response":"absent","rt":760.39999997616,"correct":false,"confidence":2},{"trial_n":49,"min":83,"max":172,"target":"present","response":"absent","rt":1276.6000000238,"correct":false,"confidence":2},{"trial_n":50,"min":82,"max":173,"target":"present","response":"present","rt":1237.8999999762,"correct":true,"confidence":2},{"trial_n":51,"min":82,"max":173,"target":"present","response":"present","rt":683.5,"correct":true,"confidence":2},{"trial_n":52,"min":83,"max":172,"target":"absent","response":"absent","rt":1520.6000000238,"correct":true,"confidence":2},{"trial_n":53,"min":83,"max":172,"target":"absent","response":"present","rt":1093.1999999881,"correct":false,"confidence":3},{"trial_n":54,"min":82,"max":173,"target":"absent","response":"absent","rt":862.59999996424,"correct":true,"confidence":2},{"trial_n":55,"min":82,"max":173,"target":"absent","response":"absent","rt":803.89999997616,"correct":true,"confidence":3},{"trial_n":56,"min":83,"max":172,"target":"present","response":"present","rt":673.80000001192,"correct":true,"confidence":2},{"trial_n":57,"min":83,"max":172,"target":"absent","response":"present","rt":1626.1999999881,"correct":false,"confidence":2},{"trial_n":58,"min":82,"max":173,"target":"absent","response":"absent","rt":1225.9000000358,"correct":true,"confidence":2},{"trial_n":59,"min":82,"max":173,"target":"present","response":"present","rt":741.19999998808,"correct":true,"confidence":2},{"trial_n":60,"min":83,"max":172,"target":"present","response":"present","rt":773.19999998808,"correct":true,"confidence":4},{"trial_n":61,"min":83,"max":172,"target":"present","response":"present","rt":789.5,"correct":true,"confidence":3},{"trial_n":62,"min":84,"max":171,"target":"present","response":"absent","rt":837.80000001192,"correct":false,"confidence":2},{"trial_n":63,"min":83,"max":172,"target":"present","response":"present","rt":867,"correct":true,"confidence":2},{"trial_n":64,"min":83,"max":172,"target":"absent","response":"present","rt":790.40000003576,"correct":false,"confidence":3},{"trial_n":65,"min":82,"max":173,"target":"present","response":"absent","rt":798.80000001192,"correct":false,"confidence":3},{"trial_n":66,"min":81,"max":174,"target":"absent","response":"present","rt":1017.6000000238,"correct":false,"confidence":2},{"trial_n":67,"min":80,"max":175,"target":"absent","response":"absent","rt":1186.7999999523,"correct":true,"confidence":2},{"trial_n":68,"min":80,"max":175,"target":"present","response":"present","rt":706.59999996424,"correct":true,"confidence":3},{"trial_n":69,"min":81,"max":174,"target":"present","response":"present","rt":699.89999997616,"correct":true,"confidence":3},{"trial_n":70,"min":81,"max":174,"target":"absent","response":"absent","rt":789.19999998808,"correct":true,"confidence":2},{"trial_n":71,"min":41,"max":214,"target":"present","response":"present","rt":5059.3999999762,"correct":true,"confidence":-1},{"trial_n":72,"min":41,"max":214,"target":"present","response":"present","rt":832.80000001192,"correct":true,"confidence":-1},{"trial_n":73,"min":57,"max":198,"target":"absent","response":"absent","rt":1083.4000000358,"correct":true,"confidence":-1},{"trial_n":74,"min":57,"max":198,"target":"absent","response":"absent","rt":664.40000003576,"correct":true,"confidence":-1},{"trial_n":75,"min":73,"max":182,"target":"present","response":"present","rt":904.90000003576,"correct":true,"confidence":-1},{"trial_n":76,"min":73,"max":182,"target":"absent","response":"absent","rt":774.29999995232,"correct":true,"confidence":-1},{"trial_n":77,"min":89,"max":166,"target":"absent","response":"absent","rt":1136.2000000477,"correct":true,"confidence":-1},{"trial_n":78,"min":89,"max":166,"target":"present","response":"absent","rt":1133.4000000358,"correct":false,"confidence":-1},{"trial_n":79,"min":73,"max":182,"target":"absent","response":"absent","rt":625.10000002384,"correct":true,"confidence":-1},{"trial_n":80,"min":73,"max":182,"target":"present","response":"present","rt":959.80000001192,"correct":true,"confidence":-1},{"trial_n":81,"min":81,"max":174,"target":"present","response":"present","rt":761.89999997616,"correct":true,"confidence":-1},{"trial_n":82,"min":81,"max":174,"target":"absent","response":"absent","rt":907.90000003576,"correct":true,"confidence":-1},{"trial_n":83,"min":89,"max":166,"target":"present","response":"present","rt":842.79999995232,"correct":true,"confidence":-1},{"trial_n":84,"min":89,"max":166,"target":"present","response":"present","rt":1432.7000000477,"correct":true,"confidence":-1},{"trial_n":85,"min":97,"max":158,"target":"absent","response":"present","rt":1350.6999999881,"correct":false,"confidence":-1},{"trial_n":86,"min":89,"max":166,"target":"absent","response":"absent","rt":1106.8999999762,"correct":true,"confidence":-1},{"trial_n":87,"min":89,"max":166,"target":"absent","response":"absent","rt":533.5,"correct":true,"confidence":-1},{"trial_n":88,"min":97,"max":158,"target":"absent","response":"present","rt":1499.6999999881,"correct":false,"confidence":-1},{"trial_n":89,"min":89,"max":166,"target":"absent","response":"present","rt":891.80000001192,"correct":false,"confidence":-1},{"trial_n":90,"min":81,"max":174,"target":"present","response":"present","rt":549.60000002384,"correct":true,"confidence":-1},{"trial_n":91,"min":81,"max":174,"target":"absent","response":"absent","rt":1020.4000000358,"correct":true,"confidence":2},{"trial_n":92,"min":85,"max":170,"target":"absent","response":"absent","rt":1949.0999999642,"correct":true,"confidence":3},{"trial_n":93,"min":85,"max":170,"target":"present","response":"present","rt":2152.8000000119,"correct":true,"confidence":2},{"trial_n":94,"min":89,"max":166,"target":"present","response":"present","rt":1109,"correct":true,"confidence":2},{"trial_n":95,"min":89,"max":166,"target":"present","response":"present","rt":858.5,"correct":true,"confidence":3},{"trial_n":96,"min":93,"max":162,"target":"present","response":"present","rt":979.19999998808,"correct":true,"confidence":3},{"trial_n":97,"min":93,"max":162,"target":"present","response":"present","rt":919.29999995232,"correct":true,"confidence":2},{"trial_n":98,"min":97,"max":158,"target":"absent","response":"present","rt":1056.7999999523,"correct":false,"confidence":2},{"trial_n":99,"min":93,"max":162,"target":"absent","response":"absent","rt":1060,"correct":true,"confidence":2},{"trial_n":100,"min":93,"max":162,"target":"absent","response":"present","rt":929.90000003576,"correct":false,"confidence":2},{"trial_n":101,"min":91,"max":164,"target":"present","response":"present","rt":862.60000002384,"correct":true,"confidence":3},{"trial_n":102,"min":91,"max":164,"target":"present","response":"present","rt":1212.5,"correct":true,"confidence":2},{"trial_n":103,"min":93,"max":162,"target":"present","response":"present","rt":1158.0999999642,"correct":true,"confidence":2},{"trial_n":104,"min":93,"max":162,"target":"present","response":"present","rt":898.5,"correct":true,"confidence":2},{"trial_n":105,"min":95,"max":160,"target":"absent","response":"absent","rt":1395.1999999881,"correct":true,"confidence":2},{"trial_n":106,"min":95,"max":160,"target":"absent","response":"present","rt":941.10000002384,"correct":false,"confidence":2},{"trial_n":107,"min":93,"max":162,"target":"absent","response":"absent","rt":1093.6999999881,"correct":true,"confidence":2},{"trial_n":108,"min":93,"max":162,"target":"absent","response":"present","rt":963.30000001192,"correct":false,"confidence":2},{"trial_n":109,"min":91,"max":164,"target":"absent","response":"absent","rt":1064.5999999642,"correct":true,"confidence":3},{"trial_n":110,"min":91,"max":164,"target":"present","response":"present","rt":1229.1999999881,"correct":true,"confidence":2},{"trial_n":111,"min":92,"max":163,"target":"absent","response":"absent","rt":2647.1999999881,"correct":true,"confidence":2},{"trial_n":112,"min":92,"max":163,"target":"present","response":"present","rt":1362.6000000238,"correct":true,"confidence":2},{"trial_n":113,"min":93,"max":162,"target":"present","response":"present","rt":946.5,"correct":true,"confidence":2},{"trial_n":114,"min":93,"max":162,"target":"present","response":"present","rt":1311.1000000238,"correct":true,"confidence":2},{"trial_n":115,"min":94,"max":161,"target":"absent","response":"present","rt":1460.7000000477,"correct":false,"confidence":2},{"trial_n":116,"min":93,"max":162,"target":"present","response":"absent","rt":976.59999996424,"correct":false,"confidence":2},{"trial_n":117,"min":92,"max":163,"target":"present","response":"present","rt":1138.2000000477,"correct":true,"confidence":2},{"trial_n":118,"min":92,"max":163,"target":"absent","response":"present","rt":1362.6999999881,"correct":false,"confidence":2},{"trial_n":119,"min":91,"max":164,"target":"absent","response":"present","rt":978.69999998808,"correct":false,"confidence":2},{"trial_n":120,"min":90,"max":165,"target":"present","response":"absent","rt":1333.5,"correct":false,"confidence":2},{"trial_n":121,"min":89,"max":166,"target":"present","response":"present","rt":1040.6000000238,"correct":true,"confidence":2},{"trial_n":122,"min":89,"max":166,"target":"present","response":"present","rt":775.09999996424,"correct":true,"confidence":3},{"trial_n":123,"min":90,"max":165,"target":"present","response":"absent","rt":1085.5999999642,"correct":false,"confidence":3},{"trial_n":124,"min":89,"max":166,"target":"absent","response":"present","rt":880.80000001192,"correct":false,"confidence":3},{"trial_n":125,"min":88,"max":167,"target":"absent","response":"present","rt":989.40000003576,"correct":false,"confidence":2},{"trial_n":126,"min":87,"max":168,"target":"present","response":"present","rt":1049.9000000358,"correct":true,"confidence":2},{"trial_n":127,"min":87,"max":168,"target":"absent","response":"absent","rt":1017.3000000119,"correct":true,"confidence":3},{"trial_n":128,"min":88,"max":167,"target":"present","response":"present","rt":937.69999998808,"correct":true,"confidence":2},{"trial_n":129,"min":88,"max":167,"target":"present","response":"present","rt":821.80000001192,"correct":true,"confidence":2},{"trial_n":130,"min":89,"max":166,"target":"absent","response":"present","rt":859.70000004768,"correct":false,"confidence":2},{"trial_n":131,"min":88,"max":167,"target":"absent","response":"absent","rt":1170.6000000238,"correct":true,"confidence":3},{"trial_n":132,"min":88,"max":167,"target":"absent","response":"present","rt":1048.7000000477,"correct":false,"confidence":3},{"trial_n":133,"min":87,"max":168,"target":"present","response":"present","rt":1106.4000000358,"correct":true,"confidence":2},{"trial_n":134,"min":87,"max":168,"target":"present","response":"present","rt":673.19999998808,"correct":true,"confidence":4},{"trial_n":135,"min":88,"max":167,"target":"absent","response":"present","rt":1165.8000000119,"correct":false,"confidence":2},{"trial_n":136,"min":87,"max":168,"target":"absent","response":"present","rt":1044,"correct":false,"confidence":2},{"trial_n":137,"min":86,"max":169,"target":"absent","response":"present","rt":1577.1000000238,"correct":false,"confidence":2},{"trial_n":138,"min":85,"max":170,"target":"present","response":"present","rt":1065.6999999881,"correct":true,"confidence":3},{"trial_n":139,"min":85,"max":170,"target":"present","response":"present","rt":1250.5999999642,"correct":true,"confidence":3},{"trial_n":140,"min":86,"max":169,"target":"present","response":"present","rt":695.90000003576,"correct":true,"confidence":3}]