[{"trial_n":1,"span":8,"encoder":"20085474","distractor":"80085474","target":"present","response":"absent","rt":"13955.099999905","correct":false,"confidence":-1},{"trial_n":2,"span":6,"encoder":"394905","distractor":"394909","target":"present","response":"absent","rt":"2506.1000001431","correct":false,"confidence":-1},{"trial_n":3,"span":4,"encoder":"6759","distractor":"6752","target":"absent","response":"absent","rt":"3180.5","correct":true,"confidence":-1},{"trial_n":4,"span":4,"encoder":"7261","distractor":"7263","target":"absent","response":"absent","rt":"1679","correct":true,"confidence":-1},{"trial_n":5,"span":6,"encoder":"066500","distractor":"066560","target":"present","response":"absent","rt":"3172.5","correct":false,"confidence":-1},{"trial_n":6,"span":4,"encoder":"9750","distractor":"9710","target":"absent","response":"absent","rt":"2184.5","correct":true,"confidence":-1},{"trial_n":7,"span":4,"encoder":"0361","distractor":"0961","target":"absent","response":"absent","rt":"2295.9000000954","correct":true,"confidence":-1},{"trial_n":8,"span":6,"encoder":"147908","distractor":"148908","target":"present","response":"present","rt":"5005.1999998093","correct":true,"confidence":-1},{"trial_n":9,"span":6,"encoder":"852766","distractor":"854766","target":"absent","response":"absent","rt":"2068.7999999523","correct":true,"confidence":-1},{"trial_n":10,"span":8,"encoder":"10853698","distractor":"10553698","target":"present","response":"absent","rt":"4590.1999998093","correct":false,"confidence":-1},{"trial_n":11,"span":6,"encoder":"695604","distractor":"695404","target":"present","response":"present","rt":"2564.6000001431","correct":true,"confidence":-1},{"trial_n":12,"span":6,"encoder":"396094","distractor":"395094","target":"absent","response":"absent","rt":"11287.299999952","correct":true,"confidence":-1},{"trial_n":13,"span":7,"encoder":"2299696","distractor":"2299694","target":"present","response":"present","rt":"6632.0999999046","correct":true,"confidence":-1},{"trial_n":14,"span":7,"encoder":"3010322","distractor":"3010422","target":"present","response":"present","rt":"3046.5999999046","correct":true,"confidence":-1},{"trial_n":15,"span":8,"encoder":"24209710","distractor":"24202710","target":"present","response":"present","rt":"4023.5","correct":true,"confidence":-1},{"trial_n":16,"span":8,"encoder":"14643490","distractor":"14343490","target":"absent","response":"absent","rt":"4759.6999998093","correct":true,"confidence":-1},{"trial_n":17,"span":9,"encoder":"359516846","distractor":"359516046","target":"present","response":"absent","rt":"5505.5","correct":false,"confidence":-1},{"trial_n":18,"span":8,"encoder":"93227940","distractor":"93727940","target":"present","response":"present","rt":"3285.7999999523","correct":true,"confidence":-1},{"trial_n":19,"span":8,"encoder":"38530599","distractor":"38550599","target":"present","response":"present","rt":"7676.2000000477","correct":true,"confidence":-1},{"trial_n":20,"span":9,"encoder":"908097388","distractor":"908067388","target":"absent","response":"absent","rt":"3504.4000000954","correct":true,"confidence":-1},{"trial_n":21,"span":9,"encoder":"415065825","distractor":"415005825","target":"present","response":"present","rt":"5918.8000001907","correct":true,"confidence":5},{"trial_n":22,"span":10,"encoder":"5775973602","distractor":"5775983602","target":"present","response":"present","rt":"5160.5","correct":true,"confidence":5},{"trial_n":23,"span":10,"encoder":"5466768498","distractor":"7466768498","target":"present","response":"absent","rt":"15882.399999857","correct":false,"confidence":4},{"trial_n":24,"span":9,"encoder":"599652978","distractor":"599622978","target":"present","response":"present","rt":"4802.4000000954","correct":true,"confidence":4},{"trial_n":25,"span":9,"encoder":"755001242","distractor":"755201242","target":"present","response":"absent","rt":"6528","correct":false,"confidence":4},{"trial_n":26,"span":8,"encoder":"68885446","distractor":"62885446","target":"absent","response":"absent","rt":"3556.9000000954","correct":true,"confidence":5},{"trial_n":27,"span":8,"encoder":"22659207","distractor":"52659207","target":"present","response":"absent","rt":"9269.0999999046","correct":false,"confidence":2},{"trial_n":28,"span":7,"encoder":"0403388","distractor":"0413388","target":"present","response":"present","rt":"3469.2999999523","correct":true,"confidence":5},{"trial_n":29,"span":7,"encoder":"5936399","distractor":"6936399","target":"absent","response":"absent","rt":"5233.6999998093","correct":true,"confidence":5},{"trial_n":30,"span":8,"encoder":"44669201","distractor":"44869201","target":"present","response":"present","rt":"5943.1000001431","correct":true,"confidence":4},{"trial_n":31,"span":8,"encoder":"88629568","distractor":"88609568","target":"absent","response":"absent","rt":"5890.5","correct":true,"confidence":5},{"trial_n":32,"span":9,"encoder":"899775605","distractor":"899275605","target":"absent","response":"present","rt":"3485.4000000954","correct":false,"confidence":2},{"trial_n":33,"span":8,"encoder":"29473928","distractor":"29473926","target":"absent","response":"absent","rt":"3980.5999999046","correct":true,"confidence":5},{"trial_n":34,"span":8,"encoder":"86883099","distractor":"86883095","target":"absent","response":"absent","rt":"6118.2000000477","correct":true,"confidence":4},{"trial_n":35,"span":9,"encoder":"429828204","distractor":"489828204","target":"absent","response":"present","rt":"6200.8999998569","correct":false,"confidence":3},{"trial_n":36,"span":8,"encoder":"21070772","distractor":"71070772","target":"absent","response":"absent","rt":"3891.9000000954","correct":true,"confidence":4},{"trial_n":37,"span":8,"encoder":"64651476","distractor":"64651976","target":"absent","response":"absent","rt":"4131.6999998093","correct":true,"confidence":5},{"trial_n":38,"span":9,"encoder":"376025351","distractor":"376925351","target":"absent","response":"absent","rt":"4067.4000000954","correct":true,"confidence":4},{"trial_n":39,"span":9,"encoder":"713630324","distractor":"713630394","target":"present","response":"absent","rt":"3266.7999999523","correct":false,"confidence":5},{"trial_n":40,"span":8,"encoder":"96846450","distractor":"96845450","target":"absent","response":"present","rt":"5615.8999998569","correct":false,"confidence":3},{"trial_n":41,"span":7,"encoder":"0498589","distractor":"0498789","target":"absent","response":"absent","rt":"3419.0999999046","correct":true,"confidence":5},{"trial_n":42,"span":7,"encoder":"0247425","distractor":"0247925","target":"absent","response":"present","rt":"6637.4000000954","correct":false,"confidence":3},{"trial_n":43,"span":6,"encoder":"457942","distractor":"450942","target":"present","response":"present","rt":"4161.6000001431","correct":true,"confidence":5},{"trial_n":44,"span":6,"encoder":"705717","distractor":"705715","target":"present","response":"present","rt":"10816.899999857","correct":true,"confidence":4},{"trial_n":45,"span":7,"encoder":"3053794","distractor":"0053794","target":"absent","response":"absent","rt":"4746.7000000477","correct":true,"confidence":4},{"trial_n":46,"span":7,"encoder":"6772340","distractor":"6272340","target":"absent","response":"absent","rt":"5030.5","correct":true,"confidence":5},{"trial_n":47,"span":8,"encoder":"78280029","distractor":"78283029","target":"present","response":"present","rt":"4345.5999999046","correct":true,"confidence":5},{"trial_n":48,"span":8,"encoder":"58781793","distractor":"58781993","target":"present","response":"absent","rt":"2794.8999998569","correct":false,"confidence":1},{"trial_n":49,"span":7,"encoder":"3086582","distractor":"3086592","target":"absent","response":"present","rt":"11455.900000095","correct":false,"confidence":2},{"trial_n":50,"span":6,"encoder":"560682","distractor":"560082","target":"absent","response":"absent","rt":"3000.4000000954","correct":true,"confidence":5},{"trial_n":51,"span":6,"encoder":"978423","distractor":"973423","target":"present","response":"present","rt":"3263.5","correct":true,"confidence":5},{"trial_n":52,"span":7,"encoder":"5312563","distractor":"5310563","target":"absent","response":"absent","rt":"3872","correct":true,"confidence":5},{"trial_n":53,"span":7,"encoder":"0890371","distractor":"7890371","target":"absent","response":"absent","rt":"4395.1000001431","correct":true,"confidence":5},{"trial_n":54,"span":8,"encoder":"89166910","distractor":"89166913","target":"absent","response":"absent","rt":"5326.3999998569","correct":true,"confidence":5},{"trial_n":55,"span":8,"encoder":"02113305","distractor":"02118305","target":"absent","response":"absent","rt":"4643","correct":true,"confidence":4},{"trial_n":56,"span":9,"encoder":"335479890","distractor":"335479896","target":"absent","response":"absent","rt":"6872.2999999523","correct":true,"confidence":4},{"trial_n":57,"span":9,"encoder":"357949675","distractor":"347949675","target":"absent","response":"absent","rt":"4499.5","correct":true,"confidence":1},{"trial_n":58,"span":10,"encoder":"3054945029","distractor":"8054945029","target":"present","response":"present","rt":"4628","correct":true,"confidence":4},{"trial_n":59,"span":10,"encoder":"9904462085","distractor":"9504462085","target":"absent","response":"absent","rt":"8407.7999999523","correct":true,"confidence":5},{"trial_n":60,"span":11,"encoder":"31481039991","distractor":"31781039991","target":"present","response":"absent","rt":"5389.7999999523","correct":false,"confidence":4},{"trial_n":61,"span":10,"encoder":"6980834824","distractor":"6910834824","target":"present","response":"absent","rt":"4912.4000000954","correct":false,"confidence":3},{"trial_n":62,"span":9,"encoder":"937561427","distractor":"937461427","target":"present","response":"absent","rt":"4804.5","correct":false,"confidence":4},{"trial_n":63,"span":8,"encoder":"96273112","distractor":"90273112","target":"absent","response":"absent","rt":"5115.3999998569","correct":true,"confidence":4},{"trial_n":64,"span":8,"encoder":"41972161","distractor":"41472161","target":"present","response":"absent","rt":"4698.1000001431","correct":false,"confidence":3},{"trial_n":65,"span":7,"encoder":"8232460","distractor":"8233460","target":"present","response":"absent","rt":"11705.199999809","correct":false,"confidence":3},{"trial_n":66,"span":6,"encoder":"191904","distractor":"191902","target":"present","response":"present","rt":"5419.2000000477","correct":true,"confidence":5},{"trial_n":67,"span":6,"encoder":"468740","distractor":"468750","target":"present","response":"present","rt":"3382.7000000477","correct":true,"confidence":5},{"trial_n":68,"span":7,"encoder":"0238249","distractor":"0238949","target":"present","response":"absent","rt":"5910.9000000954","correct":false,"confidence":4},{"trial_n":69,"span":6,"encoder":"536713","distractor":"536913","target":"absent","response":"absent","rt":"3920.4000000954","correct":true,"confidence":5},{"trial_n":70,"span":6,"encoder":"116521","distractor":"116528","target":"present","response":"present","rt":"2861.0999999046","correct":true,"confidence":5},{"trial_n":71,"span":8,"encoder":"12392065","distractor":"12392025","target":"present","response":"present","rt":"6333.0999999046","correct":true,"confidence":-1},{"trial_n":72,"span":8,"encoder":"00733473","distractor":"00733476","target":"present","response":"present","rt":"3312.2999999523","correct":true,"confidence":-1},{"trial_n":73,"span":9,"encoder":"526074788","distractor":"556074788","target":"absent","response":"absent","rt":"2801.7000000477","correct":true,"confidence":-1},{"trial_n":74,"span":9,"encoder":"075199974","distractor":"075193974","target":"absent","response":"absent","rt":"19346.399999857","correct":true,"confidence":-1},{"trial_n":75,"span":10,"encoder":"2727795631","distractor":"2722795631","target":"present","response":"absent","rt":"10182.099999905","correct":false,"confidence":-1},{"trial_n":76,"span":9,"encoder":"272389900","distractor":"232389900","target":"present","response":"present","rt":"5773.0999999046","correct":true,"confidence":-1},{"trial_n":77,"span":9,"encoder":"681808641","distractor":"681808741","target":"absent","response":"present","rt":"27492.5","correct":false,"confidence":-1},{"trial_n":78,"span":8,"encoder":"62751471","distractor":"60751471","target":"present","response":"present","rt":"3388.0999999046","correct":true,"confidence":-1},{"trial_n":79,"span":8,"encoder":"53422858","distractor":"53422458","target":"present","response":"absent","rt":"11624.400000095","correct":false,"confidence":-1},{"trial_n":80,"span":7,"encoder":"7993476","distractor":"7993976","target":"absent","response":"absent","rt":"5417","correct":true,"confidence":-1},{"trial_n":81,"span":7,"encoder":"8320193","distractor":"8320192","target":"absent","response":"absent","rt":"4720.2999999523","correct":true,"confidence":-1},{"trial_n":82,"span":8,"encoder":"79011058","distractor":"79011018","target":"present","response":"present","rt":"5089.6000001431","correct":true,"confidence":-1},{"trial_n":83,"span":8,"encoder":"86282149","distractor":"86282189","target":"present","response":"present","rt":"9688.8999998569","correct":true,"confidence":-1},{"trial_n":84,"span":9,"encoder":"786311549","distractor":"786311539","target":"absent","response":"absent","rt":"11522.299999952","correct":true,"confidence":-1},{"trial_n":85,"span":9,"encoder":"795585348","distractor":"790585348","target":"absent","response":"present","rt":"5967.1999998093","correct":false,"confidence":-1},{"trial_n":86,"span":8,"encoder":"67064567","distractor":"67064562","target":"absent","response":"absent","rt":"6847.2999999523","correct":true,"confidence":-1},{"trial_n":87,"span":8,"encoder":"60734606","distractor":"60744606","target":"present","response":"present","rt":"6937.7000000477","correct":true,"confidence":-1},{"trial_n":88,"span":9,"encoder":"122489804","distractor":"122489894","target":"absent","response":"absent","rt":"5138.5999999046","correct":true,"confidence":-1},{"trial_n":89,"span":9,"encoder":"731523676","distractor":"731513676","target":"present","response":"present","rt":"8930.7000000477","correct":true,"confidence":-1},{"trial_n":90,"span":10,"encoder":"4448778107","distractor":"4448778105","target":"present","response":"present","rt":"9306.2999999523","correct":true,"confidence":-1},{"trial_n":91,"span":10,"encoder":"5809485835","distractor":"5809485833","target":"absent","response":"absent","rt":"9628.2000000477","correct":true,"confidence":2},{"trial_n":92,"span":11,"encoder":"71218703734","distractor":"71218709734","target":"present","response":"present","rt":"11074","correct":true,"confidence":2},{"trial_n":93,"span":11,"encoder":"91407281800","distractor":"91407291800","target":"absent","response":"absent","rt":"8894.1000001431","correct":true,"confidence":4},{"trial_n":94,"span":12,"encoder":"261035219355","distractor":"261035299355","target":"absent","response":"absent","rt":"8421.2000000477","correct":true,"confidence":3},{"trial_n":95,"span":12,"encoder":"215167607056","distractor":"215177607056","target":"absent","response":"absent","rt":"9071.7999999523","correct":true,"confidence":4},{"trial_n":96,"span":13,"encoder":"6404835089205","distractor":"6404835089209","target":"present","response":"absent","rt":"9642.7999999523","correct":false,"confidence":4},{"trial_n":97,"span":12,"encoder":"775100961701","distractor":"775100961781","target":"present","response":"present","rt":"11191.200000048","correct":true,"confidence":5},{"trial_n":98,"span":12,"encoder":"983150527387","distractor":"783150527387","target":"present","response":"present","rt":"4826.7000000477","correct":true,"confidence":5},{"trial_n":99,"span":13,"encoder":"9791761677744","distractor":"9711761677744","target":"present","response":"present","rt":"19068.200000048","correct":true,"confidence":4},{"trial_n":100,"span":13,"encoder":"3194683691967","distractor":"3194686691967","target":"absent","response":"absent","rt":"11404.699999809","correct":true,"confidence":4},{"trial_n":101,"span":14,"encoder":"48071417558135","distractor":"48071417658135","target":"absent","response":"present","rt":"23857.799999952","correct":false,"confidence":3},{"trial_n":102,"span":13,"encoder":"1278014842331","distractor":"1278034842331","target":"present","response":"present","rt":"16710.299999952","correct":true,"confidence":4},{"trial_n":103,"span":13,"encoder":"4174140956091","distractor":"4174140966091","target":"present","response":"absent","rt":"14354.300000191","correct":false,"confidence":4},{"trial_n":104,"span":12,"encoder":"617696582466","distractor":"617696532466","target":"present","response":"absent","rt":"10382.099999905","correct":false,"confidence":4},{"trial_n":105,"span":11,"encoder":"96978658711","distractor":"91978658711","target":"absent","response":"absent","rt":"2992.4000000954","correct":true,"confidence":5},{"trial_n":106,"span":11,"encoder":"22412144151","distractor":"22412154151","target":"present","response":"absent","rt":"12500.799999952","correct":false,"confidence":5},{"trial_n":107,"span":10,"encoder":"2899838926","distractor":"2899838996","target":"present","response":"present","rt":"10791.200000048","correct":true,"confidence":5},{"trial_n":108,"span":10,"encoder":"6112338320","distractor":"6114338320","target":"absent","response":"absent","rt":"10815.5","correct":true,"confidence":4},{"trial_n":109,"span":11,"encoder":"18305826070","distractor":"18305826079","target":"absent","response":"absent","rt":"8409.7999999523","correct":true,"confidence":5},{"trial_n":110,"span":11,"encoder":"21897736256","distractor":"21897736250","target":"present","response":"present","rt":"7352.1999998093","correct":true,"confidence":5},{"trial_n":111,"span":12,"encoder":"709076932730","distractor":"709176932730","target":"absent","response":"absent","rt":"6989.7000000477","correct":true,"confidence":5},{"trial_n":112,"span":12,"encoder":"163192465943","distractor":"163892465943","target":"present","response":"present","rt":"18164.599999905","correct":true,"confidence":4},{"trial_n":113,"span":13,"encoder":"4142338475491","distractor":"4142334475491","target":"present","response":"present","rt":"17720.099999905","correct":true,"confidence":3},{"trial_n":114,"span":13,"encoder":"6383794448359","distractor":"6383794458359","target":"present","response":"present","rt":"16944.700000048","correct":true,"confidence":3},{"trial_n":115,"span":14,"encoder":"64260626908857","distractor":"74260626908857","target":"absent","response":"absent","rt":"7877.5","correct":true,"confidence":5},{"trial_n":116,"span":14,"encoder":"42790384568176","distractor":"42790384578176","target":"present","response":"present","rt":"13816.799999952","correct":true,"confidence":3},{"trial_n":117,"span":15,"encoder":"642533939000319","distractor":"642533939020319","target":"absent","response":"absent","rt":"7226.2999999523","correct":true,"confidence":5},{"trial_n":118,"span":15,"encoder":"533603411958184","distractor":"533603411955184","target":"present","response":"absent","rt":"11972.200000048","correct":false,"confidence":5},{"trial_n":119,"span":14,"encoder":"42971341878738","distractor":"42976341878738","target":"present","response":"present","rt":"23460.199999809","correct":true,"confidence":2},{"trial_n":120,"span":14,"encoder":"56149396182370","distractor":"55149396182370","target":"present","response":"present","rt":"4887","correct":true,"confidence":5},{"trial_n":121,"span":15,"encoder":"289906686467878","distractor":"289904686467878","target":"present","response":"present","rt":"34852","correct":true,"confidence":4},{"trial_n":122,"span":15,"encoder":"166908241893388","distractor":"166908241893385","target":"absent","response":"absent","rt":"12340.900000095","correct":true,"confidence":5},{"trial_n":123,"span":16,"encoder":"1145913306846796","distractor":"1145910306846796","target":"absent","response":"absent","rt":"10941.700000048","correct":true,"confidence":4},{"trial_n":124,"span":16,"encoder":"0452731159344022","distractor":"7452731159344022","target":"absent","response":"present","rt":"9908.5","correct":false,"confidence":3},{"trial_n":125,"span":15,"encoder":"775886004932242","distractor":"775486004932242","target":"present","response":"present","rt":"15340.799999952","correct":true,"confidence":4},{"trial_n":126,"span":15,"encoder":"220025677662900","distractor":"220025677662960","target":"present","response":"present","rt":"13124.799999952","correct":true,"confidence":4},{"trial_n":127,"span":16,"encoder":"4177883005423354","distractor":"4177883005403354","target":"absent","response":"absent","rt":"10647.200000048","correct":true,"confidence":5},{"trial_n":128,"span":16,"encoder":"4543275983822074","distractor":"4543275983822076","target":"present","response":"present","rt":"14856","correct":true,"confidence":4},{"trial_n":129,"span":17,"encoder":"93014775888357863","distractor":"93014775888357865","target":"absent","response":"absent","rt":"8716.5","correct":true,"confidence":5},{"trial_n":130,"span":17,"encoder":"11741669597239123","distractor":"13741669597239123","target":"absent","response":"absent","rt":"24787.099999905","correct":true,"confidence":3},{"trial_n":131,"span":18,"encoder":"324707367425969603","distractor":"324747367425969603","target":"absent","response":"absent","rt":"25642.599999905","correct":true,"confidence":1},{"trial_n":132,"span":18,"encoder":"921414946533344666","distractor":"921414948533344666","target":"absent","response":"absent","rt":"14511.400000095","correct":true,"confidence":4},{"trial_n":133,"span":19,"encoder":"9865886311590909491","distractor":"2865886311590909491","target":"absent","response":"present","rt":"1758.4000000954","correct":false,"confidence":1},{"trial_n":134,"span":18,"encoder":"103880336070127619","distractor":"103080336070127619","target":"present","response":"present","rt":"17839.099999905","correct":true,"confidence":1},{"trial_n":135,"span":18,"encoder":"649146297405964527","distractor":"649146297405934527","target":"absent","response":"absent","rt":"19417","correct":true,"confidence":5},{"trial_n":136,"span":19,"encoder":"9712938428589616132","distractor":"9792938428589616132","target":"absent","response":"present","rt":"20267.799999952","correct":false,"confidence":2},{"trial_n":137,"span":18,"encoder":"773925374178452183","distractor":"713925374178452183","target":"absent","response":"absent","rt":"15649.099999905","correct":true,"confidence":4},{"trial_n":138,"span":18,"encoder":"477800977911495446","distractor":"477809977911495446","target":"absent","response":"absent","rt":"9912.6000001431","correct":true,"confidence":3},{"trial_n":139,"span":19,"encoder":"6525213928278506645","distractor":"6525213928258506645","target":"present","response":"absent","rt":"17772.099999905","correct":false,"confidence":4},{"trial_n":140,"span":18,"encoder":"496973344219034270","distractor":"496973444219034270","target":"present","response":"present","rt":"29368.599999905","correct":true,"confidence":2}]