[{"trial_n":1,"span":8,"encoder":"66366821","distractor":"66368821","target":"present","response":"present","rt":"6562","correct":true,"confidence":-1},{"trial_n":2,"span":8,"encoder":"10113747","distractor":"70113747","target":"present","response":"present","rt":"2574","correct":true,"confidence":-1},{"trial_n":3,"span":10,"encoder":"5861977404","distractor":"5861977444","target":"absent","response":"present","rt":"3958","correct":false,"confidence":-1},{"trial_n":4,"span":8,"encoder":"69373262","distractor":"69323262","target":"absent","response":"present","rt":"2003","correct":false,"confidence":-1},{"trial_n":5,"span":6,"encoder":"483393","distractor":"483397","target":"present","response":"present","rt":"3982","correct":true,"confidence":-1},{"trial_n":6,"span":6,"encoder":"566171","distractor":"566141","target":"absent","response":"present","rt":"2558","correct":false,"confidence":-1},{"trial_n":7,"span":4,"encoder":"9252","distractor":"9052","target":"present","response":"present","rt":"1225","correct":true,"confidence":-1},{"trial_n":8,"span":4,"encoder":"8694","distractor":"8699","target":"absent","response":"absent","rt":"2201","correct":true,"confidence":-1},{"trial_n":9,"span":6,"encoder":"729340","distractor":"829340","target":"present","response":"present","rt":"2494","correct":true,"confidence":-1},{"trial_n":10,"span":6,"encoder":"796724","distractor":"736724","target":"absent","response":"absent","rt":"1629","correct":true,"confidence":-1},{"trial_n":11,"span":8,"encoder":"40537828","distractor":"40537829","target":"absent","response":"absent","rt":"1401","correct":true,"confidence":-1},{"trial_n":12,"span":8,"encoder":"24995507","distractor":"24993507","target":"absent","response":"present","rt":"2095","correct":false,"confidence":-1},{"trial_n":13,"span":7,"encoder":"6829473","distractor":"6529473","target":"absent","response":"present","rt":"963","correct":false,"confidence":-1},{"trial_n":14,"span":6,"encoder":"949126","distractor":"948126","target":"absent","response":"present","rt":"1321","correct":false,"confidence":-1},{"trial_n":15,"span":5,"encoder":"37284","distractor":"37274","target":"absent","response":"absent","rt":"1258","correct":true,"confidence":-1},{"trial_n":16,"span":5,"encoder":"37074","distractor":"37071","target":"absent","response":"absent","rt":"1317","correct":true,"confidence":-1},{"trial_n":17,"span":6,"encoder":"735661","distractor":"335661","target":"present","response":"present","rt":"1831","correct":true,"confidence":-1},{"trial_n":18,"span":6,"encoder":"334443","distractor":"334043","target":"absent","response":"absent","rt":"969","correct":true,"confidence":-1},{"trial_n":19,"span":7,"encoder":"9206170","distractor":"9206100","target":"absent","response":"absent","rt":"1050","correct":true,"confidence":-1},{"trial_n":20,"span":7,"encoder":"0262402","distractor":"0261402","target":"present","response":"present","rt":"1845","correct":true,"confidence":-1},{"trial_n":21,"span":8,"encoder":"75171528","distractor":"75177528","target":"absent","response":"absent","rt":"1699","correct":true,"confidence":2},{"trial_n":22,"span":8,"encoder":"83815496","distractor":"83815436","target":"present","response":"present","rt":"4387","correct":true,"confidence":4},{"trial_n":23,"span":9,"encoder":"433870193","distractor":"433880193","target":"present","response":"present","rt":"3501","correct":true,"confidence":3},{"trial_n":24,"span":9,"encoder":"935276640","distractor":"925276640","target":"present","response":"present","rt":"3193","correct":true,"confidence":3},{"trial_n":25,"span":10,"encoder":"7389545707","distractor":"7389845707","target":"absent","response":"present","rt":"2540","correct":false,"confidence":4},{"trial_n":26,"span":9,"encoder":"377243351","distractor":"377243350","target":"present","response":"present","rt":"3646","correct":true,"confidence":4},{"trial_n":27,"span":9,"encoder":"077494817","distractor":"577494817","target":"present","response":"present","rt":"3460","correct":true,"confidence":3},{"trial_n":28,"span":10,"encoder":"6157314960","distractor":"6157324960","target":"present","response":"present","rt":"3780","correct":true,"confidence":3},{"trial_n":29,"span":10,"encoder":"3525230701","distractor":"3525130701","target":"absent","response":"present","rt":"3074","correct":false,"confidence":3},{"trial_n":30,"span":9,"encoder":"370700659","distractor":"374700659","target":"absent","response":"present","rt":"2182","correct":false,"confidence":5},{"trial_n":31,"span":8,"encoder":"02682026","distractor":"02689026","target":"present","response":"present","rt":"1894","correct":true,"confidence":5},{"trial_n":32,"span":8,"encoder":"75457622","distractor":"75457652","target":"present","response":"present","rt":"4156","correct":true,"confidence":4},{"trial_n":33,"span":9,"encoder":"135599031","distractor":"145599031","target":"present","response":"present","rt":"2737","correct":true,"confidence":4},{"trial_n":34,"span":9,"encoder":"738884807","distractor":"738814807","target":"absent","response":"absent","rt":"1774","correct":true,"confidence":5},{"trial_n":35,"span":10,"encoder":"9428467673","distractor":"9421467673","target":"absent","response":"absent","rt":"4193","correct":true,"confidence":4},{"trial_n":36,"span":10,"encoder":"4782002292","distractor":"4782002272","target":"present","response":"present","rt":"2701","correct":true,"confidence":4},{"trial_n":37,"span":11,"encoder":"40570671414","distractor":"43570671414","target":"absent","response":"present","rt":"5615","correct":false,"confidence":3},{"trial_n":38,"span":10,"encoder":"6808839623","distractor":"6808839624","target":"absent","response":"present","rt":"4863","correct":false,"confidence":3},{"trial_n":39,"span":9,"encoder":"940965915","distractor":"540965915","target":"absent","response":"present","rt":"1704","correct":false,"confidence":3},{"trial_n":40,"span":8,"encoder":"33640275","distractor":"33940275","target":"absent","response":"present","rt":"3128","correct":false,"confidence":4},{"trial_n":41,"span":7,"encoder":"2624254","distractor":"2654254","target":"present","response":"present","rt":"2982","correct":true,"confidence":4},{"trial_n":42,"span":7,"encoder":"2139249","distractor":"2439249","target":"absent","response":"present","rt":"2744","correct":false,"confidence":5},{"trial_n":43,"span":6,"encoder":"715129","distractor":"715119","target":"present","response":"present","rt":"1963","correct":true,"confidence":5},{"trial_n":44,"span":6,"encoder":"263659","distractor":"963659","target":"present","response":"present","rt":"2606","correct":true,"confidence":5},{"trial_n":45,"span":7,"encoder":"5061052","distractor":"1061052","target":"absent","response":"absent","rt":"2957","correct":true,"confidence":3},{"trial_n":46,"span":7,"encoder":"4603312","distractor":"4613312","target":"absent","response":"absent","rt":"2911","correct":true,"confidence":4},{"trial_n":47,"span":8,"encoder":"34572550","distractor":"94572550","target":"present","response":"present","rt":"3284","correct":true,"confidence":4},{"trial_n":48,"span":8,"encoder":"21297589","distractor":"11297589","target":"present","response":"present","rt":"2981","correct":true,"confidence":4},{"trial_n":49,"span":9,"encoder":"774633050","distractor":"774638050","target":"present","response":"present","rt":"4010","correct":true,"confidence":3},{"trial_n":50,"span":9,"encoder":"850484225","distractor":"850484222","target":"absent","response":"absent","rt":"2360","correct":true,"confidence":5},{"trial_n":51,"span":10,"encoder":"4099775164","distractor":"4099745164","target":"present","response":"present","rt":"3208","correct":true,"confidence":3},{"trial_n":52,"span":10,"encoder":"8090160956","distractor":"8030160956","target":"present","response":"present","rt":"4026","correct":true,"confidence":3},{"trial_n":53,"span":11,"encoder":"15609277345","distractor":"11609277345","target":"present","response":"absent","rt":"5996","correct":false,"confidence":2},{"trial_n":54,"span":10,"encoder":"4528516890","distractor":"9528516890","target":"absent","response":"present","rt":"5799","correct":false,"confidence":2},{"trial_n":55,"span":9,"encoder":"959692729","distractor":"959692725","target":"absent","response":"absent","rt":"1563","correct":true,"confidence":5},{"trial_n":56,"span":9,"encoder":"581908701","distractor":"581908702","target":"absent","response":"absent","rt":"1820","correct":true,"confidence":5},{"trial_n":57,"span":10,"encoder":"3145212279","distractor":"3145212277","target":"present","response":"present","rt":"7411","correct":true,"confidence":3},{"trial_n":58,"span":10,"encoder":"4406392670","distractor":"4406392671","target":"present","response":"absent","rt":"3367","correct":false,"confidence":4},{"trial_n":59,"span":9,"encoder":"181449209","distractor":"181449200","target":"present","response":"present","rt":"5663","correct":true,"confidence":3},{"trial_n":60,"span":9,"encoder":"244359861","distractor":"244359811","target":"absent","response":"absent","rt":"1969","correct":true,"confidence":4},{"trial_n":61,"span":10,"encoder":"6544304417","distractor":"6544304487","target":"absent","response":"absent","rt":"1943","correct":true,"confidence":5},{"trial_n":62,"span":10,"encoder":"4822818576","distractor":"4822813576","target":"present","response":"absent","rt":"4777","correct":false,"confidence":4},{"trial_n":63,"span":9,"encoder":"388467767","distractor":"388467717","target":"present","response":"present","rt":"6224","correct":true,"confidence":5},{"trial_n":64,"span":9,"encoder":"343504001","distractor":"343504002","target":"present","response":"present","rt":"4444","correct":true,"confidence":4},{"trial_n":65,"span":10,"encoder":"5720399095","distractor":"5710399095","target":"present","response":"present","rt":"2411","correct":true,"confidence":4},{"trial_n":66,"span":10,"encoder":"7745817202","distractor":"7725817202","target":"present","response":"present","rt":"6337","correct":true,"confidence":4},{"trial_n":67,"span":11,"encoder":"87119484102","distractor":"87119484002","target":"absent","response":"absent","rt":"2630","correct":true,"confidence":4},{"trial_n":68,"span":11,"encoder":"79251494189","distractor":"70251494189","target":"absent","response":"present","rt":"5578","correct":false,"confidence":4},{"trial_n":69,"span":10,"encoder":"9578944034","distractor":"9678944034","target":"present","response":"present","rt":"4536","correct":true,"confidence":3},{"trial_n":70,"span":10,"encoder":"4905665138","distractor":"4909665138","target":"present","response":"absent","rt":"2611","correct":false,"confidence":4},{"trial_n":71,"span":8,"encoder":"47340538","distractor":"47320538","target":"present","response":"present","rt":"13803","correct":true,"confidence":-1},{"trial_n":72,"span":8,"encoder":"33455916","distractor":"33457916","target":"present","response":"present","rt":"3511","correct":true,"confidence":-1},{"trial_n":73,"span":9,"encoder":"074462727","distractor":"074466727","target":"absent","response":"present","rt":"6109","correct":false,"confidence":-1},{"trial_n":74,"span":8,"encoder":"87735085","distractor":"87735075","target":"absent","response":"present","rt":"4470","correct":false,"confidence":-1},{"trial_n":75,"span":7,"encoder":"0459340","distractor":"0459341","target":"present","response":"present","rt":"2645","correct":true,"confidence":-1},{"trial_n":76,"span":7,"encoder":"6679349","distractor":"6679449","target":"present","response":"absent","rt":"2661","correct":false,"confidence":-1},{"trial_n":77,"span":6,"encoder":"226932","distractor":"256932","target":"absent","response":"absent","rt":"4023","correct":true,"confidence":-1},{"trial_n":78,"span":6,"encoder":"560474","distractor":"560574","target":"absent","response":"absent","rt":"3883","correct":true,"confidence":-1},{"trial_n":79,"span":7,"encoder":"4621722","distractor":"4621222","target":"present","response":"present","rt":"1533","correct":true,"confidence":-1},{"trial_n":80,"span":7,"encoder":"1769740","distractor":"1769840","target":"present","response":"present","rt":"1886","correct":true,"confidence":-1},{"trial_n":81,"span":8,"encoder":"45994590","distractor":"45924590","target":"absent","response":"absent","rt":"4474","correct":true,"confidence":-1},{"trial_n":82,"span":8,"encoder":"10525748","distractor":"10525758","target":"present","response":"present","rt":"1817","correct":true,"confidence":-1},{"trial_n":83,"span":9,"encoder":"291462075","distractor":"291402075","target":"absent","response":"present","rt":"3183","correct":false,"confidence":-1},{"trial_n":84,"span":8,"encoder":"92422078","distractor":"92432078","target":"absent","response":"absent","rt":"1288","correct":true,"confidence":-1},{"trial_n":85,"span":8,"encoder":"68772810","distractor":"68072810","target":"absent","response":"absent","rt":"1613","correct":true,"confidence":-1},{"trial_n":86,"span":9,"encoder":"761219197","distractor":"761269197","target":"absent","response":"absent","rt":"2503","correct":true,"confidence":-1},{"trial_n":87,"span":9,"encoder":"120436122","distractor":"120436126","target":"present","response":"present","rt":"1265","correct":true,"confidence":-1},{"trial_n":88,"span":10,"encoder":"3263634836","distractor":"3263634636","target":"present","response":"absent","rt":"3105","correct":false,"confidence":-1},{"trial_n":89,"span":9,"encoder":"740855336","distractor":"745855336","target":"present","response":"absent","rt":"6924","correct":false,"confidence":-1},{"trial_n":90,"span":8,"encoder":"07562922","distractor":"08562922","target":"absent","response":"absent","rt":"3656","correct":true,"confidence":-1},{"trial_n":91,"span":8,"encoder":"19701258","distractor":"18701258","target":"absent","response":"present","rt":"3879","correct":false,"confidence":3},{"trial_n":92,"span":7,"encoder":"7657151","distractor":"7650151","target":"present","response":"present","rt":"2816","correct":true,"confidence":4},{"trial_n":93,"span":7,"encoder":"5142328","distractor":"5142318","target":"present","response":"present","rt":"6758","correct":true,"confidence":4},{"trial_n":94,"span":8,"encoder":"49299567","distractor":"49399567","target":"absent","response":"absent","rt":"9495","correct":true,"confidence":4},{"trial_n":95,"span":8,"encoder":"84798503","distractor":"84798803","target":"absent","response":"present","rt":"5826","correct":false,"confidence":3},{"trial_n":96,"span":7,"encoder":"0807412","distractor":"0837412","target":"present","response":"present","rt":"3292","correct":true,"confidence":4},{"trial_n":97,"span":7,"encoder":"8795656","distractor":"8705656","target":"present","response":"present","rt":"4611","correct":true,"confidence":3},{"trial_n":98,"span":8,"encoder":"31717779","distractor":"31717379","target":"present","response":"present","rt":"2717","correct":true,"confidence":5},{"trial_n":99,"span":8,"encoder":"65311437","distractor":"95311437","target":"present","response":"present","rt":"5507","correct":true,"confidence":3},{"trial_n":100,"span":9,"encoder":"409621997","distractor":"409661997","target":"absent","response":"absent","rt":"2937","correct":true,"confidence":4},{"trial_n":101,"span":9,"encoder":"530393269","distractor":"530393669","target":"absent","response":"absent","rt":"1886","correct":true,"confidence":5},{"trial_n":102,"span":10,"encoder":"5794984471","distractor":"5794984431","target":"present","response":"present","rt":"1546","correct":true,"confidence":5},{"trial_n":103,"span":10,"encoder":"7798542390","distractor":"7798542392","target":"present","response":"present","rt":"4587","correct":true,"confidence":5},{"trial_n":104,"span":11,"encoder":"32790925771","distractor":"32790965771","target":"absent","response":"present","rt":"3422","correct":false,"confidence":4},{"trial_n":105,"span":10,"encoder":"0655050678","distractor":"9655050678","target":"absent","response":"absent","rt":"9493","correct":true,"confidence":3},{"trial_n":106,"span":10,"encoder":"9707227742","distractor":"9708227742","target":"present","response":"absent","rt":"12342","correct":false,"confidence":3},{"trial_n":107,"span":9,"encoder":"603589558","distractor":"203589558","target":"present","response":"present","rt":"6549","correct":true,"confidence":4},{"trial_n":108,"span":9,"encoder":"258862841","distractor":"252862841","target":"absent","response":"absent","rt":"3302","correct":true,"confidence":2},{"trial_n":109,"span":10,"encoder":"8626304094","distractor":"8646304094","target":"present","response":"absent","rt":"4365","correct":false,"confidence":4},{"trial_n":110,"span":9,"encoder":"554094949","distractor":"554094979","target":"absent","response":"absent","rt":"2085","correct":true,"confidence":5},{"trial_n":111,"span":9,"encoder":"114528268","distractor":"114528368","target":"absent","response":"absent","rt":"2495","correct":true,"confidence":5},{"trial_n":112,"span":10,"encoder":"1484977147","distractor":"1486977147","target":"absent","response":"absent","rt":"7773","correct":true,"confidence":4},{"trial_n":113,"span":10,"encoder":"7612648141","distractor":"7662648141","target":"present","response":"absent","rt":"6367","correct":false,"confidence":4},{"trial_n":114,"span":9,"encoder":"726234021","distractor":"726634021","target":"absent","response":"absent","rt":"3920","correct":true,"confidence":4},{"trial_n":115,"span":9,"encoder":"263356661","distractor":"263356261","target":"absent","response":"absent","rt":"1796","correct":true,"confidence":5},{"trial_n":116,"span":10,"encoder":"1442636138","distractor":"1942636138","target":"absent","response":"absent","rt":"6475","correct":true,"confidence":4},{"trial_n":117,"span":10,"encoder":"1405343179","distractor":"1405313179","target":"absent","response":"present","rt":"9626","correct":false,"confidence":2},{"trial_n":118,"span":9,"encoder":"197180459","distractor":"597180459","target":"present","response":"absent","rt":"6826","correct":false,"confidence":4},{"trial_n":119,"span":8,"encoder":"62729952","distractor":"62729752","target":"present","response":"absent","rt":"5323","correct":false,"confidence":5},{"trial_n":120,"span":7,"encoder":"5760337","distractor":"8760337","target":"absent","response":"present","rt":"5863","correct":false,"confidence":3},{"trial_n":121,"span":6,"encoder":"542049","distractor":"542046","target":"absent","response":"absent","rt":"3150","correct":true,"confidence":3},{"trial_n":122,"span":6,"encoder":"070003","distractor":"070703","target":"present","response":"present","rt":"1374","correct":true,"confidence":5},{"trial_n":123,"span":7,"encoder":"9139547","distractor":"9179547","target":"present","response":"absent","rt":"8454","correct":false,"confidence":2},{"trial_n":124,"span":6,"encoder":"610870","distractor":"610370","target":"present","response":"absent","rt":"7494","correct":false,"confidence":3},{"trial_n":125,"span":5,"encoder":"92744","distractor":"92794","target":"present","response":"present","rt":"2988","correct":true,"confidence":5},{"trial_n":126,"span":5,"encoder":"59850","distractor":"59450","target":"absent","response":"absent","rt":"2935","correct":true,"confidence":5},{"trial_n":127,"span":6,"encoder":"973794","distractor":"973791","target":"present","response":"present","rt":"1696","correct":true,"confidence":5},{"trial_n":128,"span":6,"encoder":"622496","distractor":"627496","target":"present","response":"present","rt":"1948","correct":true,"confidence":5},{"trial_n":129,"span":7,"encoder":"4297989","distractor":"4277989","target":"absent","response":"present","rt":"4076","correct":false,"confidence":3},{"trial_n":130,"span":6,"encoder":"439149","distractor":"239149","target":"absent","response":"present","rt":"2865","correct":false,"confidence":4},{"trial_n":131,"span":5,"encoder":"08613","distractor":"00613","target":"present","response":"present","rt":"1892","correct":true,"confidence":4},{"trial_n":132,"span":5,"encoder":"75984","distractor":"75784","target":"present","response":"present","rt":"2748","correct":true,"confidence":5},{"trial_n":133,"span":6,"encoder":"895695","distractor":"095695","target":"absent","response":"absent","rt":"5294","correct":true,"confidence":3},{"trial_n":134,"span":6,"encoder":"006649","distractor":"006149","target":"absent","response":"absent","rt":"1455","correct":true,"confidence":5},{"trial_n":135,"span":7,"encoder":"4238267","distractor":"4838267","target":"present","response":"present","rt":"4765","correct":true,"confidence":4},{"trial_n":136,"span":7,"encoder":"5672791","distractor":"4672791","target":"present","response":"present","rt":"3819","correct":true,"confidence":5},{"trial_n":137,"span":8,"encoder":"04517987","distractor":"04512987","target":"present","response":"present","rt":"11338","correct":true,"confidence":3},{"trial_n":138,"span":8,"encoder":"06018750","distractor":"06016750","target":"present","response":"absent","rt":"6033","correct":false,"confidence":4},{"trial_n":139,"span":7,"encoder":"4602994","distractor":"4602990","target":"absent","response":"absent","rt":"2354","correct":true,"confidence":5},{"trial_n":140,"span":7,"encoder":"8164881","distractor":"8464881","target":"absent","response":"absent","rt":"4527","correct":true,"confidence":3}]