[{"trial_n":1,"min":25,"max":230,"target":"present","response":"absent","rt":11809,"correct":false,"confidence":-1},{"trial_n":2,"min":25,"max":230,"target":"present","response":"present","rt":1351,"correct":true,"confidence":-1},{"trial_n":3,"min":25,"max":230,"target":"absent","response":"absent","rt":1011,"correct":true,"confidence":-1},{"trial_n":4,"min":41,"max":214,"target":"absent","response":"absent","rt":626,"correct":true,"confidence":-1},{"trial_n":5,"min":41,"max":214,"target":"present","response":"present","rt":1253,"correct":true,"confidence":-1},{"trial_n":6,"min":57,"max":198,"target":"present","response":"present","rt":994,"correct":true,"confidence":-1},{"trial_n":7,"min":57,"max":198,"target":"absent","response":"absent","rt":875,"correct":true,"confidence":-1},{"trial_n":8,"min":73,"max":182,"target":"absent","response":"absent","rt":524,"correct":true,"confidence":-1},{"trial_n":9,"min":73,"max":182,"target":"absent","response":"absent","rt":460,"correct":true,"confidence":-1},{"trial_n":10,"min":89,"max":166,"target":"absent","response":"absent","rt":324,"correct":true,"confidence":-1},{"trial_n":11,"min":89,"max":166,"target":"absent","response":"absent","rt":342,"correct":true,"confidence":-1},{"trial_n":12,"min":97,"max":158,"target":"present","response":"absent","rt":501,"correct":false,"confidence":-1},{"trial_n":13,"min":89,"max":166,"target":"absent","response":"absent","rt":532,"correct":true,"confidence":-1},{"trial_n":14,"min":89,"max":166,"target":"present","response":"present","rt":677,"correct":true,"confidence":-1},{"trial_n":15,"min":97,"max":158,"target":"present","response":"absent","rt":432,"correct":false,"confidence":-1},{"trial_n":16,"min":89,"max":166,"target":"present","response":"absent","rt":480,"correct":false,"confidence":-1},{"trial_n":17,"min":81,"max":174,"target":"absent","response":"absent","rt":1023,"correct":true,"confidence":-1},{"trial_n":18,"min":81,"max":174,"target":"present","response":"absent","rt":532,"correct":false,"confidence":-1},{"trial_n":19,"min":73,"max":182,"target":"present","response":"absent","rt":364,"correct":false,"confidence":-1},{"trial_n":20,"min":65,"max":190,"target":"present","response":"present","rt":1028,"correct":true,"confidence":-1},{"trial_n":21,"min":65,"max":190,"target":"present","response":"present","rt":943,"correct":true,"confidence":4},{"trial_n":22,"min":69,"max":186,"target":"present","response":"present","rt":1079,"correct":true,"confidence":3},{"trial_n":23,"min":69,"max":186,"target":"absent","response":"absent","rt":971,"correct":true,"confidence":5},{"trial_n":24,"min":73,"max":182,"target":"present","response":"present","rt":840,"correct":true,"confidence":4},{"trial_n":25,"min":73,"max":182,"target":"present","response":"present","rt":1252,"correct":true,"confidence":3},{"trial_n":26,"min":77,"max":178,"target":"absent","response":"absent","rt":1130,"correct":true,"confidence":4},{"trial_n":27,"min":77,"max":178,"target":"present","response":"present","rt":967,"correct":true,"confidence":5},{"trial_n":28,"min":81,"max":174,"target":"present","response":"present","rt":1096,"correct":true,"confidence":3},{"trial_n":29,"min":81,"max":174,"target":"absent","response":"absent","rt":764,"correct":true,"confidence":3},{"trial_n":30,"min":85,"max":170,"target":"present","response":"absent","rt":880,"correct":false,"confidence":3},{"trial_n":31,"min":83,"max":172,"target":"absent","response":"absent","rt":1102,"correct":true,"confidence":4},{"trial_n":32,"min":83,"max":172,"target":"present","response":"present","rt":927,"correct":true,"confidence":3},{"trial_n":33,"min":85,"max":170,"target":"absent","response":"absent","rt":812,"correct":true,"confidence":4},{"trial_n":34,"min":85,"max":170,"target":"present","response":"absent","rt":795,"correct":false,"confidence":5},{"trial_n":35,"min":83,"max":172,"target":"absent","response":"absent","rt":1359,"correct":true,"confidence":5},{"trial_n":36,"min":83,"max":172,"target":"absent","response":"absent","rt":868,"correct":true,"confidence":5},{"trial_n":37,"min":85,"max":170,"target":"absent","response":"absent","rt":619,"correct":true,"confidence":5},{"trial_n":38,"min":85,"max":170,"target":"absent","response":"absent","rt":2072,"correct":true,"confidence":5},{"trial_n":39,"min":87,"max":168,"target":"absent","response":"absent","rt":999,"correct":true,"confidence":5},{"trial_n":40,"min":87,"max":168,"target":"absent","response":"absent","rt":594,"correct":true,"confidence":5},{"trial_n":41,"min":88,"max":167,"target":"absent","response":"absent","rt":903,"correct":true,"confidence":5},{"trial_n":42,"min":88,"max":167,"target":"absent","response":"absent","rt":620,"correct":true,"confidence":5},{"trial_n":43,"min":89,"max":166,"target":"absent","response":"absent","rt":219,"correct":true,"confidence":5},{"trial_n":44,"min":89,"max":166,"target":"present","response":"absent","rt":299,"correct":false,"confidence":5},{"trial_n":45,"min":88,"max":167,"target":"absent","response":"absent","rt":121,"correct":true,"confidence":5},{"trial_n":46,"min":88,"max":167,"target":"present","response":"absent","rt":105,"correct":false,"confidence":5},{"trial_n":47,"min":87,"max":168,"target":"absent","response":"absent","rt":366,"correct":true,"confidence":5},{"trial_n":48,"min":87,"max":168,"target":"present","response":"absent","rt":224,"correct":false,"confidence":5},{"trial_n":49,"min":86,"max":169,"target":"present","response":"absent","rt":173,"correct":false,"confidence":5},{"trial_n":50,"min":85,"max":170,"target":"absent","response":"absent","rt":156,"correct":true,"confidence":5},{"trial_n":51,"min":85,"max":170,"target":"present","response":"absent","rt":755,"correct":false,"confidence":4},{"trial_n":52,"min":84,"max":171,"target":"present","response":"absent","rt":273,"correct":false,"confidence":4},{"trial_n":53,"min":83,"max":172,"target":"present","response":"present","rt":1190,"correct":true,"confidence":2},{"trial_n":54,"min":83,"max":172,"target":"absent","response":"absent","rt":606,"correct":true,"confidence":3},{"trial_n":55,"min":84,"max":171,"target":"present","response":"absent","rt":688,"correct":false,"confidence":4},{"trial_n":56,"min":83,"max":172,"target":"absent","response":"absent","rt":284,"correct":true,"confidence":5},{"trial_n":57,"min":83,"max":172,"target":"absent","response":"absent","rt":370,"correct":true,"confidence":5},{"trial_n":58,"min":84,"max":171,"target":"absent","response":"absent","rt":225,"correct":true,"confidence":5},{"trial_n":59,"min":84,"max":171,"target":"present","response":"present","rt":938,"correct":true,"confidence":2},{"trial_n":60,"min":85,"max":170,"target":"present","response":"present","rt":686,"correct":true,"confidence":3},{"trial_n":61,"min":85,"max":170,"target":"present","response":"present","rt":589,"correct":true,"confidence":4},{"trial_n":62,"min":86,"max":169,"target":"absent","response":"absent","rt":469,"correct":true,"confidence":5},{"trial_n":63,"min":86,"max":169,"target":"present","response":"absent","rt":326,"correct":false,"confidence":5},{"trial_n":64,"min":85,"max":170,"target":"present","response":"present","rt":369,"correct":true,"confidence":3},{"trial_n":65,"min":85,"max":170,"target":"absent","response":"absent","rt":221,"correct":true,"confidence":5},{"trial_n":66,"min":86,"max":169,"target":"absent","response":"present","rt":167,"correct":false,"confidence":1},{"trial_n":67,"min":85,"max":170,"target":"absent","response":"absent","rt":269,"correct":true,"confidence":5},{"trial_n":68,"min":85,"max":170,"target":"present","response":"present","rt":435,"correct":true,"confidence":2},{"trial_n":69,"min":86,"max":169,"target":"present","response":"present","rt":351,"correct":true,"confidence":2},{"trial_n":70,"min":86,"max":169,"target":"present","response":"present","rt":483,"correct":true,"confidence":2},{"trial_n":71,"min":41,"max":214,"target":"present","response":"present","rt":2204,"correct":true,"confidence":-1},{"trial_n":72,"min":41,"max":214,"target":"present","response":"present","rt":421,"correct":true,"confidence":-1},{"trial_n":73,"min":57,"max":198,"target":"absent","response":"absent","rt":322,"correct":true,"confidence":-1},{"trial_n":74,"min":57,"max":198,"target":"absent","response":"present","rt":373,"correct":false,"confidence":-1},{"trial_n":75,"min":41,"max":214,"target":"present","response":"present","rt":272,"correct":true,"confidence":-1},{"trial_n":76,"min":41,"max":214,"target":"present","response":"present","rt":309,"correct":true,"confidence":-1},{"trial_n":77,"min":57,"max":198,"target":"present","response":"present","rt":406,"correct":true,"confidence":-1},{"trial_n":78,"min":57,"max":198,"target":"absent","response":"absent","rt":346,"correct":true,"confidence":-1},{"trial_n":79,"min":73,"max":182,"target":"absent","response":"absent","rt":416,"correct":true,"confidence":-1},{"trial_n":80,"min":73,"max":182,"target":"absent","response":"absent","rt":291,"correct":true,"confidence":-1},{"trial_n":81,"min":81,"max":174,"target":"present","response":"present","rt":269,"correct":true,"confidence":-1},{"trial_n":82,"min":81,"max":174,"target":"absent","response":"absent","rt":266,"correct":true,"confidence":-1},{"trial_n":83,"min":89,"max":166,"target":"absent","response":"present","rt":333,"correct":false,"confidence":-1},{"trial_n":84,"min":81,"max":174,"target":"present","response":"present","rt":318,"correct":true,"confidence":-1},{"trial_n":85,"min":81,"max":174,"target":"absent","response":"absent","rt":371,"correct":true,"confidence":-1},{"trial_n":86,"min":89,"max":166,"target":"present","response":"absent","rt":408,"correct":false,"confidence":-1},{"trial_n":87,"min":81,"max":174,"target":"absent","response":"present","rt":272,"correct":false,"confidence":-1},{"trial_n":88,"min":73,"max":182,"target":"present","response":"present","rt":365,"correct":true,"confidence":-1},{"trial_n":89,"min":73,"max":182,"target":"absent","response":"absent","rt":323,"correct":true,"confidence":-1},{"trial_n":90,"min":81,"max":174,"target":"absent","response":"absent","rt":904,"correct":true,"confidence":-1},{"trial_n":91,"min":81,"max":174,"target":"present","response":"present","rt":500,"correct":true,"confidence":2},{"trial_n":92,"min":85,"max":170,"target":"absent","response":"present","rt":467,"correct":false,"confidence":3},{"trial_n":93,"min":81,"max":174,"target":"absent","response":"absent","rt":602,"correct":true,"confidence":3},{"trial_n":94,"min":81,"max":174,"target":"present","response":"present","rt":117,"correct":true,"confidence":5},{"trial_n":95,"min":85,"max":170,"target":"absent","response":"present","rt":799,"correct":false,"confidence":2},{"trial_n":96,"min":81,"max":174,"target":"absent","response":"absent","rt":740,"correct":true,"confidence":1},{"trial_n":97,"min":81,"max":174,"target":"present","response":"present","rt":169,"correct":true,"confidence":1},{"trial_n":98,"min":85,"max":170,"target":"present","response":"present","rt":718,"correct":true,"confidence":4},{"trial_n":99,"min":85,"max":170,"target":"present","response":"present","rt":386,"correct":true,"confidence":5},{"trial_n":100,"min":89,"max":166,"target":"absent","response":"absent","rt":1322,"correct":true,"confidence":1},{"trial_n":101,"min":89,"max":166,"target":"absent","response":"absent","rt":670,"correct":true,"confidence":1},{"trial_n":102,"min":91,"max":164,"target":"present","response":"present","rt":476,"correct":true,"confidence":5},{"trial_n":103,"min":91,"max":164,"target":"present","response":"present","rt":1118,"correct":true,"confidence":5},{"trial_n":104,"min":93,"max":162,"target":"present","response":"present","rt":307,"correct":true,"confidence":4},{"trial_n":105,"min":93,"max":162,"target":"absent","response":"absent","rt":501,"correct":true,"confidence":1},{"trial_n":106,"min":95,"max":160,"target":"present","response":"present","rt":525,"correct":true,"confidence":1},{"trial_n":107,"min":95,"max":160,"target":"present","response":"present","rt":1296,"correct":true,"confidence":1},{"trial_n":108,"min":97,"max":158,"target":"absent","response":"present","rt":807,"correct":false,"confidence":1},{"trial_n":109,"min":95,"max":160,"target":"absent","response":"present","rt":375,"correct":false,"confidence":1},{"trial_n":110,"min":93,"max":162,"target":"absent","response":"present","rt":784,"correct":false,"confidence":1},{"trial_n":111,"min":92,"max":163,"target":"present","response":"present","rt":581,"correct":true,"confidence":4},{"trial_n":112,"min":92,"max":163,"target":"present","response":"present","rt":1070,"correct":true,"confidence":1},{"trial_n":113,"min":93,"max":162,"target":"present","response":"present","rt":388,"correct":true,"confidence":3},{"trial_n":114,"min":93,"max":162,"target":"absent","response":"present","rt":632,"correct":false,"confidence":1},{"trial_n":115,"min":92,"max":163,"target":"absent","response":"present","rt":501,"correct":false,"confidence":1},{"trial_n":116,"min":91,"max":164,"target":"absent","response":"present","rt":554,"correct":false,"confidence":1},{"trial_n":117,"min":90,"max":165,"target":"present","response":"present","rt":400,"correct":true,"confidence":3},{"trial_n":118,"min":90,"max":165,"target":"absent","response":"present","rt":1072,"correct":false,"confidence":1},{"trial_n":119,"min":89,"max":166,"target":"present","response":"present","rt":532,"correct":true,"confidence":3},{"trial_n":120,"min":89,"max":166,"target":"present","response":"present","rt":709,"correct":true,"confidence":1},{"trial_n":121,"min":90,"max":165,"target":"absent","response":"present","rt":277,"correct":false,"confidence":1},{"trial_n":122,"min":89,"max":166,"target":"absent","response":"present","rt":285,"correct":false,"confidence":1},{"trial_n":123,"min":88,"max":167,"target":"present","response":"present","rt":253,"correct":true,"confidence":3},{"trial_n":124,"min":88,"max":167,"target":"absent","response":"present","rt":288,"correct":false,"confidence":1},{"trial_n":125,"min":87,"max":168,"target":"absent","response":"present","rt":812,"correct":false,"confidence":1},{"trial_n":126,"min":86,"max":169,"target":"absent","response":"present","rt":520,"correct":false,"confidence":1},{"trial_n":127,"min":85,"max":170,"target":"present","response":"present","rt":978,"correct":true,"confidence":2},{"trial_n":128,"min":85,"max":170,"target":"present","response":"present","rt":482,"correct":true,"confidence":1},{"trial_n":129,"min":86,"max":169,"target":"present","response":"present","rt":1361,"correct":true,"confidence":1},{"trial_n":130,"min":86,"max":169,"target":"present","response":"present","rt":573,"correct":true,"confidence":3},{"trial_n":131,"min":87,"max":168,"target":"absent","response":"absent","rt":662,"correct":true,"confidence":1},{"trial_n":132,"min":87,"max":168,"target":"present","response":"present","rt":779,"correct":true,"confidence":4},{"trial_n":133,"min":88,"max":167,"target":"present","response":"present","rt":423,"correct":true,"confidence":3},{"trial_n":134,"min":88,"max":167,"target":"absent","response":"present","rt":440,"correct":false,"confidence":1},{"trial_n":135,"min":87,"max":168,"target":"present","response":"present","rt":646,"correct":true,"confidence":3},{"trial_n":136,"min":87,"max":168,"target":"present","response":"present","rt":287,"correct":true,"confidence":3},{"trial_n":137,"min":88,"max":167,"target":"absent","response":"present","rt":467,"correct":false,"confidence":1},{"trial_n":138,"min":87,"max":168,"target":"present","response":"present","rt":162,"correct":true,"confidence":4},{"trial_n":139,"min":87,"max":168,"target":"present","response":"present","rt":296,"correct":true,"confidence":5},{"trial_n":140,"min":88,"max":167,"target":"absent","response":"present","rt":1506,"correct":false,"confidence":1}]