[{"trial_n":1,"n_dots":4.25,"target":"left","response":"right","rt":10344.699999988,"correct":false,"confidence":-1},{"trial_n":2,"n_dots":4.25,"target":"left","response":"right","rt":755.89999997616,"correct":false,"confidence":-1},{"trial_n":3,"n_dots":4.65,"target":"left","response":"right","rt":915.69999998808,"correct":false,"confidence":-1},{"trial_n":4,"n_dots":5.05,"target":"left","response":"left","rt":1073.7000000477,"correct":true,"confidence":-1},{"trial_n":5,"n_dots":5.05,"target":"right","response":"right","rt":505.40000003576,"correct":true,"confidence":-1},{"trial_n":6,"n_dots":4.65,"target":"left","response":"left","rt":914.80000001192,"correct":true,"confidence":-1},{"trial_n":7,"n_dots":4.65,"target":"right","response":"right","rt":596.69999998808,"correct":true,"confidence":-1},{"trial_n":8,"n_dots":4.45,"target":"right","response":"right","rt":230.69999998808,"correct":true,"confidence":-1},{"trial_n":9,"n_dots":4.45,"target":"left","response":"right","rt":420.30000001192,"correct":false,"confidence":-1},{"trial_n":10,"n_dots":4.65,"target":"left","response":"left","rt":607.39999997616,"correct":true,"confidence":-1},{"trial_n":11,"n_dots":4.65,"target":"right","response":"right","rt":342.89999997616,"correct":true,"confidence":-1},{"trial_n":12,"n_dots":4.45,"target":"left","response":"left","rt":252.69999998808,"correct":true,"confidence":-1},{"trial_n":13,"n_dots":4.45,"target":"left","response":"left","rt":354.60000002384,"correct":true,"confidence":-1},{"trial_n":14,"n_dots":4.35,"target":"right","response":"right","rt":171.19999998808,"correct":true,"confidence":-1},{"trial_n":15,"n_dots":4.35,"target":"right","response":"right","rt":578.80000001192,"correct":true,"confidence":-1},{"trial_n":16,"n_dots":4.25,"target":"left","response":"left","rt":706.90000003576,"correct":true,"confidence":-1},{"trial_n":17,"n_dots":4.25,"target":"left","response":"right","rt":831.30000001192,"correct":false,"confidence":-1},{"trial_n":18,"n_dots":4.35,"target":"right","response":"right","rt":188.89999997616,"correct":true,"confidence":-1},{"trial_n":19,"n_dots":4.35,"target":"right","response":"right","rt":818.19999998808,"correct":true,"confidence":-1},{"trial_n":20,"n_dots":4.25,"target":"left","response":"left","rt":664.89999997616,"correct":true,"confidence":-1},{"trial_n":21,"n_dots":4.25,"target":"right","response":"right","rt":515,"correct":true,"confidence":4},{"trial_n":22,"n_dots":4.15,"target":"right","response":"right","rt":550.39999997616,"correct":true,"confidence":4},{"trial_n":23,"n_dots":4.15,"target":"left","response":"left","rt":493.79999995232,"correct":true,"confidence":3},{"trial_n":24,"n_dots":4.05,"target":"left","response":"left","rt":676.60000002384,"correct":true,"confidence":2},{"trial_n":25,"n_dots":4.05,"target":"right","response":"right","rt":450.80000001192,"correct":true,"confidence":4},{"trial_n":26,"n_dots":3.95,"target":"right","response":"left","rt":945.70000004768,"correct":false,"confidence":3},{"trial_n":27,"n_dots":4.05,"target":"left","response":"right","rt":733.69999998808,"correct":false,"confidence":3},{"trial_n":28,"n_dots":4.15,"target":"right","response":"right","rt":632.09999996424,"correct":true,"confidence":4},{"trial_n":29,"n_dots":4.15,"target":"right","response":"right","rt":1047.0999999642,"correct":true,"confidence":3},{"trial_n":30,"n_dots":4.05,"target":"right","response":"right","rt":510.80000001192,"correct":true,"confidence":4},{"trial_n":31,"n_dots":4.05,"target":"right","response":"right","rt":646.10000002384,"correct":true,"confidence":4},{"trial_n":32,"n_dots":3.95,"target":"left","response":"left","rt":778,"correct":true,"confidence":2},{"trial_n":33,"n_dots":3.95,"target":"right","response":"right","rt":469.90000003576,"correct":true,"confidence":3},{"trial_n":34,"n_dots":3.85,"target":"right","response":"right","rt":518.69999998808,"correct":true,"confidence":3},{"trial_n":35,"n_dots":3.85,"target":"left","response":"left","rt":619.79999995232,"correct":true,"confidence":3},{"trial_n":36,"n_dots":3.75,"target":"left","response":"left","rt":636.80000001192,"correct":true,"confidence":2},{"trial_n":37,"n_dots":3.75,"target":"left","response":"right","rt":953.89999997616,"correct":false,"confidence":2},{"trial_n":38,"n_dots":3.85,"target":"left","response":"left","rt":687.80000001192,"correct":true,"confidence":2},{"trial_n":39,"n_dots":3.85,"target":"right","response":"right","rt":610.59999996424,"correct":true,"confidence":3},{"trial_n":40,"n_dots":3.75,"target":"left","response":"left","rt":632,"correct":true,"confidence":2},{"trial_n":41,"n_dots":3.75,"target":"right","response":"right","rt":1013.5,"correct":true,"confidence":4},{"trial_n":42,"n_dots":3.65,"target":"left","response":"left","rt":605.10000002384,"correct":true,"confidence":2},{"trial_n":43,"n_dots":3.65,"target":"right","response":"right","rt":670.09999996424,"correct":true,"confidence":2},{"trial_n":44,"n_dots":3.55,"target":"left","response":"left","rt":761.90000003576,"correct":true,"confidence":2},{"trial_n":45,"n_dots":3.55,"target":"left","response":"left","rt":843.60000002384,"correct":true,"confidence":3},{"trial_n":46,"n_dots":3.45,"target":"right","response":"left","rt":1097.5,"correct":false,"confidence":2},{"trial_n":47,"n_dots":3.55,"target":"left","response":"left","rt":767.19999998808,"correct":true,"confidence":3},{"trial_n":48,"n_dots":3.55,"target":"right","response":"left","rt":539.19999998808,"correct":false,"confidence":2},{"trial_n":49,"n_dots":3.65,"target":"left","response":"left","rt":847.30000001192,"correct":true,"confidence":2},{"trial_n":50,"n_dots":3.65,"target":"left","response":"right","rt":660.59999996424,"correct":false,"confidence":3},{"trial_n":51,"n_dots":3.75,"target":"left","response":"left","rt":1281.3000000119,"correct":true,"confidence":2},{"trial_n":52,"n_dots":3.75,"target":"left","response":"left","rt":756.40000003576,"correct":true,"confidence":2},{"trial_n":53,"n_dots":3.65,"target":"left","response":"left","rt":714.70000004768,"correct":true,"confidence":3},{"trial_n":54,"n_dots":3.65,"target":"left","response":"right","rt":1728.6999999881,"correct":false,"confidence":2},{"trial_n":55,"n_dots":3.75,"target":"right","response":"right","rt":613.30000001192,"correct":true,"confidence":3},{"trial_n":56,"n_dots":3.75,"target":"left","response":"left","rt":698.5,"correct":true,"confidence":2},{"trial_n":57,"n_dots":3.65,"target":"right","response":"right","rt":747.10000002384,"correct":true,"confidence":3},{"trial_n":58,"n_dots":3.65,"target":"right","response":"right","rt":759.69999998808,"correct":true,"confidence":3},{"trial_n":59,"n_dots":3.55,"target":"left","response":"right","rt":768.60000002384,"correct":false,"confidence":2},{"trial_n":60,"n_dots":3.65,"target":"left","response":"left","rt":820.80000001192,"correct":true,"confidence":2},{"trial_n":61,"n_dots":3.65,"target":"right","response":"right","rt":789.90000003576,"correct":true,"confidence":2},{"trial_n":62,"n_dots":3.55,"target":"right","response":"right","rt":519.5,"correct":true,"confidence":2},{"trial_n":63,"n_dots":3.55,"target":"left","response":"left","rt":553.59999996424,"correct":true,"confidence":3},{"trial_n":64,"n_dots":3.45,"target":"left","response":"left","rt":662.5,"correct":true,"confidence":4},{"trial_n":65,"n_dots":3.45,"target":"left","response":"left","rt":965.59999996424,"correct":true,"confidence":1},{"trial_n":66,"n_dots":3.35,"target":"left","response":"left","rt":561.69999998808,"correct":true,"confidence":2},{"trial_n":67,"n_dots":3.35,"target":"left","response":"left","rt":580.90000003576,"correct":true,"confidence":2},{"trial_n":68,"n_dots":3.25,"target":"right","response":"right","rt":651.80000001192,"correct":true,"confidence":2},{"trial_n":69,"n_dots":3.25,"target":"left","response":"left","rt":803.09999996424,"correct":true,"confidence":2},{"trial_n":70,"n_dots":3.15,"target":"left","response":"left","rt":815.19999998808,"correct":true,"confidence":2},{"trial_n":71,"n_dots":3.15,"target":"right","response":"right","rt":614.90000003576,"correct":true,"confidence":3},{"trial_n":72,"n_dots":3.05,"target":"right","response":"left","rt":650.30000001192,"correct":false,"confidence":2},{"trial_n":73,"n_dots":3.15,"target":"right","response":"right","rt":554.59999996424,"correct":true,"confidence":2},{"trial_n":74,"n_dots":3.15,"target":"right","response":"left","rt":893.69999998808,"correct":false,"confidence":2},{"trial_n":75,"n_dots":3.25,"target":"right","response":"right","rt":639.5,"correct":true,"confidence":3},{"trial_n":76,"n_dots":3.25,"target":"right","response":"right","rt":765.30000001192,"correct":true,"confidence":3},{"trial_n":77,"n_dots":3.15,"target":"left","response":"right","rt":493.59999996424,"correct":false,"confidence":2},{"trial_n":78,"n_dots":3.25,"target":"right","response":"right","rt":620.69999998808,"correct":true,"confidence":2},{"trial_n":79,"n_dots":3.25,"target":"left","response":"left","rt":1020,"correct":true,"confidence":2},{"trial_n":80,"n_dots":3.15,"target":"left","response":"left","rt":904.90000003576,"correct":true,"confidence":2},{"trial_n":81,"n_dots":3.15,"target":"right","response":"right","rt":404.89999997616,"correct":true,"confidence":2},{"trial_n":82,"n_dots":3.05,"target":"right","response":"right","rt":622.60000002384,"correct":true,"confidence":3},{"trial_n":83,"n_dots":3.05,"target":"right","response":"right","rt":1680.8999999762,"correct":true,"confidence":2},{"trial_n":84,"n_dots":2.95,"target":"left","response":"left","rt":1851.3000000119,"correct":true,"confidence":2},{"trial_n":85,"n_dots":2.95,"target":"right","response":"right","rt":598,"correct":true,"confidence":2},{"trial_n":86,"n_dots":2.85,"target":"left","response":"left","rt":1438.6999999881,"correct":true,"confidence":3},{"trial_n":87,"n_dots":2.85,"target":"right","response":"left","rt":1325.7000000477,"correct":false,"confidence":2},{"trial_n":88,"n_dots":2.95,"target":"left","response":"left","rt":649.29999995232,"correct":true,"confidence":2},{"trial_n":89,"n_dots":2.95,"target":"left","response":"right","rt":1456.1000000238,"correct":false,"confidence":1},{"trial_n":90,"n_dots":3.05,"target":"right","response":"right","rt":808.89999997616,"correct":true,"confidence":2},{"trial_n":91,"n_dots":3.05,"target":"right","response":"left","rt":806.10000002384,"correct":false,"confidence":3},{"trial_n":92,"n_dots":3.15,"target":"left","response":"left","rt":534.10000002384,"correct":true,"confidence":3},{"trial_n":93,"n_dots":3.15,"target":"right","response":"right","rt":799.5,"correct":true,"confidence":3},{"trial_n":94,"n_dots":3.05,"target":"right","response":"right","rt":1164.8000000119,"correct":true,"confidence":3},{"trial_n":95,"n_dots":3.05,"target":"left","response":"left","rt":939.39999997616,"correct":true,"confidence":2},{"trial_n":96,"n_dots":2.95,"target":"left","response":"left","rt":886.10000002384,"correct":true,"confidence":2},{"trial_n":97,"n_dots":2.95,"target":"left","response":"left","rt":787.30000001192,"correct":true,"confidence":2},{"trial_n":98,"n_dots":2.85,"target":"left","response":"left","rt":853.60000002384,"correct":true,"confidence":3},{"trial_n":99,"n_dots":2.85,"target":"left","response":"left","rt":970,"correct":true,"confidence":3},{"trial_n":100,"n_dots":2.75,"target":"left","response":"right","rt":838.30000001192,"correct":false,"confidence":2},{"trial_n":101,"n_dots":2.85,"target":"right","response":"right","rt":853.60000002384,"correct":true,"confidence":2},{"trial_n":102,"n_dots":2.85,"target":"right","response":"right","rt":804.60000002384,"correct":true,"confidence":2},{"trial_n":103,"n_dots":2.75,"target":"left","response":"left","rt":833.20000004768,"correct":true,"confidence":2},{"trial_n":104,"n_dots":2.75,"target":"left","response":"right","rt":1769.3000000119,"correct":false,"confidence":2},{"trial_n":105,"n_dots":2.85,"target":"right","response":"right","rt":736.80000001192,"correct":true,"confidence":4},{"trial_n":106,"n_dots":2.85,"target":"right","response":"left","rt":918.30000001192,"correct":false,"confidence":2},{"trial_n":107,"n_dots":2.95,"target":"right","response":"right","rt":1176.5,"correct":true,"confidence":2},{"trial_n":108,"n_dots":2.95,"target":"left","response":"left","rt":1116.1999999881,"correct":true,"confidence":3},{"trial_n":109,"n_dots":2.85,"target":"right","response":"right","rt":656.09999996424,"correct":true,"confidence":3},{"trial_n":110,"n_dots":2.85,"target":"right","response":"right","rt":1040.8999999762,"correct":true,"confidence":3},{"trial_n":111,"n_dots":2.75,"target":"right","response":"right","rt":973.59999996424,"correct":true,"confidence":3},{"trial_n":112,"n_dots":2.75,"target":"right","response":"right","rt":665.79999995232,"correct":true,"confidence":2},{"trial_n":113,"n_dots":2.65,"target":"right","response":"right","rt":916.30000001192,"correct":true,"confidence":2},{"trial_n":114,"n_dots":2.65,"target":"right","response":"right","rt":748,"correct":true,"confidence":2},{"trial_n":115,"n_dots":2.55,"target":"right","response":"right","rt":487.89999997616,"correct":true,"confidence":3},{"trial_n":116,"n_dots":2.55,"target":"left","response":"left","rt":921.5,"correct":true,"confidence":2},{"trial_n":117,"n_dots":2.45,"target":"right","response":"left","rt":988.30000001192,"correct":false,"confidence":2},{"trial_n":118,"n_dots":2.55,"target":"left","response":"left","rt":786.60000002384,"correct":true,"confidence":2},{"trial_n":119,"n_dots":2.55,"target":"right","response":"left","rt":730.80000001192,"correct":false,"confidence":2},{"trial_n":120,"n_dots":2.65,"target":"right","response":"right","rt":300.40000003576,"correct":true,"confidence":3}]