[{"trial_n":1,"n_dots":4.25,"target":"right","response":"right","rt":2230,"correct":true,"confidence":-1},{"trial_n":2,"n_dots":4.25,"target":"right","response":"left","rt":465,"correct":false,"confidence":-1},{"trial_n":3,"n_dots":4.65,"target":"right","response":"right","rt":441,"correct":true,"confidence":-1},{"trial_n":4,"n_dots":4.65,"target":"right","response":"right","rt":418,"correct":true,"confidence":-1},{"trial_n":5,"n_dots":4.25,"target":"left","response":"left","rt":304,"correct":true,"confidence":-1},{"trial_n":6,"n_dots":4.25,"target":"right","response":"right","rt":386,"correct":true,"confidence":-1},{"trial_n":7,"n_dots":3.85,"target":"left","response":"left","rt":448,"correct":true,"confidence":-1},{"trial_n":8,"n_dots":3.85,"target":"left","response":"left","rt":335,"correct":true,"confidence":-1},{"trial_n":9,"n_dots":3.65,"target":"left","response":"left","rt":439.99999999999,"correct":true,"confidence":-1},{"trial_n":10,"n_dots":3.65,"target":"left","response":"left","rt":564,"correct":true,"confidence":-1},{"trial_n":11,"n_dots":3.45,"target":"left","response":"right","rt":532,"correct":false,"confidence":-1},{"trial_n":12,"n_dots":3.65,"target":"left","response":"left","rt":359.99999999999,"correct":true,"confidence":-1},{"trial_n":13,"n_dots":3.65,"target":"right","response":"right","rt":343,"correct":true,"confidence":-1},{"trial_n":14,"n_dots":3.55,"target":"right","response":"right","rt":408,"correct":true,"confidence":-1},{"trial_n":15,"n_dots":3.55,"target":"right","response":"left","rt":499.00000000001,"correct":false,"confidence":-1},{"trial_n":16,"n_dots":3.65,"target":"right","response":"right","rt":432,"correct":true,"confidence":-1},{"trial_n":17,"n_dots":3.65,"target":"left","response":"left","rt":711,"correct":true,"confidence":-1},{"trial_n":18,"n_dots":3.55,"target":"right","response":"left","rt":474,"correct":false,"confidence":-1},{"trial_n":19,"n_dots":3.65,"target":"right","response":"right","rt":399,"correct":true,"confidence":-1},{"trial_n":20,"n_dots":3.65,"target":"left","response":"left","rt":289.99999999999,"correct":true,"confidence":-1},{"trial_n":21,"n_dots":3.55,"target":"left","response":"left","rt":477,"correct":true,"confidence":5},{"trial_n":22,"n_dots":3.55,"target":"right","response":"right","rt":622,"correct":true,"confidence":3},{"trial_n":23,"n_dots":3.45,"target":"left","response":"left","rt":565.00000000001,"correct":true,"confidence":3},{"trial_n":24,"n_dots":3.45,"target":"left","response":"left","rt":814,"correct":true,"confidence":4},{"trial_n":25,"n_dots":3.35,"target":"right","response":"left","rt":793.00000000001,"correct":false,"confidence":5},{"trial_n":26,"n_dots":3.45,"target":"left","response":"right","rt":1170,"correct":false,"confidence":2},{"trial_n":27,"n_dots":3.55,"target":"left","response":"left","rt":548,"correct":true,"confidence":5},{"trial_n":28,"n_dots":3.55,"target":"left","response":"left","rt":445,"correct":true,"confidence":2},{"trial_n":29,"n_dots":3.45,"target":"right","response":"left","rt":644,"correct":false,"confidence":4},{"trial_n":30,"n_dots":3.55,"target":"right","response":"right","rt":587,"correct":true,"confidence":5},{"trial_n":31,"n_dots":3.55,"target":"left","response":"left","rt":780,"correct":true,"confidence":1},{"trial_n":32,"n_dots":3.45,"target":"right","response":"right","rt":340.99999999999,"correct":true,"confidence":3},{"trial_n":33,"n_dots":3.45,"target":"left","response":"left","rt":285,"correct":true,"confidence":5},{"trial_n":34,"n_dots":3.35,"target":"right","response":"right","rt":513.99999999999,"correct":true,"confidence":5},{"trial_n":35,"n_dots":3.35,"target":"right","response":"left","rt":548,"correct":false,"confidence":2},{"trial_n":36,"n_dots":3.45,"target":"right","response":"right","rt":468.00000000001,"correct":true,"confidence":4},{"trial_n":37,"n_dots":3.45,"target":"left","response":"left","rt":300,"correct":true,"confidence":5},{"trial_n":38,"n_dots":3.35,"target":"right","response":"right","rt":451,"correct":true,"confidence":3},{"trial_n":39,"n_dots":3.35,"target":"left","response":"left","rt":388,"correct":true,"confidence":2},{"trial_n":40,"n_dots":3.25,"target":"left","response":"left","rt":787,"correct":true,"confidence":4},{"trial_n":41,"n_dots":3.25,"target":"left","response":"left","rt":323,"correct":true,"confidence":5},{"trial_n":42,"n_dots":3.15,"target":"left","response":"left","rt":658,"correct":true,"confidence":4},{"trial_n":43,"n_dots":3.15,"target":"left","response":"left","rt":340,"correct":true,"confidence":5},{"trial_n":44,"n_dots":3.05,"target":"right","response":"right","rt":520.00000000003,"correct":true,"confidence":2},{"trial_n":45,"n_dots":3.05,"target":"left","response":"left","rt":315,"correct":true,"confidence":4},{"trial_n":46,"n_dots":2.95,"target":"right","response":"left","rt":465,"correct":false,"confidence":5},{"trial_n":47,"n_dots":3.05,"target":"right","response":"left","rt":530,"correct":false,"confidence":4},{"trial_n":48,"n_dots":3.15,"target":"left","response":"right","rt":1208,"correct":false,"confidence":1},{"trial_n":49,"n_dots":3.25,"target":"right","response":"right","rt":371,"correct":true,"confidence":4},{"trial_n":50,"n_dots":3.25,"target":"right","response":"right","rt":386,"correct":true,"confidence":5},{"trial_n":51,"n_dots":3.15,"target":"left","response":"left","rt":441.99999999997,"correct":true,"confidence":2},{"trial_n":52,"n_dots":3.15,"target":"left","response":"left","rt":418,"correct":true,"confidence":3},{"trial_n":53,"n_dots":3.05,"target":"left","response":"right","rt":785,"correct":false,"confidence":4},{"trial_n":54,"n_dots":3.15,"target":"right","response":"left","rt":393,"correct":false,"confidence":5},{"trial_n":55,"n_dots":3.25,"target":"left","response":"left","rt":520,"correct":true,"confidence":4},{"trial_n":56,"n_dots":3.25,"target":"left","response":"left","rt":816,"correct":true,"confidence":4},{"trial_n":57,"n_dots":3.15,"target":"left","response":"left","rt":577,"correct":true,"confidence":5},{"trial_n":58,"n_dots":3.15,"target":"left","response":"left","rt":1231,"correct":true,"confidence":3},{"trial_n":59,"n_dots":3.05,"target":"right","response":"right","rt":552,"correct":true,"confidence":3},{"trial_n":60,"n_dots":3.05,"target":"right","response":"right","rt":592.99999999997,"correct":true,"confidence":4},{"trial_n":61,"n_dots":2.95,"target":"left","response":"left","rt":497.00000000003,"correct":true,"confidence":3},{"trial_n":62,"n_dots":2.95,"target":"right","response":"left","rt":641,"correct":false,"confidence":4},{"trial_n":63,"n_dots":3.05,"target":"right","response":"right","rt":1095,"correct":true,"confidence":4},{"trial_n":64,"n_dots":3.05,"target":"right","response":"right","rt":482,"correct":true,"confidence":5},{"trial_n":65,"n_dots":2.95,"target":"left","response":"left","rt":568.00000000003,"correct":true,"confidence":5},{"trial_n":66,"n_dots":2.95,"target":"left","response":"right","rt":1663,"correct":false,"confidence":4},{"trial_n":67,"n_dots":3.05,"target":"right","response":"left","rt":403,"correct":false,"confidence":5},{"trial_n":68,"n_dots":3.15,"target":"right","response":"right","rt":653.99999999997,"correct":true,"confidence":5},{"trial_n":69,"n_dots":3.15,"target":"right","response":"right","rt":529,"correct":true,"confidence":5},{"trial_n":70,"n_dots":3.05,"target":"right","response":"left","rt":560,"correct":false,"confidence":3},{"trial_n":71,"n_dots":3.15,"target":"left","response":"left","rt":390.00000000006,"correct":true,"confidence":4},{"trial_n":72,"n_dots":3.15,"target":"left","response":"left","rt":360,"correct":true,"confidence":5},{"trial_n":73,"n_dots":3.05,"target":"right","response":"left","rt":543,"correct":false,"confidence":4},{"trial_n":74,"n_dots":3.15,"target":"left","response":"left","rt":303,"correct":true,"confidence":5},{"trial_n":75,"n_dots":3.15,"target":"right","response":"right","rt":394,"correct":true,"confidence":4},{"trial_n":76,"n_dots":3.05,"target":"left","response":"left","rt":401.00000000006,"correct":true,"confidence":5},{"trial_n":77,"n_dots":3.05,"target":"right","response":"left","rt":446,"correct":false,"confidence":4},{"trial_n":78,"n_dots":3.15,"target":"right","response":"right","rt":490,"correct":true,"confidence":5},{"trial_n":79,"n_dots":3.15,"target":"left","response":"left","rt":464,"correct":true,"confidence":5},{"trial_n":80,"n_dots":3.05,"target":"right","response":"right","rt":1651,"correct":true,"confidence":3},{"trial_n":81,"n_dots":3.05,"target":"left","response":"left","rt":328,"correct":true,"confidence":4},{"trial_n":82,"n_dots":2.95,"target":"right","response":"left","rt":636,"correct":false,"confidence":5},{"trial_n":83,"n_dots":3.05,"target":"right","response":"left","rt":2528,"correct":false,"confidence":3},{"trial_n":84,"n_dots":3.15,"target":"left","response":"left","rt":4365,"correct":true,"confidence":2},{"trial_n":85,"n_dots":3.15,"target":"right","response":"right","rt":550,"correct":true,"confidence":4},{"trial_n":86,"n_dots":3.05,"target":"left","response":"left","rt":669.99999999994,"correct":true,"confidence":4},{"trial_n":87,"n_dots":3.05,"target":"left","response":"left","rt":541,"correct":true,"confidence":5},{"trial_n":88,"n_dots":2.95,"target":"left","response":"left","rt":815,"correct":true,"confidence":4},{"trial_n":89,"n_dots":2.95,"target":"left","response":"right","rt":971,"correct":false,"confidence":3},{"trial_n":90,"n_dots":3.05,"target":"left","response":"left","rt":478,"correct":true,"confidence":4},{"trial_n":91,"n_dots":3.05,"target":"left","response":"left","rt":539,"correct":true,"confidence":5},{"trial_n":92,"n_dots":2.95,"target":"left","response":"left","rt":389,"correct":true,"confidence":3},{"trial_n":93,"n_dots":2.95,"target":"right","response":"right","rt":356,"correct":true,"confidence":4},{"trial_n":94,"n_dots":2.85,"target":"left","response":"left","rt":351,"correct":true,"confidence":2},{"trial_n":95,"n_dots":2.85,"target":"left","response":"right","rt":878.00000000006,"correct":false,"confidence":4},{"trial_n":96,"n_dots":2.95,"target":"left","response":"left","rt":606,"correct":true,"confidence":5},{"trial_n":97,"n_dots":2.95,"target":"right","response":"left","rt":2466.9999999999,"correct":false,"confidence":4},{"trial_n":98,"n_dots":3.05,"target":"right","response":"right","rt":6704.9999999999,"correct":true,"confidence":1},{"trial_n":99,"n_dots":3.05,"target":"right","response":"left","rt":1260,"correct":false,"confidence":4},{"trial_n":100,"n_dots":3.15,"target":"right","response":"left","rt":668,"correct":false,"confidence":5},{"trial_n":101,"n_dots":3.25,"target":"right","response":"right","rt":586,"correct":true,"confidence":5},{"trial_n":102,"n_dots":3.25,"target":"right","response":"right","rt":713,"correct":true,"confidence":3},{"trial_n":103,"n_dots":3.15,"target":"left","response":"left","rt":371,"correct":true,"confidence":5},{"trial_n":104,"n_dots":3.15,"target":"right","response":"left","rt":898,"correct":false,"confidence":5},{"trial_n":105,"n_dots":3.25,"target":"right","response":"right","rt":675,"correct":true,"confidence":4},{"trial_n":106,"n_dots":3.25,"target":"left","response":"left","rt":561.99999999994,"correct":true,"confidence":5},{"trial_n":107,"n_dots":3.15,"target":"right","response":"left","rt":556.00000000006,"correct":false,"confidence":5},{"trial_n":108,"n_dots":3.25,"target":"left","response":"left","rt":461.00000000006,"correct":true,"confidence":5},{"trial_n":109,"n_dots":3.25,"target":"right","response":"left","rt":464,"correct":false,"confidence":5},{"trial_n":110,"n_dots":3.35,"target":"right","response":"left","rt":1242.0000000001,"correct":false,"confidence":2},{"trial_n":111,"n_dots":3.45,"target":"right","response":"right","rt":376,"correct":true,"confidence":4},{"trial_n":112,"n_dots":3.45,"target":"left","response":"left","rt":524,"correct":true,"confidence":5},{"trial_n":113,"n_dots":3.35,"target":"left","response":"left","rt":649.99999999994,"correct":true,"confidence":5},{"trial_n":114,"n_dots":3.35,"target":"right","response":"right","rt":378,"correct":true,"confidence":4},{"trial_n":115,"n_dots":3.25,"target":"left","response":"left","rt":1040,"correct":true,"confidence":3},{"trial_n":116,"n_dots":3.25,"target":"left","response":"left","rt":451,"correct":true,"confidence":5},{"trial_n":117,"n_dots":3.15,"target":"right","response":"right","rt":451.99999999994,"correct":true,"confidence":5},{"trial_n":118,"n_dots":3.15,"target":"right","response":"right","rt":386,"correct":true,"confidence":5},{"trial_n":119,"n_dots":3.05,"target":"right","response":"left","rt":592.99999999994,"correct":false,"confidence":2},{"trial_n":120,"n_dots":3.15,"target":"left","response":"left","rt":343.00000000006,"correct":true,"confidence":3}]