[{"trial_n":1,"min":25,"max":230,"target":"present","response":"absent","rt":17165.7,"correct":false,"confidence":-1},{"trial_n":2,"min":25,"max":230,"target":"present","response":"present","rt":2904.5999999996,"correct":true,"confidence":-1},{"trial_n":3,"min":25,"max":230,"target":"absent","response":"absent","rt":1044.2999999998,"correct":true,"confidence":-1},{"trial_n":4,"min":41,"max":214,"target":"absent","response":"absent","rt":1422.3999999994,"correct":true,"confidence":-1},{"trial_n":5,"min":41,"max":214,"target":"present","response":"present","rt":1808.5999999996,"correct":true,"confidence":-1},{"trial_n":6,"min":57,"max":198,"target":"absent","response":"absent","rt":734,"correct":true,"confidence":-1},{"trial_n":7,"min":57,"max":198,"target":"present","response":"present","rt":768.29999999981,"correct":true,"confidence":-1},{"trial_n":8,"min":73,"max":182,"target":"present","response":"absent","rt":577.79999999981,"correct":false,"confidence":-1},{"trial_n":9,"min":57,"max":198,"target":"absent","response":"absent","rt":585.60000000056,"correct":true,"confidence":-1},{"trial_n":10,"min":57,"max":198,"target":"absent","response":"absent","rt":653,"correct":true,"confidence":-1},{"trial_n":11,"min":65,"max":190,"target":"present","response":"absent","rt":470.40000000037,"correct":false,"confidence":-1},{"trial_n":12,"min":57,"max":198,"target":"absent","response":"present","rt":736.10000000056,"correct":false,"confidence":-1},{"trial_n":13,"min":49,"max":206,"target":"absent","response":"present","rt":805.89999999944,"correct":false,"confidence":-1},{"trial_n":14,"min":41,"max":214,"target":"absent","response":"absent","rt":1564,"correct":true,"confidence":-1},{"trial_n":15,"min":41,"max":214,"target":"absent","response":"absent","rt":1016.0999999996,"correct":true,"confidence":-1},{"trial_n":16,"min":49,"max":206,"target":"absent","response":"absent","rt":1075.7999999998,"correct":true,"confidence":-1},{"trial_n":17,"min":49,"max":206,"target":"absent","response":"present","rt":1004.8999999994,"correct":false,"confidence":-1},{"trial_n":18,"min":41,"max":214,"target":"absent","response":"absent","rt":915.09999999963,"correct":true,"confidence":-1},{"trial_n":19,"min":41,"max":214,"target":"present","response":"present","rt":781.70000000019,"correct":true,"confidence":-1},{"trial_n":20,"min":49,"max":206,"target":"present","response":"present","rt":890.59999999963,"correct":true,"confidence":-1},{"trial_n":21,"min":49,"max":206,"target":"present","response":"present","rt":579.40000000037,"correct":true,"confidence":4},{"trial_n":22,"min":53,"max":202,"target":"present","response":"present","rt":782.60000000056,"correct":true,"confidence":5},{"trial_n":23,"min":53,"max":202,"target":"present","response":"present","rt":1266,"correct":true,"confidence":5},{"trial_n":24,"min":57,"max":198,"target":"absent","response":"absent","rt":1179.7999999998,"correct":true,"confidence":3},{"trial_n":25,"min":57,"max":198,"target":"present","response":"present","rt":929.19999999925,"correct":true,"confidence":5},{"trial_n":26,"min":61,"max":194,"target":"present","response":"present","rt":1051.2000000002,"correct":true,"confidence":5},{"trial_n":27,"min":61,"max":194,"target":"absent","response":"present","rt":1132,"correct":false,"confidence":3},{"trial_n":28,"min":57,"max":198,"target":"present","response":"present","rt":1674.2999999998,"correct":true,"confidence":4},{"trial_n":29,"min":57,"max":198,"target":"absent","response":"present","rt":1286.9000000004,"correct":false,"confidence":5},{"trial_n":30,"min":53,"max":202,"target":"absent","response":"absent","rt":976.59999999963,"correct":true,"confidence":2},{"trial_n":31,"min":53,"max":202,"target":"absent","response":"absent","rt":2167.2000000002,"correct":true,"confidence":2},{"trial_n":32,"min":55,"max":200,"target":"present","response":"present","rt":844,"correct":true,"confidence":5},{"trial_n":33,"min":55,"max":200,"target":"present","response":"present","rt":1140.5999999996,"correct":true,"confidence":5},{"trial_n":34,"min":57,"max":198,"target":"absent","response":"absent","rt":1576.9000000004,"correct":true,"confidence":2},{"trial_n":35,"min":57,"max":198,"target":"present","response":"present","rt":741.20000000019,"correct":true,"confidence":5},{"trial_n":36,"min":59,"max":196,"target":"absent","response":"present","rt":1541.0999999996,"correct":false,"confidence":3},{"trial_n":37,"min":57,"max":198,"target":"absent","response":"present","rt":1202.2000000002,"correct":false,"confidence":3},{"trial_n":38,"min":55,"max":200,"target":"present","response":"present","rt":921.09999999963,"correct":true,"confidence":5},{"trial_n":39,"min":55,"max":200,"target":"present","response":"present","rt":1377,"correct":true,"confidence":5},{"trial_n":40,"min":57,"max":198,"target":"present","response":"present","rt":949.40000000037,"correct":true,"confidence":5},{"trial_n":41,"min":57,"max":198,"target":"absent","response":"absent","rt":1205.7000000002,"correct":true,"confidence":5},{"trial_n":42,"min":58,"max":197,"target":"present","response":"present","rt":1688.6999999993,"correct":true,"confidence":5},{"trial_n":43,"min":58,"max":197,"target":"absent","response":"absent","rt":995.40000000037,"correct":true,"confidence":5},{"trial_n":44,"min":59,"max":196,"target":"present","response":"present","rt":901.5,"correct":true,"confidence":5},{"trial_n":45,"min":59,"max":196,"target":"present","response":"present","rt":1597.7999999998,"correct":true,"confidence":4},{"trial_n":46,"min":60,"max":195,"target":"absent","response":"absent","rt":883,"correct":true,"confidence":3},{"trial_n":47,"min":60,"max":195,"target":"absent","response":"absent","rt":1245.1000000006,"correct":true,"confidence":4},{"trial_n":48,"min":61,"max":194,"target":"present","response":"present","rt":764.09999999963,"correct":true,"confidence":5},{"trial_n":49,"min":61,"max":194,"target":"absent","response":"absent","rt":945,"correct":true,"confidence":3},{"trial_n":50,"min":62,"max":193,"target":"present","response":"present","rt":855.09999999963,"correct":true,"confidence":5},{"trial_n":51,"min":62,"max":193,"target":"absent","response":"absent","rt":903.89999999944,"correct":true,"confidence":4},{"trial_n":52,"min":63,"max":192,"target":"absent","response":"absent","rt":1075.4000000004,"correct":true,"confidence":4},{"trial_n":53,"min":63,"max":192,"target":"absent","response":"absent","rt":1177.4000000004,"correct":true,"confidence":3},{"trial_n":54,"min":64,"max":191,"target":"present","response":"present","rt":947.30000000075,"correct":true,"confidence":5},{"trial_n":55,"min":64,"max":191,"target":"present","response":"present","rt":1031.7999999998,"correct":true,"confidence":5},{"trial_n":56,"min":65,"max":190,"target":"present","response":"present","rt":1744.2999999998,"correct":true,"confidence":5},{"trial_n":57,"min":65,"max":190,"target":"present","response":"present","rt":658.70000000019,"correct":true,"confidence":5},{"trial_n":58,"min":66,"max":189,"target":"present","response":"present","rt":779.89999999944,"correct":true,"confidence":5},{"trial_n":59,"min":66,"max":189,"target":"absent","response":"absent","rt":2165.4000000004,"correct":true,"confidence":3},{"trial_n":60,"min":67,"max":188,"target":"present","response":"present","rt":780,"correct":true,"confidence":5},{"trial_n":61,"min":67,"max":188,"target":"absent","response":"absent","rt":1803.6000000006,"correct":true,"confidence":2},{"trial_n":62,"min":68,"max":187,"target":"absent","response":"absent","rt":1415.9000000004,"correct":true,"confidence":2},{"trial_n":63,"min":68,"max":187,"target":"present","response":"present","rt":736.59999999963,"correct":true,"confidence":5},{"trial_n":64,"min":69,"max":186,"target":"absent","response":"absent","rt":1401.2999999998,"correct":true,"confidence":3},{"trial_n":65,"min":69,"max":186,"target":"absent","response":"absent","rt":1059.1999999993,"correct":true,"confidence":5},{"trial_n":66,"min":70,"max":185,"target":"absent","response":"absent","rt":4878.3000000007,"correct":true,"confidence":1},{"trial_n":67,"min":70,"max":185,"target":"present","response":"present","rt":1792.7999999998,"correct":true,"confidence":5},{"trial_n":68,"min":71,"max":184,"target":"present","response":"present","rt":979.09999999963,"correct":true,"confidence":5},{"trial_n":69,"min":71,"max":184,"target":"present","response":"present","rt":811.79999999981,"correct":true,"confidence":5},{"trial_n":70,"min":72,"max":183,"target":"present","response":"present","rt":901.59999999963,"correct":true,"confidence":5},{"trial_n":71,"min":41,"max":214,"target":"present","response":"present","rt":4579.5999999996,"correct":true,"confidence":-1},{"trial_n":72,"min":41,"max":214,"target":"present","response":"present","rt":1052.9000000004,"correct":true,"confidence":-1},{"trial_n":73,"min":57,"max":198,"target":"absent","response":"absent","rt":1035.1000000006,"correct":true,"confidence":-1},{"trial_n":74,"min":57,"max":198,"target":"absent","response":"absent","rt":615.09999999963,"correct":true,"confidence":-1},{"trial_n":75,"min":73,"max":182,"target":"present","response":"present","rt":575.40000000037,"correct":true,"confidence":-1},{"trial_n":76,"min":73,"max":182,"target":"present","response":"present","rt":514.79999999981,"correct":true,"confidence":-1},{"trial_n":77,"min":89,"max":166,"target":"present","response":"present","rt":619.20000000019,"correct":true,"confidence":-1},{"trial_n":78,"min":89,"max":166,"target":"absent","response":"absent","rt":988.60000000056,"correct":true,"confidence":-1},{"trial_n":79,"min":105,"max":150,"target":"absent","response":"absent","rt":604.40000000037,"correct":true,"confidence":-1},{"trial_n":80,"min":105,"max":150,"target":"absent","response":"present","rt":433.90000000037,"correct":false,"confidence":-1},{"trial_n":81,"min":97,"max":158,"target":"absent","response":"absent","rt":3405.1000000006,"correct":true,"confidence":-1},{"trial_n":82,"min":97,"max":158,"target":"absent","response":"absent","rt":1613.8999999994,"correct":true,"confidence":-1},{"trial_n":83,"min":105,"max":150,"target":"absent","response":"present","rt":902.29999999981,"correct":false,"confidence":-1},{"trial_n":84,"min":97,"max":158,"target":"absent","response":"absent","rt":1613,"correct":true,"confidence":-1},{"trial_n":85,"min":97,"max":158,"target":"present","response":"absent","rt":1530,"correct":false,"confidence":-1},{"trial_n":86,"min":89,"max":166,"target":"present","response":"present","rt":611.5,"correct":true,"confidence":-1},{"trial_n":87,"min":89,"max":166,"target":"absent","response":"absent","rt":776.20000000019,"correct":true,"confidence":-1},{"trial_n":88,"min":97,"max":158,"target":"absent","response":"present","rt":873.19999999925,"correct":false,"confidence":-1},{"trial_n":89,"min":89,"max":166,"target":"present","response":"absent","rt":583.20000000019,"correct":false,"confidence":-1},{"trial_n":90,"min":81,"max":174,"target":"present","response":"present","rt":288.10000000056,"correct":true,"confidence":-1},{"trial_n":91,"min":81,"max":174,"target":"present","response":"present","rt":1684.5,"correct":true,"confidence":2},{"trial_n":92,"min":85,"max":170,"target":"present","response":"present","rt":871.40000000037,"correct":true,"confidence":4},{"trial_n":93,"min":85,"max":170,"target":"present","response":"present","rt":711.60000000056,"correct":true,"confidence":4},{"trial_n":94,"min":89,"max":166,"target":"absent","response":"present","rt":2464.0999999996,"correct":false,"confidence":1},{"trial_n":95,"min":85,"max":170,"target":"present","response":"absent","rt":2300.8999999994,"correct":false,"confidence":3},{"trial_n":96,"min":81,"max":174,"target":"absent","response":"present","rt":7326.8000000007,"correct":false,"confidence":1},{"trial_n":97,"min":77,"max":178,"target":"absent","response":"present","rt":1078.5,"correct":false,"confidence":3},{"trial_n":98,"min":73,"max":182,"target":"present","response":"absent","rt":3093.2000000002,"correct":false,"confidence":2},{"trial_n":99,"min":69,"max":186,"target":"present","response":"present","rt":398.79999999981,"correct":true,"confidence":5},{"trial_n":100,"min":69,"max":186,"target":"present","response":"present","rt":723.39999999944,"correct":true,"confidence":5},{"trial_n":101,"min":71,"max":184,"target":"absent","response":"absent","rt":1038.5,"correct":true,"confidence":4},{"trial_n":102,"min":71,"max":184,"target":"absent","response":"absent","rt":855.5,"correct":true,"confidence":4},{"trial_n":103,"min":73,"max":182,"target":"present","response":"present","rt":624.29999999981,"correct":true,"confidence":5},{"trial_n":104,"min":73,"max":182,"target":"present","response":"present","rt":682.79999999981,"correct":true,"confidence":5},{"trial_n":105,"min":75,"max":180,"target":"present","response":"present","rt":913.5,"correct":true,"confidence":5},{"trial_n":106,"min":75,"max":180,"target":"absent","response":"absent","rt":942.90000000037,"correct":true,"confidence":4},{"trial_n":107,"min":77,"max":178,"target":"absent","response":"present","rt":881.5,"correct":false,"confidence":4},{"trial_n":108,"min":75,"max":180,"target":"absent","response":"absent","rt":798.5,"correct":true,"confidence":4},{"trial_n":109,"min":75,"max":180,"target":"present","response":"present","rt":922.5,"correct":true,"confidence":5},{"trial_n":110,"min":77,"max":178,"target":"present","response":"present","rt":1075.5,"correct":true,"confidence":5},{"trial_n":111,"min":77,"max":178,"target":"present","response":"present","rt":2367,"correct":true,"confidence":5},{"trial_n":112,"min":78,"max":177,"target":"present","response":"absent","rt":2091.2999999998,"correct":false,"confidence":3},{"trial_n":113,"min":77,"max":178,"target":"present","response":"present","rt":892.20000000019,"correct":true,"confidence":5},{"trial_n":114,"min":77,"max":178,"target":"present","response":"present","rt":2589.8000000007,"correct":true,"confidence":5},{"trial_n":115,"min":78,"max":177,"target":"absent","response":"absent","rt":1385.6000000006,"correct":true,"confidence":4},{"trial_n":116,"min":78,"max":177,"target":"absent","response":"absent","rt":900.10000000056,"correct":true,"confidence":5},{"trial_n":117,"min":79,"max":176,"target":"absent","response":"absent","rt":1863.3999999994,"correct":true,"confidence":3},{"trial_n":118,"min":79,"max":176,"target":"absent","response":"absent","rt":1533.0999999996,"correct":true,"confidence":5},{"trial_n":119,"min":80,"max":175,"target":"present","response":"present","rt":1384.2999999998,"correct":true,"confidence":5},{"trial_n":120,"min":80,"max":175,"target":"absent","response":"absent","rt":1690.4000000004,"correct":true,"confidence":3},{"trial_n":121,"min":81,"max":174,"target":"absent","response":"absent","rt":1118,"correct":true,"confidence":4},{"trial_n":122,"min":81,"max":174,"target":"absent","response":"absent","rt":1054.8999999994,"correct":true,"confidence":5},{"trial_n":123,"min":82,"max":173,"target":"absent","response":"present","rt":1298.9000000004,"correct":false,"confidence":2},{"trial_n":124,"min":81,"max":174,"target":"present","response":"present","rt":1894.0999999996,"correct":true,"confidence":2},{"trial_n":125,"min":81,"max":174,"target":"present","response":"present","rt":1349.7000000002,"correct":true,"confidence":4},{"trial_n":126,"min":82,"max":173,"target":"absent","response":"present","rt":1809.2000000002,"correct":false,"confidence":1},{"trial_n":127,"min":81,"max":174,"target":"present","response":"present","rt":2832.4000000004,"correct":true,"confidence":3},{"trial_n":128,"min":81,"max":174,"target":"absent","response":"absent","rt":966.5,"correct":true,"confidence":3},{"trial_n":129,"min":82,"max":173,"target":"present","response":"present","rt":875.79999999981,"correct":true,"confidence":4},{"trial_n":130,"min":82,"max":173,"target":"present","response":"present","rt":1380.5,"correct":true,"confidence":4},{"trial_n":131,"min":83,"max":172,"target":"absent","response":"present","rt":1500.7000000002,"correct":false,"confidence":1},{"trial_n":132,"min":82,"max":173,"target":"absent","response":"absent","rt":1240.2999999998,"correct":true,"confidence":4},{"trial_n":133,"min":82,"max":173,"target":"present","response":"present","rt":865.29999999981,"correct":true,"confidence":4},{"trial_n":134,"min":83,"max":172,"target":"present","response":"present","rt":1504.6000000006,"correct":true,"confidence":4},{"trial_n":135,"min":83,"max":172,"target":"present","response":"present","rt":833,"correct":true,"confidence":2},{"trial_n":136,"min":84,"max":171,"target":"absent","response":"absent","rt":1119.5,"correct":true,"confidence":1},{"trial_n":137,"min":84,"max":171,"target":"absent","response":"absent","rt":1057.1000000006,"correct":true,"confidence":4},{"trial_n":138,"min":85,"max":170,"target":"absent","response":"present","rt":1885.2000000002,"correct":false,"confidence":1},{"trial_n":139,"min":84,"max":171,"target":"present","response":"present","rt":906.70000000019,"correct":true,"confidence":4},{"trial_n":140,"min":84,"max":171,"target":"present","response":"present","rt":1348.5999999996,"correct":true,"confidence":5}]