[{"trial_n":1,"min":25,"max":230,"target":"present","response":"present","rt":6484.400000006,"correct":true,"confidence":-1},{"trial_n":2,"min":25,"max":230,"target":"present","response":"present","rt":953.20000000298,"correct":true,"confidence":-1},{"trial_n":3,"min":41,"max":214,"target":"absent","response":"absent","rt":998.70000000298,"correct":true,"confidence":-1},{"trial_n":4,"min":41,"max":214,"target":"absent","response":"absent","rt":452.29999999702,"correct":true,"confidence":-1},{"trial_n":5,"min":57,"max":198,"target":"present","response":"present","rt":486.09999999404,"correct":true,"confidence":-1},{"trial_n":6,"min":57,"max":198,"target":"absent","response":"absent","rt":298.70000000298,"correct":true,"confidence":-1},{"trial_n":7,"min":73,"max":182,"target":"present","response":"present","rt":610.89999999106,"correct":true,"confidence":-1},{"trial_n":8,"min":73,"max":182,"target":"present","response":"present","rt":352.29999999702,"correct":true,"confidence":-1},{"trial_n":9,"min":89,"max":166,"target":"present","response":"absent","rt":639.39999999106,"correct":false,"confidence":-1},{"trial_n":10,"min":73,"max":182,"target":"present","response":"present","rt":820.79999999702,"correct":true,"confidence":-1},{"trial_n":11,"min":73,"max":182,"target":"present","response":"present","rt":310.79999999702,"correct":true,"confidence":-1},{"trial_n":12,"min":81,"max":174,"target":"absent","response":"absent","rt":495.59999999404,"correct":true,"confidence":-1},{"trial_n":13,"min":81,"max":174,"target":"present","response":"present","rt":638.39999999106,"correct":true,"confidence":-1},{"trial_n":14,"min":89,"max":166,"target":"present","response":"present","rt":364.40000000596,"correct":true,"confidence":-1},{"trial_n":15,"min":89,"max":166,"target":"absent","response":"absent","rt":286.29999999702,"correct":true,"confidence":-1},{"trial_n":16,"min":97,"max":158,"target":"absent","response":"absent","rt":318,"correct":true,"confidence":-1},{"trial_n":17,"min":97,"max":158,"target":"present","response":"absent","rt":178.10000000894,"correct":false,"confidence":-1},{"trial_n":18,"min":89,"max":166,"target":"absent","response":"absent","rt":777.40000000596,"correct":true,"confidence":-1},{"trial_n":19,"min":89,"max":166,"target":"present","response":"present","rt":417.5,"correct":true,"confidence":-1},{"trial_n":20,"min":97,"max":158,"target":"present","response":"present","rt":375.5,"correct":true,"confidence":-1},{"trial_n":21,"min":97,"max":158,"target":"present","response":"absent","rt":706.20000000298,"correct":false,"confidence":3},{"trial_n":22,"min":93,"max":162,"target":"present","response":"present","rt":935.5,"correct":true,"confidence":3},{"trial_n":23,"min":93,"max":162,"target":"absent","response":"present","rt":1259.5,"correct":false,"confidence":2},{"trial_n":24,"min":89,"max":166,"target":"present","response":"absent","rt":1070.299999997,"correct":false,"confidence":1},{"trial_n":25,"min":85,"max":170,"target":"absent","response":"absent","rt":811.79999999702,"correct":true,"confidence":3},{"trial_n":26,"min":85,"max":170,"target":"absent","response":"absent","rt":685.60000000894,"correct":true,"confidence":3},{"trial_n":27,"min":89,"max":166,"target":"present","response":"present","rt":994.09999999404,"correct":true,"confidence":3},{"trial_n":28,"min":89,"max":166,"target":"present","response":"absent","rt":720.70000000298,"correct":false,"confidence":3},{"trial_n":29,"min":85,"max":170,"target":"absent","response":"absent","rt":762.70000000298,"correct":true,"confidence":3},{"trial_n":30,"min":85,"max":170,"target":"absent","response":"absent","rt":921.10000000894,"correct":true,"confidence":3},{"trial_n":31,"min":87,"max":168,"target":"absent","response":"present","rt":561.30000001192,"correct":false,"confidence":3},{"trial_n":32,"min":85,"max":170,"target":"present","response":"absent","rt":659.5,"correct":false,"confidence":3},{"trial_n":33,"min":83,"max":172,"target":"absent","response":"present","rt":870.70000000298,"correct":false,"confidence":3},{"trial_n":34,"min":81,"max":174,"target":"absent","response":"absent","rt":545.79999999702,"correct":true,"confidence":3},{"trial_n":35,"min":81,"max":174,"target":"absent","response":"absent","rt":557.70000000298,"correct":true,"confidence":3},{"trial_n":36,"min":83,"max":172,"target":"absent","response":"absent","rt":510.20000000298,"correct":true,"confidence":3},{"trial_n":37,"min":83,"max":172,"target":"absent","response":"absent","rt":635,"correct":true,"confidence":3},{"trial_n":38,"min":85,"max":170,"target":"absent","response":"present","rt":1394,"correct":false,"confidence":2},{"trial_n":39,"min":83,"max":172,"target":"present","response":"present","rt":966.20000000298,"correct":true,"confidence":3},{"trial_n":40,"min":83,"max":172,"target":"absent","response":"absent","rt":663.70000000298,"correct":true,"confidence":2},{"trial_n":41,"min":84,"max":171,"target":"present","response":"present","rt":664.79999999702,"correct":true,"confidence":2},{"trial_n":42,"min":84,"max":171,"target":"present","response":"present","rt":588.20000000298,"correct":true,"confidence":3},{"trial_n":43,"min":85,"max":170,"target":"present","response":"present","rt":619.29999999702,"correct":true,"confidence":3},{"trial_n":44,"min":85,"max":170,"target":"absent","response":"absent","rt":1262.799999997,"correct":true,"confidence":2},{"trial_n":45,"min":86,"max":169,"target":"present","response":"present","rt":665.39999999106,"correct":true,"confidence":3},{"trial_n":46,"min":86,"max":169,"target":"present","response":"present","rt":624.09999999404,"correct":true,"confidence":3},{"trial_n":47,"min":87,"max":168,"target":"absent","response":"absent","rt":629.60000000894,"correct":true,"confidence":3},{"trial_n":48,"min":87,"max":168,"target":"present","response":"present","rt":536.29999999702,"correct":true,"confidence":3},{"trial_n":49,"min":88,"max":167,"target":"present","response":"absent","rt":486.09999999404,"correct":false,"confidence":3},{"trial_n":50,"min":87,"max":168,"target":"present","response":"present","rt":478.89999999106,"correct":true,"confidence":3},{"trial_n":51,"min":87,"max":168,"target":"present","response":"present","rt":1406.5,"correct":true,"confidence":2},{"trial_n":52,"min":88,"max":167,"target":"absent","response":"absent","rt":929.20000000298,"correct":true,"confidence":2},{"trial_n":53,"min":88,"max":167,"target":"absent","response":"absent","rt":501.29999999702,"correct":true,"confidence":2},{"trial_n":54,"min":89,"max":166,"target":"present","response":"present","rt":579.89999999106,"correct":true,"confidence":3},{"trial_n":55,"min":89,"max":166,"target":"absent","response":"absent","rt":431.70000000298,"correct":true,"confidence":2},{"trial_n":56,"min":90,"max":165,"target":"present","response":"present","rt":493.70000000298,"correct":true,"confidence":3},{"trial_n":57,"min":90,"max":165,"target":"absent","response":"absent","rt":962.40000000596,"correct":true,"confidence":3},{"trial_n":58,"min":91,"max":164,"target":"absent","response":"present","rt":858.40000000596,"correct":false,"confidence":2},{"trial_n":59,"min":90,"max":165,"target":"present","response":"present","rt":927.29999999702,"correct":true,"confidence":1},{"trial_n":60,"min":90,"max":165,"target":"absent","response":"absent","rt":821.5,"correct":true,"confidence":1},{"trial_n":61,"min":91,"max":164,"target":"present","response":"absent","rt":1254.6000000089,"correct":false,"confidence":2},{"trial_n":62,"min":90,"max":165,"target":"absent","response":"absent","rt":690.70000000298,"correct":true,"confidence":2},{"trial_n":63,"min":90,"max":165,"target":"absent","response":"absent","rt":852.79999999702,"correct":true,"confidence":2},{"trial_n":64,"min":91,"max":164,"target":"absent","response":"absent","rt":404.60000000894,"correct":true,"confidence":2},{"trial_n":65,"min":91,"max":164,"target":"present","response":"absent","rt":387.79999999702,"correct":false,"confidence":2},{"trial_n":66,"min":90,"max":165,"target":"absent","response":"absent","rt":1833.099999994,"correct":true,"confidence":2},{"trial_n":67,"min":90,"max":165,"target":"absent","response":"absent","rt":520,"correct":true,"confidence":2},{"trial_n":68,"min":91,"max":164,"target":"present","response":"absent","rt":713.59999999404,"correct":false,"confidence":1},{"trial_n":69,"min":90,"max":165,"target":"absent","response":"absent","rt":1447.599999994,"correct":true,"confidence":1},{"trial_n":70,"min":90,"max":165,"target":"present","response":"present","rt":718.89999999106,"correct":true,"confidence":3},{"trial_n":71,"min":41,"max":214,"target":"present","response":"present","rt":2269.5,"correct":true,"confidence":-1},{"trial_n":72,"min":41,"max":214,"target":"present","response":"present","rt":624.5,"correct":true,"confidence":-1},{"trial_n":73,"min":57,"max":198,"target":"absent","response":"absent","rt":587.40000000596,"correct":true,"confidence":-1},{"trial_n":74,"min":57,"max":198,"target":"absent","response":"absent","rt":485.59999999404,"correct":true,"confidence":-1},{"trial_n":75,"min":73,"max":182,"target":"present","response":"present","rt":624,"correct":true,"confidence":-1},{"trial_n":76,"min":73,"max":182,"target":"absent","response":"present","rt":1436.1000000089,"correct":false,"confidence":-1},{"trial_n":77,"min":57,"max":198,"target":"present","response":"present","rt":509.29999999702,"correct":true,"confidence":-1},{"trial_n":78,"min":57,"max":198,"target":"absent","response":"absent","rt":472.60000000894,"correct":true,"confidence":-1},{"trial_n":79,"min":73,"max":182,"target":"present","response":"present","rt":531,"correct":true,"confidence":-1},{"trial_n":80,"min":73,"max":182,"target":"absent","response":"absent","rt":564.09999999404,"correct":true,"confidence":-1},{"trial_n":81,"min":81,"max":174,"target":"present","response":"present","rt":312.40000000596,"correct":true,"confidence":-1},{"trial_n":82,"min":81,"max":174,"target":"absent","response":"absent","rt":462,"correct":true,"confidence":-1},{"trial_n":83,"min":89,"max":166,"target":"present","response":"present","rt":396.20000000298,"correct":true,"confidence":-1},{"trial_n":84,"min":89,"max":166,"target":"absent","response":"present","rt":865.29999999702,"correct":false,"confidence":-1},{"trial_n":85,"min":81,"max":174,"target":"absent","response":"absent","rt":477.39999999106,"correct":true,"confidence":-1},{"trial_n":86,"min":81,"max":174,"target":"absent","response":"absent","rt":519.40000000596,"correct":true,"confidence":-1},{"trial_n":87,"min":89,"max":166,"target":"present","response":"present","rt":192.29999999702,"correct":true,"confidence":-1},{"trial_n":88,"min":89,"max":166,"target":"absent","response":"absent","rt":318.29999999702,"correct":true,"confidence":-1},{"trial_n":89,"min":97,"max":158,"target":"absent","response":"present","rt":460.09999999404,"correct":false,"confidence":-1},{"trial_n":90,"min":89,"max":166,"target":"present","response":"present","rt":462.40000000596,"correct":true,"confidence":-1},{"trial_n":91,"min":89,"max":166,"target":"present","response":"present","rt":571.79999999702,"correct":true,"confidence":2},{"trial_n":92,"min":93,"max":162,"target":"absent","response":"present","rt":772.09999999404,"correct":false,"confidence":2},{"trial_n":93,"min":89,"max":166,"target":"absent","response":"present","rt":615.09999999404,"correct":false,"confidence":2},{"trial_n":94,"min":85,"max":170,"target":"present","response":"present","rt":404.10000000894,"correct":true,"confidence":2},{"trial_n":95,"min":85,"max":170,"target":"absent","response":"absent","rt":1136.8000000119,"correct":true,"confidence":1},{"trial_n":96,"min":89,"max":166,"target":"present","response":"present","rt":556.40000000596,"correct":true,"confidence":2},{"trial_n":97,"min":89,"max":166,"target":"absent","response":"absent","rt":605.70000000298,"correct":true,"confidence":2},{"trial_n":98,"min":93,"max":162,"target":"absent","response":"present","rt":2501,"correct":false,"confidence":3},{"trial_n":99,"min":89,"max":166,"target":"present","response":"present","rt":811.70000000298,"correct":true,"confidence":2},{"trial_n":100,"min":89,"max":166,"target":"present","response":"present","rt":977.09999999404,"correct":true,"confidence":1},{"trial_n":101,"min":91,"max":164,"target":"absent","response":"absent","rt":609.5,"correct":true,"confidence":1},{"trial_n":102,"min":91,"max":164,"target":"absent","response":"present","rt":1332.200000003,"correct":false,"confidence":2},{"trial_n":103,"min":89,"max":166,"target":"absent","response":"absent","rt":1115.900000006,"correct":true,"confidence":1},{"trial_n":104,"min":89,"max":166,"target":"absent","response":"absent","rt":680.10000000894,"correct":true,"confidence":1},{"trial_n":105,"min":91,"max":164,"target":"absent","response":"absent","rt":559.39999999106,"correct":true,"confidence":3},{"trial_n":106,"min":91,"max":164,"target":"present","response":"present","rt":344.80000001192,"correct":true,"confidence":3},{"trial_n":107,"min":93,"max":162,"target":"present","response":"present","rt":1068.599999994,"correct":true,"confidence":1},{"trial_n":108,"min":93,"max":162,"target":"absent","response":"absent","rt":603.89999999106,"correct":true,"confidence":1},{"trial_n":109,"min":95,"max":160,"target":"absent","response":"absent","rt":706.10000000894,"correct":true,"confidence":1},{"trial_n":110,"min":95,"max":160,"target":"present","response":"present","rt":415.09999999404,"correct":true,"confidence":2},{"trial_n":111,"min":96,"max":159,"target":"absent","response":"present","rt":519.09999999404,"correct":false,"confidence":2},{"trial_n":112,"min":95,"max":160,"target":"present","response":"present","rt":1203.799999997,"correct":true,"confidence":2},{"trial_n":113,"min":95,"max":160,"target":"present","response":"absent","rt":562.09999999404,"correct":false,"confidence":1},{"trial_n":114,"min":94,"max":161,"target":"absent","response":"present","rt":1082.599999994,"correct":false,"confidence":1},{"trial_n":115,"min":93,"max":162,"target":"present","response":"absent","rt":305.60000000894,"correct":false,"confidence":1},{"trial_n":116,"min":92,"max":163,"target":"present","response":"present","rt":736,"correct":true,"confidence":1},{"trial_n":117,"min":92,"max":163,"target":"present","response":"absent","rt":467.90000000596,"correct":false,"confidence":1},{"trial_n":118,"min":91,"max":164,"target":"present","response":"absent","rt":313,"correct":false,"confidence":1},{"trial_n":119,"min":90,"max":165,"target":"absent","response":"absent","rt":670,"correct":true,"confidence":2},{"trial_n":120,"min":90,"max":165,"target":"present","response":"absent","rt":774,"correct":false,"confidence":1},{"trial_n":121,"min":89,"max":166,"target":"present","response":"absent","rt":630.40000000596,"correct":false,"confidence":1},{"trial_n":122,"min":88,"max":167,"target":"present","response":"present","rt":790.80000001192,"correct":true,"confidence":2},{"trial_n":123,"min":88,"max":167,"target":"present","response":"present","rt":770,"correct":true,"confidence":2},{"trial_n":124,"min":89,"max":166,"target":"absent","response":"present","rt":427.20000000298,"correct":false,"confidence":2},{"trial_n":125,"min":88,"max":167,"target":"present","response":"present","rt":1128.3999999911,"correct":true,"confidence":1},{"trial_n":126,"min":88,"max":167,"target":"absent","response":"absent","rt":772.30000001192,"correct":true,"confidence":1},{"trial_n":127,"min":89,"max":166,"target":"present","response":"present","rt":390.10000000894,"correct":true,"confidence":1},{"trial_n":128,"min":89,"max":166,"target":"absent","response":"present","rt":189.60000000894,"correct":false,"confidence":1},{"trial_n":129,"min":88,"max":167,"target":"present","response":"present","rt":32.399999991059,"correct":true,"confidence":1},{"trial_n":130,"min":88,"max":167,"target":"present","response":"present","rt":754.70000000298,"correct":true,"confidence":1},{"trial_n":131,"min":89,"max":166,"target":"present","response":"present","rt":857.90000000596,"correct":true,"confidence":2},{"trial_n":132,"min":89,"max":166,"target":"present","response":"present","rt":415.89999999106,"correct":true,"confidence":2},{"trial_n":133,"min":90,"max":165,"target":"absent","response":"present","rt":545.80000001192,"correct":false,"confidence":1},{"trial_n":134,"min":89,"max":166,"target":"absent","response":"absent","rt":394,"correct":true,"confidence":1},{"trial_n":135,"min":89,"max":166,"target":"absent","response":"absent","rt":553.80000001192,"correct":true,"confidence":1},{"trial_n":136,"min":90,"max":165,"target":"absent","response":"present","rt":219.5,"correct":false,"confidence":1},{"trial_n":137,"min":89,"max":166,"target":"present","response":"present","rt":358.20000000298,"correct":true,"confidence":3},{"trial_n":138,"min":89,"max":166,"target":"present","response":"present","rt":213.20000000298,"correct":true,"confidence":3},{"trial_n":139,"min":90,"max":165,"target":"absent","response":"absent","rt":754.5,"correct":true,"confidence":1},{"trial_n":140,"min":90,"max":165,"target":"present","response":"present","rt":595.90000000596,"correct":true,"confidence":3}]