[{"trial_n":1,"min":25,"max":230,"target":"present","response":"present","rt":3049.5,"correct":true,"confidence":-1},{"trial_n":2,"min":25,"max":230,"target":"present","response":"present","rt":1494.7999999523,"correct":true,"confidence":-1},{"trial_n":3,"min":41,"max":214,"target":"absent","response":"absent","rt":884.60000014305,"correct":true,"confidence":-1},{"trial_n":4,"min":41,"max":214,"target":"absent","response":"absent","rt":428.40000009537,"correct":true,"confidence":-1},{"trial_n":5,"min":57,"max":198,"target":"present","response":"present","rt":1348.9000000954,"correct":true,"confidence":-1},{"trial_n":6,"min":57,"max":198,"target":"present","response":"present","rt":363.5,"correct":true,"confidence":-1},{"trial_n":7,"min":73,"max":182,"target":"absent","response":"absent","rt":781.79999995232,"correct":true,"confidence":-1},{"trial_n":8,"min":73,"max":182,"target":"absent","response":"absent","rt":656.90000009537,"correct":true,"confidence":-1},{"trial_n":9,"min":89,"max":166,"target":"present","response":"absent","rt":766.5,"correct":false,"confidence":-1},{"trial_n":10,"min":73,"max":182,"target":"absent","response":"present","rt":1029.0999999046,"correct":false,"confidence":-1},{"trial_n":11,"min":65,"max":190,"target":"present","response":"present","rt":535.80000019073,"correct":true,"confidence":-1},{"trial_n":12,"min":65,"max":190,"target":"absent","response":"absent","rt":576.79999995232,"correct":true,"confidence":-1},{"trial_n":13,"min":73,"max":182,"target":"present","response":"present","rt":349.59999990463,"correct":true,"confidence":-1},{"trial_n":14,"min":73,"max":182,"target":"absent","response":"absent","rt":538.70000004768,"correct":true,"confidence":-1},{"trial_n":15,"min":81,"max":174,"target":"present","response":"present","rt":298.20000004768,"correct":true,"confidence":-1},{"trial_n":16,"min":81,"max":174,"target":"present","response":"present","rt":412.79999995232,"correct":true,"confidence":-1},{"trial_n":17,"min":89,"max":166,"target":"absent","response":"present","rt":436.29999995232,"correct":false,"confidence":-1},{"trial_n":18,"min":81,"max":174,"target":"absent","response":"absent","rt":445.09999990463,"correct":true,"confidence":-1},{"trial_n":19,"min":81,"max":174,"target":"present","response":"present","rt":453.70000004768,"correct":true,"confidence":-1},{"trial_n":20,"min":89,"max":166,"target":"absent","response":"absent","rt":510.20000004768,"correct":true,"confidence":-1},{"trial_n":21,"min":89,"max":166,"target":"present","response":"present","rt":374,"correct":true,"confidence":5},{"trial_n":22,"min":93,"max":162,"target":"absent","response":"present","rt":727.40000009537,"correct":false,"confidence":2},{"trial_n":23,"min":89,"max":166,"target":"present","response":"present","rt":1930.5,"correct":true,"confidence":3},{"trial_n":24,"min":89,"max":166,"target":"absent","response":"absent","rt":2351.1000001431,"correct":true,"confidence":3},{"trial_n":25,"min":93,"max":162,"target":"absent","response":"absent","rt":2280.5999999046,"correct":true,"confidence":3},{"trial_n":26,"min":93,"max":162,"target":"present","response":"present","rt":1394.2000000477,"correct":true,"confidence":3},{"trial_n":27,"min":97,"max":158,"target":"absent","response":"present","rt":3216.0999999046,"correct":false,"confidence":3},{"trial_n":28,"min":93,"max":162,"target":"absent","response":"present","rt":1453.7000000477,"correct":false,"confidence":3},{"trial_n":29,"min":89,"max":166,"target":"absent","response":"absent","rt":1320.2000000477,"correct":true,"confidence":3},{"trial_n":30,"min":89,"max":166,"target":"absent","response":"absent","rt":1592.6999998093,"correct":true,"confidence":3},{"trial_n":31,"min":91,"max":164,"target":"present","response":"absent","rt":1245.1000001431,"correct":false,"confidence":2},{"trial_n":32,"min":89,"max":166,"target":"present","response":"present","rt":1788.2000000477,"correct":true,"confidence":3},{"trial_n":33,"min":89,"max":166,"target":"absent","response":"absent","rt":853.40000009537,"correct":true,"confidence":5},{"trial_n":34,"min":91,"max":164,"target":"present","response":"present","rt":1256.2999999523,"correct":true,"confidence":4},{"trial_n":35,"min":91,"max":164,"target":"absent","response":"present","rt":2265,"correct":false,"confidence":3},{"trial_n":36,"min":89,"max":166,"target":"absent","response":"present","rt":910.79999995232,"correct":false,"confidence":2},{"trial_n":37,"min":87,"max":168,"target":"absent","response":"absent","rt":877.5,"correct":true,"confidence":3},{"trial_n":38,"min":87,"max":168,"target":"present","response":"present","rt":1551.5,"correct":true,"confidence":3},{"trial_n":39,"min":89,"max":166,"target":"absent","response":"present","rt":959.40000009537,"correct":false,"confidence":2},{"trial_n":40,"min":87,"max":168,"target":"present","response":"present","rt":788.20000004768,"correct":true,"confidence":5},{"trial_n":41,"min":87,"max":168,"target":"present","response":"absent","rt":1126.1999998093,"correct":false,"confidence":3},{"trial_n":42,"min":86,"max":169,"target":"absent","response":"absent","rt":879.70000004768,"correct":true,"confidence":4},{"trial_n":43,"min":86,"max":169,"target":"present","response":"present","rt":738.59999990463,"correct":true,"confidence":3},{"trial_n":44,"min":87,"max":168,"target":"present","response":"absent","rt":792.60000014305,"correct":false,"confidence":3},{"trial_n":45,"min":86,"max":169,"target":"present","response":"absent","rt":4183.7000000477,"correct":false,"confidence":1},{"trial_n":46,"min":85,"max":170,"target":"absent","response":"absent","rt":751,"correct":true,"confidence":2},{"trial_n":47,"min":85,"max":170,"target":"present","response":"present","rt":936,"correct":true,"confidence":4},{"trial_n":48,"min":86,"max":169,"target":"present","response":"present","rt":1614,"correct":true,"confidence":4},{"trial_n":49,"min":86,"max":169,"target":"absent","response":"absent","rt":636.40000009537,"correct":true,"confidence":3},{"trial_n":50,"min":87,"max":168,"target":"absent","response":"absent","rt":751.40000009537,"correct":true,"confidence":3},{"trial_n":51,"min":87,"max":168,"target":"present","response":"present","rt":880.90000009537,"correct":true,"confidence":5},{"trial_n":52,"min":88,"max":167,"target":"present","response":"present","rt":1395.5,"correct":true,"confidence":4},{"trial_n":53,"min":88,"max":167,"target":"present","response":"absent","rt":881,"correct":false,"confidence":3},{"trial_n":54,"min":87,"max":168,"target":"absent","response":"absent","rt":856.79999995232,"correct":true,"confidence":3},{"trial_n":55,"min":87,"max":168,"target":"absent","response":"absent","rt":783.70000004768,"correct":true,"confidence":5},{"trial_n":56,"min":88,"max":167,"target":"present","response":"absent","rt":1093.1999998093,"correct":false,"confidence":5},{"trial_n":57,"min":87,"max":168,"target":"present","response":"present","rt":921.59999990463,"correct":true,"confidence":5},{"trial_n":58,"min":87,"max":168,"target":"present","response":"present","rt":787.29999995232,"correct":true,"confidence":5},{"trial_n":59,"min":88,"max":167,"target":"present","response":"absent","rt":811.70000004768,"correct":false,"confidence":5},{"trial_n":60,"min":87,"max":168,"target":"present","response":"present","rt":797.29999995232,"correct":true,"confidence":5},{"trial_n":61,"min":87,"max":168,"target":"absent","response":"absent","rt":1054.5999999046,"correct":true,"confidence":2},{"trial_n":62,"min":88,"max":167,"target":"present","response":"absent","rt":900.19999980927,"correct":false,"confidence":3},{"trial_n":63,"min":87,"max":168,"target":"present","response":"present","rt":923,"correct":true,"confidence":5},{"trial_n":64,"min":87,"max":168,"target":"absent","response":"present","rt":713.80000019073,"correct":false,"confidence":4},{"trial_n":65,"min":86,"max":169,"target":"absent","response":"absent","rt":844.20000004768,"correct":true,"confidence":3},{"trial_n":66,"min":86,"max":169,"target":"present","response":"present","rt":942.40000009537,"correct":true,"confidence":3},{"trial_n":67,"min":87,"max":168,"target":"absent","response":"absent","rt":899.10000014305,"correct":true,"confidence":3},{"trial_n":68,"min":87,"max":168,"target":"absent","response":"absent","rt":705.79999995232,"correct":true,"confidence":3},{"trial_n":69,"min":88,"max":167,"target":"absent","response":"present","rt":722,"correct":false,"confidence":3},{"trial_n":70,"min":87,"max":168,"target":"present","response":"present","rt":976.39999985695,"correct":true,"confidence":4},{"trial_n":71,"min":41,"max":214,"target":"present","response":"present","rt":1309.6000001431,"correct":true,"confidence":-1},{"trial_n":72,"min":41,"max":214,"target":"present","response":"present","rt":283.70000004768,"correct":true,"confidence":-1},{"trial_n":73,"min":57,"max":198,"target":"absent","response":"absent","rt":227,"correct":true,"confidence":-1},{"trial_n":74,"min":57,"max":198,"target":"absent","response":"absent","rt":182.59999990463,"correct":true,"confidence":-1},{"trial_n":75,"min":73,"max":182,"target":"present","response":"present","rt":365.29999995232,"correct":true,"confidence":-1},{"trial_n":76,"min":73,"max":182,"target":"absent","response":"absent","rt":429.5,"correct":true,"confidence":-1},{"trial_n":77,"min":89,"max":166,"target":"absent","response":"absent","rt":445.79999995232,"correct":true,"confidence":-1},{"trial_n":78,"min":89,"max":166,"target":"absent","response":"present","rt":915.20000004768,"correct":false,"confidence":-1},{"trial_n":79,"min":73,"max":182,"target":"present","response":"present","rt":398,"correct":true,"confidence":-1},{"trial_n":80,"min":73,"max":182,"target":"absent","response":"absent","rt":365.80000019073,"correct":true,"confidence":-1},{"trial_n":81,"min":81,"max":174,"target":"present","response":"present","rt":371.40000009537,"correct":true,"confidence":-1},{"trial_n":82,"min":81,"max":174,"target":"present","response":"present","rt":2039,"correct":true,"confidence":-1},{"trial_n":83,"min":89,"max":166,"target":"absent","response":"absent","rt":875.79999995232,"correct":true,"confidence":-1},{"trial_n":84,"min":89,"max":166,"target":"absent","response":"absent","rt":594.80000019073,"correct":true,"confidence":-1},{"trial_n":85,"min":97,"max":158,"target":"absent","response":"absent","rt":549.59999990463,"correct":true,"confidence":-1},{"trial_n":86,"min":97,"max":158,"target":"present","response":"present","rt":321.39999985695,"correct":true,"confidence":-1},{"trial_n":87,"min":105,"max":150,"target":"absent","response":"present","rt":719.70000004768,"correct":false,"confidence":-1},{"trial_n":88,"min":97,"max":158,"target":"absent","response":"absent","rt":473.80000019073,"correct":true,"confidence":-1},{"trial_n":89,"min":97,"max":158,"target":"absent","response":"present","rt":466,"correct":false,"confidence":-1},{"trial_n":90,"min":89,"max":166,"target":"absent","response":"absent","rt":405.59999990463,"correct":true,"confidence":-1},{"trial_n":91,"min":89,"max":166,"target":"absent","response":"present","rt":662.40000009537,"correct":false,"confidence":2},{"trial_n":92,"min":85,"max":170,"target":"present","response":"present","rt":378.29999995232,"correct":true,"confidence":5},{"trial_n":93,"min":85,"max":170,"target":"present","response":"present","rt":478.60000014305,"correct":true,"confidence":3},{"trial_n":94,"min":89,"max":166,"target":"absent","response":"present","rt":1913.2000000477,"correct":false,"confidence":1},{"trial_n":95,"min":85,"max":170,"target":"present","response":"present","rt":344.70000004768,"correct":true,"confidence":3},{"trial_n":96,"min":85,"max":170,"target":"present","response":"present","rt":490.70000004768,"correct":true,"confidence":3},{"trial_n":97,"min":89,"max":166,"target":"absent","response":"absent","rt":1312.5999999046,"correct":true,"confidence":3},{"trial_n":98,"min":89,"max":166,"target":"present","response":"present","rt":1367.0999999046,"correct":true,"confidence":4},{"trial_n":99,"min":93,"max":162,"target":"present","response":"present","rt":301.5,"correct":true,"confidence":4},{"trial_n":100,"min":93,"max":162,"target":"present","response":"present","rt":289.09999990463,"correct":true,"confidence":4},{"trial_n":101,"min":95,"max":160,"target":"present","response":"present","rt":346.20000004768,"correct":true,"confidence":4},{"trial_n":102,"min":95,"max":160,"target":"absent","response":"present","rt":800.20000004768,"correct":false,"confidence":2},{"trial_n":103,"min":93,"max":162,"target":"absent","response":"absent","rt":670.89999985695,"correct":true,"confidence":2},{"trial_n":104,"min":93,"max":162,"target":"absent","response":"absent","rt":599.79999995232,"correct":true,"confidence":1},{"trial_n":105,"min":95,"max":160,"target":"present","response":"absent","rt":1073.4000000954,"correct":false,"confidence":1},{"trial_n":106,"min":93,"max":162,"target":"present","response":"present","rt":324.5,"correct":true,"confidence":4},{"trial_n":107,"min":93,"max":162,"target":"absent","response":"absent","rt":1345.5,"correct":true,"confidence":4},{"trial_n":108,"min":95,"max":160,"target":"absent","response":"present","rt":397.59999990463,"correct":false,"confidence":3},{"trial_n":109,"min":93,"max":162,"target":"present","response":"present","rt":703.10000014305,"correct":true,"confidence":4},{"trial_n":110,"min":93,"max":162,"target":"absent","response":"present","rt":784.79999995232,"correct":false,"confidence":1},{"trial_n":111,"min":92,"max":163,"target":"absent","response":"present","rt":319.29999995232,"correct":false,"confidence":3},{"trial_n":112,"min":91,"max":164,"target":"present","response":"present","rt":249.39999985695,"correct":true,"confidence":3},{"trial_n":113,"min":91,"max":164,"target":"absent","response":"present","rt":1271.4000000954,"correct":false,"confidence":1},{"trial_n":114,"min":90,"max":165,"target":"absent","response":"absent","rt":811.29999995232,"correct":true,"confidence":1},{"trial_n":115,"min":90,"max":165,"target":"present","response":"present","rt":602.39999985695,"correct":true,"confidence":2},{"trial_n":116,"min":91,"max":164,"target":"present","response":"absent","rt":759.29999995232,"correct":false,"confidence":3},{"trial_n":117,"min":90,"max":165,"target":"present","response":"present","rt":281.20000004768,"correct":true,"confidence":3},{"trial_n":118,"min":90,"max":165,"target":"absent","response":"present","rt":792.20000004768,"correct":false,"confidence":1},{"trial_n":119,"min":89,"max":166,"target":"absent","response":"present","rt":553.40000009537,"correct":false,"confidence":1},{"trial_n":120,"min":88,"max":167,"target":"present","response":"present","rt":1105.7000000477,"correct":true,"confidence":1},{"trial_n":121,"min":88,"max":167,"target":"present","response":"present","rt":469.09999990463,"correct":true,"confidence":4},{"trial_n":122,"min":89,"max":166,"target":"present","response":"present","rt":614.90000009537,"correct":true,"confidence":4},{"trial_n":123,"min":89,"max":166,"target":"present","response":"present","rt":150.60000014305,"correct":true,"confidence":5},{"trial_n":124,"min":90,"max":165,"target":"present","response":"absent","rt":1791.4000000954,"correct":false,"confidence":1},{"trial_n":125,"min":89,"max":166,"target":"absent","response":"absent","rt":707.09999990463,"correct":true,"confidence":3},{"trial_n":126,"min":89,"max":166,"target":"absent","response":"present","rt":675.10000014305,"correct":false,"confidence":4},{"trial_n":127,"min":88,"max":167,"target":"present","response":"present","rt":711.40000009537,"correct":true,"confidence":3},{"trial_n":128,"min":88,"max":167,"target":"present","response":"present","rt":186,"correct":true,"confidence":3},{"trial_n":129,"min":89,"max":166,"target":"present","response":"present","rt":210,"correct":true,"confidence":3},{"trial_n":130,"min":89,"max":166,"target":"present","response":"absent","rt":1703.3999998569,"correct":false,"confidence":1},{"trial_n":131,"min":88,"max":167,"target":"absent","response":"absent","rt":678.79999995232,"correct":true,"confidence":3},{"trial_n":132,"min":88,"max":167,"target":"absent","response":"absent","rt":752,"correct":true,"confidence":3},{"trial_n":133,"min":89,"max":166,"target":"present","response":"present","rt":579.5,"correct":true,"confidence":2},{"trial_n":134,"min":89,"max":166,"target":"present","response":"absent","rt":765.30000019073,"correct":false,"confidence":2},{"trial_n":135,"min":88,"max":167,"target":"present","response":"present","rt":300.79999995232,"correct":true,"confidence":1},{"trial_n":136,"min":88,"max":167,"target":"present","response":"present","rt":977.40000009537,"correct":true,"confidence":4},{"trial_n":137,"min":89,"max":166,"target":"absent","response":"absent","rt":658.79999995232,"correct":true,"confidence":3},{"trial_n":138,"min":89,"max":166,"target":"absent","response":"present","rt":606.09999990463,"correct":false,"confidence":1},{"trial_n":139,"min":88,"max":167,"target":"present","response":"present","rt":547.29999995232,"correct":true,"confidence":3},{"trial_n":140,"min":88,"max":167,"target":"absent","response":"present","rt":510.5,"correct":false,"confidence":1}]