[{"trial_n":1,"span":8,"encoder":"45012894","distractor":"45012874","target":"present","response":"present","rt":"6639.299999997","correct":true,"confidence":-1},{"trial_n":2,"span":8,"encoder":"41254405","distractor":"41254485","target":"present","response":"present","rt":"3147.900000006","correct":true,"confidence":-1},{"trial_n":3,"span":10,"encoder":"9364455945","distractor":"9364455941","target":"absent","response":"absent","rt":"4422.5","correct":true,"confidence":-1},{"trial_n":4,"span":10,"encoder":"0073512461","distractor":"0073512464","target":"absent","response":"absent","rt":"4254","correct":true,"confidence":-1},{"trial_n":5,"span":12,"encoder":"661496061858","distractor":"461496061858","target":"present","response":"absent","rt":"4964.900000006","correct":false,"confidence":-1},{"trial_n":6,"span":10,"encoder":"0740518351","distractor":"0760518351","target":"absent","response":"present","rt":"3381.900000006","correct":false,"confidence":-1},{"trial_n":7,"span":8,"encoder":"25142753","distractor":"25142754","target":"present","response":"present","rt":"2515.900000006","correct":true,"confidence":-1},{"trial_n":8,"span":8,"encoder":"59183939","distractor":"59183959","target":"absent","response":"absent","rt":"3927.799999997","correct":true,"confidence":-1},{"trial_n":9,"span":10,"encoder":"3967025004","distractor":"3962025004","target":"present","response":"present","rt":"3717.6000000089","correct":true,"confidence":-1},{"trial_n":10,"span":10,"encoder":"0271630495","distractor":"0571630495","target":"absent","response":"present","rt":"3888.5","correct":false,"confidence":-1},{"trial_n":11,"span":8,"encoder":"19610425","distractor":"19612425","target":"absent","response":"absent","rt":"3059.299999997","correct":true,"confidence":-1},{"trial_n":12,"span":8,"encoder":"92426631","distractor":"92726631","target":"present","response":"present","rt":"3320.1000000089","correct":true,"confidence":-1},{"trial_n":13,"span":9,"encoder":"617622401","distractor":"619622401","target":"present","response":"absent","rt":"4597.6000000089","correct":false,"confidence":-1},{"trial_n":14,"span":8,"encoder":"74684193","distractor":"14684193","target":"absent","response":"absent","rt":"1989.299999997","correct":true,"confidence":-1},{"trial_n":15,"span":8,"encoder":"80787191","distractor":"80785191","target":"absent","response":"present","rt":"5087","correct":false,"confidence":-1},{"trial_n":16,"span":7,"encoder":"4098638","distractor":"4098618","target":"present","response":"absent","rt":"1574.5","correct":false,"confidence":-1},{"trial_n":17,"span":6,"encoder":"279800","distractor":"279700","target":"present","response":"present","rt":"1575","correct":true,"confidence":-1},{"trial_n":18,"span":6,"encoder":"161061","distractor":"661061","target":"absent","response":"absent","rt":"1705.700000003","correct":true,"confidence":-1},{"trial_n":19,"span":7,"encoder":"1021797","distractor":"1021796","target":"present","response":"present","rt":"2736.6000000089","correct":true,"confidence":-1},{"trial_n":20,"span":7,"encoder":"7473456","distractor":"7473656","target":"present","response":"present","rt":"2903.900000006","correct":true,"confidence":-1},{"trial_n":21,"span":8,"encoder":"72399477","distractor":"72399457","target":"present","response":"present","rt":"2476.400000006","correct":true,"confidence":3},{"trial_n":22,"span":8,"encoder":"79580415","distractor":"79500415","target":"present","response":"absent","rt":"4993.1000000089","correct":false,"confidence":3},{"trial_n":23,"span":7,"encoder":"0327513","distractor":"0527513","target":"present","response":"present","rt":"2583.299999997","correct":true,"confidence":4},{"trial_n":24,"span":7,"encoder":"1492308","distractor":"1499308","target":"present","response":"present","rt":"3464.299999997","correct":true,"confidence":3},{"trial_n":25,"span":8,"encoder":"89529669","distractor":"89529668","target":"absent","response":"absent","rt":"2580.700000003","correct":true,"confidence":4},{"trial_n":26,"span":8,"encoder":"51039501","distractor":"51039503","target":"present","response":"present","rt":"3608.3999999911","correct":true,"confidence":3},{"trial_n":27,"span":9,"encoder":"088654606","distractor":"488654606","target":"absent","response":"absent","rt":"4066.8000000119","correct":true,"confidence":3},{"trial_n":28,"span":9,"encoder":"610616495","distractor":"660616495","target":"present","response":"present","rt":"3894.8000000119","correct":true,"confidence":3},{"trial_n":29,"span":10,"encoder":"6579525065","distractor":"6579125065","target":"present","response":"present","rt":"4953.5","correct":true,"confidence":3},{"trial_n":30,"span":10,"encoder":"4816280254","distractor":"4616280254","target":"absent","response":"present","rt":"4459.3999999911","correct":false,"confidence":3},{"trial_n":31,"span":9,"encoder":"726746256","distractor":"726446256","target":"present","response":"absent","rt":"3817.1000000089","correct":false,"confidence":3},{"trial_n":32,"span":8,"encoder":"18925088","distractor":"18925288","target":"absent","response":"absent","rt":"3197.200000003","correct":true,"confidence":3},{"trial_n":33,"span":8,"encoder":"41994562","distractor":"41994962","target":"absent","response":"present","rt":"1995.299999997","correct":false,"confidence":3},{"trial_n":34,"span":7,"encoder":"9460770","distractor":"3460770","target":"absent","response":"present","rt":"2773.8999999911","correct":false,"confidence":3},{"trial_n":35,"span":6,"encoder":"695227","distractor":"696227","target":"present","response":"present","rt":"2092.5","correct":true,"confidence":4},{"trial_n":36,"span":6,"encoder":"604879","distractor":"603879","target":"present","response":"present","rt":"2294.299999997","correct":true,"confidence":4},{"trial_n":37,"span":7,"encoder":"8398067","distractor":"8398065","target":"present","response":"present","rt":"3003.099999994","correct":true,"confidence":3},{"trial_n":38,"span":7,"encoder":"1821700","distractor":"1821704","target":"present","response":"present","rt":"2443","correct":true,"confidence":4},{"trial_n":39,"span":8,"encoder":"18325524","distractor":"18325529","target":"absent","response":"absent","rt":"3593.799999997","correct":true,"confidence":3},{"trial_n":40,"span":8,"encoder":"90445898","distractor":"90345898","target":"absent","response":"absent","rt":"2408.099999994","correct":true,"confidence":4},{"trial_n":41,"span":9,"encoder":"299709494","distractor":"299789494","target":"absent","response":"absent","rt":"2428.200000003","correct":true,"confidence":4},{"trial_n":42,"span":9,"encoder":"978257763","distractor":"978257463","target":"present","response":"present","rt":"3032.400000006","correct":true,"confidence":3},{"trial_n":43,"span":10,"encoder":"8997281258","distractor":"8995281258","target":"absent","response":"present","rt":"2832.700000003","correct":false,"confidence":3},{"trial_n":44,"span":9,"encoder":"753069870","distractor":"757069870","target":"present","response":"absent","rt":"2346.200000003","correct":false,"confidence":3},{"trial_n":45,"span":8,"encoder":"53777947","distractor":"53377947","target":"present","response":"absent","rt":"4316.200000003","correct":false,"confidence":2},{"trial_n":46,"span":7,"encoder":"6685358","distractor":"6985358","target":"absent","response":"present","rt":"2746.799999997","correct":false,"confidence":2},{"trial_n":47,"span":6,"encoder":"857247","distractor":"857242","target":"present","response":"present","rt":"2038.6000000089","correct":true,"confidence":4},{"trial_n":48,"span":6,"encoder":"728353","distractor":"728303","target":"present","response":"present","rt":"2149.700000003","correct":true,"confidence":4},{"trial_n":49,"span":7,"encoder":"2486701","distractor":"2486201","target":"absent","response":"absent","rt":"2716.5","correct":true,"confidence":3},{"trial_n":50,"span":7,"encoder":"5243124","distractor":"9243124","target":"absent","response":"absent","rt":"1558.400000006","correct":true,"confidence":3},{"trial_n":51,"span":8,"encoder":"01864366","distractor":"01664366","target":"absent","response":"absent","rt":"2054.6000000089","correct":true,"confidence":4},{"trial_n":52,"span":8,"encoder":"90353204","distractor":"30353204","target":"present","response":"present","rt":"2617.299999997","correct":true,"confidence":3},{"trial_n":53,"span":9,"encoder":"110641103","distractor":"114641103","target":"absent","response":"absent","rt":"2481.5","correct":true,"confidence":4},{"trial_n":54,"span":9,"encoder":"819771764","distractor":"819791764","target":"absent","response":"present","rt":"2966.6000000089","correct":false,"confidence":2},{"trial_n":55,"span":8,"encoder":"51154764","distractor":"58154764","target":"absent","response":"absent","rt":"2754.200000003","correct":true,"confidence":2},{"trial_n":56,"span":8,"encoder":"46293345","distractor":"46293315","target":"present","response":"absent","rt":"3677.5","correct":false,"confidence":3},{"trial_n":57,"span":7,"encoder":"9089585","distractor":"9089580","target":"present","response":"absent","rt":"2910.799999997","correct":false,"confidence":2},{"trial_n":58,"span":6,"encoder":"005561","distractor":"095561","target":"present","response":"present","rt":"1923.299999997","correct":true,"confidence":4},{"trial_n":59,"span":6,"encoder":"941172","distractor":"971172","target":"present","response":"present","rt":"2000","correct":true,"confidence":4},{"trial_n":60,"span":7,"encoder":"2059688","distractor":"2059678","target":"present","response":"present","rt":"2531.3999999911","correct":true,"confidence":4},{"trial_n":61,"span":7,"encoder":"0063006","distractor":"0063004","target":"absent","response":"absent","rt":"3123.5","correct":true,"confidence":3},{"trial_n":62,"span":8,"encoder":"36250968","distractor":"36250938","target":"absent","response":"absent","rt":"2044.299999997","correct":true,"confidence":4},{"trial_n":63,"span":8,"encoder":"62648895","distractor":"62648595","target":"absent","response":"absent","rt":"1665.400000006","correct":true,"confidence":4},{"trial_n":64,"span":9,"encoder":"804532023","distractor":"801532023","target":"absent","response":"present","rt":"4673.099999994","correct":false,"confidence":3},{"trial_n":65,"span":8,"encoder":"53035015","distractor":"53735015","target":"present","response":"present","rt":"3753.099999994","correct":true,"confidence":3},{"trial_n":66,"span":8,"encoder":"01396905","distractor":"01396925","target":"present","response":"present","rt":"2820.200000003","correct":true,"confidence":3},{"trial_n":67,"span":9,"encoder":"227025176","distractor":"257025176","target":"absent","response":"absent","rt":"5739.8999999911","correct":true,"confidence":3},{"trial_n":68,"span":9,"encoder":"293417077","distractor":"283417077","target":"absent","response":"absent","rt":"2881.1000000089","correct":true,"confidence":3},{"trial_n":69,"span":10,"encoder":"9143333943","distractor":"9143363943","target":"absent","response":"absent","rt":"2038.700000003","correct":true,"confidence":4},{"trial_n":70,"span":10,"encoder":"5026328008","distractor":"5026358008","target":"absent","response":"present","rt":"2141.8999999911","correct":false,"confidence":2},{"trial_n":71,"span":8,"encoder":"99908658","distractor":"97908658","target":"present","response":"present","rt":"5255.900000006","correct":true,"confidence":-1},{"trial_n":72,"span":8,"encoder":"91785154","distractor":"98785154","target":"present","response":"absent","rt":"6650.8000000119","correct":false,"confidence":-1},{"trial_n":73,"span":7,"encoder":"4582159","distractor":"4582151","target":"absent","response":"absent","rt":"2811.900000006","correct":true,"confidence":-1},{"trial_n":74,"span":7,"encoder":"0969037","distractor":"0969737","target":"absent","response":"absent","rt":"2492.200000003","correct":true,"confidence":-1},{"trial_n":75,"span":8,"encoder":"52325173","distractor":"54325173","target":"present","response":"present","rt":"5363.299999997","correct":true,"confidence":-1},{"trial_n":76,"span":8,"encoder":"29942264","distractor":"29942164","target":"present","response":"absent","rt":"4766.8999999911","correct":false,"confidence":-1},{"trial_n":77,"span":7,"encoder":"7731131","distractor":"7731031","target":"present","response":"present","rt":"3468.1999999881","correct":true,"confidence":-1},{"trial_n":78,"span":7,"encoder":"1668950","distractor":"0668950","target":"absent","response":"absent","rt":"1521.299999997","correct":true,"confidence":-1},{"trial_n":79,"span":8,"encoder":"96621771","distractor":"96611771","target":"present","response":"present","rt":"3455.700000003","correct":true,"confidence":-1},{"trial_n":80,"span":8,"encoder":"87737933","distractor":"87737938","target":"present","response":"present","rt":"1517.299999997","correct":true,"confidence":-1},{"trial_n":81,"span":9,"encoder":"123662128","distractor":"126662128","target":"absent","response":"absent","rt":"1315.799999997","correct":true,"confidence":-1},{"trial_n":82,"span":9,"encoder":"258273299","distractor":"258273298","target":"present","response":"present","rt":"4675","correct":true,"confidence":-1},{"trial_n":83,"span":10,"encoder":"8444607336","distractor":"8444687336","target":"absent","response":"present","rt":"5784.1000000089","correct":false,"confidence":-1},{"trial_n":84,"span":9,"encoder":"691452301","distractor":"695452301","target":"absent","response":"absent","rt":"3019.799999997","correct":true,"confidence":-1},{"trial_n":85,"span":9,"encoder":"485491351","distractor":"485491359","target":"absent","response":"absent","rt":"1708.3000000119","correct":true,"confidence":-1},{"trial_n":86,"span":10,"encoder":"1913071273","distractor":"1943071273","target":"absent","response":"absent","rt":"5397.599999994","correct":true,"confidence":-1},{"trial_n":87,"span":10,"encoder":"1569533050","distractor":"1569533000","target":"present","response":"present","rt":"1688.299999997","correct":true,"confidence":-1},{"trial_n":88,"span":11,"encoder":"45822423113","distractor":"45822423123","target":"absent","response":"absent","rt":"1869.3999999911","correct":true,"confidence":-1},{"trial_n":89,"span":11,"encoder":"61846376674","distractor":"61846396674","target":"absent","response":"present","rt":"5173.1000000089","correct":false,"confidence":-1},{"trial_n":90,"span":10,"encoder":"1379685300","distractor":"1379885300","target":"absent","response":"absent","rt":"3892.099999994","correct":true,"confidence":-1},{"trial_n":91,"span":10,"encoder":"6171729562","distractor":"6171329562","target":"absent","response":"present","rt":"4903.599999994","correct":false,"confidence":3},{"trial_n":92,"span":9,"encoder":"563556292","distractor":"563550292","target":"present","response":"present","rt":"8112.599999994","correct":true,"confidence":2},{"trial_n":93,"span":9,"encoder":"903811170","distractor":"903811180","target":"present","response":"present","rt":"2475.200000003","correct":true,"confidence":4},{"trial_n":94,"span":10,"encoder":"3622125175","distractor":"3622195175","target":"absent","response":"absent","rt":"3683.3999999911","correct":true,"confidence":4},{"trial_n":95,"span":10,"encoder":"9452628940","distractor":"9457628940","target":"present","response":"absent","rt":"6975.8000000119","correct":false,"confidence":2},{"trial_n":96,"span":9,"encoder":"186978913","distractor":"186978813","target":"present","response":"present","rt":"2288","correct":true,"confidence":4},{"trial_n":97,"span":9,"encoder":"652161751","distractor":"622161751","target":"absent","response":"absent","rt":"5672.200000003","correct":true,"confidence":2},{"trial_n":98,"span":10,"encoder":"5643424740","distractor":"5644424740","target":"present","response":"present","rt":"3567.3000000119","correct":true,"confidence":3},{"trial_n":99,"span":10,"encoder":"9160104310","distractor":"9160107310","target":"present","response":"present","rt":"5983","correct":true,"confidence":2},{"trial_n":100,"span":11,"encoder":"97735908286","distractor":"97785908286","target":"present","response":"absent","rt":"6432.900000006","correct":false,"confidence":1},{"trial_n":101,"span":10,"encoder":"3531748460","distractor":"3531748468","target":"present","response":"present","rt":"1947.900000006","correct":true,"confidence":4},{"trial_n":102,"span":10,"encoder":"6375870188","distractor":"6375870128","target":"absent","response":"absent","rt":"2149","correct":true,"confidence":5},{"trial_n":103,"span":11,"encoder":"77217983618","distractor":"77217083618","target":"present","response":"absent","rt":"6512.3000000119","correct":false,"confidence":2},{"trial_n":104,"span":10,"encoder":"5206954665","distractor":"5206554665","target":"absent","response":"absent","rt":"5932.700000003","correct":true,"confidence":2},{"trial_n":105,"span":10,"encoder":"4682233058","distractor":"4682933058","target":"absent","response":"absent","rt":"4815.400000006","correct":true,"confidence":1},{"trial_n":106,"span":11,"encoder":"24998336461","distractor":"64998336461","target":"present","response":"present","rt":"17846.5","correct":true,"confidence":2},{"trial_n":107,"span":11,"encoder":"43905259393","distractor":"45905259393","target":"present","response":"present","rt":"4203.3999999911","correct":true,"confidence":2},{"trial_n":108,"span":12,"encoder":"590711969071","distractor":"590711964071","target":"present","response":"present","rt":"3684","correct":true,"confidence":4},{"trial_n":109,"span":12,"encoder":"876681475407","distractor":"872681475407","target":"present","response":"present","rt":"5196.6000000089","correct":true,"confidence":3},{"trial_n":110,"span":13,"encoder":"4429131219200","distractor":"4229131219200","target":"present","response":"absent","rt":"9314.8999999911","correct":false,"confidence":2},{"trial_n":111,"span":12,"encoder":"071232658308","distractor":"071202658308","target":"absent","response":"absent","rt":"2246","correct":true,"confidence":4},{"trial_n":112,"span":12,"encoder":"057405026961","distractor":"077405026961","target":"present","response":"present","rt":"3630","correct":true,"confidence":3},{"trial_n":113,"span":13,"encoder":"9437637777212","distractor":"9437637771212","target":"present","response":"absent","rt":"5542.299999997","correct":false,"confidence":2},{"trial_n":114,"span":12,"encoder":"955716576489","distractor":"255716576489","target":"absent","response":"present","rt":"6783.599999994","correct":false,"confidence":1},{"trial_n":115,"span":11,"encoder":"19510187837","distractor":"19510147837","target":"absent","response":"absent","rt":"3914.299999997","correct":true,"confidence":3},{"trial_n":116,"span":11,"encoder":"51682821573","distractor":"51682821513","target":"present","response":"present","rt":"3229","correct":true,"confidence":3},{"trial_n":117,"span":12,"encoder":"016972460856","distractor":"016972460356","target":"absent","response":"absent","rt":"3556.3000000119","correct":true,"confidence":3},{"trial_n":118,"span":12,"encoder":"361147351082","distractor":"371147351082","target":"present","response":"present","rt":"4445.700000003","correct":true,"confidence":2},{"trial_n":119,"span":13,"encoder":"2088706886958","distractor":"2088704886958","target":"present","response":"present","rt":"8410.3000000119","correct":true,"confidence":2},{"trial_n":120,"span":13,"encoder":"1780721160611","distractor":"1780711160611","target":"present","response":"present","rt":"3759.799999997","correct":true,"confidence":2},{"trial_n":121,"span":14,"encoder":"51841378558149","distractor":"51801378558149","target":"absent","response":"present","rt":"5734.799999997","correct":false,"confidence":2},{"trial_n":122,"span":13,"encoder":"6409065281229","distractor":"6409065081229","target":"absent","response":"absent","rt":"6259.5","correct":true,"confidence":2},{"trial_n":123,"span":13,"encoder":"5387725457147","distractor":"5387729457147","target":"absent","response":"absent","rt":"7734","correct":true,"confidence":3},{"trial_n":124,"span":14,"encoder":"52262308092656","distractor":"52262308092650","target":"absent","response":"present","rt":"6513","correct":false,"confidence":2},{"trial_n":125,"span":13,"encoder":"3828005887379","distractor":"3823005887379","target":"present","response":"absent","rt":"5919.5","correct":false,"confidence":2},{"trial_n":126,"span":12,"encoder":"215341245972","distractor":"215391245972","target":"absent","response":"absent","rt":"4229.900000006","correct":true,"confidence":1},{"trial_n":127,"span":12,"encoder":"899013139758","distractor":"899011139758","target":"present","response":"present","rt":"5715.5","correct":true,"confidence":2},{"trial_n":128,"span":13,"encoder":"0936797781940","distractor":"0936297781940","target":"present","response":"present","rt":"6940","correct":true,"confidence":2},{"trial_n":129,"span":13,"encoder":"0209794293377","distractor":"0209791293377","target":"absent","response":"present","rt":"7451","correct":false,"confidence":1},{"trial_n":130,"span":12,"encoder":"455363282634","distractor":"455363292634","target":"absent","response":"absent","rt":"7687.6999999881","correct":true,"confidence":2},{"trial_n":131,"span":12,"encoder":"632697724826","distractor":"632797724826","target":"absent","response":"present","rt":"4171.1000000089","correct":false,"confidence":2},{"trial_n":132,"span":11,"encoder":"85287002340","distractor":"85297002340","target":"present","response":"absent","rt":"7168","correct":false,"confidence":1},{"trial_n":133,"span":10,"encoder":"4766946793","distractor":"4766944793","target":"absent","response":"absent","rt":"7590.400000006","correct":true,"confidence":2},{"trial_n":134,"span":10,"encoder":"1551909181","distractor":"1550909181","target":"present","response":"present","rt":"10735.100000009","correct":true,"confidence":4},{"trial_n":135,"span":11,"encoder":"42932553390","distractor":"42932513390","target":"absent","response":"absent","rt":"3859.3000000119","correct":true,"confidence":3},{"trial_n":136,"span":11,"encoder":"90003592616","distractor":"90903592616","target":"absent","response":"absent","rt":"2781","correct":true,"confidence":3},{"trial_n":137,"span":12,"encoder":"707870432802","distractor":"707870632802","target":"present","response":"present","rt":"5325.799999997","correct":true,"confidence":2},{"trial_n":138,"span":12,"encoder":"906750745710","distractor":"904750745710","target":"present","response":"present","rt":"4675.400000006","correct":true,"confidence":2},{"trial_n":139,"span":13,"encoder":"1815438129970","distractor":"1815438129940","target":"absent","response":"absent","rt":"2403.799999997","correct":true,"confidence":4},{"trial_n":140,"span":13,"encoder":"8211860350681","distractor":"8211860750681","target":"absent","response":"absent","rt":"9112.299999997","correct":true,"confidence":1}]