[{"trial_n":1,"span":8,"encoder":"29268012","distractor":"29268112","target":"present","response":"present","rt":"4051","correct":true,"confidence":-1},{"trial_n":2,"span":8,"encoder":"12991726","distractor":"14991726","target":"present","response":"present","rt":"3797.1999998093","correct":true,"confidence":-1},{"trial_n":3,"span":10,"encoder":"7835011109","distractor":"7835011100","target":"absent","response":"absent","rt":"3009","correct":true,"confidence":-1},{"trial_n":4,"span":10,"encoder":"6259883173","distractor":"6259833173","target":"absent","response":"present","rt":"3189.5","correct":false,"confidence":-1},{"trial_n":5,"span":8,"encoder":"55219895","distractor":"55219805","target":"present","response":"present","rt":"2415.8999998569","correct":true,"confidence":-1},{"trial_n":6,"span":8,"encoder":"39907145","distractor":"39907745","target":"absent","response":"absent","rt":"3585.4000000954","correct":true,"confidence":-1},{"trial_n":7,"span":10,"encoder":"6346997514","distractor":"6346987514","target":"absent","response":"present","rt":"3011.8999998569","correct":false,"confidence":-1},{"trial_n":8,"span":8,"encoder":"25628633","distractor":"25628733","target":"absent","response":"absent","rt":"3056","correct":true,"confidence":-1},{"trial_n":9,"span":8,"encoder":"45270788","distractor":"45270748","target":"present","response":"present","rt":"2758.3999998569","correct":true,"confidence":-1},{"trial_n":10,"span":10,"encoder":"4002798345","distractor":"4002098345","target":"present","response":"absent","rt":"2753.4000000954","correct":false,"confidence":-1},{"trial_n":11,"span":8,"encoder":"99143402","distractor":"99143802","target":"present","response":"present","rt":"2925.7999999523","correct":true,"confidence":-1},{"trial_n":12,"span":8,"encoder":"54494333","distractor":"94494333","target":"present","response":"present","rt":"2438.2999999523","correct":true,"confidence":-1},{"trial_n":13,"span":9,"encoder":"397140127","distractor":"397240127","target":"absent","response":"present","rt":"2179.3999998569","correct":false,"confidence":-1},{"trial_n":14,"span":8,"encoder":"28607207","distractor":"20607207","target":"present","response":"present","rt":"3309.7000000477","correct":true,"confidence":-1},{"trial_n":15,"span":8,"encoder":"66350313","distractor":"66350373","target":"absent","response":"absent","rt":"3327.5","correct":true,"confidence":-1},{"trial_n":16,"span":9,"encoder":"277489849","distractor":"237489849","target":"absent","response":"present","rt":"4070.7000000477","correct":false,"confidence":-1},{"trial_n":17,"span":8,"encoder":"38727110","distractor":"38327110","target":"absent","response":"present","rt":"3063.7999999523","correct":false,"confidence":-1},{"trial_n":18,"span":7,"encoder":"7616462","distractor":"9616462","target":"absent","response":"absent","rt":"4637.4000000954","correct":true,"confidence":-1},{"trial_n":19,"span":7,"encoder":"7702826","distractor":"7702823","target":"present","response":"present","rt":"3002.5","correct":true,"confidence":-1},{"trial_n":20,"span":8,"encoder":"86549897","distractor":"86559897","target":"present","response":"present","rt":"4947.6000001431","correct":true,"confidence":-1},{"trial_n":21,"span":8,"encoder":"40078305","distractor":"43078305","target":"absent","response":"present","rt":"4481.2000000477","correct":false,"confidence":4},{"trial_n":22,"span":7,"encoder":"8218202","distractor":"8218207","target":"present","response":"present","rt":"2940","correct":true,"confidence":5},{"trial_n":23,"span":7,"encoder":"5440831","distractor":"5840831","target":"absent","response":"present","rt":"2835.4000000954","correct":false,"confidence":5},{"trial_n":24,"span":6,"encoder":"843434","distractor":"743434","target":"absent","response":"absent","rt":"1918.1999998093","correct":true,"confidence":5},{"trial_n":25,"span":6,"encoder":"950094","distractor":"953094","target":"present","response":"present","rt":"2258.9000000954","correct":true,"confidence":4},{"trial_n":26,"span":7,"encoder":"4574679","distractor":"4274679","target":"absent","response":"absent","rt":"3814.4000000954","correct":true,"confidence":4},{"trial_n":27,"span":7,"encoder":"5113836","distractor":"5111836","target":"present","response":"present","rt":"2794.8000001907","correct":true,"confidence":3},{"trial_n":28,"span":8,"encoder":"16217821","distractor":"76217821","target":"present","response":"present","rt":"2471.5999999046","correct":true,"confidence":5},{"trial_n":29,"span":8,"encoder":"70618392","distractor":"70618892","target":"present","response":"present","rt":"2138.0999999046","correct":true,"confidence":5},{"trial_n":30,"span":9,"encoder":"857740466","distractor":"857740446","target":"absent","response":"absent","rt":"3403.9000000954","correct":true,"confidence":2},{"trial_n":31,"span":9,"encoder":"857887385","distractor":"857887365","target":"present","response":"present","rt":"3547.7999999523","correct":true,"confidence":1},{"trial_n":32,"span":10,"encoder":"2571911353","distractor":"2577911353","target":"present","response":"present","rt":"3595.9000000954","correct":true,"confidence":4},{"trial_n":33,"span":10,"encoder":"7324651438","distractor":"0324651438","target":"present","response":"present","rt":"3882.5999999046","correct":true,"confidence":2},{"trial_n":34,"span":11,"encoder":"20604907638","distractor":"20604907608","target":"absent","response":"absent","rt":"1676.8999998569","correct":true,"confidence":2},{"trial_n":35,"span":11,"encoder":"91282050490","distractor":"91222050490","target":"absent","response":"absent","rt":"4838.7000000477","correct":true,"confidence":3},{"trial_n":36,"span":12,"encoder":"666681043723","distractor":"666681243723","target":"present","response":"present","rt":"2838.7999999523","correct":true,"confidence":4},{"trial_n":37,"span":12,"encoder":"749112929940","distractor":"749112923940","target":"present","response":"absent","rt":"3390.9000000954","correct":false,"confidence":3},{"trial_n":38,"span":11,"encoder":"54430557621","distractor":"54430557651","target":"absent","response":"absent","rt":"3503.5999999046","correct":true,"confidence":4},{"trial_n":39,"span":11,"encoder":"89339581960","distractor":"79339581960","target":"absent","response":"absent","rt":"1929.4000000954","correct":true,"confidence":2},{"trial_n":40,"span":12,"encoder":"575701510847","distractor":"535701510847","target":"absent","response":"absent","rt":"2769.4000000954","correct":true,"confidence":4},{"trial_n":41,"span":12,"encoder":"146377695875","distractor":"141377695875","target":"present","response":"present","rt":"3443.2999999523","correct":true,"confidence":2},{"trial_n":42,"span":13,"encoder":"0067348560252","distractor":"0067340560252","target":"present","response":"absent","rt":"2215","correct":false,"confidence":3},{"trial_n":43,"span":12,"encoder":"365150595427","distractor":"365150995427","target":"absent","response":"absent","rt":"2655.7000000477","correct":true,"confidence":3},{"trial_n":44,"span":12,"encoder":"166272520380","distractor":"166278520380","target":"absent","response":"present","rt":"3985.8999998569","correct":false,"confidence":2},{"trial_n":45,"span":11,"encoder":"23942096973","distractor":"23942096673","target":"present","response":"present","rt":"4701.5999999046","correct":true,"confidence":3},{"trial_n":46,"span":11,"encoder":"68340417105","distractor":"68390417105","target":"absent","response":"absent","rt":"3215.7000000477","correct":true,"confidence":3},{"trial_n":47,"span":12,"encoder":"182642908228","distractor":"182642902228","target":"present","response":"present","rt":"3251.7000000477","correct":true,"confidence":4},{"trial_n":48,"span":12,"encoder":"261375522157","distractor":"261375532157","target":"present","response":"present","rt":"7881.2000000477","correct":true,"confidence":4},{"trial_n":49,"span":13,"encoder":"2647928513962","distractor":"2647928513961","target":"present","response":"absent","rt":"5592","correct":false,"confidence":3},{"trial_n":50,"span":12,"encoder":"663076031570","distractor":"663078031570","target":"absent","response":"absent","rt":"4553.6000001431","correct":true,"confidence":2},{"trial_n":51,"span":12,"encoder":"094575466765","distractor":"094575466775","target":"absent","response":"absent","rt":"2450.2000000477","correct":true,"confidence":5},{"trial_n":52,"span":13,"encoder":"2743338941725","distractor":"2743338741725","target":"absent","response":"absent","rt":"3511","correct":true,"confidence":4},{"trial_n":53,"span":13,"encoder":"3727437751182","distractor":"3727437721182","target":"present","response":"present","rt":"4410","correct":true,"confidence":4},{"trial_n":54,"span":14,"encoder":"33129118904757","distractor":"33129118904750","target":"present","response":"present","rt":"6001.7999999523","correct":true,"confidence":5},{"trial_n":55,"span":14,"encoder":"97758581781390","distractor":"97758583781390","target":"absent","response":"absent","rt":"6076.2000000477","correct":true,"confidence":3},{"trial_n":56,"span":15,"encoder":"292339099282658","distractor":"292339099222658","target":"present","response":"present","rt":"3859.2000000477","correct":true,"confidence":4},{"trial_n":57,"span":15,"encoder":"566001981517436","distractor":"569001981517436","target":"present","response":"present","rt":"3951.3999998569","correct":true,"confidence":2},{"trial_n":58,"span":16,"encoder":"6654090140309392","distractor":"6654090140309692","target":"present","response":"present","rt":"9460.6999998093","correct":true,"confidence":3},{"trial_n":59,"span":16,"encoder":"8403514827009051","distractor":"8403511827009051","target":"absent","response":"absent","rt":"6675.4000000954","correct":true,"confidence":1},{"trial_n":60,"span":17,"encoder":"53136698381475128","distractor":"53136698381475158","target":"present","response":"present","rt":"4706.5","correct":true,"confidence":2},{"trial_n":61,"span":17,"encoder":"82639744227964966","distractor":"82609744227964966","target":"present","response":"absent","rt":"2660.5","correct":false,"confidence":5},{"trial_n":62,"span":16,"encoder":"8345897612557808","distractor":"8345897642557808","target":"present","response":"present","rt":"4055.5","correct":true,"confidence":3},{"trial_n":63,"span":16,"encoder":"1902527257985941","distractor":"1902527257975941","target":"absent","response":"present","rt":"2878.5","correct":false,"confidence":2},{"trial_n":64,"span":15,"encoder":"984650152850501","distractor":"984650652850501","target":"absent","response":"present","rt":"6159.5","correct":false,"confidence":4},{"trial_n":65,"span":14,"encoder":"28688628745672","distractor":"29688628745672","target":"absent","response":"present","rt":"2769.6999998093","correct":false,"confidence":4},{"trial_n":66,"span":13,"encoder":"9372027153336","distractor":"9372627153336","target":"absent","response":"absent","rt":"4334.3000001907","correct":true,"confidence":5},{"trial_n":67,"span":13,"encoder":"3014798106226","distractor":"3018798106226","target":"absent","response":"present","rt":"3897.5","correct":false,"confidence":5},{"trial_n":68,"span":12,"encoder":"332298579749","distractor":"330298579749","target":"absent","response":"present","rt":"4360.1000001431","correct":false,"confidence":4},{"trial_n":69,"span":11,"encoder":"28251561859","distractor":"28256561859","target":"present","response":"present","rt":"4849.3000001907","correct":true,"confidence":3},{"trial_n":70,"span":11,"encoder":"33619549343","distractor":"33689549343","target":"present","response":"present","rt":"6882.4000000954","correct":true,"confidence":3},{"trial_n":71,"span":8,"encoder":"03558143","distractor":"03558148","target":"present","response":"present","rt":"4091.7000000477","correct":true,"confidence":-1},{"trial_n":72,"span":8,"encoder":"05646202","distractor":"05643202","target":"present","response":"present","rt":"4995.4000000954","correct":true,"confidence":-1},{"trial_n":73,"span":9,"encoder":"598366505","distractor":"598366565","target":"absent","response":"absent","rt":"2244.0999999046","correct":true,"confidence":-1},{"trial_n":74,"span":9,"encoder":"194656860","distractor":"199656860","target":"absent","response":"absent","rt":"4959.2000000477","correct":true,"confidence":-1},{"trial_n":75,"span":10,"encoder":"2128469170","distractor":"2128469172","target":"present","response":"present","rt":"1733.7999999523","correct":true,"confidence":-1},{"trial_n":76,"span":10,"encoder":"8054375187","distractor":"8054375181","target":"present","response":"present","rt":"1579.6000001431","correct":true,"confidence":-1},{"trial_n":77,"span":11,"encoder":"60338446608","distractor":"60338436608","target":"present","response":"present","rt":"5478.9000000954","correct":true,"confidence":-1},{"trial_n":78,"span":11,"encoder":"87227582756","distractor":"87227482756","target":"present","response":"present","rt":"4048.7999999523","correct":true,"confidence":-1},{"trial_n":79,"span":12,"encoder":"395364194302","distractor":"395364194372","target":"present","response":"present","rt":"2975","correct":true,"confidence":-1},{"trial_n":80,"span":12,"encoder":"777920515106","distractor":"777920512106","target":"absent","response":"present","rt":"9070","correct":false,"confidence":-1},{"trial_n":81,"span":11,"encoder":"45423986061","distractor":"45473986061","target":"absent","response":"absent","rt":"4823.2000000477","correct":true,"confidence":-1},{"trial_n":82,"span":11,"encoder":"55070356198","distractor":"65070356198","target":"absent","response":"absent","rt":"5569.0999999046","correct":true,"confidence":-1},{"trial_n":83,"span":12,"encoder":"409932064941","distractor":"409992064941","target":"present","response":"present","rt":"5556.3999998569","correct":true,"confidence":-1},{"trial_n":84,"span":12,"encoder":"863769338260","distractor":"863769138260","target":"present","response":"present","rt":"5064","correct":true,"confidence":-1},{"trial_n":85,"span":13,"encoder":"0757316177550","distractor":"0752316177550","target":"present","response":"present","rt":"7112.7999999523","correct":true,"confidence":-1},{"trial_n":86,"span":13,"encoder":"6550266647618","distractor":"6550066647618","target":"absent","response":"present","rt":"5611.1000001431","correct":false,"confidence":-1},{"trial_n":87,"span":12,"encoder":"684263112130","distractor":"684263612130","target":"absent","response":"absent","rt":"2961.0999999046","correct":true,"confidence":-1},{"trial_n":88,"span":12,"encoder":"781465837506","distractor":"781465837586","target":"absent","response":"absent","rt":"2165.2000000477","correct":true,"confidence":-1},{"trial_n":89,"span":13,"encoder":"7870159199217","distractor":"7870159199257","target":"present","response":"present","rt":"2295.3999998569","correct":true,"confidence":-1},{"trial_n":90,"span":13,"encoder":"0780804973320","distractor":"0780804903320","target":"present","response":"present","rt":"8653.8000001907","correct":true,"confidence":-1},{"trial_n":91,"span":14,"encoder":"98374417127278","distractor":"98374417187278","target":"present","response":"present","rt":"4655.9000000954","correct":true,"confidence":3},{"trial_n":92,"span":14,"encoder":"37703893470202","distractor":"37773893470202","target":"absent","response":"absent","rt":"3891.2000000477","correct":true,"confidence":4},{"trial_n":93,"span":15,"encoder":"244312122981717","distractor":"244312122281717","target":"absent","response":"absent","rt":"2785.0999999046","correct":true,"confidence":5},{"trial_n":94,"span":15,"encoder":"960291224415849","distractor":"960290224415849","target":"present","response":"present","rt":"6795.2000000477","correct":true,"confidence":4},{"trial_n":95,"span":16,"encoder":"2420296725249822","distractor":"2420226725249822","target":"present","response":"present","rt":"12872.699999809","correct":true,"confidence":3},{"trial_n":96,"span":16,"encoder":"5321448952243154","distractor":"5321448952843154","target":"present","response":"present","rt":"6301.5999999046","correct":true,"confidence":4},{"trial_n":97,"span":17,"encoder":"86809094655164674","distractor":"86809094055164674","target":"present","response":"present","rt":"6624.2000000477","correct":true,"confidence":3},{"trial_n":98,"span":17,"encoder":"59113834086876948","distractor":"59193834086876948","target":"absent","response":"absent","rt":"14453.100000143","correct":true,"confidence":2},{"trial_n":99,"span":18,"encoder":"362396791495026464","distractor":"362396731495026464","target":"absent","response":"absent","rt":"14429.400000095","correct":true,"confidence":1},{"trial_n":100,"span":18,"encoder":"773259167450132617","distractor":"773259167470132617","target":"present","response":"present","rt":"8968.4000000954","correct":true,"confidence":4},{"trial_n":101,"span":19,"encoder":"9983318624345017563","distractor":"9983318624345047563","target":"present","response":"absent","rt":"14688.799999952","correct":false,"confidence":3},{"trial_n":102,"span":18,"encoder":"337603547676232077","distractor":"337603597676232077","target":"present","response":"present","rt":"11277.900000095","correct":true,"confidence":2},{"trial_n":103,"span":18,"encoder":"630487288844933897","distractor":"630487288344933897","target":"present","response":"present","rt":"11346.700000048","correct":true,"confidence":5},{"trial_n":104,"span":19,"encoder":"9295497017465435913","distractor":"9995497017465435913","target":"absent","response":"absent","rt":"10550.200000048","correct":true,"confidence":2},{"trial_n":105,"span":19,"encoder":"3456922303638430244","distractor":"3456922303638433244","target":"present","response":"present","rt":"6793.9000000954","correct":true,"confidence":3},{"trial_n":106,"span":20,"encoder":"74543972138721948346","distractor":"74543972139721948346","target":"absent","response":"present","rt":"7797.5","correct":false,"confidence":2},{"trial_n":107,"span":19,"encoder":"8391876035669059694","distractor":"8391876035669054694","target":"absent","response":"absent","rt":"3422.2000000477","correct":true,"confidence":5},{"trial_n":108,"span":19,"encoder":"9020158178887261731","distractor":"9020158178887281731","target":"present","response":"absent","rt":"11021.599999905","correct":false,"confidence":3},{"trial_n":109,"span":18,"encoder":"883705043677694283","distractor":"883705043677634283","target":"present","response":"absent","rt":"6599.8000001907","correct":false,"confidence":3},{"trial_n":110,"span":17,"encoder":"10346735294134256","distractor":"10346735294334256","target":"absent","response":"absent","rt":"5154.5","correct":true,"confidence":3},{"trial_n":111,"span":17,"encoder":"45801996997853438","distractor":"45801916997853438","target":"present","response":"absent","rt":"6643.7999999523","correct":false,"confidence":4},{"trial_n":112,"span":16,"encoder":"1763400799786818","distractor":"1760400799786818","target":"present","response":"present","rt":"7326.7000000477","correct":true,"confidence":4},{"trial_n":113,"span":16,"encoder":"1513720215601126","distractor":"1523720215601126","target":"present","response":"absent","rt":"7162.7999999523","correct":false,"confidence":1},{"trial_n":114,"span":15,"encoder":"693348953608267","distractor":"693848953608267","target":"absent","response":"present","rt":"5848.1999998093","correct":false,"confidence":3},{"trial_n":115,"span":14,"encoder":"55649148915196","distractor":"55649148975196","target":"absent","response":"absent","rt":"12198.900000095","correct":true,"confidence":3},{"trial_n":116,"span":14,"encoder":"90736059294375","distractor":"90736059295375","target":"absent","response":"absent","rt":"3912.7000000477","correct":true,"confidence":5},{"trial_n":117,"span":15,"encoder":"429841346676157","distractor":"429801346676157","target":"absent","response":"absent","rt":"5712.4000000954","correct":true,"confidence":4},{"trial_n":118,"span":15,"encoder":"225821483324494","distractor":"225821483323494","target":"present","response":"present","rt":"3697.9000000954","correct":true,"confidence":5},{"trial_n":119,"span":16,"encoder":"5884967204992179","distractor":"5884967209992179","target":"absent","response":"absent","rt":"3749.5","correct":true,"confidence":2},{"trial_n":120,"span":16,"encoder":"9109136308690787","distractor":"9109136308698787","target":"present","response":"present","rt":"2527.2000000477","correct":true,"confidence":5},{"trial_n":121,"span":17,"encoder":"67682354361638616","distractor":"67682354361638656","target":"absent","response":"absent","rt":"2432.6000001431","correct":true,"confidence":5},{"trial_n":122,"span":17,"encoder":"15081238474152274","distractor":"15081238474152278","target":"absent","response":"absent","rt":"2402.9000000954","correct":true,"confidence":5},{"trial_n":123,"span":18,"encoder":"983151961477147630","distractor":"983151961477147600","target":"present","response":"present","rt":"1995.9000000954","correct":true,"confidence":5},{"trial_n":124,"span":18,"encoder":"733559435398804235","distractor":"733559435398804635","target":"present","response":"present","rt":"3795","correct":true,"confidence":5},{"trial_n":125,"span":19,"encoder":"2467472810942004310","distractor":"2267472810942004310","target":"absent","response":"present","rt":"6049.1999998093","correct":false,"confidence":3},{"trial_n":126,"span":18,"encoder":"891214971246144393","distractor":"391214971246144393","target":"absent","response":"absent","rt":"5632.1999998093","correct":true,"confidence":2},{"trial_n":127,"span":18,"encoder":"412119661027311206","distractor":"412119661027301206","target":"absent","response":"present","rt":"4383.2000000477","correct":false,"confidence":2},{"trial_n":128,"span":17,"encoder":"01941398961466723","distractor":"01941398960466723","target":"absent","response":"present","rt":"8435.1999998093","correct":false,"confidence":1},{"trial_n":129,"span":16,"encoder":"3781098222717157","distractor":"3781098222717152","target":"absent","response":"absent","rt":"2975.9000000954","correct":true,"confidence":5},{"trial_n":130,"span":16,"encoder":"3284675288730087","distractor":"3274675288730087","target":"absent","response":"absent","rt":"8730.2000000477","correct":true,"confidence":3},{"trial_n":131,"span":17,"encoder":"32161930112490789","distractor":"32361930112490789","target":"absent","response":"present","rt":"7345.2000000477","correct":false,"confidence":2},{"trial_n":132,"span":16,"encoder":"0570666693443643","distractor":"0570669693443643","target":"present","response":"present","rt":"5114","correct":true,"confidence":2},{"trial_n":133,"span":16,"encoder":"9490228764168305","distractor":"9494228764168305","target":"absent","response":"absent","rt":"9644.7000000477","correct":true,"confidence":3},{"trial_n":134,"span":17,"encoder":"22827683354177246","distractor":"22827683354477246","target":"present","response":"absent","rt":"4121.3999998569","correct":false,"confidence":2},{"trial_n":135,"span":16,"encoder":"2174453952054425","distractor":"2174453952059425","target":"present","response":"present","rt":"2217.4000000954","correct":true,"confidence":5},{"trial_n":136,"span":16,"encoder":"8132165099258641","distractor":"9132165099258641","target":"absent","response":"absent","rt":"5971.7999999523","correct":true,"confidence":1},{"trial_n":137,"span":17,"encoder":"55371200817797711","distractor":"55371200811797711","target":"present","response":"present","rt":"4534.7000000477","correct":true,"confidence":4},{"trial_n":138,"span":17,"encoder":"11955065848273836","distractor":"11955065848273886","target":"absent","response":"absent","rt":"2712.6999998093","correct":true,"confidence":4},{"trial_n":139,"span":18,"encoder":"493148877169302646","distractor":"493148877166302646","target":"present","response":"present","rt":"4365.9000000954","correct":true,"confidence":2},{"trial_n":140,"span":18,"encoder":"578263799800415833","distractor":"578063799800415833","target":"absent","response":"absent","rt":"7724.2999999523","correct":true,"confidence":2}]