[{"trial_n":1,"n_dots":4.25,"target":"left","response":"right","rt":4851,"correct":false,"confidence":-1},{"trial_n":2,"n_dots":4.25,"target":"left","response":"left","rt":1097.3999998569,"correct":true,"confidence":-1},{"trial_n":3,"n_dots":4.25,"target":"right","response":"right","rt":2765.7999999523,"correct":true,"confidence":-1},{"trial_n":4,"n_dots":3.85,"target":"left","response":"left","rt":963.29999995232,"correct":true,"confidence":-1},{"trial_n":5,"n_dots":3.85,"target":"left","response":"left","rt":784.5,"correct":true,"confidence":-1},{"trial_n":6,"n_dots":3.45,"target":"right","response":"right","rt":1123.1999998093,"correct":true,"confidence":-1},{"trial_n":7,"n_dots":3.45,"target":"left","response":"right","rt":1483.1000001431,"correct":false,"confidence":-1},{"trial_n":8,"n_dots":3.65,"target":"right","response":"left","rt":565.39999985695,"correct":false,"confidence":-1},{"trial_n":9,"n_dots":3.85,"target":"left","response":"left","rt":580,"correct":true,"confidence":-1},{"trial_n":10,"n_dots":3.85,"target":"right","response":"right","rt":194.39999985695,"correct":true,"confidence":-1},{"trial_n":11,"n_dots":3.65,"target":"left","response":"left","rt":205.60000014305,"correct":true,"confidence":-1},{"trial_n":12,"n_dots":3.65,"target":"right","response":"right","rt":2992.7000000477,"correct":true,"confidence":-1},{"trial_n":13,"n_dots":3.55,"target":"left","response":"left","rt":420.79999995232,"correct":true,"confidence":-1},{"trial_n":14,"n_dots":3.55,"target":"left","response":"left","rt":389.5,"correct":true,"confidence":-1},{"trial_n":15,"n_dots":3.45,"target":"left","response":"left","rt":246.29999995232,"correct":true,"confidence":-1},{"trial_n":16,"n_dots":3.45,"target":"left","response":"left","rt":17.299999952316,"correct":true,"confidence":-1},{"trial_n":17,"n_dots":3.35,"target":"left","response":"left","rt":362.90000009537,"correct":true,"confidence":-1},{"trial_n":18,"n_dots":3.35,"target":"right","response":"right","rt":194.40000009537,"correct":true,"confidence":-1},{"trial_n":19,"n_dots":3.25,"target":"left","response":"left","rt":174.90000009537,"correct":true,"confidence":-1},{"trial_n":20,"n_dots":3.25,"target":"right","response":"right","rt":349.70000004768,"correct":true,"confidence":-1},{"trial_n":21,"n_dots":3.15,"target":"left","response":"left","rt":154.39999985695,"correct":true,"confidence":4},{"trial_n":22,"n_dots":3.15,"target":"left","response":"left","rt":2017.2000000477,"correct":true,"confidence":4},{"trial_n":23,"n_dots":3.05,"target":"left","response":"right","rt":1367.7000000477,"correct":false,"confidence":3},{"trial_n":24,"n_dots":3.15,"target":"left","response":"right","rt":903.5,"correct":false,"confidence":5},{"trial_n":25,"n_dots":3.25,"target":"left","response":"right","rt":293.10000014305,"correct":false,"confidence":5},{"trial_n":26,"n_dots":3.35,"target":"left","response":"left","rt":1575.9000000954,"correct":true,"confidence":5},{"trial_n":27,"n_dots":3.35,"target":"left","response":"left","rt":1589.0999999046,"correct":true,"confidence":4},{"trial_n":28,"n_dots":3.25,"target":"right","response":"right","rt":462.29999995232,"correct":true,"confidence":5},{"trial_n":29,"n_dots":3.25,"target":"right","response":"right","rt":734.5,"correct":true,"confidence":5},{"trial_n":30,"n_dots":3.15,"target":"left","response":"left","rt":1097.1000001431,"correct":true,"confidence":3},{"trial_n":31,"n_dots":3.15,"target":"right","response":"right","rt":313.5,"correct":true,"confidence":4},{"trial_n":32,"n_dots":3.05,"target":"left","response":"right","rt":2252.4000000954,"correct":false,"confidence":1},{"trial_n":33,"n_dots":3.15,"target":"left","response":"left","rt":381.79999995232,"correct":true,"confidence":2},{"trial_n":34,"n_dots":3.15,"target":"right","response":"right","rt":251.89999985695,"correct":true,"confidence":4},{"trial_n":35,"n_dots":3.05,"target":"left","response":"left","rt":327.80000019073,"correct":true,"confidence":4},{"trial_n":36,"n_dots":3.05,"target":"right","response":"left","rt":389.19999980927,"correct":false,"confidence":3},{"trial_n":37,"n_dots":3.15,"target":"right","response":"right","rt":337.09999990463,"correct":true,"confidence":4},{"trial_n":38,"n_dots":3.15,"target":"right","response":"right","rt":881.79999995232,"correct":true,"confidence":3},{"trial_n":39,"n_dots":3.05,"target":"left","response":"left","rt":553,"correct":true,"confidence":3},{"trial_n":40,"n_dots":3.05,"target":"left","response":"left","rt":266.5,"correct":true,"confidence":5},{"trial_n":41,"n_dots":2.95,"target":"right","response":"right","rt":594.09999990463,"correct":true,"confidence":2},{"trial_n":42,"n_dots":2.95,"target":"left","response":"left","rt":1304.9000000954,"correct":true,"confidence":3},{"trial_n":43,"n_dots":2.85,"target":"left","response":"left","rt":211,"correct":true,"confidence":3},{"trial_n":44,"n_dots":2.85,"target":"right","response":"left","rt":473.20000004768,"correct":false,"confidence":2},{"trial_n":45,"n_dots":2.95,"target":"left","response":"right","rt":344.40000009537,"correct":false,"confidence":5},{"trial_n":46,"n_dots":3.05,"target":"right","response":"left","rt":1352.3999998569,"correct":false,"confidence":3},{"trial_n":47,"n_dots":3.15,"target":"left","response":"left","rt":440.10000014305,"correct":true,"confidence":3},{"trial_n":48,"n_dots":3.15,"target":"right","response":"right","rt":34.300000190735,"correct":true,"confidence":4},{"trial_n":49,"n_dots":3.05,"target":"right","response":"left","rt":711.90000009537,"correct":false,"confidence":2},{"trial_n":50,"n_dots":3.15,"target":"left","response":"left","rt":414.5,"correct":true,"confidence":4},{"trial_n":51,"n_dots":3.15,"target":"right","response":"left","rt":350.70000004768,"correct":false,"confidence":4},{"trial_n":52,"n_dots":3.25,"target":"left","response":"left","rt":16.799999952316,"correct":true,"confidence":3},{"trial_n":53,"n_dots":3.25,"target":"right","response":"right","rt":696.90000009537,"correct":true,"confidence":5},{"trial_n":54,"n_dots":3.15,"target":"right","response":"left","rt":880.60000014305,"correct":false,"confidence":3},{"trial_n":55,"n_dots":3.25,"target":"right","response":"left","rt":1433.4000000954,"correct":false,"confidence":3},{"trial_n":56,"n_dots":3.35,"target":"left","response":"left","rt":262,"correct":true,"confidence":4},{"trial_n":57,"n_dots":3.35,"target":"right","response":"right","rt":527.20000004768,"correct":true,"confidence":4},{"trial_n":58,"n_dots":3.25,"target":"right","response":"left","rt":296.70000004768,"correct":false,"confidence":4},{"trial_n":59,"n_dots":3.35,"target":"left","response":"left","rt":218.5,"correct":true,"confidence":4},{"trial_n":60,"n_dots":3.35,"target":"right","response":"left","rt":588.90000009537,"correct":false,"confidence":4},{"trial_n":61,"n_dots":3.45,"target":"left","response":"left","rt":957.5,"correct":true,"confidence":5},{"trial_n":62,"n_dots":3.45,"target":"right","response":"right","rt":347.59999990463,"correct":true,"confidence":4},{"trial_n":63,"n_dots":3.35,"target":"left","response":"left","rt":17.399999856949,"correct":true,"confidence":3},{"trial_n":64,"n_dots":3.35,"target":"right","response":"left","rt":1052.9000000954,"correct":false,"confidence":4},{"trial_n":65,"n_dots":3.45,"target":"right","response":"right","rt":412.40000009537,"correct":true,"confidence":4},{"trial_n":66,"n_dots":3.45,"target":"left","response":"left","rt":903.5,"correct":true,"confidence":4},{"trial_n":67,"n_dots":3.35,"target":"left","response":"left","rt":319.5,"correct":true,"confidence":3},{"trial_n":68,"n_dots":3.35,"target":"right","response":"left","rt":1391.1999998093,"correct":false,"confidence":2},{"trial_n":69,"n_dots":3.45,"target":"right","response":"left","rt":519.30000019073,"correct":false,"confidence":1},{"trial_n":70,"n_dots":3.55,"target":"right","response":"right","rt":164.30000019073,"correct":true,"confidence":4},{"trial_n":71,"n_dots":3.55,"target":"left","response":"left","rt":225.70000004768,"correct":true,"confidence":3},{"trial_n":72,"n_dots":3.45,"target":"left","response":"left","rt":699.79999995232,"correct":true,"confidence":3},{"trial_n":73,"n_dots":3.45,"target":"left","response":"right","rt":793.59999990463,"correct":false,"confidence":2},{"trial_n":74,"n_dots":3.55,"target":"right","response":"right","rt":323.20000004768,"correct":true,"confidence":4},{"trial_n":75,"n_dots":3.55,"target":"left","response":"left","rt":559.20000004768,"correct":true,"confidence":4},{"trial_n":76,"n_dots":3.45,"target":"right","response":"right","rt":144.70000004768,"correct":true,"confidence":5},{"trial_n":77,"n_dots":3.45,"target":"left","response":"left","rt":17.200000047684,"correct":true,"confidence":4},{"trial_n":78,"n_dots":3.35,"target":"left","response":"left","rt":99.100000143051,"correct":true,"confidence":5},{"trial_n":79,"n_dots":3.35,"target":"left","response":"left","rt":463.20000004768,"correct":true,"confidence":3},{"trial_n":80,"n_dots":3.25,"target":"left","response":"right","rt":664,"correct":false,"confidence":2},{"trial_n":81,"n_dots":3.35,"target":"right","response":"right","rt":130.09999990463,"correct":true,"confidence":3},{"trial_n":82,"n_dots":3.35,"target":"right","response":"right","rt":812.5,"correct":true,"confidence":4},{"trial_n":83,"n_dots":3.25,"target":"right","response":"right","rt":736.20000004768,"correct":true,"confidence":4},{"trial_n":84,"n_dots":3.25,"target":"right","response":"left","rt":308.5,"correct":false,"confidence":3},{"trial_n":85,"n_dots":3.35,"target":"right","response":"right","rt":524.60000014305,"correct":true,"confidence":3},{"trial_n":86,"n_dots":3.35,"target":"right","response":"right","rt":299.40000009537,"correct":true,"confidence":2},{"trial_n":87,"n_dots":3.25,"target":"right","response":"right","rt":787.20000004768,"correct":true,"confidence":3},{"trial_n":88,"n_dots":3.25,"target":"left","response":"left","rt":35.5,"correct":true,"confidence":3},{"trial_n":89,"n_dots":3.15,"target":"left","response":"left","rt":270.60000014305,"correct":true,"confidence":3},{"trial_n":90,"n_dots":3.15,"target":"right","response":"right","rt":218.69999980927,"correct":true,"confidence":4},{"trial_n":91,"n_dots":3.05,"target":"right","response":"right","rt":572.09999990463,"correct":true,"confidence":3},{"trial_n":92,"n_dots":3.05,"target":"left","response":"left","rt":433.19999980927,"correct":true,"confidence":3},{"trial_n":93,"n_dots":2.95,"target":"left","response":"left","rt":429.59999990463,"correct":true,"confidence":3},{"trial_n":94,"n_dots":2.95,"target":"left","response":"left","rt":89.099999904633,"correct":true,"confidence":3},{"trial_n":95,"n_dots":2.85,"target":"right","response":"right","rt":90.5,"correct":true,"confidence":4},{"trial_n":96,"n_dots":2.85,"target":"right","response":"right","rt":567.30000019073,"correct":true,"confidence":4},{"trial_n":97,"n_dots":2.75,"target":"right","response":"left","rt":266.30000019073,"correct":false,"confidence":3},{"trial_n":98,"n_dots":2.85,"target":"right","response":"right","rt":404,"correct":true,"confidence":2},{"trial_n":99,"n_dots":2.85,"target":"right","response":"right","rt":566.5,"correct":true,"confidence":2},{"trial_n":100,"n_dots":2.75,"target":"left","response":"left","rt":276.90000009537,"correct":true,"confidence":3},{"trial_n":101,"n_dots":2.75,"target":"right","response":"right","rt":162.79999995232,"correct":true,"confidence":1},{"trial_n":102,"n_dots":2.65,"target":"left","response":"left","rt":540.79999995232,"correct":true,"confidence":3},{"trial_n":103,"n_dots":2.65,"target":"right","response":"left","rt":271.59999990463,"correct":false,"confidence":3},{"trial_n":104,"n_dots":2.75,"target":"left","response":"left","rt":138.79999995232,"correct":true,"confidence":3},{"trial_n":105,"n_dots":2.75,"target":"right","response":"right","rt":195.10000014305,"correct":true,"confidence":4},{"trial_n":106,"n_dots":2.65,"target":"right","response":"left","rt":346.40000009537,"correct":false,"confidence":3},{"trial_n":107,"n_dots":2.75,"target":"right","response":"left","rt":170.19999980927,"correct":false,"confidence":3},{"trial_n":108,"n_dots":2.85,"target":"right","response":"right","rt":307.90000009537,"correct":true,"confidence":3},{"trial_n":109,"n_dots":2.85,"target":"right","response":"right","rt":169.09999990463,"correct":true,"confidence":3},{"trial_n":110,"n_dots":2.75,"target":"right","response":"left","rt":740.39999985695,"correct":false,"confidence":3},{"trial_n":111,"n_dots":2.85,"target":"left","response":"left","rt":400.90000009537,"correct":true,"confidence":3},{"trial_n":112,"n_dots":2.85,"target":"left","response":"left","rt":376.60000014305,"correct":true,"confidence":2},{"trial_n":113,"n_dots":2.75,"target":"right","response":"right","rt":306.69999980927,"correct":true,"confidence":3},{"trial_n":114,"n_dots":2.75,"target":"left","response":"left","rt":333.59999990463,"correct":true,"confidence":3},{"trial_n":115,"n_dots":2.65,"target":"right","response":"right","rt":170.09999990463,"correct":true,"confidence":4},{"trial_n":116,"n_dots":2.65,"target":"left","response":"left","rt":1325.4000000954,"correct":true,"confidence":3},{"trial_n":117,"n_dots":2.55,"target":"left","response":"left","rt":184.40000009537,"correct":true,"confidence":2},{"trial_n":118,"n_dots":2.55,"target":"right","response":"left","rt":1415.7999999523,"correct":false,"confidence":1},{"trial_n":119,"n_dots":2.65,"target":"right","response":"right","rt":73.100000143051,"correct":true,"confidence":3},{"trial_n":120,"n_dots":2.65,"target":"left","response":"left","rt":308.60000014305,"correct":true,"confidence":2}]