[{"trial_n":1,"n_dots":4.25,"target":"left","response":"left","rt":-13668,"correct":true,"confidence":-1},{"trial_n":2,"n_dots":4.25,"target":"right","response":"left","rt":-19796,"correct":false,"confidence":-1},{"trial_n":3,"n_dots":4.65,"target":"left","response":"left","rt":-22639,"correct":true,"confidence":-1},{"trial_n":4,"n_dots":4.65,"target":"right","response":"left","rt":-24720,"correct":false,"confidence":-1},{"trial_n":5,"n_dots":5.05,"target":"left","response":"right","rt":-27467,"correct":false,"confidence":-1},{"trial_n":6,"n_dots":5.45,"target":"left","response":"left","rt":-29535,"correct":true,"confidence":-1},{"trial_n":7,"n_dots":5.45,"target":"left","response":"left","rt":4699,"correct":true,"confidence":-1},{"trial_n":8,"n_dots":5.25,"target":"right","response":"right","rt":-38519,"correct":true,"confidence":-1},{"trial_n":9,"n_dots":5.25,"target":"right","response":"right","rt":-41118,"correct":true,"confidence":-1},{"trial_n":10,"n_dots":5.05,"target":"left","response":"left","rt":-43540,"correct":true,"confidence":-1},{"trial_n":11,"n_dots":5.05,"target":"left","response":"left","rt":-45892,"correct":true,"confidence":-1},{"trial_n":12,"n_dots":4.85,"target":"right","response":"right","rt":-48622,"correct":true,"confidence":-1},{"trial_n":13,"n_dots":4.85,"target":"right","response":"right","rt":-51065,"correct":true,"confidence":-1},{"trial_n":14,"n_dots":4.75,"target":"right","response":"right","rt":-53258,"correct":true,"confidence":-1},{"trial_n":15,"n_dots":4.75,"target":"left","response":"left","rt":-55642,"correct":true,"confidence":-1},{"trial_n":16,"n_dots":4.65,"target":"left","response":"left","rt":-57860,"correct":true,"confidence":-1},{"trial_n":17,"n_dots":4.65,"target":"right","response":"right","rt":-59963,"correct":true,"confidence":-1},{"trial_n":18,"n_dots":4.55,"target":"right","response":"right","rt":-62163,"correct":true,"confidence":-1},{"trial_n":19,"n_dots":4.55,"target":"left","response":"left","rt":-64456,"correct":true,"confidence":-1},{"trial_n":20,"n_dots":4.45,"target":"right","response":"right","rt":-66699,"correct":true,"confidence":-1},{"trial_n":21,"n_dots":4.45,"target":"right","response":"right","rt":-71469,"correct":true,"confidence":4},{"trial_n":22,"n_dots":4.35,"target":"left","response":"left","rt":-76101,"correct":true,"confidence":1},{"trial_n":23,"n_dots":4.35,"target":"right","response":"right","rt":-80499,"correct":true,"confidence":5},{"trial_n":24,"n_dots":4.25,"target":"right","response":"right","rt":-84418,"correct":true,"confidence":5},{"trial_n":25,"n_dots":4.25,"target":"left","response":"left","rt":-88115,"correct":true,"confidence":5},{"trial_n":26,"n_dots":4.15,"target":"right","response":"right","rt":-91711,"correct":true,"confidence":5},{"trial_n":27,"n_dots":4.15,"target":"right","response":"right","rt":-95224,"correct":true,"confidence":5},{"trial_n":28,"n_dots":4.05,"target":"left","response":"left","rt":-98459,"correct":true,"confidence":5},{"trial_n":29,"n_dots":4.05,"target":"right","response":"right","rt":-101893,"correct":true,"confidence":5},{"trial_n":30,"n_dots":3.95,"target":"right","response":"left","rt":-105264,"correct":false,"confidence":2},{"trial_n":31,"n_dots":4.05,"target":"right","response":"right","rt":-109541,"correct":true,"confidence":5},{"trial_n":32,"n_dots":4.05,"target":"right","response":"right","rt":-113261,"correct":true,"confidence":1},{"trial_n":33,"n_dots":3.95,"target":"left","response":"left","rt":-116079,"correct":true,"confidence":5},{"trial_n":34,"n_dots":3.95,"target":"right","response":"right","rt":-120344,"correct":true,"confidence":5},{"trial_n":35,"n_dots":3.85,"target":"left","response":"left","rt":-123507,"correct":true,"confidence":5},{"trial_n":36,"n_dots":3.85,"target":"right","response":"right","rt":-126993,"correct":true,"confidence":5},{"trial_n":37,"n_dots":3.75,"target":"left","response":"left","rt":-130221,"correct":true,"confidence":5},{"trial_n":38,"n_dots":3.75,"target":"right","response":"right","rt":-133656,"correct":true,"confidence":5},{"trial_n":39,"n_dots":3.65,"target":"left","response":"left","rt":-136925,"correct":true,"confidence":5},{"trial_n":40,"n_dots":3.65,"target":"right","response":"right","rt":-140235,"correct":true,"confidence":5},{"trial_n":41,"n_dots":3.55,"target":"left","response":"right","rt":-144671,"correct":false,"confidence":5},{"trial_n":42,"n_dots":3.65,"target":"right","response":"right","rt":2901,"correct":true,"confidence":5},{"trial_n":43,"n_dots":3.65,"target":"left","response":"left","rt":1300,"correct":true,"confidence":5},{"trial_n":44,"n_dots":3.55,"target":"right","response":"right","rt":1709,"correct":true,"confidence":5},{"trial_n":45,"n_dots":3.55,"target":"right","response":"right","rt":575,"correct":true,"confidence":5},{"trial_n":46,"n_dots":3.45,"target":"right","response":"right","rt":-175548,"correct":true,"confidence":5},{"trial_n":47,"n_dots":3.45,"target":"right","response":"left","rt":-181335,"correct":false,"confidence":5},{"trial_n":48,"n_dots":3.55,"target":"right","response":"right","rt":-184636,"correct":true,"confidence":5},{"trial_n":49,"n_dots":3.55,"target":"left","response":"left","rt":-187696,"correct":true,"confidence":5},{"trial_n":50,"n_dots":3.45,"target":"right","response":"left","rt":-190999,"correct":false,"confidence":5},{"trial_n":51,"n_dots":3.55,"target":"right","response":"left","rt":-194209,"correct":false,"confidence":5},{"trial_n":52,"n_dots":3.65,"target":"left","response":"left","rt":-197244,"correct":true,"confidence":5},{"trial_n":53,"n_dots":3.65,"target":"left","response":"left","rt":-200312,"correct":true,"confidence":5},{"trial_n":54,"n_dots":3.55,"target":"right","response":"left","rt":-203306,"correct":false,"confidence":5},{"trial_n":55,"n_dots":3.65,"target":"right","response":"right","rt":-206809,"correct":true,"confidence":5},{"trial_n":56,"n_dots":3.65,"target":"left","response":"left","rt":-211236,"correct":true,"confidence":5},{"trial_n":57,"n_dots":3.55,"target":"left","response":"left","rt":-214530,"correct":true,"confidence":5},{"trial_n":58,"n_dots":3.55,"target":"right","response":"left","rt":-217748,"correct":false,"confidence":5},{"trial_n":59,"n_dots":3.65,"target":"left","response":"left","rt":-221041,"correct":true,"confidence":5},{"trial_n":60,"n_dots":3.65,"target":"right","response":"right","rt":-224193,"correct":true,"confidence":5},{"trial_n":61,"n_dots":3.55,"target":"right","response":"right","rt":-229292,"correct":true,"confidence":5},{"trial_n":62,"n_dots":3.55,"target":"left","response":"left","rt":-233558,"correct":true,"confidence":5},{"trial_n":63,"n_dots":3.45,"target":"right","response":"left","rt":-237426,"correct":false,"confidence":5},{"trial_n":64,"n_dots":3.55,"target":"left","response":"left","rt":-240571,"correct":true,"confidence":5},{"trial_n":65,"n_dots":3.55,"target":"right","response":"right","rt":-243670,"correct":true,"confidence":5},{"trial_n":66,"n_dots":3.45,"target":"left","response":"left","rt":-247533,"correct":true,"confidence":5},{"trial_n":67,"n_dots":3.45,"target":"left","response":"left","rt":-250752,"correct":true,"confidence":5},{"trial_n":68,"n_dots":3.35,"target":"left","response":"right","rt":-253937,"correct":false,"confidence":5},{"trial_n":69,"n_dots":3.45,"target":"left","response":"left","rt":-257092,"correct":true,"confidence":5},{"trial_n":70,"n_dots":3.45,"target":"left","response":"left","rt":-260124,"correct":true,"confidence":5},{"trial_n":71,"n_dots":3.35,"target":"left","response":"right","rt":-263876,"correct":false,"confidence":2},{"trial_n":72,"n_dots":3.45,"target":"right","response":"right","rt":-267270,"correct":true,"confidence":3},{"trial_n":73,"n_dots":3.45,"target":"right","response":"left","rt":-270622,"correct":false,"confidence":5},{"trial_n":74,"n_dots":3.55,"target":"right","response":"right","rt":-273715,"correct":true,"confidence":5},{"trial_n":75,"n_dots":3.55,"target":"left","response":"left","rt":-276767,"correct":true,"confidence":5},{"trial_n":76,"n_dots":3.45,"target":"left","response":"left","rt":-280178,"correct":true,"confidence":5},{"trial_n":77,"n_dots":3.45,"target":"left","response":"left","rt":-283512,"correct":true,"confidence":5},{"trial_n":78,"n_dots":3.35,"target":"right","response":"right","rt":-286840,"correct":true,"confidence":5},{"trial_n":79,"n_dots":3.35,"target":"left","response":"right","rt":-290158,"correct":false,"confidence":5},{"trial_n":80,"n_dots":3.45,"target":"right","response":"left","rt":-294920,"correct":false,"confidence":5},{"trial_n":81,"n_dots":3.55,"target":"left","response":"left","rt":-305510,"correct":true,"confidence":5},{"trial_n":82,"n_dots":3.55,"target":"left","response":"left","rt":-311280,"correct":true,"confidence":5},{"trial_n":83,"n_dots":3.45,"target":"right","response":"left","rt":-315865,"correct":false,"confidence":1},{"trial_n":84,"n_dots":3.55,"target":"left","response":"left","rt":-348319,"correct":true,"confidence":5},{"trial_n":85,"n_dots":3.55,"target":"left","response":"left","rt":-351771,"correct":true,"confidence":5},{"trial_n":86,"n_dots":3.45,"target":"left","response":"left","rt":-355117,"correct":true,"confidence":5},{"trial_n":87,"n_dots":3.45,"target":"left","response":"left","rt":-358208,"correct":true,"confidence":5},{"trial_n":88,"n_dots":3.35,"target":"right","response":"right","rt":-361418,"correct":true,"confidence":5},{"trial_n":89,"n_dots":3.35,"target":"left","response":"right","rt":-365412,"correct":false,"confidence":5},{"trial_n":90,"n_dots":3.45,"target":"left","response":"left","rt":-369072,"correct":true,"confidence":5},{"trial_n":91,"n_dots":3.45,"target":"right","response":"right","rt":-372622,"correct":true,"confidence":5},{"trial_n":92,"n_dots":3.35,"target":"right","response":"left","rt":-376060,"correct":false,"confidence":1},{"trial_n":93,"n_dots":3.45,"target":"left","response":"right","rt":-379387,"correct":false,"confidence":5},{"trial_n":94,"n_dots":3.55,"target":"left","response":"right","rt":-382489,"correct":false,"confidence":5},{"trial_n":95,"n_dots":3.65,"target":"left","response":"left","rt":-385650,"correct":true,"confidence":5},{"trial_n":96,"n_dots":3.65,"target":"right","response":"right","rt":-388935,"correct":true,"confidence":5},{"trial_n":97,"n_dots":3.55,"target":"right","response":"right","rt":-392020,"correct":true,"confidence":5},{"trial_n":98,"n_dots":3.55,"target":"right","response":"right","rt":-395489,"correct":true,"confidence":5},{"trial_n":99,"n_dots":3.45,"target":"right","response":"right","rt":-398832,"correct":true,"confidence":5},{"trial_n":100,"n_dots":3.45,"target":"left","response":"right","rt":-401792,"correct":false,"confidence":5},{"trial_n":101,"n_dots":3.55,"target":"right","response":"left","rt":-406816,"correct":false,"confidence":4},{"trial_n":102,"n_dots":3.65,"target":"right","response":"right","rt":-410640,"correct":true,"confidence":5},{"trial_n":103,"n_dots":3.65,"target":"left","response":"left","rt":-413983,"correct":true,"confidence":5},{"trial_n":104,"n_dots":3.55,"target":"right","response":"right","rt":-417276,"correct":true,"confidence":4},{"trial_n":105,"n_dots":3.55,"target":"left","response":"left","rt":-420399,"correct":true,"confidence":5},{"trial_n":106,"n_dots":3.45,"target":"left","response":"left","rt":-424348,"correct":true,"confidence":1},{"trial_n":107,"n_dots":3.45,"target":"left","response":"left","rt":-426633,"correct":true,"confidence":1},{"trial_n":108,"n_dots":3.35,"target":"right","response":"right","rt":-429083,"correct":true,"confidence":1},{"trial_n":109,"n_dots":3.35,"target":"right","response":"left","rt":-431810,"correct":false,"confidence":1},{"trial_n":110,"n_dots":3.45,"target":"right","response":"left","rt":-434104,"correct":false,"confidence":1},{"trial_n":111,"n_dots":3.55,"target":"left","response":"left","rt":-436539,"correct":true,"confidence":1},{"trial_n":112,"n_dots":3.55,"target":"right","response":"right","rt":-439098,"correct":true,"confidence":1},{"trial_n":113,"n_dots":3.45,"target":"left","response":"left","rt":-441299,"correct":true,"confidence":1},{"trial_n":114,"n_dots":3.45,"target":"right","response":"left","rt":-443735,"correct":false,"confidence":1},{"trial_n":115,"n_dots":3.55,"target":"right","response":"right","rt":-446336,"correct":true,"confidence":1},{"trial_n":116,"n_dots":3.55,"target":"left","response":"left","rt":-448838,"correct":true,"confidence":1},{"trial_n":117,"n_dots":3.45,"target":"left","response":"right","rt":-451264,"correct":false,"confidence":1},{"trial_n":118,"n_dots":3.55,"target":"left","response":"left","rt":-453607,"correct":true,"confidence":1},{"trial_n":119,"n_dots":3.55,"target":"left","response":"right","rt":-455983,"correct":false,"confidence":1},{"trial_n":120,"n_dots":3.65,"target":"left","response":"left","rt":-458710,"correct":true,"confidence":3}]