[{"trial_n":1,"span":8,"encoder":"25901299","distractor":"25901295","target":"present","response":"present","rt":"3062","correct":true,"confidence":-1},{"trial_n":2,"span":8,"encoder":"63969108","distractor":"63909108","target":"present","response":"present","rt":"2599","correct":true,"confidence":-1},{"trial_n":3,"span":10,"encoder":"5145463927","distractor":"5145463987","target":"absent","response":"absent","rt":"3581","correct":true,"confidence":-1},{"trial_n":4,"span":10,"encoder":"2583475228","distractor":"2583475028","target":"absent","response":"absent","rt":"2166","correct":true,"confidence":-1},{"trial_n":5,"span":12,"encoder":"839604729267","distractor":"869604729267","target":"present","response":"present","rt":"3396","correct":true,"confidence":-1},{"trial_n":6,"span":12,"encoder":"234973129329","distractor":"234933129329","target":"present","response":"present","rt":"2168","correct":true,"confidence":-1},{"trial_n":7,"span":14,"encoder":"41850160543379","distractor":"41850160543179","target":"present","response":"present","rt":"2235","correct":true,"confidence":-1},{"trial_n":8,"span":14,"encoder":"13897319521751","distractor":"13877319521751","target":"present","response":"present","rt":"2263","correct":true,"confidence":-1},{"trial_n":9,"span":16,"encoder":"7523735996444046","distractor":"7523735096444046","target":"present","response":"present","rt":"2757","correct":true,"confidence":-1},{"trial_n":10,"span":16,"encoder":"2213638437648815","distractor":"2213638438648815","target":"present","response":"present","rt":"2426","correct":true,"confidence":-1},{"trial_n":11,"span":18,"encoder":"991617871794784817","distractor":"091617871794784817","target":"present","response":"present","rt":"2895","correct":true,"confidence":-1},{"trial_n":12,"span":18,"encoder":"619124651360860782","distractor":"619124851360860782","target":"absent","response":"absent","rt":"3434","correct":true,"confidence":-1},{"trial_n":13,"span":19,"encoder":"3577728410565059797","distractor":"2577728410565059797","target":"present","response":"present","rt":"1353","correct":true,"confidence":-1},{"trial_n":14,"span":19,"encoder":"7920341082207331326","distractor":"7920341022207331326","target":"present","response":"absent","rt":"2027","correct":false,"confidence":-1},{"trial_n":15,"span":18,"encoder":"644333096926947444","distractor":"644333094926947444","target":"absent","response":"present","rt":"3628","correct":false,"confidence":-1},{"trial_n":16,"span":17,"encoder":"24436053613446220","distractor":"24436053613446420","target":"present","response":"present","rt":"2808","correct":true,"confidence":-1},{"trial_n":17,"span":17,"encoder":"27199695250337091","distractor":"27199695250337991","target":"absent","response":"absent","rt":"6160","correct":true,"confidence":-1},{"trial_n":18,"span":18,"encoder":"086177970106482918","distractor":"086177975106482918","target":"absent","response":"present","rt":"1883","correct":false,"confidence":-1},{"trial_n":19,"span":17,"encoder":"93475458077811568","distractor":"93475458097811568","target":"present","response":"present","rt":"1719","correct":true,"confidence":-1},{"trial_n":20,"span":17,"encoder":"56973271402650634","distractor":"56173271402650634","target":"absent","response":"present","rt":"4821","correct":false,"confidence":-1},{"trial_n":21,"span":16,"encoder":"5407821032395524","distractor":"5407821032398524","target":"absent","response":"absent","rt":"2214","correct":true,"confidence":4},{"trial_n":22,"span":16,"encoder":"5469307116452635","distractor":"5469308116452635","target":"present","response":"present","rt":"2127","correct":true,"confidence":5},{"trial_n":23,"span":17,"encoder":"17807033579926504","distractor":"17807033579626504","target":"present","response":"present","rt":"2549","correct":true,"confidence":5},{"trial_n":24,"span":17,"encoder":"97594019424792257","distractor":"97594019424392257","target":"present","response":"present","rt":"1783","correct":true,"confidence":3},{"trial_n":25,"span":18,"encoder":"000409142381918085","distractor":"900409142381918085","target":"present","response":"present","rt":"2782.9999999999","correct":true,"confidence":5},{"trial_n":26,"span":18,"encoder":"533550446234657392","distractor":"533550446233657392","target":"present","response":"present","rt":"4706","correct":true,"confidence":2},{"trial_n":27,"span":19,"encoder":"8731163823262742736","distractor":"8721163823262742736","target":"present","response":"absent","rt":"4505","correct":false,"confidence":4},{"trial_n":28,"span":18,"encoder":"592557133343291448","distractor":"492557133343291448","target":"present","response":"present","rt":"4109","correct":true,"confidence":4},{"trial_n":29,"span":18,"encoder":"721794976296340509","distractor":"721794976596340509","target":"present","response":"present","rt":"2690","correct":true,"confidence":4},{"trial_n":30,"span":19,"encoder":"7902651744439552601","distractor":"7902651744439552101","target":"absent","response":"absent","rt":"4133","correct":true,"confidence":3},{"trial_n":31,"span":19,"encoder":"0936371167333050873","distractor":"0936371167333030873","target":"absent","response":"present","rt":"6150","correct":false,"confidence":5},{"trial_n":32,"span":18,"encoder":"644134653711075577","distractor":"644134653711075177","target":"absent","response":"present","rt":"3267","correct":false,"confidence":4},{"trial_n":33,"span":17,"encoder":"74283795860957739","distractor":"72283795860957739","target":"present","response":"present","rt":"2885","correct":true,"confidence":5},{"trial_n":34,"span":17,"encoder":"29119237843882276","distractor":"24119237843882276","target":"present","response":"present","rt":"6719","correct":true,"confidence":5},{"trial_n":35,"span":18,"encoder":"439760976958924955","distractor":"439761976958924955","target":"absent","response":"present","rt":"6162","correct":false,"confidence":5},{"trial_n":36,"span":17,"encoder":"70742392963740347","distractor":"40742392963740347","target":"absent","response":"absent","rt":"2657.0000000001","correct":true,"confidence":4},{"trial_n":37,"span":17,"encoder":"73905053561203621","distractor":"73905053561203321","target":"absent","response":"absent","rt":"4015","correct":true,"confidence":2},{"trial_n":38,"span":18,"encoder":"966876555442089193","distractor":"966876555442789193","target":"present","response":"absent","rt":"5447","correct":false,"confidence":4},{"trial_n":39,"span":17,"encoder":"67238348221190039","distractor":"67238348228190039","target":"absent","response":"absent","rt":"3309.0000000001","correct":true,"confidence":5},{"trial_n":40,"span":17,"encoder":"74445760999922847","distractor":"74445760999932847","target":"present","response":"present","rt":"2231","correct":true,"confidence":5},{"trial_n":41,"span":18,"encoder":"883227580088686961","distractor":"883227580088686161","target":"absent","response":"absent","rt":"9966","correct":true,"confidence":4},{"trial_n":42,"span":18,"encoder":"410094421735483032","distractor":"410094421735489032","target":"present","response":"present","rt":"3403","correct":true,"confidence":4},{"trial_n":43,"span":19,"encoder":"9867735166537308160","distractor":"9867735166537308760","target":"absent","response":"absent","rt":"2556","correct":true,"confidence":5},{"trial_n":44,"span":19,"encoder":"3443472859590228147","distractor":"3443472859595228147","target":"present","response":"present","rt":"4372","correct":true,"confidence":4},{"trial_n":45,"span":20,"encoder":"37570792541580412547","distractor":"37570792545580412547","target":"absent","response":"present","rt":"16029","correct":false,"confidence":5},{"trial_n":46,"span":19,"encoder":"0363712706194508360","distractor":"0363712706195508360","target":"absent","response":"absent","rt":"7885.0000000001","correct":true,"confidence":1},{"trial_n":47,"span":19,"encoder":"7272963678820442139","distractor":"7272963678840442139","target":"absent","response":"absent","rt":"-866488","correct":true,"confidence":4},{"trial_n":48,"span":20,"encoder":"97983016175225080498","distractor":"97983016175255080498","target":"absent","response":"present","rt":"-882956","correct":false,"confidence":5},{"trial_n":49,"span":19,"encoder":"6433780188158871653","distractor":"6433788188158871653","target":"absent","response":"present","rt":"-899321","correct":false,"confidence":4},{"trial_n":50,"span":18,"encoder":"668197260449416863","distractor":"668107260449416863","target":"present","response":"present","rt":"-914083","correct":true,"confidence":4},{"trial_n":51,"span":18,"encoder":"719809979514467694","distractor":"719809979514467691","target":"absent","response":"absent","rt":"-938257","correct":true,"confidence":4},{"trial_n":52,"span":19,"encoder":"1452235095695365669","distractor":"1452235095695465669","target":"present","response":"absent","rt":"-952202","correct":false,"confidence":3},{"trial_n":53,"span":18,"encoder":"396305681312629869","distractor":"396309681312629869","target":"present","response":"present","rt":"-965184","correct":true,"confidence":5},{"trial_n":54,"span":18,"encoder":"884824013595558020","distractor":"884824013595598020","target":"present","response":"present","rt":"-977814","correct":true,"confidence":5},{"trial_n":55,"span":19,"encoder":"5748784847865014295","distractor":"5848784847865014295","target":"absent","response":"present","rt":"-991636","correct":false,"confidence":4},{"trial_n":56,"span":18,"encoder":"508675519616446529","distractor":"708675519616446529","target":"absent","response":"present","rt":"-1004479","correct":false,"confidence":4},{"trial_n":57,"span":17,"encoder":"55224657429811810","distractor":"55224657429817810","target":"absent","response":"present","rt":"-1016543","correct":false,"confidence":5},{"trial_n":58,"span":16,"encoder":"1069934709265067","distractor":"1069934709265087","target":"absent","response":"present","rt":"-1028887","correct":false,"confidence":3},{"trial_n":59,"span":15,"encoder":"529872576670023","distractor":"529272576670023","target":"absent","response":"present","rt":"-1040976","correct":false,"confidence":4},{"trial_n":60,"span":14,"encoder":"00718314424913","distractor":"00718314424113","target":"present","response":"present","rt":"-1052331","correct":true,"confidence":1},{"trial_n":61,"span":14,"encoder":"30477070287921","distractor":"30477070237921","target":"present","response":"absent","rt":"-1067841","correct":false,"confidence":4},{"trial_n":62,"span":13,"encoder":"3224042436168","distractor":"2224042436168","target":"absent","response":"present","rt":"-1079609","correct":false,"confidence":4},{"trial_n":63,"span":12,"encoder":"163027697630","distractor":"463027697630","target":"absent","response":"absent","rt":"-1089186","correct":true,"confidence":5},{"trial_n":64,"span":12,"encoder":"816236132963","distractor":"816236132983","target":"absent","response":"present","rt":"-1099737","correct":false,"confidence":4},{"trial_n":65,"span":11,"encoder":"94756656066","distractor":"91756656066","target":"present","response":"present","rt":"-1108847","correct":true,"confidence":1},{"trial_n":66,"span":11,"encoder":"03014819058","distractor":"03014812058","target":"absent","response":"present","rt":"21495","correct":false,"confidence":1},{"trial_n":67,"span":10,"encoder":"2125683101","distractor":"2125688101","target":"absent","response":"absent","rt":"2205","correct":true,"confidence":5},{"trial_n":68,"span":10,"encoder":"2013696680","distractor":"0013696680","target":"absent","response":"absent","rt":"2111","correct":true,"confidence":5},{"trial_n":69,"span":11,"encoder":"12281087701","distractor":"12181087701","target":"present","response":"present","rt":"2289","correct":true,"confidence":5},{"trial_n":70,"span":11,"encoder":"68107001336","distractor":"08107001336","target":"present","response":"present","rt":"1789","correct":true,"confidence":5},{"trial_n":71,"span":8,"encoder":"97140943","distractor":"93140943","target":"present","response":"present","rt":"-1200961","correct":true,"confidence":-1},{"trial_n":72,"span":8,"encoder":"22649176","distractor":"22659176","target":"present","response":"present","rt":"-1211574","correct":true,"confidence":-1},{"trial_n":73,"span":9,"encoder":"547663212","distractor":"547663292","target":"absent","response":"absent","rt":"-1219575","correct":true,"confidence":-1},{"trial_n":74,"span":9,"encoder":"404938265","distractor":"404935265","target":"absent","response":"absent","rt":"-1227296","correct":true,"confidence":-1},{"trial_n":75,"span":10,"encoder":"9353087398","distractor":"5353087398","target":"present","response":"present","rt":"-1237154","correct":true,"confidence":-1},{"trial_n":76,"span":10,"encoder":"4219206923","distractor":"4819206923","target":"present","response":"present","rt":"-1248027","correct":true,"confidence":-1},{"trial_n":77,"span":11,"encoder":"71036406271","distractor":"71036606271","target":"absent","response":"absent","rt":"-1255585","correct":true,"confidence":-1},{"trial_n":78,"span":11,"encoder":"28796327122","distractor":"23796327122","target":"absent","response":"present","rt":"-1266792","correct":false,"confidence":-1},{"trial_n":79,"span":10,"encoder":"3789054392","distractor":"3789054992","target":"absent","response":"absent","rt":"-1275094","correct":true,"confidence":-1},{"trial_n":80,"span":10,"encoder":"5909049622","distractor":"5999049622","target":"absent","response":"absent","rt":"-1282656","correct":true,"confidence":-1},{"trial_n":81,"span":11,"encoder":"26583067962","distractor":"26583017962","target":"present","response":"present","rt":"-1292547","correct":true,"confidence":-1},{"trial_n":82,"span":11,"encoder":"17065047700","distractor":"17067047700","target":"present","response":"absent","rt":"-1302882","correct":false,"confidence":-1},{"trial_n":83,"span":10,"encoder":"4658727368","distractor":"4658717368","target":"present","response":"present","rt":"-1313328","correct":true,"confidence":-1},{"trial_n":84,"span":10,"encoder":"6660491627","distractor":"6660491927","target":"absent","response":"present","rt":"-1321850","correct":false,"confidence":-1},{"trial_n":85,"span":9,"encoder":"317453081","distractor":"317753081","target":"absent","response":"absent","rt":"-1328504","correct":true,"confidence":-1},{"trial_n":86,"span":9,"encoder":"768036895","distractor":"768036825","target":"absent","response":"absent","rt":"-1333977","correct":true,"confidence":-1},{"trial_n":87,"span":10,"encoder":"8128985086","distractor":"1128985086","target":"present","response":"present","rt":"-1340828","correct":true,"confidence":-1},{"trial_n":88,"span":10,"encoder":"5209482341","distractor":"5209582341","target":"present","response":"present","rt":"-1347786","correct":true,"confidence":-1},{"trial_n":89,"span":11,"encoder":"14245722690","distractor":"14245792690","target":"absent","response":"absent","rt":"-1355845","correct":true,"confidence":-1},{"trial_n":90,"span":11,"encoder":"19838107991","distractor":"19838107091","target":"present","response":"absent","rt":"-1363201","correct":false,"confidence":-1},{"trial_n":91,"span":10,"encoder":"0974076805","distractor":"0974073805","target":"absent","response":"absent","rt":"-1379255","correct":true,"confidence":5},{"trial_n":92,"span":10,"encoder":"7191246855","distractor":"8191246855","target":"absent","response":"absent","rt":"-1391196","correct":true,"confidence":5},{"trial_n":93,"span":11,"encoder":"29123704216","distractor":"29423704216","target":"present","response":"present","rt":"-1401391","correct":true,"confidence":5},{"trial_n":94,"span":11,"encoder":"95836000356","distractor":"95136000356","target":"absent","response":"present","rt":"-1412203","correct":false,"confidence":4},{"trial_n":95,"span":10,"encoder":"4425653312","distractor":"4422653312","target":"present","response":"present","rt":"-1425291","correct":true,"confidence":5},{"trial_n":96,"span":10,"encoder":"1173319562","distractor":"1173317562","target":"present","response":"absent","rt":"-1435108","correct":false,"confidence":5},{"trial_n":97,"span":9,"encoder":"422508161","distractor":"422708161","target":"absent","response":"present","rt":"-1443077","correct":false,"confidence":1},{"trial_n":98,"span":8,"encoder":"76831951","distractor":"78831951","target":"absent","response":"absent","rt":"-1450298","correct":true,"confidence":1},{"trial_n":99,"span":8,"encoder":"63242932","distractor":"63242933","target":"present","response":"absent","rt":"-1457722","correct":false,"confidence":4},{"trial_n":100,"span":7,"encoder":"5803132","distractor":"5806132","target":"present","response":"present","rt":"-1464929","correct":true,"confidence":5},{"trial_n":101,"span":7,"encoder":"0975885","distractor":"0975785","target":"present","response":"absent","rt":"-1476689","correct":false,"confidence":5},{"trial_n":102,"span":6,"encoder":"957741","distractor":"950741","target":"present","response":"absent","rt":"-1484804","correct":false,"confidence":1},{"trial_n":103,"span":5,"encoder":"31981","distractor":"31985","target":"absent","response":"absent","rt":"-1492874","correct":true,"confidence":4},{"trial_n":104,"span":5,"encoder":"04743","distractor":"02743","target":"absent","response":"present","rt":"-1502089","correct":false,"confidence":4},{"trial_n":105,"span":4,"encoder":"7616","distractor":"7656","target":"present","response":"present","rt":"-1508229","correct":true,"confidence":5},{"trial_n":106,"span":4,"encoder":"0625","distractor":"0629","target":"absent","response":"absent","rt":"-1514077","correct":true,"confidence":5},{"trial_n":107,"span":5,"encoder":"34678","distractor":"34675","target":"absent","response":"absent","rt":"-1520072","correct":true,"confidence":5},{"trial_n":108,"span":5,"encoder":"34495","distractor":"34295","target":"absent","response":"absent","rt":"-1527854","correct":true,"confidence":5},{"trial_n":109,"span":6,"encoder":"089182","distractor":"089172","target":"absent","response":"absent","rt":"-1536092","correct":true,"confidence":4},{"trial_n":110,"span":6,"encoder":"319461","distractor":"519461","target":"present","response":"present","rt":"-1545869","correct":true,"confidence":5},{"trial_n":111,"span":7,"encoder":"4175098","distractor":"4175096","target":"present","response":"absent","rt":"-1556201","correct":false,"confidence":5},{"trial_n":112,"span":6,"encoder":"789519","distractor":"789579","target":"absent","response":"absent","rt":"-1567580","correct":true,"confidence":5},{"trial_n":113,"span":6,"encoder":"057420","distractor":"017420","target":"present","response":"present","rt":"-1574789","correct":true,"confidence":5},{"trial_n":114,"span":7,"encoder":"0210848","distractor":"0210748","target":"present","response":"present","rt":"-1582295","correct":true,"confidence":5},{"trial_n":115,"span":7,"encoder":"3391381","distractor":"3391383","target":"present","response":"present","rt":"-1589914","correct":true,"confidence":5},{"trial_n":116,"span":8,"encoder":"80728906","distractor":"80428906","target":"absent","response":"absent","rt":"-1598538","correct":true,"confidence":5},{"trial_n":117,"span":8,"encoder":"19538556","distractor":"19438556","target":"absent","response":"present","rt":"-1606428","correct":false,"confidence":4},{"trial_n":118,"span":7,"encoder":"3878757","distractor":"3878057","target":"present","response":"present","rt":"-1616613","correct":true,"confidence":5},{"trial_n":119,"span":7,"encoder":"7294640","distractor":"7694640","target":"present","response":"absent","rt":"-1624049","correct":false,"confidence":5},{"trial_n":120,"span":6,"encoder":"249334","distractor":"249384","target":"absent","response":"absent","rt":"-1630878","correct":true,"confidence":4},{"trial_n":121,"span":6,"encoder":"356061","distractor":"456061","target":"present","response":"present","rt":"-1640159","correct":true,"confidence":5},{"trial_n":122,"span":7,"encoder":"0426052","distractor":"0486052","target":"absent","response":"absent","rt":"-1647516","correct":true,"confidence":5},{"trial_n":123,"span":7,"encoder":"5775673","distractor":"5776673","target":"absent","response":"absent","rt":"-1657060","correct":true,"confidence":5},{"trial_n":124,"span":8,"encoder":"28616200","distractor":"28616600","target":"absent","response":"absent","rt":"-1664672","correct":true,"confidence":5},{"trial_n":125,"span":8,"encoder":"15903740","distractor":"15963740","target":"present","response":"present","rt":"-1672375","correct":true,"confidence":5},{"trial_n":126,"span":9,"encoder":"648112412","distractor":"648812412","target":"absent","response":"absent","rt":"-1680515","correct":true,"confidence":5},{"trial_n":127,"span":9,"encoder":"499703254","distractor":"499303254","target":"present","response":"present","rt":"-1694329","correct":true,"confidence":5},{"trial_n":128,"span":10,"encoder":"8481993784","distractor":"8471993784","target":"absent","response":"absent","rt":"-1703268","correct":true,"confidence":4},{"trial_n":129,"span":10,"encoder":"5525221746","distractor":"5525221706","target":"present","response":"present","rt":"-1712799","correct":true,"confidence":5},{"trial_n":130,"span":11,"encoder":"72730486373","distractor":"72730486372","target":"present","response":"absent","rt":"-1721387","correct":false,"confidence":4},{"trial_n":131,"span":10,"encoder":"0058030989","distractor":"0058060989","target":"present","response":"present","rt":"-1737045","correct":true,"confidence":4},{"trial_n":132,"span":10,"encoder":"4872546623","distractor":"4072546623","target":"absent","response":"present","rt":"-1748812","correct":false,"confidence":4},{"trial_n":133,"span":9,"encoder":"483003368","distractor":"483503368","target":"present","response":"present","rt":"-1759405","correct":true,"confidence":5},{"trial_n":134,"span":9,"encoder":"591460854","distractor":"511460854","target":"present","response":"absent","rt":"-1769501","correct":false,"confidence":4},{"trial_n":135,"span":8,"encoder":"17644492","distractor":"17674492","target":"absent","response":"present","rt":"-1779950","correct":false,"confidence":5},{"trial_n":136,"span":7,"encoder":"1454329","distractor":"1454399","target":"present","response":"present","rt":"-1787213","correct":true,"confidence":5},{"trial_n":137,"span":7,"encoder":"6018455","distractor":"6016455","target":"present","response":"absent","rt":"-1797808","correct":false,"confidence":4},{"trial_n":138,"span":6,"encoder":"695003","distractor":"635003","target":"present","response":"present","rt":"-1807327","correct":true,"confidence":5},{"trial_n":139,"span":6,"encoder":"909551","distractor":"909558","target":"absent","response":"absent","rt":"-1813473","correct":true,"confidence":5},{"trial_n":140,"span":7,"encoder":"8757425","distractor":"8758425","target":"absent","response":"absent","rt":"-1820670","correct":true,"confidence":5}]