[{"trial_n":1,"n_dots":4.25,"target":"left","response":"right","rt":2486.200000003,"correct":false,"confidence":-1},{"trial_n":2,"n_dots":4.25,"target":"right","response":"right","rt":974,"correct":true,"confidence":-1},{"trial_n":3,"n_dots":4.25,"target":"right","response":"right","rt":653.09999999404,"correct":true,"confidence":-1},{"trial_n":4,"n_dots":3.85,"target":"right","response":"right","rt":638.59999999404,"correct":true,"confidence":-1},{"trial_n":5,"n_dots":3.85,"target":"left","response":"left","rt":353.09999999404,"correct":true,"confidence":-1},{"trial_n":6,"n_dots":3.45,"target":"left","response":"left","rt":338,"correct":true,"confidence":-1},{"trial_n":7,"n_dots":3.45,"target":"left","response":"left","rt":328.10000000894,"correct":true,"confidence":-1},{"trial_n":8,"n_dots":3.25,"target":"right","response":"right","rt":523.90000000596,"correct":true,"confidence":-1},{"trial_n":9,"n_dots":3.25,"target":"left","response":"left","rt":480.79999999702,"correct":true,"confidence":-1},{"trial_n":10,"n_dots":3.05,"target":"left","response":"left","rt":431.5,"correct":true,"confidence":-1},{"trial_n":11,"n_dots":3.05,"target":"right","response":"right","rt":369,"correct":true,"confidence":-1},{"trial_n":12,"n_dots":2.85,"target":"right","response":"right","rt":534.40000000596,"correct":true,"confidence":-1},{"trial_n":13,"n_dots":2.85,"target":"left","response":"left","rt":414.20000000298,"correct":true,"confidence":-1},{"trial_n":14,"n_dots":2.75,"target":"left","response":"left","rt":1302.700000003,"correct":true,"confidence":-1},{"trial_n":15,"n_dots":2.75,"target":"left","response":"right","rt":507.90000000596,"correct":false,"confidence":-1},{"trial_n":16,"n_dots":2.85,"target":"right","response":"left","rt":553.40000000596,"correct":false,"confidence":-1},{"trial_n":17,"n_dots":2.95,"target":"right","response":"left","rt":810.29999999702,"correct":false,"confidence":-1},{"trial_n":18,"n_dots":3.05,"target":"left","response":"left","rt":110.79999999702,"correct":true,"confidence":-1},{"trial_n":19,"n_dots":3.05,"target":"right","response":"right","rt":422.30000001192,"correct":true,"confidence":-1},{"trial_n":20,"n_dots":2.95,"target":"right","response":"right","rt":155.60000000894,"correct":true,"confidence":-1},{"trial_n":21,"n_dots":2.95,"target":"right","response":"right","rt":366.5,"correct":true,"confidence":3},{"trial_n":22,"n_dots":2.85,"target":"left","response":"right","rt":1153.5,"correct":false,"confidence":3},{"trial_n":23,"n_dots":2.95,"target":"right","response":"right","rt":684.29999999702,"correct":true,"confidence":2},{"trial_n":24,"n_dots":2.95,"target":"left","response":"left","rt":577,"correct":true,"confidence":2},{"trial_n":25,"n_dots":2.85,"target":"left","response":"left","rt":1125.599999994,"correct":true,"confidence":2},{"trial_n":26,"n_dots":2.85,"target":"left","response":"right","rt":411.90000000596,"correct":false,"confidence":2},{"trial_n":27,"n_dots":2.95,"target":"left","response":"left","rt":436,"correct":true,"confidence":3},{"trial_n":28,"n_dots":2.95,"target":"left","response":"left","rt":517.90000000596,"correct":true,"confidence":2},{"trial_n":29,"n_dots":2.85,"target":"left","response":"left","rt":957.5,"correct":true,"confidence":2},{"trial_n":30,"n_dots":2.85,"target":"right","response":"right","rt":393.59999999404,"correct":true,"confidence":3},{"trial_n":31,"n_dots":2.75,"target":"right","response":"right","rt":603.79999999702,"correct":true,"confidence":2},{"trial_n":32,"n_dots":2.75,"target":"right","response":"right","rt":357.39999999106,"correct":true,"confidence":2},{"trial_n":33,"n_dots":2.65,"target":"left","response":"left","rt":1042.400000006,"correct":true,"confidence":3},{"trial_n":34,"n_dots":2.65,"target":"right","response":"right","rt":385.89999999106,"correct":true,"confidence":3},{"trial_n":35,"n_dots":2.55,"target":"left","response":"left","rt":418.39999999106,"correct":true,"confidence":2},{"trial_n":36,"n_dots":2.55,"target":"left","response":"right","rt":419.70000000298,"correct":false,"confidence":3},{"trial_n":37,"n_dots":2.65,"target":"left","response":"left","rt":354.40000000596,"correct":true,"confidence":3},{"trial_n":38,"n_dots":2.65,"target":"right","response":"right","rt":95,"correct":true,"confidence":3},{"trial_n":39,"n_dots":2.55,"target":"left","response":"left","rt":38,"correct":true,"confidence":3},{"trial_n":40,"n_dots":2.55,"target":"right","response":"right","rt":1011.799999997,"correct":true,"confidence":2},{"trial_n":41,"n_dots":2.45,"target":"right","response":"right","rt":418.20000000298,"correct":true,"confidence":2},{"trial_n":42,"n_dots":2.45,"target":"right","response":"right","rt":463.19999998808,"correct":true,"confidence":2},{"trial_n":43,"n_dots":2.35,"target":"left","response":"left","rt":267.40000000596,"correct":true,"confidence":3},{"trial_n":44,"n_dots":2.35,"target":"right","response":"right","rt":354.79999999702,"correct":true,"confidence":2},{"trial_n":45,"n_dots":2.25,"target":"left","response":"left","rt":339.5,"correct":true,"confidence":2},{"trial_n":46,"n_dots":2.25,"target":"right","response":"right","rt":505.89999999106,"correct":true,"confidence":3},{"trial_n":47,"n_dots":2.15,"target":"left","response":"left","rt":374.90000000596,"correct":true,"confidence":3},{"trial_n":48,"n_dots":2.15,"target":"left","response":"left","rt":452.90000000596,"correct":true,"confidence":2},{"trial_n":49,"n_dots":2.05,"target":"right","response":"left","rt":339.5,"correct":false,"confidence":3},{"trial_n":50,"n_dots":2.15,"target":"left","response":"left","rt":382.5,"correct":true,"confidence":3},{"trial_n":51,"n_dots":2.15,"target":"left","response":"left","rt":308.59999999404,"correct":true,"confidence":3},{"trial_n":52,"n_dots":2.05,"target":"right","response":"left","rt":1025.299999997,"correct":false,"confidence":2},{"trial_n":53,"n_dots":2.15,"target":"right","response":"right","rt":453.79999999702,"correct":true,"confidence":2},{"trial_n":54,"n_dots":2.15,"target":"right","response":"right","rt":1079.6000000089,"correct":true,"confidence":2},{"trial_n":55,"n_dots":2.05,"target":"right","response":"left","rt":1141.6999999881,"correct":false,"confidence":2},{"trial_n":56,"n_dots":2.15,"target":"left","response":"left","rt":352.70000000298,"correct":true,"confidence":2},{"trial_n":57,"n_dots":2.15,"target":"right","response":"right","rt":790.20000000298,"correct":true,"confidence":2},{"trial_n":58,"n_dots":2.05,"target":"left","response":"left","rt":868.70000000298,"correct":true,"confidence":2},{"trial_n":59,"n_dots":2.05,"target":"right","response":"left","rt":525.20000000298,"correct":false,"confidence":3},{"trial_n":60,"n_dots":2.15,"target":"left","response":"left","rt":1029.1000000089,"correct":true,"confidence":2},{"trial_n":61,"n_dots":2.15,"target":"right","response":"right","rt":292.20000000298,"correct":true,"confidence":2},{"trial_n":62,"n_dots":2.05,"target":"right","response":"left","rt":862,"correct":false,"confidence":2},{"trial_n":63,"n_dots":2.15,"target":"left","response":"right","rt":269.19999998808,"correct":false,"confidence":2},{"trial_n":64,"n_dots":2.25,"target":"right","response":"left","rt":706.29999999702,"correct":false,"confidence":2},{"trial_n":65,"n_dots":2.35,"target":"right","response":"right","rt":711.80000001192,"correct":true,"confidence":2},{"trial_n":66,"n_dots":2.35,"target":"right","response":"right","rt":379.20000000298,"correct":true,"confidence":3},{"trial_n":67,"n_dots":2.25,"target":"left","response":"left","rt":822.39999999106,"correct":true,"confidence":2},{"trial_n":68,"n_dots":2.25,"target":"right","response":"right","rt":209.79999999702,"correct":true,"confidence":2},{"trial_n":69,"n_dots":2.15,"target":"left","response":"left","rt":305.20000000298,"correct":true,"confidence":2},{"trial_n":70,"n_dots":2.15,"target":"left","response":"right","rt":277.09999999404,"correct":false,"confidence":2},{"trial_n":71,"n_dots":2.25,"target":"right","response":"right","rt":40.5,"correct":true,"confidence":3},{"trial_n":72,"n_dots":2.25,"target":"left","response":"left","rt":1124.6999999881,"correct":true,"confidence":2},{"trial_n":73,"n_dots":2.15,"target":"right","response":"right","rt":53.79999999702,"correct":true,"confidence":3},{"trial_n":74,"n_dots":2.15,"target":"right","response":"right","rt":523.70000000298,"correct":true,"confidence":3},{"trial_n":75,"n_dots":2.05,"target":"right","response":"left","rt":410.5,"correct":false,"confidence":3},{"trial_n":76,"n_dots":2.15,"target":"right","response":"left","rt":259.79999999702,"correct":false,"confidence":2},{"trial_n":77,"n_dots":2.25,"target":"left","response":"right","rt":135.29999999702,"correct":false,"confidence":2},{"trial_n":78,"n_dots":2.35,"target":"left","response":"left","rt":331.39999999106,"correct":true,"confidence":2},{"trial_n":79,"n_dots":2.35,"target":"right","response":"right","rt":99.20000000298,"correct":true,"confidence":3},{"trial_n":80,"n_dots":2.25,"target":"right","response":"right","rt":120.5,"correct":true,"confidence":3},{"trial_n":81,"n_dots":2.25,"target":"left","response":"right","rt":402.79999999702,"correct":false,"confidence":2},{"trial_n":82,"n_dots":2.35,"target":"left","response":"right","rt":168.39999999106,"correct":false,"confidence":3},{"trial_n":83,"n_dots":2.45,"target":"left","response":"left","rt":443.80000001192,"correct":true,"confidence":2},{"trial_n":84,"n_dots":2.45,"target":"right","response":"right","rt":87.600000008941,"correct":true,"confidence":3},{"trial_n":85,"n_dots":2.35,"target":"right","response":"left","rt":321.20000000298,"correct":false,"confidence":2},{"trial_n":86,"n_dots":2.45,"target":"right","response":"right","rt":312.70000000298,"correct":true,"confidence":3},{"trial_n":87,"n_dots":2.45,"target":"left","response":"right","rt":221.20000000298,"correct":false,"confidence":2},{"trial_n":88,"n_dots":2.55,"target":"right","response":"right","rt":1429.400000006,"correct":true,"confidence":2},{"trial_n":89,"n_dots":2.55,"target":"left","response":"right","rt":577.09999999404,"correct":false,"confidence":2},{"trial_n":90,"n_dots":2.65,"target":"left","response":"left","rt":1720.8999999911,"correct":true,"confidence":3},{"trial_n":91,"n_dots":2.65,"target":"right","response":"right","rt":355.69999998808,"correct":true,"confidence":2},{"trial_n":92,"n_dots":2.55,"target":"left","response":"left","rt":19.40000000596,"correct":true,"confidence":2},{"trial_n":93,"n_dots":2.55,"target":"right","response":"left","rt":137,"correct":false,"confidence":2},{"trial_n":94,"n_dots":2.65,"target":"right","response":"right","rt":114.69999998808,"correct":true,"confidence":3},{"trial_n":95,"n_dots":2.65,"target":"right","response":"left","rt":41.899999991059,"correct":false,"confidence":2},{"trial_n":96,"n_dots":2.75,"target":"left","response":"right","rt":72.09999999404,"correct":false,"confidence":2},{"trial_n":97,"n_dots":2.85,"target":"right","response":"right","rt":43.699999988079,"correct":true,"confidence":3},{"trial_n":98,"n_dots":2.85,"target":"right","response":"right","rt":99.29999999702,"correct":true,"confidence":3},{"trial_n":99,"n_dots":2.75,"target":"left","response":"left","rt":986.20000000298,"correct":true,"confidence":3},{"trial_n":100,"n_dots":2.75,"target":"right","response":"right","rt":420.80000001192,"correct":true,"confidence":2},{"trial_n":101,"n_dots":2.65,"target":"left","response":"left","rt":208.60000000894,"correct":true,"confidence":3},{"trial_n":102,"n_dots":2.65,"target":"left","response":"right","rt":518.79999999702,"correct":false,"confidence":3},{"trial_n":103,"n_dots":2.75,"target":"left","response":"left","rt":581,"correct":true,"confidence":3},{"trial_n":104,"n_dots":2.75,"target":"left","response":"left","rt":508.79999999702,"correct":true,"confidence":2},{"trial_n":105,"n_dots":2.65,"target":"right","response":"right","rt":1026.599999994,"correct":true,"confidence":3},{"trial_n":106,"n_dots":2.65,"target":"left","response":"left","rt":826.79999999702,"correct":true,"confidence":2},{"trial_n":107,"n_dots":2.55,"target":"right","response":"right","rt":236.59999999404,"correct":true,"confidence":2},{"trial_n":108,"n_dots":2.55,"target":"left","response":"right","rt":92.600000008941,"correct":false,"confidence":2},{"trial_n":109,"n_dots":2.65,"target":"right","response":"right","rt":281.79999999702,"correct":true,"confidence":3},{"trial_n":110,"n_dots":2.65,"target":"left","response":"left","rt":619.90000000596,"correct":true,"confidence":2},{"trial_n":111,"n_dots":2.55,"target":"left","response":"left","rt":679.5,"correct":true,"confidence":2},{"trial_n":112,"n_dots":2.55,"target":"left","response":"right","rt":78.59999999404,"correct":false,"confidence":2},{"trial_n":113,"n_dots":2.65,"target":"right","response":"right","rt":1216.700000003,"correct":true,"confidence":2},{"trial_n":114,"n_dots":2.65,"target":"left","response":"left","rt":184.40000000596,"correct":true,"confidence":2},{"trial_n":115,"n_dots":2.55,"target":"right","response":"right","rt":265.59999999404,"correct":true,"confidence":2},{"trial_n":116,"n_dots":2.55,"target":"left","response":"left","rt":906.79999999702,"correct":true,"confidence":2},{"trial_n":117,"n_dots":2.45,"target":"left","response":"right","rt":294.5,"correct":false,"confidence":2},{"trial_n":118,"n_dots":2.55,"target":"right","response":"right","rt":343.79999999702,"correct":true,"confidence":2},{"trial_n":119,"n_dots":2.55,"target":"right","response":"left","rt":263.39999999106,"correct":false,"confidence":2},{"trial_n":120,"n_dots":2.65,"target":"left","response":"right","rt":437.60000000894,"correct":false,"confidence":2}]