[{"trial_n":1,"min":25,"max":230,"target":"present","response":"present","rt":5286.599999994,"correct":true,"confidence":-1},{"trial_n":2,"min":25,"max":230,"target":"present","response":"present","rt":575.39999997616,"correct":true,"confidence":-1},{"trial_n":3,"min":41,"max":214,"target":"absent","response":"absent","rt":463.69999998808,"correct":true,"confidence":-1},{"trial_n":4,"min":41,"max":214,"target":"absent","response":"absent","rt":343.29999998212,"correct":true,"confidence":-1},{"trial_n":5,"min":57,"max":198,"target":"present","response":"present","rt":395.19999998808,"correct":true,"confidence":-1},{"trial_n":6,"min":57,"max":198,"target":"absent","response":"absent","rt":271.59999999404,"correct":true,"confidence":-1},{"trial_n":7,"min":73,"max":182,"target":"present","response":"present","rt":167.59999999404,"correct":true,"confidence":-1},{"trial_n":8,"min":73,"max":182,"target":"present","response":"absent","rt":166.40000000596,"correct":false,"confidence":-1},{"trial_n":9,"min":57,"max":198,"target":"absent","response":"absent","rt":349.59999999404,"correct":true,"confidence":-1},{"trial_n":10,"min":57,"max":198,"target":"present","response":"present","rt":284.69999998808,"correct":true,"confidence":-1},{"trial_n":11,"min":65,"max":190,"target":"absent","response":"absent","rt":299.90000000596,"correct":true,"confidence":-1},{"trial_n":12,"min":65,"max":190,"target":"present","response":"present","rt":181.30000001192,"correct":true,"confidence":-1},{"trial_n":13,"min":73,"max":182,"target":"present","response":"present","rt":305.09999999404,"correct":true,"confidence":-1},{"trial_n":14,"min":73,"max":182,"target":"absent","response":"absent","rt":216.5,"correct":true,"confidence":-1},{"trial_n":15,"min":81,"max":174,"target":"absent","response":"absent","rt":312.80000001192,"correct":true,"confidence":-1},{"trial_n":16,"min":81,"max":174,"target":"absent","response":"absent","rt":239.30000001192,"correct":true,"confidence":-1},{"trial_n":17,"min":89,"max":166,"target":"present","response":"absent","rt":125.59999999404,"correct":false,"confidence":-1},{"trial_n":18,"min":81,"max":174,"target":"present","response":"present","rt":537.19999998808,"correct":true,"confidence":-1},{"trial_n":19,"min":81,"max":174,"target":"absent","response":"absent","rt":373.40000000596,"correct":true,"confidence":-1},{"trial_n":20,"min":89,"max":166,"target":"absent","response":"absent","rt":3778.3000000119,"correct":true,"confidence":-1},{"trial_n":21,"min":89,"max":166,"target":"absent","response":"absent","rt":1628.099999994,"correct":true,"confidence":3},{"trial_n":22,"min":93,"max":162,"target":"absent","response":"absent","rt":1885.2999999821,"correct":true,"confidence":3},{"trial_n":23,"min":93,"max":162,"target":"present","response":"absent","rt":492,"correct":false,"confidence":3},{"trial_n":24,"min":89,"max":166,"target":"absent","response":"absent","rt":754.40000000596,"correct":true,"confidence":3},{"trial_n":25,"min":89,"max":166,"target":"present","response":"absent","rt":386,"correct":false,"confidence":3},{"trial_n":26,"min":85,"max":170,"target":"absent","response":"absent","rt":456.20000001788,"correct":true,"confidence":3},{"trial_n":27,"min":85,"max":170,"target":"present","response":"absent","rt":526,"correct":false,"confidence":1},{"trial_n":28,"min":81,"max":174,"target":"present","response":"absent","rt":604.90000000596,"correct":false,"confidence":1},{"trial_n":29,"min":77,"max":178,"target":"absent","response":"present","rt":1161.5,"correct":false,"confidence":1},{"trial_n":30,"min":73,"max":182,"target":"absent","response":"absent","rt":1228,"correct":true,"confidence":2},{"trial_n":31,"min":73,"max":182,"target":"present","response":"present","rt":819.90000000596,"correct":true,"confidence":4},{"trial_n":32,"min":75,"max":180,"target":"present","response":"present","rt":846.79999998212,"correct":true,"confidence":1},{"trial_n":33,"min":75,"max":180,"target":"absent","response":"absent","rt":907.59999999404,"correct":true,"confidence":2},{"trial_n":34,"min":77,"max":178,"target":"present","response":"present","rt":749.5,"correct":true,"confidence":3},{"trial_n":35,"min":77,"max":178,"target":"absent","response":"present","rt":1844.599999994,"correct":false,"confidence":2},{"trial_n":36,"min":75,"max":180,"target":"absent","response":"absent","rt":832.40000000596,"correct":true,"confidence":3},{"trial_n":37,"min":75,"max":180,"target":"present","response":"present","rt":589.09999999404,"correct":true,"confidence":4},{"trial_n":38,"min":77,"max":178,"target":"absent","response":"absent","rt":711.30000001192,"correct":true,"confidence":2},{"trial_n":39,"min":77,"max":178,"target":"present","response":"present","rt":654.40000000596,"correct":true,"confidence":4},{"trial_n":40,"min":79,"max":176,"target":"absent","response":"absent","rt":577.79999998212,"correct":true,"confidence":2},{"trial_n":41,"min":79,"max":176,"target":"absent","response":"absent","rt":432.09999999404,"correct":true,"confidence":2},{"trial_n":42,"min":80,"max":175,"target":"absent","response":"absent","rt":706.20000001788,"correct":true,"confidence":2},{"trial_n":43,"min":80,"max":175,"target":"present","response":"absent","rt":1294.900000006,"correct":false,"confidence":2},{"trial_n":44,"min":79,"max":176,"target":"present","response":"present","rt":667.20000001788,"correct":true,"confidence":4},{"trial_n":45,"min":79,"max":176,"target":"absent","response":"absent","rt":614.40000000596,"correct":true,"confidence":3},{"trial_n":46,"min":80,"max":175,"target":"present","response":"present","rt":660.79999998212,"correct":true,"confidence":4},{"trial_n":47,"min":80,"max":175,"target":"present","response":"present","rt":694,"correct":true,"confidence":5},{"trial_n":48,"min":81,"max":174,"target":"present","response":"present","rt":775.69999998808,"correct":true,"confidence":5},{"trial_n":49,"min":81,"max":174,"target":"present","response":"present","rt":712,"correct":true,"confidence":4},{"trial_n":50,"min":82,"max":173,"target":"absent","response":"absent","rt":484.09999999404,"correct":true,"confidence":4},{"trial_n":51,"min":82,"max":173,"target":"present","response":"present","rt":604.40000000596,"correct":true,"confidence":4},{"trial_n":52,"min":83,"max":172,"target":"absent","response":"absent","rt":443.40000000596,"correct":true,"confidence":3},{"trial_n":53,"min":83,"max":172,"target":"present","response":"absent","rt":716.40000000596,"correct":false,"confidence":3},{"trial_n":54,"min":82,"max":173,"target":"present","response":"present","rt":665.90000000596,"correct":true,"confidence":4},{"trial_n":55,"min":82,"max":173,"target":"present","response":"present","rt":1203.6999999881,"correct":true,"confidence":4},{"trial_n":56,"min":83,"max":172,"target":"absent","response":"absent","rt":600.40000000596,"correct":true,"confidence":2},{"trial_n":57,"min":83,"max":172,"target":"absent","response":"absent","rt":499.5,"correct":true,"confidence":2},{"trial_n":58,"min":84,"max":171,"target":"present","response":"present","rt":628,"correct":true,"confidence":2},{"trial_n":59,"min":84,"max":171,"target":"absent","response":"absent","rt":491.40000000596,"correct":true,"confidence":2},{"trial_n":60,"min":85,"max":170,"target":"present","response":"absent","rt":1425.599999994,"correct":false,"confidence":3},{"trial_n":61,"min":84,"max":171,"target":"absent","response":"absent","rt":507.30000001192,"correct":true,"confidence":3},{"trial_n":62,"min":84,"max":171,"target":"absent","response":"absent","rt":422.29999998212,"correct":true,"confidence":3},{"trial_n":63,"min":85,"max":170,"target":"present","response":"present","rt":772,"correct":true,"confidence":2},{"trial_n":64,"min":85,"max":170,"target":"absent","response":"absent","rt":385.80000001192,"correct":true,"confidence":2},{"trial_n":65,"min":86,"max":169,"target":"present","response":"present","rt":861.60000002384,"correct":true,"confidence":4},{"trial_n":66,"min":86,"max":169,"target":"absent","response":"absent","rt":339.09999999404,"correct":true,"confidence":3},{"trial_n":67,"min":87,"max":168,"target":"present","response":"present","rt":610.10000002384,"correct":true,"confidence":2},{"trial_n":68,"min":87,"max":168,"target":"present","response":"present","rt":722.19999998808,"correct":true,"confidence":2},{"trial_n":69,"min":88,"max":167,"target":"present","response":"present","rt":897.69999998808,"correct":true,"confidence":3},{"trial_n":70,"min":88,"max":167,"target":"absent","response":"absent","rt":427.30000001192,"correct":true,"confidence":4},{"trial_n":71,"min":41,"max":214,"target":"present","response":"absent","rt":5002.099999994,"correct":false,"confidence":-1},{"trial_n":72,"min":41,"max":214,"target":"present","response":"absent","rt":182.30000001192,"correct":false,"confidence":-1},{"trial_n":73,"min":25,"max":230,"target":"absent","response":"present","rt":591.80000001192,"correct":false,"confidence":-1},{"trial_n":74,"min":9,"max":246,"target":"absent","response":"absent","rt":477,"correct":true,"confidence":-1},{"trial_n":75,"min":9,"max":246,"target":"present","response":"present","rt":1315.900000006,"correct":true,"confidence":-1},{"trial_n":76,"min":25,"max":230,"target":"present","response":"present","rt":1074.7999999821,"correct":true,"confidence":-1},{"trial_n":77,"min":25,"max":230,"target":"present","response":"present","rt":464.10000002384,"correct":true,"confidence":-1},{"trial_n":78,"min":41,"max":214,"target":"absent","response":"absent","rt":816.69999998808,"correct":true,"confidence":-1},{"trial_n":79,"min":41,"max":214,"target":"absent","response":"absent","rt":1000.7000000179,"correct":true,"confidence":-1},{"trial_n":80,"min":57,"max":198,"target":"absent","response":"absent","rt":353.09999999404,"correct":true,"confidence":-1},{"trial_n":81,"min":57,"max":198,"target":"absent","response":"absent","rt":247,"correct":true,"confidence":-1},{"trial_n":82,"min":65,"max":190,"target":"absent","response":"absent","rt":350.80000001192,"correct":true,"confidence":-1},{"trial_n":83,"min":65,"max":190,"target":"absent","response":"absent","rt":395.69999998808,"correct":true,"confidence":-1},{"trial_n":84,"min":73,"max":182,"target":"present","response":"present","rt":519.59999999404,"correct":true,"confidence":-1},{"trial_n":85,"min":73,"max":182,"target":"present","response":"absent","rt":387.89999997616,"correct":false,"confidence":-1},{"trial_n":86,"min":65,"max":190,"target":"present","response":"present","rt":584.09999999404,"correct":true,"confidence":-1},{"trial_n":87,"min":65,"max":190,"target":"present","response":"present","rt":317.79999998212,"correct":true,"confidence":-1},{"trial_n":88,"min":73,"max":182,"target":"absent","response":"absent","rt":388.30000001192,"correct":true,"confidence":-1},{"trial_n":89,"min":73,"max":182,"target":"absent","response":"absent","rt":431,"correct":true,"confidence":-1},{"trial_n":90,"min":81,"max":174,"target":"absent","response":"absent","rt":198.79999998212,"correct":true,"confidence":-1},{"trial_n":91,"min":81,"max":174,"target":"absent","response":"absent","rt":1093.7999999821,"correct":true,"confidence":3},{"trial_n":92,"min":85,"max":170,"target":"absent","response":"absent","rt":2193.099999994,"correct":true,"confidence":2},{"trial_n":93,"min":85,"max":170,"target":"absent","response":"absent","rt":925,"correct":true,"confidence":4},{"trial_n":94,"min":89,"max":166,"target":"present","response":"present","rt":1441,"correct":true,"confidence":3},{"trial_n":95,"min":89,"max":166,"target":"absent","response":"absent","rt":1530.2000000179,"correct":true,"confidence":3},{"trial_n":96,"min":93,"max":162,"target":"absent","response":"present","rt":932,"correct":false,"confidence":1},{"trial_n":97,"min":89,"max":166,"target":"absent","response":"present","rt":907.40000000596,"correct":false,"confidence":1},{"trial_n":98,"min":85,"max":170,"target":"present","response":"present","rt":1688.6000000238,"correct":true,"confidence":3},{"trial_n":99,"min":85,"max":170,"target":"present","response":"present","rt":445,"correct":true,"confidence":5},{"trial_n":100,"min":89,"max":166,"target":"present","response":"present","rt":1673.400000006,"correct":true,"confidence":2},{"trial_n":101,"min":89,"max":166,"target":"absent","response":"absent","rt":1388.3000000119,"correct":true,"confidence":3},{"trial_n":102,"min":91,"max":164,"target":"present","response":"present","rt":596.90000000596,"correct":true,"confidence":3},{"trial_n":103,"min":91,"max":164,"target":"absent","response":"present","rt":1324.5,"correct":false,"confidence":2},{"trial_n":104,"min":89,"max":166,"target":"absent","response":"present","rt":1304.5,"correct":false,"confidence":2},{"trial_n":105,"min":87,"max":168,"target":"present","response":"present","rt":945.5,"correct":true,"confidence":1},{"trial_n":106,"min":87,"max":168,"target":"present","response":"present","rt":632.89999997616,"correct":true,"confidence":2},{"trial_n":107,"min":89,"max":166,"target":"present","response":"present","rt":685.90000000596,"correct":true,"confidence":4},{"trial_n":108,"min":89,"max":166,"target":"present","response":"present","rt":318,"correct":true,"confidence":5},{"trial_n":109,"min":91,"max":164,"target":"absent","response":"absent","rt":805.59999999404,"correct":true,"confidence":3},{"trial_n":110,"min":91,"max":164,"target":"absent","response":"present","rt":1424.7999999821,"correct":false,"confidence":2},{"trial_n":111,"min":90,"max":165,"target":"absent","response":"absent","rt":799.30000001192,"correct":true,"confidence":2},{"trial_n":112,"min":90,"max":165,"target":"present","response":"present","rt":804.40000000596,"correct":true,"confidence":2},{"trial_n":113,"min":91,"max":164,"target":"present","response":"absent","rt":3091.3000000119,"correct":false,"confidence":2},{"trial_n":114,"min":90,"max":165,"target":"present","response":"present","rt":2351.400000006,"correct":true,"confidence":2},{"trial_n":115,"min":90,"max":165,"target":"present","response":"absent","rt":1865.2999999821,"correct":false,"confidence":1},{"trial_n":116,"min":89,"max":166,"target":"present","response":"present","rt":493.89999997616,"correct":true,"confidence":3},{"trial_n":117,"min":89,"max":166,"target":"present","response":"absent","rt":726.59999999404,"correct":false,"confidence":2},{"trial_n":118,"min":88,"max":167,"target":"absent","response":"present","rt":2119.6000000238,"correct":false,"confidence":2},{"trial_n":119,"min":87,"max":168,"target":"present","response":"present","rt":359.59999999404,"correct":true,"confidence":5},{"trial_n":120,"min":87,"max":168,"target":"absent","response":"present","rt":1783,"correct":false,"confidence":2},{"trial_n":121,"min":86,"max":169,"target":"absent","response":"present","rt":619.10000002384,"correct":false,"confidence":2},{"trial_n":122,"min":85,"max":170,"target":"present","response":"present","rt":523.80000001192,"correct":true,"confidence":5},{"trial_n":123,"min":85,"max":170,"target":"present","response":"present","rt":513.60000002384,"correct":true,"confidence":5},{"trial_n":124,"min":86,"max":169,"target":"present","response":"present","rt":1597.2999999821,"correct":true,"confidence":2},{"trial_n":125,"min":86,"max":169,"target":"absent","response":"absent","rt":1286.400000006,"correct":true,"confidence":3},{"trial_n":126,"min":87,"max":168,"target":"present","response":"present","rt":84718,"correct":true,"confidence":1},{"trial_n":127,"min":87,"max":168,"target":"absent","response":"absent","rt":1237.7999999821,"correct":true,"confidence":1},{"trial_n":128,"min":88,"max":167,"target":"absent","response":"absent","rt":606.89999997616,"correct":true,"confidence":3},{"trial_n":129,"min":88,"max":167,"target":"absent","response":"absent","rt":734.09999999404,"correct":true,"confidence":2},{"trial_n":130,"min":89,"max":166,"target":"present","response":"present","rt":731.09999999404,"correct":true,"confidence":2},{"trial_n":131,"min":89,"max":166,"target":"absent","response":"present","rt":1336.099999994,"correct":false,"confidence":1},{"trial_n":132,"min":88,"max":167,"target":"present","response":"present","rt":683.30000001192,"correct":true,"confidence":1},{"trial_n":133,"min":88,"max":167,"target":"present","response":"absent","rt":1335.6999999881,"correct":false,"confidence":2},{"trial_n":134,"min":87,"max":168,"target":"present","response":"present","rt":637.80000001192,"correct":true,"confidence":3},{"trial_n":135,"min":87,"max":168,"target":"present","response":"absent","rt":782.40000000596,"correct":false,"confidence":2},{"trial_n":136,"min":86,"max":169,"target":"absent","response":"absent","rt":690.40000000596,"correct":true,"confidence":2},{"trial_n":137,"min":86,"max":169,"target":"present","response":"present","rt":1466.3000000119,"correct":true,"confidence":2},{"trial_n":138,"min":87,"max":168,"target":"absent","response":"absent","rt":677.09999999404,"correct":true,"confidence":2},{"trial_n":139,"min":87,"max":168,"target":"absent","response":"present","rt":450.29999998212,"correct":false,"confidence":2},{"trial_n":140,"min":86,"max":169,"target":"present","response":"present","rt":1938.400000006,"correct":true,"confidence":3}]