[{"trial_n":1,"span":8,"encoder":"45479838","distractor":"75479838","target":"present","response":"present","rt":"5783.7999999821","correct":true,"confidence":-1},{"trial_n":2,"span":8,"encoder":"21825165","distractor":"21835165","target":"present","response":"absent","rt":"3274.8000000119","correct":false,"confidence":-1},{"trial_n":3,"span":6,"encoder":"326135","distractor":"326125","target":"absent","response":"absent","rt":"4202.2999999821","correct":true,"confidence":-1},{"trial_n":4,"span":6,"encoder":"830549","distractor":"730549","target":"absent","response":"absent","rt":"2194.3000000119","correct":true,"confidence":-1},{"trial_n":5,"span":8,"encoder":"39142541","distractor":"39122541","target":"present","response":"absent","rt":"1219.8999999762","correct":false,"confidence":-1},{"trial_n":6,"span":6,"encoder":"617363","distractor":"617369","target":"absent","response":"absent","rt":"1765.400000006","correct":true,"confidence":-1},{"trial_n":7,"span":6,"encoder":"397620","distractor":"397623","target":"present","response":"present","rt":"2437.2000000179","correct":true,"confidence":-1},{"trial_n":8,"span":8,"encoder":"85849886","distractor":"85849086","target":"absent","response":"absent","rt":"1369.599999994","correct":true,"confidence":-1},{"trial_n":9,"span":8,"encoder":"48845604","distractor":"48845603","target":"present","response":"present","rt":"1594.099999994","correct":true,"confidence":-1},{"trial_n":10,"span":10,"encoder":"5855138636","distractor":"5455138636","target":"present","response":"present","rt":"2154.599999994","correct":true,"confidence":-1},{"trial_n":11,"span":10,"encoder":"1442795942","distractor":"1412795942","target":"absent","response":"absent","rt":"1304","correct":true,"confidence":-1},{"trial_n":12,"span":11,"encoder":"91910240173","distractor":"11910240173","target":"present","response":"present","rt":"1607.6999999881","correct":true,"confidence":-1},{"trial_n":13,"span":11,"encoder":"11265679172","distractor":"11265279172","target":"present","response":"present","rt":"2490.2000000179","correct":true,"confidence":-1},{"trial_n":14,"span":12,"encoder":"522649133423","distractor":"522249133423","target":"absent","response":"absent","rt":"1771.599999994","correct":true,"confidence":-1},{"trial_n":15,"span":12,"encoder":"032072970593","distractor":"032092970593","target":"absent","response":"absent","rt":"7170","correct":true,"confidence":-1},{"trial_n":16,"span":13,"encoder":"8607641986830","distractor":"8607641986834","target":"present","response":"present","rt":"1443.6999999881","correct":true,"confidence":-1},{"trial_n":17,"span":13,"encoder":"6395157971747","distractor":"6395150971747","target":"absent","response":"absent","rt":"1045.5","correct":true,"confidence":-1},{"trial_n":18,"span":14,"encoder":"66542444625985","distractor":"66542444625988","target":"present","response":"present","rt":"1198","correct":true,"confidence":-1},{"trial_n":19,"span":14,"encoder":"75122832858874","distractor":"75122832858834","target":"absent","response":"present","rt":"2037.599999994","correct":false,"confidence":-1},{"trial_n":20,"span":13,"encoder":"6323319099534","distractor":"6323319094534","target":"absent","response":"absent","rt":"1528.900000006","correct":true,"confidence":-1},{"trial_n":21,"span":13,"encoder":"3598694506718","distractor":"3598694606718","target":"present","response":"present","rt":"1977.5","correct":true,"confidence":3},{"trial_n":22,"span":14,"encoder":"13258589221632","distractor":"13258589621632","target":"present","response":"present","rt":"2795.5","correct":true,"confidence":4},{"trial_n":23,"span":14,"encoder":"42899246525356","distractor":"62899246525356","target":"absent","response":"present","rt":"2497.1999999881","correct":false,"confidence":2},{"trial_n":24,"span":13,"encoder":"0336365281887","distractor":"0336265281887","target":"absent","response":"absent","rt":"4792.3000000119","correct":true,"confidence":4},{"trial_n":25,"span":13,"encoder":"0456686998539","distractor":"0456680998539","target":"absent","response":"present","rt":"3762.400000006","correct":false,"confidence":3},{"trial_n":26,"span":12,"encoder":"345315413498","distractor":"345315493498","target":"present","response":"present","rt":"5381.400000006","correct":true,"confidence":5},{"trial_n":27,"span":12,"encoder":"413840663636","distractor":"413840663606","target":"present","response":"present","rt":"4581.7000000179","correct":true,"confidence":3},{"trial_n":28,"span":13,"encoder":"8697132766402","distractor":"8691132766402","target":"absent","response":"present","rt":"3229.400000006","correct":false,"confidence":2},{"trial_n":29,"span":12,"encoder":"630865127232","distractor":"630865027232","target":"absent","response":"absent","rt":"2532.5","correct":true,"confidence":5},{"trial_n":30,"span":12,"encoder":"803496270641","distractor":"803496270941","target":"absent","response":"absent","rt":"2101.2999999821","correct":true,"confidence":2},{"trial_n":31,"span":13,"encoder":"0930739756229","distractor":"0930759756229","target":"absent","response":"present","rt":"3765.2999999821","correct":false,"confidence":3},{"trial_n":32,"span":12,"encoder":"077662320757","distractor":"077665320757","target":"present","response":"present","rt":"3950.3000000119","correct":true,"confidence":4},{"trial_n":33,"span":12,"encoder":"923413417370","distractor":"923013417370","target":"present","response":"present","rt":"5441.099999994","correct":true,"confidence":5},{"trial_n":34,"span":13,"encoder":"2316357236251","distractor":"2316307236251","target":"present","response":"absent","rt":"3612.900000006","correct":false,"confidence":3},{"trial_n":35,"span":12,"encoder":"182008913947","distractor":"182008813947","target":"present","response":"present","rt":"4845.1000000238","correct":true,"confidence":3},{"trial_n":36,"span":12,"encoder":"060083457953","distractor":"060083457951","target":"absent","response":"absent","rt":"5197.5","correct":true,"confidence":3},{"trial_n":37,"span":13,"encoder":"1926595489297","distractor":"1926595419297","target":"absent","response":"absent","rt":"4919","correct":true,"confidence":2},{"trial_n":38,"span":13,"encoder":"9968971315242","distractor":"9968971315272","target":"present","response":"present","rt":"3837.400000006","correct":true,"confidence":2},{"trial_n":39,"span":14,"encoder":"00226047487083","distractor":"00266047487083","target":"present","response":"present","rt":"2048.7999999821","correct":true,"confidence":2},{"trial_n":40,"span":14,"encoder":"81362850416585","distractor":"81362850496585","target":"present","response":"absent","rt":"5416.6999999881","correct":false,"confidence":2},{"trial_n":41,"span":13,"encoder":"8906945639266","distractor":"8906949639266","target":"present","response":"present","rt":"2691.6000000238","correct":true,"confidence":3},{"trial_n":42,"span":13,"encoder":"7915156117369","distractor":"7915156117389","target":"absent","response":"present","rt":"2888","correct":false,"confidence":2},{"trial_n":43,"span":12,"encoder":"503352733633","distractor":"503352793633","target":"present","response":"present","rt":"2778.5","correct":true,"confidence":4},{"trial_n":44,"span":12,"encoder":"579544356217","distractor":"579544359217","target":"absent","response":"present","rt":"3158.1999999881","correct":false,"confidence":3},{"trial_n":45,"span":11,"encoder":"46096700052","distractor":"46096700352","target":"absent","response":"absent","rt":"2067","correct":true,"confidence":5},{"trial_n":46,"span":11,"encoder":"92731055950","distractor":"92731095950","target":"absent","response":"present","rt":"3047.099999994","correct":false,"confidence":3},{"trial_n":47,"span":10,"encoder":"8408267907","distractor":"8408267807","target":"absent","response":"present","rt":"2162.099999994","correct":false,"confidence":4},{"trial_n":48,"span":9,"encoder":"862250502","distractor":"862750502","target":"present","response":"present","rt":"2990.599999994","correct":true,"confidence":5},{"trial_n":49,"span":9,"encoder":"021983230","distractor":"121983230","target":"present","response":"present","rt":"3264.6999999881","correct":true,"confidence":3},{"trial_n":50,"span":10,"encoder":"5450314197","distractor":"5458314197","target":"present","response":"present","rt":"4552.3000000119","correct":true,"confidence":5},{"trial_n":51,"span":10,"encoder":"3176732967","distractor":"3176732927","target":"present","response":"present","rt":"2729.2000000179","correct":true,"confidence":3},{"trial_n":52,"span":11,"encoder":"20471481607","distractor":"20471486607","target":"absent","response":"absent","rt":"1488.099999994","correct":true,"confidence":5},{"trial_n":53,"span":11,"encoder":"55695231414","distractor":"35695231414","target":"present","response":"absent","rt":"3232.599999994","correct":false,"confidence":4},{"trial_n":54,"span":10,"encoder":"0940606991","distractor":"0940609991","target":"absent","response":"absent","rt":"2461.599999994","correct":true,"confidence":5},{"trial_n":55,"span":10,"encoder":"5763586740","distractor":"5766586740","target":"present","response":"present","rt":"2805.5","correct":true,"confidence":3},{"trial_n":56,"span":11,"encoder":"24403492005","distractor":"24403492015","target":"present","response":"present","rt":"3082","correct":true,"confidence":2},{"trial_n":57,"span":11,"encoder":"87541764669","distractor":"87541764609","target":"absent","response":"absent","rt":"6024.6000000238","correct":true,"confidence":2},{"trial_n":58,"span":12,"encoder":"292460571915","distractor":"292460571918","target":"absent","response":"absent","rt":"1929.6000000238","correct":true,"confidence":5},{"trial_n":59,"span":12,"encoder":"568091263313","distractor":"568091263013","target":"present","response":"present","rt":"3869.2000000179","correct":true,"confidence":3},{"trial_n":60,"span":13,"encoder":"9880025396774","distractor":"9880025396778","target":"absent","response":"present","rt":"3479","correct":false,"confidence":4},{"trial_n":61,"span":12,"encoder":"749178237722","distractor":"743178237722","target":"absent","response":"present","rt":"3551.599999994","correct":false,"confidence":2},{"trial_n":62,"span":11,"encoder":"97121026875","distractor":"97121024875","target":"absent","response":"absent","rt":"2668.099999994","correct":true,"confidence":5},{"trial_n":63,"span":11,"encoder":"96958598640","distractor":"96158598640","target":"absent","response":"absent","rt":"2163.400000006","correct":true,"confidence":1},{"trial_n":64,"span":12,"encoder":"375364694832","distractor":"375364694332","target":"present","response":"present","rt":"4153.5","correct":true,"confidence":2},{"trial_n":65,"span":12,"encoder":"700712681939","distractor":"700716681939","target":"absent","response":"absent","rt":"6472.5","correct":true,"confidence":3},{"trial_n":66,"span":13,"encoder":"0840779651128","distractor":"0840779651228","target":"present","response":"present","rt":"4792.1999999881","correct":true,"confidence":3},{"trial_n":67,"span":13,"encoder":"1630126867531","distractor":"1630106867531","target":"present","response":"absent","rt":"6777.5","correct":false,"confidence":2},{"trial_n":68,"span":12,"encoder":"895402895044","distractor":"895402895444","target":"present","response":"present","rt":"2535.900000006","correct":true,"confidence":2},{"trial_n":69,"span":12,"encoder":"495616875107","distractor":"415616875107","target":"present","response":"present","rt":"3526.7999999821","correct":true,"confidence":2},{"trial_n":70,"span":13,"encoder":"7843672525145","distractor":"7893672525145","target":"absent","response":"absent","rt":"3654.5","correct":true,"confidence":5},{"trial_n":71,"span":8,"encoder":"34618775","distractor":"34718775","target":"present","response":"absent","rt":"3331.599999994","correct":false,"confidence":-1},{"trial_n":72,"span":7,"encoder":"7213703","distractor":"7293703","target":"present","response":"present","rt":"4593.5","correct":true,"confidence":-1},{"trial_n":73,"span":7,"encoder":"6258712","distractor":"6258719","target":"absent","response":"absent","rt":"4686.8000000119","correct":true,"confidence":-1},{"trial_n":74,"span":8,"encoder":"33211264","distractor":"93211264","target":"absent","response":"absent","rt":"2952.5","correct":true,"confidence":-1},{"trial_n":75,"span":8,"encoder":"58357623","distractor":"48357623","target":"present","response":"present","rt":"3463.6000000238","correct":true,"confidence":-1},{"trial_n":76,"span":9,"encoder":"386310740","distractor":"386310742","target":"present","response":"present","rt":"1973.1999999881","correct":true,"confidence":-1},{"trial_n":77,"span":9,"encoder":"490652937","distractor":"490652967","target":"present","response":"present","rt":"2792.400000006","correct":true,"confidence":-1},{"trial_n":78,"span":10,"encoder":"2536265417","distractor":"2536265427","target":"absent","response":"absent","rt":"2151.400000006","correct":true,"confidence":-1},{"trial_n":79,"span":10,"encoder":"7250495620","distractor":"0250495620","target":"present","response":"present","rt":"2738.5","correct":true,"confidence":-1},{"trial_n":80,"span":11,"encoder":"46163133030","distractor":"46363133030","target":"present","response":"absent","rt":"3189","correct":false,"confidence":-1},{"trial_n":81,"span":10,"encoder":"6084450168","distractor":"6084450148","target":"present","response":"present","rt":"1993.900000006","correct":true,"confidence":-1},{"trial_n":82,"span":10,"encoder":"6031818553","distractor":"6931818553","target":"absent","response":"absent","rt":"2896.3999999762","correct":true,"confidence":-1},{"trial_n":83,"span":11,"encoder":"87695456474","distractor":"87625456474","target":"absent","response":"absent","rt":"2608.400000006","correct":true,"confidence":-1},{"trial_n":84,"span":11,"encoder":"61461245136","distractor":"65461245136","target":"present","response":"absent","rt":"5077.900000006","correct":false,"confidence":-1},{"trial_n":85,"span":10,"encoder":"9282889788","distractor":"9282889748","target":"absent","response":"absent","rt":"1535","correct":true,"confidence":-1},{"trial_n":86,"span":10,"encoder":"5424341925","distractor":"0424341925","target":"present","response":"present","rt":"1308.5","correct":true,"confidence":-1},{"trial_n":87,"span":11,"encoder":"06581416108","distractor":"06581456108","target":"present","response":"absent","rt":"4274.5","correct":false,"confidence":-1},{"trial_n":88,"span":10,"encoder":"8271478373","distractor":"8871478373","target":"absent","response":"present","rt":"1217.900000006","correct":false,"confidence":-1},{"trial_n":89,"span":9,"encoder":"330048014","distractor":"330047014","target":"absent","response":"absent","rt":"3147.900000006","correct":true,"confidence":-1},{"trial_n":90,"span":9,"encoder":"643683510","distractor":"643663510","target":"absent","response":"absent","rt":"4471.5","correct":true,"confidence":-1},{"trial_n":91,"span":10,"encoder":"7350472451","distractor":"7350872451","target":"present","response":"present","rt":"3231.8999999762","correct":true,"confidence":2},{"trial_n":92,"span":10,"encoder":"3217743452","distractor":"3217743412","target":"absent","response":"absent","rt":"3203.599999994","correct":true,"confidence":4},{"trial_n":93,"span":11,"encoder":"54115387427","distractor":"54115382427","target":"absent","response":"absent","rt":"5198.3999999762","correct":true,"confidence":3},{"trial_n":94,"span":11,"encoder":"17810657799","distractor":"17813657799","target":"absent","response":"present","rt":"7061","correct":false,"confidence":3},{"trial_n":95,"span":10,"encoder":"9101333285","distractor":"9131333285","target":"absent","response":"absent","rt":"6283.3000000119","correct":true,"confidence":4},{"trial_n":96,"span":10,"encoder":"6727917058","distractor":"6725917058","target":"present","response":"present","rt":"5116.1000000238","correct":true,"confidence":3},{"trial_n":97,"span":11,"encoder":"80400556513","distractor":"80400556516","target":"present","response":"present","rt":"2630.099999994","correct":true,"confidence":5},{"trial_n":98,"span":11,"encoder":"19289310136","distractor":"19489310136","target":"absent","response":"present","rt":"5596.099999994","correct":false,"confidence":1},{"trial_n":99,"span":10,"encoder":"7301721270","distractor":"7301723270","target":"present","response":"present","rt":"4520.8000000119","correct":true,"confidence":5},{"trial_n":100,"span":10,"encoder":"5784129332","distractor":"5784629332","target":"present","response":"present","rt":"5390.3000000119","correct":true,"confidence":3},{"trial_n":101,"span":11,"encoder":"19373805749","distractor":"19373805349","target":"present","response":"present","rt":"5185.6999999881","correct":true,"confidence":2},{"trial_n":102,"span":11,"encoder":"85456622785","distractor":"85456522785","target":"present","response":"absent","rt":"4601.2999999821","correct":false,"confidence":3},{"trial_n":103,"span":10,"encoder":"5942587708","distractor":"5912587708","target":"absent","response":"absent","rt":"8362.5","correct":true,"confidence":2},{"trial_n":104,"span":10,"encoder":"5471998633","distractor":"5471998683","target":"absent","response":"absent","rt":"7565","correct":true,"confidence":3},{"trial_n":105,"span":11,"encoder":"86034138242","distractor":"86034138042","target":"present","response":"absent","rt":"6345.5","correct":false,"confidence":3},{"trial_n":106,"span":10,"encoder":"3177662368","distractor":"3177692368","target":"absent","response":"absent","rt":"4024.3000000119","correct":true,"confidence":5},{"trial_n":107,"span":10,"encoder":"1531444629","distractor":"1531464629","target":"present","response":"present","rt":"2742.8000000119","correct":true,"confidence":5},{"trial_n":108,"span":11,"encoder":"13573662019","distractor":"13579662019","target":"present","response":"present","rt":"10245","correct":true,"confidence":3},{"trial_n":109,"span":11,"encoder":"88168898184","distractor":"88168898154","target":"present","response":"present","rt":"6188.400000006","correct":true,"confidence":2},{"trial_n":110,"span":12,"encoder":"065232879647","distractor":"065232859647","target":"present","response":"present","rt":"7114.400000006","correct":true,"confidence":3},{"trial_n":111,"span":12,"encoder":"683564052539","distractor":"983564052539","target":"present","response":"present","rt":"2667.8000000119","correct":true,"confidence":5},{"trial_n":112,"span":13,"encoder":"0485198884647","distractor":"0485198984647","target":"absent","response":"absent","rt":"4393.1000000238","correct":true,"confidence":5},{"trial_n":113,"span":13,"encoder":"5582687694666","distractor":"5582687692666","target":"absent","response":"absent","rt":"3299.5","correct":true,"confidence":4},{"trial_n":114,"span":14,"encoder":"65592519797982","distractor":"65592519797952","target":"absent","response":"present","rt":"5273.099999994","correct":false,"confidence":2},{"trial_n":115,"span":13,"encoder":"0798593033422","distractor":"0768593033422","target":"absent","response":"absent","rt":"15717.799999982","correct":true,"confidence":3},{"trial_n":116,"span":13,"encoder":"7585273603833","distractor":"7585263603833","target":"absent","response":"absent","rt":"5276.900000006","correct":true,"confidence":2},{"trial_n":117,"span":14,"encoder":"77614278609675","distractor":"77614248609675","target":"absent","response":"present","rt":"5703.2999999821","correct":false,"confidence":2},{"trial_n":118,"span":13,"encoder":"6119959519031","distractor":"6189959519031","target":"present","response":"present","rt":"4177.5","correct":true,"confidence":5},{"trial_n":119,"span":13,"encoder":"6651543338773","distractor":"1651543338773","target":"present","response":"present","rt":"5192","correct":true,"confidence":4},{"trial_n":120,"span":14,"encoder":"98033885068487","distractor":"96033885068487","target":"absent","response":"absent","rt":"8975.8000000119","correct":true,"confidence":3},{"trial_n":121,"span":14,"encoder":"85997321985893","distractor":"85997321915893","target":"absent","response":"absent","rt":"7847.7000000179","correct":true,"confidence":3},{"trial_n":122,"span":15,"encoder":"758463655374075","distractor":"758463655374074","target":"present","response":"absent","rt":"10669.199999988","correct":false,"confidence":4},{"trial_n":123,"span":14,"encoder":"79812286593912","distractor":"79812287593912","target":"present","response":"present","rt":"8061","correct":true,"confidence":2},{"trial_n":124,"span":14,"encoder":"92797996493881","distractor":"92297996493881","target":"absent","response":"present","rt":"6290.099999994","correct":false,"confidence":3},{"trial_n":125,"span":13,"encoder":"6387453445144","distractor":"6387493445144","target":"present","response":"present","rt":"7554.900000006","correct":true,"confidence":3},{"trial_n":126,"span":13,"encoder":"4594505945995","distractor":"8594505945995","target":"absent","response":"absent","rt":"4920.8000000119","correct":true,"confidence":3},{"trial_n":127,"span":14,"encoder":"56674653507033","distractor":"58674653507033","target":"absent","response":"present","rt":"4440.400000006","correct":false,"confidence":1},{"trial_n":128,"span":13,"encoder":"8978216889726","distractor":"8928216889726","target":"present","response":"present","rt":"5164.7999999821","correct":true,"confidence":2},{"trial_n":129,"span":13,"encoder":"8767896649817","distractor":"8767896649917","target":"absent","response":"absent","rt":"3175.599999994","correct":true,"confidence":3},{"trial_n":130,"span":14,"encoder":"00184202629545","distractor":"00185202629545","target":"present","response":"present","rt":"4533.8999999762","correct":true,"confidence":5},{"trial_n":131,"span":14,"encoder":"67543715347339","distractor":"67523715347339","target":"present","response":"present","rt":"8208.099999994","correct":true,"confidence":4},{"trial_n":132,"span":15,"encoder":"264251662346925","distractor":"264951662346925","target":"present","response":"present","rt":"5678","correct":true,"confidence":2},{"trial_n":133,"span":15,"encoder":"250279566636284","distractor":"250299566636284","target":"absent","response":"absent","rt":"3876.3000000119","correct":true,"confidence":2},{"trial_n":134,"span":16,"encoder":"5929747197034640","distractor":"5029747197034640","target":"absent","response":"present","rt":"13350.100000024","correct":false,"confidence":1},{"trial_n":135,"span":15,"encoder":"095998673088567","distractor":"092998673088567","target":"present","response":"absent","rt":"6391.5","correct":false,"confidence":3},{"trial_n":136,"span":14,"encoder":"07923886456964","distractor":"07923586456964","target":"absent","response":"absent","rt":"9578.8999999762","correct":true,"confidence":3},{"trial_n":137,"span":14,"encoder":"86180729900789","distractor":"86180709900789","target":"absent","response":"absent","rt":"4801.5","correct":true,"confidence":5},{"trial_n":138,"span":15,"encoder":"857604476589847","distractor":"857604476589837","target":"present","response":"absent","rt":"19177.300000012","correct":false,"confidence":1},{"trial_n":139,"span":14,"encoder":"48563252184641","distractor":"44563252184641","target":"present","response":"present","rt":"17675.699999988","correct":true,"confidence":2},{"trial_n":140,"span":14,"encoder":"64336220526167","distractor":"64336225526167","target":"absent","response":"present","rt":"6429.099999994","correct":false,"confidence":4}]