[{"trial_n":1,"span":8,"encoder":"05770416","distractor":"05770417","target":"present","response":"present","rt":"7630.8999999762","correct":true,"confidence":-1},{"trial_n":2,"span":8,"encoder":"41212291","distractor":"41212691","target":"present","response":"absent","rt":"2470.3999999762","correct":false,"confidence":-1},{"trial_n":3,"span":6,"encoder":"040450","distractor":"440450","target":"absent","response":"absent","rt":"2003.1000000238","correct":true,"confidence":-1},{"trial_n":4,"span":6,"encoder":"998510","distractor":"398510","target":"absent","response":"absent","rt":"1170.3000000715","correct":true,"confidence":-1},{"trial_n":5,"span":8,"encoder":"33010686","distractor":"33010685","target":"present","response":"present","rt":"1613.3999999762","correct":true,"confidence":-1},{"trial_n":6,"span":8,"encoder":"80857283","distractor":"80807283","target":"present","response":"present","rt":"2749.6000000238","correct":true,"confidence":-1},{"trial_n":7,"span":10,"encoder":"3870720713","distractor":"3570720713","target":"present","response":"present","rt":"3213.8999999762","correct":true,"confidence":-1},{"trial_n":8,"span":10,"encoder":"1578768860","distractor":"1578568860","target":"absent","response":"absent","rt":"2456.2999999523","correct":true,"confidence":-1},{"trial_n":9,"span":12,"encoder":"449900947633","distractor":"449900947833","target":"present","response":"present","rt":"2329.8999999762","correct":true,"confidence":-1},{"trial_n":10,"span":12,"encoder":"523744363792","distractor":"223744363792","target":"absent","response":"absent","rt":"1602.3999999762","correct":true,"confidence":-1},{"trial_n":11,"span":14,"encoder":"69396894867668","distractor":"69396894667668","target":"absent","response":"absent","rt":"1996.1000000238","correct":true,"confidence":-1},{"trial_n":12,"span":14,"encoder":"14100076104644","distractor":"34100076104644","target":"absent","response":"present","rt":"70979.100000024","correct":false,"confidence":-1},{"trial_n":13,"span":13,"encoder":"5436520912638","distractor":"5436520912636","target":"absent","response":"absent","rt":"1622.7999999523","correct":true,"confidence":-1},{"trial_n":14,"span":13,"encoder":"1488974205473","distractor":"1488974215473","target":"present","response":"present","rt":"1406.3999999762","correct":true,"confidence":-1},{"trial_n":15,"span":14,"encoder":"75277231473098","distractor":"75277231473598","target":"present","response":"present","rt":"1722.1000000238","correct":true,"confidence":-1},{"trial_n":16,"span":14,"encoder":"82388952357862","distractor":"82388952457862","target":"present","response":"present","rt":"1331.5","correct":true,"confidence":-1},{"trial_n":17,"span":15,"encoder":"232547895476238","distractor":"232545895476238","target":"absent","response":"present","rt":"1317.2999999523","correct":false,"confidence":-1},{"trial_n":18,"span":14,"encoder":"76885464512050","distractor":"76885463512050","target":"present","response":"present","rt":"1101.1000000238","correct":true,"confidence":-1},{"trial_n":19,"span":14,"encoder":"64097366566219","distractor":"64027366566219","target":"absent","response":"present","rt":"103695.79999995","correct":false,"confidence":-1},{"trial_n":20,"span":13,"encoder":"2818846715627","distractor":"2818846715027","target":"present","response":"present","rt":"1598.1000000238","correct":true,"confidence":-1},{"trial_n":21,"span":13,"encoder":"6757197502017","distractor":"6757196502017","target":"absent","response":"present","rt":"1296","correct":false,"confidence":4},{"trial_n":22,"span":12,"encoder":"432620358913","distractor":"432620338913","target":"present","response":"present","rt":"2611.5","correct":true,"confidence":5},{"trial_n":23,"span":12,"encoder":"459857830049","distractor":"559857830049","target":"absent","response":"absent","rt":"3694.3000000715","correct":true,"confidence":3},{"trial_n":24,"span":13,"encoder":"4383753807944","distractor":"4385753807944","target":"present","response":"present","rt":"2928.1000000238","correct":true,"confidence":4},{"trial_n":25,"span":13,"encoder":"1186232553713","distractor":"1186232553723","target":"absent","response":"absent","rt":"3866.3999999762","correct":true,"confidence":5},{"trial_n":26,"span":14,"encoder":"05994163095043","distractor":"05994463095043","target":"absent","response":"present","rt":"3066.2000000477","correct":false,"confidence":3},{"trial_n":27,"span":13,"encoder":"4058218287959","distractor":"4058018287959","target":"absent","response":"present","rt":"1739.1000000238","correct":false,"confidence":4},{"trial_n":28,"span":12,"encoder":"629138057928","distractor":"529138057928","target":"absent","response":"present","rt":"2960.3999999762","correct":false,"confidence":5},{"trial_n":29,"span":11,"encoder":"83817425666","distractor":"83847425666","target":"present","response":"absent","rt":"2824.5","correct":false,"confidence":5},{"trial_n":30,"span":10,"encoder":"2949090372","distractor":"2949490372","target":"present","response":"present","rt":"2033.3000000715","correct":true,"confidence":5},{"trial_n":31,"span":10,"encoder":"0939148370","distractor":"0939142370","target":"present","response":"absent","rt":"3262.3000000715","correct":false,"confidence":4},{"trial_n":32,"span":9,"encoder":"301229409","distractor":"301029409","target":"present","response":"present","rt":"2215.7000000477","correct":true,"confidence":5},{"trial_n":33,"span":9,"encoder":"696471076","distractor":"696471026","target":"absent","response":"absent","rt":"2831.1000000238","correct":true,"confidence":5},{"trial_n":34,"span":10,"encoder":"5864856073","distractor":"2864856073","target":"present","response":"absent","rt":"3377.8999999762","correct":false,"confidence":5},{"trial_n":35,"span":9,"encoder":"000915370","distractor":"000910370","target":"present","response":"absent","rt":"2753.8999999762","correct":false,"confidence":5},{"trial_n":36,"span":8,"encoder":"41831486","distractor":"41831480","target":"present","response":"present","rt":"2257.8999999762","correct":true,"confidence":5},{"trial_n":37,"span":8,"encoder":"94698573","distractor":"64698573","target":"absent","response":"absent","rt":"2109.6000000238","correct":true,"confidence":2},{"trial_n":38,"span":9,"encoder":"805770669","distractor":"805770629","target":"present","response":"absent","rt":"2600.6000000238","correct":false,"confidence":4},{"trial_n":39,"span":8,"encoder":"80266495","distractor":"80267495","target":"absent","response":"absent","rt":"2804.5","correct":true,"confidence":5},{"trial_n":40,"span":8,"encoder":"39207125","distractor":"39207105","target":"absent","response":"present","rt":"3571.3999999762","correct":false,"confidence":3},{"trial_n":41,"span":7,"encoder":"5552547","distractor":"5552548","target":"present","response":"absent","rt":"4045.7000000477","correct":false,"confidence":5},{"trial_n":42,"span":6,"encoder":"604069","distractor":"604009","target":"absent","response":"absent","rt":"2110.1999999285","correct":true,"confidence":5},{"trial_n":43,"span":6,"encoder":"374213","distractor":"374211","target":"present","response":"present","rt":"2135.8999999762","correct":true,"confidence":5},{"trial_n":44,"span":7,"encoder":"8583496","distractor":"8583499","target":"present","response":"absent","rt":"11014.600000024","correct":false,"confidence":5},{"trial_n":45,"span":6,"encoder":"912741","distractor":"982741","target":"present","response":"present","rt":"1783.5","correct":true,"confidence":5},{"trial_n":46,"span":6,"encoder":"535849","distractor":"530849","target":"present","response":"absent","rt":"2868.8000000715","correct":false,"confidence":4},{"trial_n":47,"span":5,"encoder":"75422","distractor":"75432","target":"absent","response":"absent","rt":"1741.7999999523","correct":true,"confidence":5},{"trial_n":48,"span":5,"encoder":"11700","distractor":"11780","target":"present","response":"absent","rt":"2061.7000000477","correct":false,"confidence":5},{"trial_n":49,"span":4,"encoder":"8585","distractor":"8505","target":"absent","response":"absent","rt":"2226.6000000238","correct":true,"confidence":5},{"trial_n":50,"span":4,"encoder":"3251","distractor":"3051","target":"absent","response":"absent","rt":"3798.5999999046","correct":true,"confidence":4},{"trial_n":51,"span":5,"encoder":"99266","distractor":"99866","target":"absent","response":"absent","rt":"1972.5999999046","correct":true,"confidence":5},{"trial_n":52,"span":5,"encoder":"84333","distractor":"84383","target":"present","response":"absent","rt":"2909.1000000238","correct":false,"confidence":2},{"trial_n":53,"span":4,"encoder":"3505","distractor":"3507","target":"absent","response":"absent","rt":"1583","correct":true,"confidence":5},{"trial_n":54,"span":4,"encoder":"3338","distractor":"3378","target":"absent","response":"absent","rt":"1596.5","correct":true,"confidence":5},{"trial_n":55,"span":5,"encoder":"96119","distractor":"96110","target":"absent","response":"absent","rt":"1786","correct":true,"confidence":5},{"trial_n":56,"span":5,"encoder":"20771","distractor":"30771","target":"absent","response":"absent","rt":"1766.8999999762","correct":true,"confidence":5},{"trial_n":57,"span":6,"encoder":"365331","distractor":"365391","target":"absent","response":"absent","rt":"1954.5","correct":true,"confidence":5},{"trial_n":58,"span":6,"encoder":"568935","distractor":"568535","target":"present","response":"absent","rt":"2743","correct":false,"confidence":5},{"trial_n":59,"span":5,"encoder":"56539","distractor":"56939","target":"present","response":"present","rt":"2771.5","correct":true,"confidence":5},{"trial_n":60,"span":5,"encoder":"02240","distractor":"02245","target":"absent","response":"absent","rt":"1842.6000000238","correct":true,"confidence":5},{"trial_n":61,"span":6,"encoder":"400501","distractor":"400901","target":"absent","response":"absent","rt":"1035.4000000954","correct":true,"confidence":5},{"trial_n":62,"span":6,"encoder":"924501","distractor":"924571","target":"absent","response":"absent","rt":"1649.7999999523","correct":true,"confidence":5},{"trial_n":63,"span":7,"encoder":"3280328","distractor":"3281328","target":"absent","response":"absent","rt":"1439.2999999523","correct":true,"confidence":5},{"trial_n":64,"span":7,"encoder":"0982434","distractor":"0982334","target":"present","response":"absent","rt":"2851.8000000715","correct":false,"confidence":5},{"trial_n":65,"span":6,"encoder":"122870","distractor":"122070","target":"present","response":"absent","rt":"3677.8999999762","correct":false,"confidence":4},{"trial_n":66,"span":5,"encoder":"07850","distractor":"77850","target":"present","response":"present","rt":"2220.7000000477","correct":true,"confidence":5},{"trial_n":67,"span":5,"encoder":"05317","distractor":"15317","target":"present","response":"present","rt":"2884.5","correct":true,"confidence":5},{"trial_n":68,"span":6,"encoder":"154662","distractor":"157662","target":"present","response":"present","rt":"2491.7999999523","correct":true,"confidence":5},{"trial_n":69,"span":6,"encoder":"545886","distractor":"545889","target":"absent","response":"absent","rt":"3555.1999999285","correct":true,"confidence":5},{"trial_n":70,"span":7,"encoder":"6473073","distractor":"6473173","target":"present","response":"present","rt":"4055.7000000477","correct":true,"confidence":1},{"trial_n":71,"span":8,"encoder":"01377698","distractor":"01977698","target":"present","response":"present","rt":"3861.7999999523","correct":true,"confidence":-1},{"trial_n":72,"span":8,"encoder":"25980999","distractor":"25980919","target":"present","response":"present","rt":"2901.7999999523","correct":true,"confidence":-1},{"trial_n":73,"span":9,"encoder":"217217331","distractor":"217213331","target":"absent","response":"present","rt":"7286.6000000238","correct":false,"confidence":-1},{"trial_n":74,"span":8,"encoder":"29493602","distractor":"59493602","target":"absent","response":"absent","rt":"1889.6000000238","correct":true,"confidence":-1},{"trial_n":75,"span":8,"encoder":"57503111","distractor":"57503711","target":"present","response":"absent","rt":"2445.2999999523","correct":false,"confidence":-1},{"trial_n":76,"span":7,"encoder":"9693551","distractor":"9193551","target":"absent","response":"absent","rt":"2885.2999999523","correct":true,"confidence":-1},{"trial_n":77,"span":7,"encoder":"2271155","distractor":"2251155","target":"present","response":"present","rt":"2346.8999999762","correct":true,"confidence":-1},{"trial_n":78,"span":8,"encoder":"52866172","distractor":"55866172","target":"present","response":"absent","rt":"4132.3999999762","correct":false,"confidence":-1},{"trial_n":79,"span":7,"encoder":"6864766","distractor":"6864726","target":"absent","response":"present","rt":"1933.7999999523","correct":false,"confidence":-1},{"trial_n":80,"span":6,"encoder":"818178","distractor":"718178","target":"absent","response":"absent","rt":"2178.6000000238","correct":true,"confidence":-1},{"trial_n":81,"span":6,"encoder":"308624","distractor":"378624","target":"absent","response":"absent","rt":"2877.6999999285","correct":true,"confidence":-1},{"trial_n":82,"span":7,"encoder":"4499673","distractor":"4499873","target":"present","response":"present","rt":"3051","correct":true,"confidence":-1},{"trial_n":83,"span":7,"encoder":"3617961","distractor":"3217961","target":"present","response":"present","rt":"3954.5","correct":true,"confidence":-1},{"trial_n":84,"span":8,"encoder":"79539188","distractor":"74539188","target":"absent","response":"absent","rt":"1531.4000000954","correct":true,"confidence":-1},{"trial_n":85,"span":8,"encoder":"27646958","distractor":"27646978","target":"absent","response":"absent","rt":"1573.5999999046","correct":true,"confidence":-1},{"trial_n":86,"span":9,"encoder":"835080170","distractor":"835080470","target":"absent","response":"absent","rt":"2782.8999999762","correct":true,"confidence":-1},{"trial_n":87,"span":9,"encoder":"877408378","distractor":"877608378","target":"present","response":"present","rt":"3965.3999999762","correct":true,"confidence":-1},{"trial_n":88,"span":10,"encoder":"3065145221","distractor":"3065145621","target":"absent","response":"absent","rt":"6546.8999999762","correct":true,"confidence":-1},{"trial_n":89,"span":10,"encoder":"5912177724","distractor":"5912677724","target":"present","response":"absent","rt":"1631.1000000238","correct":false,"confidence":-1},{"trial_n":90,"span":9,"encoder":"047000294","distractor":"067000294","target":"present","response":"present","rt":"3003.3999999762","correct":true,"confidence":-1},{"trial_n":91,"span":9,"encoder":"559905591","distractor":"558905591","target":"absent","response":"absent","rt":"3064.5","correct":true,"confidence":5},{"trial_n":92,"span":10,"encoder":"2354565853","distractor":"6354565853","target":"absent","response":"absent","rt":"2421.2000000477","correct":true,"confidence":5},{"trial_n":93,"span":10,"encoder":"6622153308","distractor":"6622153208","target":"present","response":"present","rt":"3064.3999999762","correct":true,"confidence":5},{"trial_n":94,"span":11,"encoder":"94599311620","distractor":"94599311720","target":"absent","response":"absent","rt":"7056.1000000238","correct":true,"confidence":4},{"trial_n":95,"span":11,"encoder":"65487603259","distractor":"65487503259","target":"present","response":"present","rt":"3554.3000000715","correct":true,"confidence":5},{"trial_n":96,"span":12,"encoder":"364254626321","distractor":"164254626321","target":"absent","response":"absent","rt":"3729.8000000715","correct":true,"confidence":3},{"trial_n":97,"span":12,"encoder":"020850073141","distractor":"020850073101","target":"absent","response":"absent","rt":"2187.1999999285","correct":true,"confidence":5},{"trial_n":98,"span":13,"encoder":"7693417303915","distractor":"7693418303915","target":"present","response":"present","rt":"7096.1000000238","correct":true,"confidence":4},{"trial_n":99,"span":13,"encoder":"2772249766020","distractor":"2972249766020","target":"absent","response":"present","rt":"7909.5","correct":false,"confidence":4},{"trial_n":100,"span":12,"encoder":"961654801483","distractor":"961654821483","target":"absent","response":"absent","rt":"5128.7000000477","correct":true,"confidence":5},{"trial_n":101,"span":12,"encoder":"257709133869","distractor":"257799133869","target":"present","response":"present","rt":"3409.2999999523","correct":true,"confidence":5},{"trial_n":102,"span":13,"encoder":"4356831601767","distractor":"4356838601767","target":"present","response":"absent","rt":"5485.3999999762","correct":false,"confidence":1},{"trial_n":103,"span":12,"encoder":"165809581369","distractor":"165809581389","target":"absent","response":"absent","rt":"3327.5","correct":true,"confidence":5},{"trial_n":104,"span":12,"encoder":"772247620890","distractor":"772244620890","target":"present","response":"present","rt":"4030.2999999523","correct":true,"confidence":4},{"trial_n":105,"span":13,"encoder":"9286315495226","distractor":"9286315495256","target":"absent","response":"present","rt":"3792.7999999523","correct":false,"confidence":5},{"trial_n":106,"span":12,"encoder":"335286950493","distractor":"335286953493","target":"present","response":"present","rt":"3559.1999999285","correct":true,"confidence":5},{"trial_n":107,"span":12,"encoder":"009876956470","distractor":"009872956470","target":"present","response":"absent","rt":"2256.3999999762","correct":false,"confidence":5},{"trial_n":108,"span":11,"encoder":"00128693876","distractor":"00178693876","target":"absent","response":"absent","rt":"4193.0999999046","correct":true,"confidence":5},{"trial_n":109,"span":11,"encoder":"91341295567","distractor":"97341295567","target":"absent","response":"absent","rt":"2570.1000000238","correct":true,"confidence":2},{"trial_n":110,"span":12,"encoder":"357031636376","distractor":"358031636376","target":"absent","response":"absent","rt":"3115","correct":true,"confidence":2},{"trial_n":111,"span":12,"encoder":"532507154621","distractor":"582507154621","target":"absent","response":"absent","rt":"6804.5","correct":true,"confidence":4},{"trial_n":112,"span":13,"encoder":"5989737744589","distractor":"5989767744589","target":"present","response":"present","rt":"2941.7000000477","correct":true,"confidence":4},{"trial_n":113,"span":13,"encoder":"1883356920753","distractor":"1883356990753","target":"absent","response":"absent","rt":"4039.6999999285","correct":true,"confidence":5},{"trial_n":114,"span":14,"encoder":"59173257367246","distractor":"59173257367242","target":"absent","response":"absent","rt":"9560.6000000238","correct":true,"confidence":5},{"trial_n":115,"span":14,"encoder":"35909881849793","distractor":"35909981849793","target":"present","response":"present","rt":"6763.5","correct":true,"confidence":3},{"trial_n":116,"span":15,"encoder":"682259419483772","distractor":"682259419183772","target":"absent","response":"absent","rt":"8468.3999999762","correct":true,"confidence":1},{"trial_n":117,"span":15,"encoder":"209309248579093","distractor":"209309248579033","target":"absent","response":"present","rt":"2614.5","correct":false,"confidence":3},{"trial_n":118,"span":14,"encoder":"04323615507756","distractor":"04323611507756","target":"present","response":"present","rt":"1862.6999999285","correct":true,"confidence":3},{"trial_n":119,"span":14,"encoder":"93880065063984","distractor":"93880035063984","target":"present","response":"absent","rt":"3603.2000000477","correct":false,"confidence":3},{"trial_n":120,"span":13,"encoder":"7326866676467","distractor":"7326866676461","target":"absent","response":"absent","rt":"7128.3999999762","correct":true,"confidence":5},{"trial_n":121,"span":13,"encoder":"1813486138163","distractor":"1813486338163","target":"absent","response":"absent","rt":"3118.1999999285","correct":true,"confidence":2},{"trial_n":122,"span":14,"encoder":"96693876341050","distractor":"96693806341050","target":"present","response":"absent","rt":"5563.3999999762","correct":false,"confidence":4},{"trial_n":123,"span":13,"encoder":"8238859841321","distractor":"8228859841321","target":"absent","response":"present","rt":"5976.7999999523","correct":false,"confidence":3},{"trial_n":124,"span":12,"encoder":"822147486804","distractor":"822117486804","target":"present","response":"present","rt":"1190.2999999523","correct":true,"confidence":1},{"trial_n":125,"span":12,"encoder":"239239992932","distractor":"239239192932","target":"present","response":"present","rt":"4078.8000000715","correct":true,"confidence":5},{"trial_n":126,"span":13,"encoder":"4811364773900","distractor":"4811364733900","target":"present","response":"absent","rt":"2902.5","correct":false,"confidence":2},{"trial_n":127,"span":12,"encoder":"528896684716","distractor":"528816684716","target":"absent","response":"present","rt":"5300.1999999285","correct":false,"confidence":5},{"trial_n":128,"span":11,"encoder":"90629654464","distractor":"90629664464","target":"present","response":"present","rt":"3295.9000000954","correct":true,"confidence":5},{"trial_n":129,"span":11,"encoder":"61488242280","distractor":"61488842280","target":"absent","response":"present","rt":"2855","correct":false,"confidence":3},{"trial_n":130,"span":10,"encoder":"5942104160","distractor":"5942164160","target":"present","response":"present","rt":"2062","correct":true,"confidence":3},{"trial_n":131,"span":10,"encoder":"3760407320","distractor":"3760409320","target":"present","response":"present","rt":"2580.3999999762","correct":true,"confidence":5},{"trial_n":132,"span":11,"encoder":"69923372266","distractor":"69923372206","target":"absent","response":"present","rt":"4214.3999999762","correct":false,"confidence":2},{"trial_n":133,"span":10,"encoder":"0142585306","distractor":"0142585356","target":"present","response":"present","rt":"3009.1999999285","correct":true,"confidence":3},{"trial_n":134,"span":10,"encoder":"1807645652","distractor":"1809645652","target":"present","response":"absent","rt":"2426.2000000477","correct":false,"confidence":4},{"trial_n":135,"span":9,"encoder":"796136389","distractor":"796136381","target":"present","response":"present","rt":"1989","correct":true,"confidence":5},{"trial_n":136,"span":9,"encoder":"491989596","distractor":"491983596","target":"present","response":"present","rt":"5131.1000000238","correct":true,"confidence":3},{"trial_n":137,"span":10,"encoder":"2633436820","distractor":"2133436820","target":"present","response":"present","rt":"5236.2000000477","correct":true,"confidence":1},{"trial_n":138,"span":10,"encoder":"5367922885","distractor":"5367942885","target":"absent","response":"present","rt":"7301.5","correct":false,"confidence":3},{"trial_n":139,"span":9,"encoder":"080756810","distractor":"080796810","target":"present","response":"absent","rt":"2167.8999999762","correct":false,"confidence":4},{"trial_n":140,"span":8,"encoder":"80368543","distractor":"80168543","target":"present","response":"present","rt":"2604.1000000238","correct":true,"confidence":4}]