[{"trial_n":1,"min":25,"max":230,"target":"present","response":"absent","rt":6352.8999999762,"correct":false,"confidence":-1},{"trial_n":2,"min":25,"max":230,"target":"present","response":"present","rt":2691.5999999046,"correct":true,"confidence":-1},{"trial_n":3,"min":25,"max":230,"target":"absent","response":"present","rt":1510.7000000477,"correct":false,"confidence":-1},{"trial_n":4,"min":9,"max":246,"target":"absent","response":"present","rt":871.20000004768,"correct":false,"confidence":-1},{"trial_n":5,"min":0,"max":255,"target":"present","response":"absent","rt":1184,"correct":false,"confidence":-1},{"trial_n":6,"min":0,"max":255,"target":"present","response":"present","rt":1190.3999999762,"correct":true,"confidence":-1},{"trial_n":7,"min":0,"max":255,"target":"absent","response":"absent","rt":2636.5999999046,"correct":true,"confidence":-1},{"trial_n":8,"min":16,"max":239,"target":"absent","response":"absent","rt":871.5,"correct":true,"confidence":-1},{"trial_n":9,"min":16,"max":239,"target":"present","response":"present","rt":2814.1000000238,"correct":true,"confidence":-1},{"trial_n":10,"min":32,"max":223,"target":"present","response":"present","rt":664.39999997616,"correct":true,"confidence":-1},{"trial_n":11,"min":32,"max":223,"target":"present","response":"present","rt":514.30000007153,"correct":true,"confidence":-1},{"trial_n":12,"min":40,"max":215,"target":"absent","response":"absent","rt":1270.6000000238,"correct":true,"confidence":-1},{"trial_n":13,"min":40,"max":215,"target":"absent","response":"absent","rt":613.20000004768,"correct":true,"confidence":-1},{"trial_n":14,"min":48,"max":207,"target":"absent","response":"absent","rt":506,"correct":true,"confidence":-1},{"trial_n":15,"min":48,"max":207,"target":"absent","response":"absent","rt":517.70000004768,"correct":true,"confidence":-1},{"trial_n":16,"min":56,"max":199,"target":"absent","response":"absent","rt":598.69999992847,"correct":true,"confidence":-1},{"trial_n":17,"min":56,"max":199,"target":"present","response":"present","rt":778.30000007153,"correct":true,"confidence":-1},{"trial_n":18,"min":64,"max":191,"target":"absent","response":"absent","rt":962,"correct":true,"confidence":-1},{"trial_n":19,"min":64,"max":191,"target":"absent","response":"absent","rt":661.69999992847,"correct":true,"confidence":-1},{"trial_n":20,"min":72,"max":183,"target":"absent","response":"absent","rt":472.10000002384,"correct":true,"confidence":-1},{"trial_n":21,"min":72,"max":183,"target":"absent","response":"absent","rt":896.40000009537,"correct":true,"confidence":2},{"trial_n":22,"min":76,"max":179,"target":"present","response":"present","rt":1084.2000000477,"correct":true,"confidence":5},{"trial_n":23,"min":76,"max":179,"target":"present","response":"present","rt":1002.3999999762,"correct":true,"confidence":5},{"trial_n":24,"min":80,"max":175,"target":"present","response":"absent","rt":2257.5,"correct":false,"confidence":2},{"trial_n":25,"min":76,"max":179,"target":"present","response":"present","rt":1382.6999999285,"correct":true,"confidence":4},{"trial_n":26,"min":76,"max":179,"target":"absent","response":"absent","rt":3197.7999999523,"correct":true,"confidence":1},{"trial_n":27,"min":80,"max":175,"target":"present","response":"present","rt":2393.6999999285,"correct":true,"confidence":3},{"trial_n":28,"min":80,"max":175,"target":"present","response":"present","rt":1525.2999999523,"correct":true,"confidence":3},{"trial_n":29,"min":84,"max":171,"target":"absent","response":"absent","rt":1261.0999999046,"correct":true,"confidence":2},{"trial_n":30,"min":84,"max":171,"target":"absent","response":"absent","rt":1232.2000000477,"correct":true,"confidence":2},{"trial_n":31,"min":86,"max":169,"target":"absent","response":"present","rt":2826.6000000238,"correct":false,"confidence":3},{"trial_n":32,"min":84,"max":171,"target":"present","response":"absent","rt":1481.8999999762,"correct":false,"confidence":2},{"trial_n":33,"min":82,"max":173,"target":"absent","response":"absent","rt":1982.5,"correct":true,"confidence":5},{"trial_n":34,"min":82,"max":173,"target":"absent","response":"absent","rt":5323.7000000477,"correct":true,"confidence":3},{"trial_n":35,"min":84,"max":171,"target":"absent","response":"present","rt":6543.1000000238,"correct":false,"confidence":4},{"trial_n":36,"min":82,"max":173,"target":"present","response":"absent","rt":1050.6000000238,"correct":false,"confidence":3},{"trial_n":37,"min":80,"max":175,"target":"present","response":"present","rt":1061.7000000477,"correct":true,"confidence":5},{"trial_n":38,"min":80,"max":175,"target":"absent","response":"absent","rt":1499.1000000238,"correct":true,"confidence":2},{"trial_n":39,"min":82,"max":173,"target":"absent","response":"present","rt":1200,"correct":false,"confidence":5},{"trial_n":40,"min":80,"max":175,"target":"absent","response":"present","rt":909.39999997616,"correct":false,"confidence":4},{"trial_n":41,"min":79,"max":176,"target":"absent","response":"absent","rt":1073.8999999762,"correct":true,"confidence":3},{"trial_n":42,"min":79,"max":176,"target":"absent","response":"absent","rt":1649.8999999762,"correct":true,"confidence":2},{"trial_n":43,"min":80,"max":175,"target":"absent","response":"absent","rt":1509.3999999762,"correct":true,"confidence":2},{"trial_n":44,"min":80,"max":175,"target":"present","response":"present","rt":1115,"correct":true,"confidence":4},{"trial_n":45,"min":81,"max":174,"target":"present","response":"present","rt":1189.5,"correct":true,"confidence":4},{"trial_n":46,"min":81,"max":174,"target":"present","response":"present","rt":1609.7000000477,"correct":true,"confidence":4},{"trial_n":47,"min":82,"max":173,"target":"present","response":"present","rt":1028.5,"correct":true,"confidence":5},{"trial_n":48,"min":82,"max":173,"target":"absent","response":"absent","rt":1415.2999999523,"correct":true,"confidence":3},{"trial_n":49,"min":83,"max":172,"target":"present","response":"present","rt":1020.3000000715,"correct":true,"confidence":4},{"trial_n":50,"min":83,"max":172,"target":"absent","response":"absent","rt":1004.1000000238,"correct":true,"confidence":4},{"trial_n":51,"min":84,"max":171,"target":"present","response":"absent","rt":998.10000002384,"correct":false,"confidence":1},{"trial_n":52,"min":83,"max":172,"target":"absent","response":"absent","rt":1019.3999999762,"correct":true,"confidence":1},{"trial_n":53,"min":83,"max":172,"target":"present","response":"present","rt":1170.6000000238,"correct":true,"confidence":3},{"trial_n":54,"min":84,"max":171,"target":"absent","response":"present","rt":1567.8000000715,"correct":false,"confidence":4},{"trial_n":55,"min":83,"max":172,"target":"present","response":"present","rt":859.29999995232,"correct":true,"confidence":4},{"trial_n":56,"min":83,"max":172,"target":"present","response":"present","rt":962.10000002384,"correct":true,"confidence":4},{"trial_n":57,"min":84,"max":171,"target":"absent","response":"absent","rt":1010.2999999523,"correct":true,"confidence":3},{"trial_n":58,"min":84,"max":171,"target":"present","response":"absent","rt":766,"correct":false,"confidence":3},{"trial_n":59,"min":83,"max":172,"target":"present","response":"absent","rt":1234.2000000477,"correct":false,"confidence":3},{"trial_n":60,"min":82,"max":173,"target":"present","response":"absent","rt":944.29999995232,"correct":false,"confidence":3},{"trial_n":61,"min":81,"max":174,"target":"present","response":"present","rt":994.20000004768,"correct":true,"confidence":5},{"trial_n":62,"min":81,"max":174,"target":"present","response":"present","rt":767.10000002384,"correct":true,"confidence":5},{"trial_n":63,"min":82,"max":173,"target":"present","response":"absent","rt":1701.3000000715,"correct":false,"confidence":3},{"trial_n":64,"min":81,"max":174,"target":"absent","response":"present","rt":1034.8999999762,"correct":false,"confidence":4},{"trial_n":65,"min":80,"max":175,"target":"present","response":"present","rt":1434.9000000954,"correct":true,"confidence":5},{"trial_n":66,"min":80,"max":175,"target":"absent","response":"absent","rt":3692.6000000238,"correct":true,"confidence":1},{"trial_n":67,"min":81,"max":174,"target":"present","response":"present","rt":45710.600000024,"correct":true,"confidence":2},{"trial_n":68,"min":81,"max":174,"target":"present","response":"absent","rt":3211,"correct":false,"confidence":1},{"trial_n":69,"min":80,"max":175,"target":"present","response":"present","rt":676.60000002384,"correct":true,"confidence":5},{"trial_n":70,"min":80,"max":175,"target":"absent","response":"absent","rt":935.39999997616,"correct":true,"confidence":3},{"trial_n":71,"min":41,"max":214,"target":"present","response":"present","rt":1961.7000000477,"correct":true,"confidence":-1},{"trial_n":72,"min":41,"max":214,"target":"present","response":"present","rt":841.29999995232,"correct":true,"confidence":-1},{"trial_n":73,"min":57,"max":198,"target":"absent","response":"absent","rt":962.90000009537,"correct":true,"confidence":-1},{"trial_n":74,"min":57,"max":198,"target":"absent","response":"absent","rt":485.80000007153,"correct":true,"confidence":-1},{"trial_n":75,"min":73,"max":182,"target":"present","response":"present","rt":1395.6000000238,"correct":true,"confidence":-1},{"trial_n":76,"min":73,"max":182,"target":"present","response":"present","rt":542.29999995232,"correct":true,"confidence":-1},{"trial_n":77,"min":89,"max":166,"target":"present","response":"present","rt":527.29999995232,"correct":true,"confidence":-1},{"trial_n":78,"min":89,"max":166,"target":"absent","response":"absent","rt":789.69999992847,"correct":true,"confidence":-1},{"trial_n":79,"min":105,"max":150,"target":"absent","response":"present","rt":933.39999997616,"correct":false,"confidence":-1},{"trial_n":80,"min":89,"max":166,"target":"absent","response":"absent","rt":1054.3000000715,"correct":true,"confidence":-1},{"trial_n":81,"min":89,"max":166,"target":"present","response":"absent","rt":634.19999992847,"correct":false,"confidence":-1},{"trial_n":82,"min":81,"max":174,"target":"present","response":"present","rt":921.30000007153,"correct":true,"confidence":-1},{"trial_n":83,"min":81,"max":174,"target":"absent","response":"present","rt":816.29999995232,"correct":false,"confidence":-1},{"trial_n":84,"min":73,"max":182,"target":"absent","response":"absent","rt":936.89999997616,"correct":true,"confidence":-1},{"trial_n":85,"min":73,"max":182,"target":"absent","response":"absent","rt":2157.4000000954,"correct":true,"confidence":-1},{"trial_n":86,"min":81,"max":174,"target":"present","response":"present","rt":1345.5,"correct":true,"confidence":-1},{"trial_n":87,"min":81,"max":174,"target":"absent","response":"present","rt":861.80000007153,"correct":false,"confidence":-1},{"trial_n":88,"min":73,"max":182,"target":"present","response":"absent","rt":852.59999990463,"correct":false,"confidence":-1},{"trial_n":89,"min":65,"max":190,"target":"absent","response":"absent","rt":700.40000009537,"correct":true,"confidence":-1},{"trial_n":90,"min":65,"max":190,"target":"absent","response":"present","rt":966.69999992847,"correct":false,"confidence":-1},{"trial_n":91,"min":61,"max":194,"target":"absent","response":"absent","rt":1061.5,"correct":true,"confidence":5},{"trial_n":92,"min":61,"max":194,"target":"present","response":"present","rt":617.29999995232,"correct":true,"confidence":5},{"trial_n":93,"min":65,"max":190,"target":"absent","response":"absent","rt":1094.7000000477,"correct":true,"confidence":5},{"trial_n":94,"min":65,"max":190,"target":"absent","response":"present","rt":1121.3999999762,"correct":false,"confidence":1},{"trial_n":95,"min":61,"max":194,"target":"present","response":"present","rt":892.29999995232,"correct":true,"confidence":5},{"trial_n":96,"min":61,"max":194,"target":"absent","response":"absent","rt":1275.3000000715,"correct":true,"confidence":5},{"trial_n":97,"min":65,"max":190,"target":"absent","response":"absent","rt":838.89999997616,"correct":true,"confidence":5},{"trial_n":98,"min":65,"max":190,"target":"absent","response":"absent","rt":943.40000009537,"correct":true,"confidence":1},{"trial_n":99,"min":69,"max":186,"target":"present","response":"present","rt":743.30000007153,"correct":true,"confidence":5},{"trial_n":100,"min":69,"max":186,"target":"present","response":"absent","rt":721.40000009537,"correct":false,"confidence":1},{"trial_n":101,"min":67,"max":188,"target":"present","response":"present","rt":959.79999995232,"correct":true,"confidence":5},{"trial_n":102,"min":67,"max":188,"target":"absent","response":"absent","rt":737.29999995232,"correct":true,"confidence":5},{"trial_n":103,"min":69,"max":186,"target":"present","response":"present","rt":1321.1000000238,"correct":true,"confidence":5},{"trial_n":104,"min":69,"max":186,"target":"absent","response":"absent","rt":1036,"correct":true,"confidence":5},{"trial_n":105,"min":71,"max":184,"target":"present","response":"present","rt":767.60000002384,"correct":true,"confidence":5},{"trial_n":106,"min":71,"max":184,"target":"absent","response":"absent","rt":854,"correct":true,"confidence":5},{"trial_n":107,"min":73,"max":182,"target":"present","response":"present","rt":564.39999997616,"correct":true,"confidence":5},{"trial_n":108,"min":73,"max":182,"target":"present","response":"present","rt":885.09999990463,"correct":true,"confidence":5},{"trial_n":109,"min":75,"max":180,"target":"absent","response":"absent","rt":971.19999992847,"correct":true,"confidence":5},{"trial_n":110,"min":75,"max":180,"target":"absent","response":"present","rt":845.79999995232,"correct":false,"confidence":5},{"trial_n":111,"min":74,"max":181,"target":"absent","response":"absent","rt":1102.1000000238,"correct":true,"confidence":5},{"trial_n":112,"min":74,"max":181,"target":"present","response":"present","rt":577.39999997616,"correct":true,"confidence":5},{"trial_n":113,"min":75,"max":180,"target":"present","response":"present","rt":821,"correct":true,"confidence":5},{"trial_n":114,"min":75,"max":180,"target":"present","response":"present","rt":1768,"correct":true,"confidence":5},{"trial_n":115,"min":76,"max":179,"target":"absent","response":"absent","rt":920.39999997616,"correct":true,"confidence":5},{"trial_n":116,"min":76,"max":179,"target":"present","response":"present","rt":584.5,"correct":true,"confidence":5},{"trial_n":117,"min":77,"max":178,"target":"present","response":"absent","rt":873.89999997616,"correct":false,"confidence":5},{"trial_n":118,"min":76,"max":179,"target":"present","response":"present","rt":695.5,"correct":true,"confidence":5},{"trial_n":119,"min":76,"max":179,"target":"absent","response":"absent","rt":1220.6000000238,"correct":true,"confidence":3},{"trial_n":120,"min":77,"max":178,"target":"present","response":"present","rt":807.5,"correct":true,"confidence":2},{"trial_n":121,"min":77,"max":178,"target":"present","response":"present","rt":1635.2999999523,"correct":true,"confidence":2},{"trial_n":122,"min":78,"max":177,"target":"present","response":"present","rt":750.79999995232,"correct":true,"confidence":4},{"trial_n":123,"min":78,"max":177,"target":"absent","response":"present","rt":1146.1000000238,"correct":false,"confidence":1},{"trial_n":124,"min":77,"max":178,"target":"absent","response":"absent","rt":1024.8000000715,"correct":true,"confidence":4},{"trial_n":125,"min":77,"max":178,"target":"absent","response":"present","rt":863.39999997616,"correct":false,"confidence":4},{"trial_n":126,"min":76,"max":179,"target":"present","response":"absent","rt":2422.0999999046,"correct":false,"confidence":3},{"trial_n":127,"min":75,"max":180,"target":"present","response":"present","rt":629.89999997616,"correct":true,"confidence":3},{"trial_n":128,"min":75,"max":180,"target":"present","response":"present","rt":583.39999997616,"correct":true,"confidence":5},{"trial_n":129,"min":76,"max":179,"target":"present","response":"present","rt":903.29999995232,"correct":true,"confidence":2},{"trial_n":130,"min":76,"max":179,"target":"present","response":"present","rt":741.30000007153,"correct":true,"confidence":5},{"trial_n":131,"min":77,"max":178,"target":"absent","response":"absent","rt":1091.7999999523,"correct":true,"confidence":5},{"trial_n":132,"min":77,"max":178,"target":"present","response":"present","rt":507.60000002384,"correct":true,"confidence":1},{"trial_n":133,"min":78,"max":177,"target":"absent","response":"present","rt":1456.3000000715,"correct":false,"confidence":1},{"trial_n":134,"min":77,"max":178,"target":"absent","response":"absent","rt":1359.0999999046,"correct":true,"confidence":5},{"trial_n":135,"min":77,"max":178,"target":"absent","response":"absent","rt":1278.5,"correct":true,"confidence":5},{"trial_n":136,"min":78,"max":177,"target":"absent","response":"absent","rt":1050.3999999762,"correct":true,"confidence":4},{"trial_n":137,"min":78,"max":177,"target":"absent","response":"present","rt":1042,"correct":false,"confidence":3},{"trial_n":138,"min":77,"max":178,"target":"present","response":"present","rt":1122.1999999285,"correct":true,"confidence":4},{"trial_n":139,"min":77,"max":178,"target":"present","response":"absent","rt":687.20000004768,"correct":false,"confidence":5},{"trial_n":140,"min":76,"max":179,"target":"present","response":"present","rt":566.89999997616,"correct":true,"confidence":5}]