[{"trial_n":1,"n_dots":4.25,"target":"left","response":"right","rt":5703.8000000119,"correct":false,"confidence":-1},{"trial_n":2,"n_dots":4.25,"target":"right","response":"right","rt":434.59999999404,"correct":true,"confidence":-1},{"trial_n":3,"n_dots":4.25,"target":"left","response":"left","rt":-2.1999999880791,"correct":true,"confidence":-1},{"trial_n":4,"n_dots":3.85,"target":"left","response":"left","rt":2271.900000006,"correct":true,"confidence":-1},{"trial_n":5,"n_dots":3.85,"target":"right","response":"right","rt":-9.2999999821186,"correct":true,"confidence":-1},{"trial_n":6,"n_dots":3.45,"target":"right","response":"right","rt":1498.7000000179,"correct":true,"confidence":-1},{"trial_n":7,"n_dots":3.45,"target":"left","response":"left","rt":23.199999988079,"correct":true,"confidence":-1},{"trial_n":8,"n_dots":3.25,"target":"right","response":"right","rt":675.69999998808,"correct":true,"confidence":-1},{"trial_n":9,"n_dots":3.25,"target":"left","response":"left","rt":616.89999997616,"correct":true,"confidence":-1},{"trial_n":10,"n_dots":3.05,"target":"left","response":"right","rt":106.5,"correct":false,"confidence":-1},{"trial_n":11,"n_dots":3.25,"target":"left","response":"left","rt":639.09999999404,"correct":true,"confidence":-1},{"trial_n":12,"n_dots":3.25,"target":"right","response":"right","rt":290.20000001788,"correct":true,"confidence":-1},{"trial_n":13,"n_dots":3.15,"target":"left","response":"left","rt":471.39999997616,"correct":true,"confidence":-1},{"trial_n":14,"n_dots":3.15,"target":"right","response":"right","rt":375.79999998212,"correct":true,"confidence":-1},{"trial_n":15,"n_dots":3.05,"target":"right","response":"right","rt":641.5,"correct":true,"confidence":-1},{"trial_n":16,"n_dots":3.05,"target":"left","response":"right","rt":226.59999999404,"correct":false,"confidence":-1},{"trial_n":17,"n_dots":3.15,"target":"left","response":"left","rt":567.80000001192,"correct":true,"confidence":-1},{"trial_n":18,"n_dots":3.15,"target":"right","response":"right","rt":310.80000001192,"correct":true,"confidence":-1},{"trial_n":19,"n_dots":3.05,"target":"left","response":"left","rt":241.10000002384,"correct":true,"confidence":-1},{"trial_n":20,"n_dots":3.05,"target":"right","response":"right","rt":203.90000000596,"correct":true,"confidence":-1},{"trial_n":21,"n_dots":2.95,"target":"left","response":"left","rt":94.199999988079,"correct":true,"confidence":2},{"trial_n":22,"n_dots":2.95,"target":"right","response":"left","rt":476,"correct":false,"confidence":2},{"trial_n":23,"n_dots":3.05,"target":"right","response":"right","rt":751.29999998212,"correct":true,"confidence":3},{"trial_n":24,"n_dots":3.05,"target":"right","response":"left","rt":500.30000001192,"correct":false,"confidence":2},{"trial_n":25,"n_dots":3.15,"target":"right","response":"right","rt":469.90000000596,"correct":true,"confidence":3},{"trial_n":26,"n_dots":3.15,"target":"right","response":"right","rt":1069.8000000119,"correct":true,"confidence":2},{"trial_n":27,"n_dots":3.05,"target":"right","response":"right","rt":359.20000001788,"correct":true,"confidence":3},{"trial_n":28,"n_dots":3.05,"target":"left","response":"left","rt":173.19999998808,"correct":true,"confidence":3},{"trial_n":29,"n_dots":2.95,"target":"left","response":"left","rt":676.40000000596,"correct":true,"confidence":2},{"trial_n":30,"n_dots":2.95,"target":"right","response":"right","rt":179.40000000596,"correct":true,"confidence":2},{"trial_n":31,"n_dots":2.85,"target":"right","response":"right","rt":1075.5,"correct":true,"confidence":1},{"trial_n":32,"n_dots":2.85,"target":"right","response":"left","rt":829.80000001192,"correct":false,"confidence":1},{"trial_n":33,"n_dots":2.95,"target":"left","response":"left","rt":423.70000001788,"correct":true,"confidence":2},{"trial_n":34,"n_dots":2.95,"target":"left","response":"left","rt":700.69999998808,"correct":true,"confidence":3},{"trial_n":35,"n_dots":2.85,"target":"right","response":"left","rt":964,"correct":false,"confidence":3},{"trial_n":36,"n_dots":2.95,"target":"right","response":"right","rt":2035,"correct":true,"confidence":4},{"trial_n":37,"n_dots":2.95,"target":"right","response":"right","rt":753.5,"correct":true,"confidence":2},{"trial_n":38,"n_dots":2.85,"target":"left","response":"right","rt":951.5,"correct":false,"confidence":1},{"trial_n":39,"n_dots":2.95,"target":"right","response":"right","rt":827.69999998808,"correct":true,"confidence":2},{"trial_n":40,"n_dots":2.95,"target":"left","response":"left","rt":684.69999998808,"correct":true,"confidence":2},{"trial_n":41,"n_dots":2.85,"target":"left","response":"left","rt":685.80000001192,"correct":true,"confidence":2},{"trial_n":42,"n_dots":2.85,"target":"left","response":"right","rt":481.29999998212,"correct":false,"confidence":3},{"trial_n":43,"n_dots":2.95,"target":"left","response":"left","rt":178.69999998808,"correct":true,"confidence":3},{"trial_n":44,"n_dots":2.95,"target":"right","response":"left","rt":226.90000000596,"correct":false,"confidence":2},{"trial_n":45,"n_dots":3.05,"target":"right","response":"left","rt":25.5,"correct":false,"confidence":2},{"trial_n":46,"n_dots":3.15,"target":"left","response":"right","rt":978.69999998808,"correct":false,"confidence":1},{"trial_n":47,"n_dots":3.25,"target":"left","response":"left","rt":1133,"correct":true,"confidence":2},{"trial_n":48,"n_dots":3.25,"target":"left","response":"left","rt":475.69999998808,"correct":true,"confidence":2},{"trial_n":49,"n_dots":3.15,"target":"left","response":"right","rt":3180.099999994,"correct":false,"confidence":1},{"trial_n":50,"n_dots":3.25,"target":"right","response":"left","rt":556.89999997616,"correct":false,"confidence":2},{"trial_n":51,"n_dots":3.35,"target":"left","response":"right","rt":460.5,"correct":false,"confidence":2},{"trial_n":52,"n_dots":3.45,"target":"right","response":"right","rt":495.10000002384,"correct":true,"confidence":2},{"trial_n":53,"n_dots":3.45,"target":"left","response":"left","rt":3213.400000006,"correct":true,"confidence":2},{"trial_n":54,"n_dots":3.35,"target":"left","response":"right","rt":1160.3000000119,"correct":false,"confidence":3},{"trial_n":55,"n_dots":3.45,"target":"right","response":"right","rt":3145.099999994,"correct":true,"confidence":2},{"trial_n":56,"n_dots":3.45,"target":"right","response":"left","rt":4127.400000006,"correct":false,"confidence":2},{"trial_n":57,"n_dots":3.55,"target":"right","response":"right","rt":1699.8000000119,"correct":true,"confidence":2},{"trial_n":58,"n_dots":3.55,"target":"right","response":"right","rt":6315.7000000179,"correct":true,"confidence":1},{"trial_n":59,"n_dots":3.45,"target":"left","response":"left","rt":631.10000002384,"correct":true,"confidence":2},{"trial_n":60,"n_dots":3.45,"target":"right","response":"right","rt":1413.3999999762,"correct":true,"confidence":3},{"trial_n":61,"n_dots":3.35,"target":"right","response":"right","rt":1680.099999994,"correct":true,"confidence":1},{"trial_n":62,"n_dots":3.35,"target":"left","response":"left","rt":482.20000001788,"correct":true,"confidence":3},{"trial_n":63,"n_dots":3.25,"target":"right","response":"right","rt":352.89999997616,"correct":true,"confidence":2},{"trial_n":64,"n_dots":3.25,"target":"right","response":"right","rt":5.4000000059605,"correct":true,"confidence":4},{"trial_n":65,"n_dots":3.15,"target":"left","response":"right","rt":1060.599999994,"correct":false,"confidence":2},{"trial_n":66,"n_dots":3.25,"target":"right","response":"left","rt":414.5,"correct":false,"confidence":1},{"trial_n":67,"n_dots":3.35,"target":"left","response":"right","rt":809.19999998808,"correct":false,"confidence":3},{"trial_n":68,"n_dots":3.45,"target":"left","response":"left","rt":1555.099999994,"correct":true,"confidence":1},{"trial_n":69,"n_dots":3.45,"target":"left","response":"left","rt":1424,"correct":true,"confidence":2},{"trial_n":70,"n_dots":3.35,"target":"left","response":"right","rt":171,"correct":false,"confidence":2},{"trial_n":71,"n_dots":3.45,"target":"right","response":"right","rt":75.700000017881,"correct":true,"confidence":4},{"trial_n":72,"n_dots":3.45,"target":"left","response":"left","rt":469.69999998808,"correct":true,"confidence":2},{"trial_n":73,"n_dots":3.35,"target":"right","response":"right","rt":379.90000000596,"correct":true,"confidence":2},{"trial_n":74,"n_dots":3.35,"target":"right","response":"right","rt":235.70000001788,"correct":true,"confidence":4},{"trial_n":75,"n_dots":3.25,"target":"right","response":"right","rt":88,"correct":true,"confidence":5},{"trial_n":76,"n_dots":3.25,"target":"left","response":"left","rt":436.40000000596,"correct":true,"confidence":2},{"trial_n":77,"n_dots":3.15,"target":"left","response":"right","rt":914.5,"correct":false,"confidence":3},{"trial_n":78,"n_dots":3.25,"target":"left","response":"right","rt":47,"correct":false,"confidence":3},{"trial_n":79,"n_dots":3.35,"target":"left","response":"left","rt":460.5,"correct":true,"confidence":2},{"trial_n":80,"n_dots":3.35,"target":"right","response":"right","rt":7.5999999940395,"correct":true,"confidence":3},{"trial_n":81,"n_dots":3.25,"target":"left","response":"left","rt":383.70000001788,"correct":true,"confidence":3},{"trial_n":82,"n_dots":3.25,"target":"left","response":"left","rt":410.09999999404,"correct":true,"confidence":2},{"trial_n":83,"n_dots":3.15,"target":"right","response":"right","rt":711.69999998808,"correct":true,"confidence":3},{"trial_n":84,"n_dots":3.15,"target":"left","response":"left","rt":237.69999998808,"correct":true,"confidence":3},{"trial_n":85,"n_dots":3.05,"target":"right","response":"right","rt":339.30000001192,"correct":true,"confidence":2},{"trial_n":86,"n_dots":3.05,"target":"right","response":"left","rt":312.40000000596,"correct":false,"confidence":2},{"trial_n":87,"n_dots":3.15,"target":"left","response":"left","rt":1786.6999999881,"correct":true,"confidence":2},{"trial_n":88,"n_dots":3.15,"target":"left","response":"right","rt":1043.7999999821,"correct":false,"confidence":1},{"trial_n":89,"n_dots":3.25,"target":"right","response":"right","rt":178.5,"correct":true,"confidence":4},{"trial_n":90,"n_dots":3.25,"target":"left","response":"right","rt":1811.2000000179,"correct":false,"confidence":3},{"trial_n":91,"n_dots":3.35,"target":"right","response":"right","rt":789,"correct":true,"confidence":1},{"trial_n":92,"n_dots":3.35,"target":"right","response":"left","rt":652.5,"correct":false,"confidence":2},{"trial_n":93,"n_dots":3.45,"target":"right","response":"right","rt":474.40000000596,"correct":true,"confidence":3},{"trial_n":94,"n_dots":3.45,"target":"right","response":"right","rt":971.30000001192,"correct":true,"confidence":3},{"trial_n":95,"n_dots":3.35,"target":"left","response":"left","rt":954.60000002384,"correct":true,"confidence":4},{"trial_n":96,"n_dots":3.35,"target":"left","response":"left","rt":843.39999997616,"correct":true,"confidence":2},{"trial_n":97,"n_dots":3.25,"target":"left","response":"right","rt":782.19999998808,"correct":false,"confidence":2},{"trial_n":98,"n_dots":3.35,"target":"right","response":"right","rt":911.09999999404,"correct":true,"confidence":2},{"trial_n":99,"n_dots":3.35,"target":"left","response":"left","rt":186.5,"correct":true,"confidence":3},{"trial_n":100,"n_dots":3.25,"target":"left","response":"left","rt":477.70000001788,"correct":true,"confidence":2},{"trial_n":101,"n_dots":3.25,"target":"left","response":"right","rt":1159.400000006,"correct":false,"confidence":3},{"trial_n":102,"n_dots":3.35,"target":"left","response":"left","rt":75.300000011921,"correct":true,"confidence":2},{"trial_n":103,"n_dots":3.35,"target":"right","response":"right","rt":726.19999998808,"correct":true,"confidence":3},{"trial_n":104,"n_dots":3.25,"target":"right","response":"right","rt":927.20000001788,"correct":true,"confidence":2},{"trial_n":105,"n_dots":3.25,"target":"left","response":"left","rt":541.10000002384,"correct":true,"confidence":3},{"trial_n":106,"n_dots":3.15,"target":"right","response":"right","rt":427,"correct":true,"confidence":2},{"trial_n":107,"n_dots":3.15,"target":"left","response":"left","rt":412.89999997616,"correct":true,"confidence":3},{"trial_n":108,"n_dots":3.05,"target":"left","response":"right","rt":823.90000000596,"correct":false,"confidence":2},{"trial_n":109,"n_dots":3.15,"target":"right","response":"right","rt":419,"correct":true,"confidence":2},{"trial_n":110,"n_dots":3.15,"target":"right","response":"left","rt":1307.6999999881,"correct":false,"confidence":3},{"trial_n":111,"n_dots":3.25,"target":"left","response":"left","rt":210.30000001192,"correct":true,"confidence":2},{"trial_n":112,"n_dots":3.25,"target":"right","response":"right","rt":251.5,"correct":true,"confidence":4},{"trial_n":113,"n_dots":3.15,"target":"right","response":"right","rt":339.10000002384,"correct":true,"confidence":4},{"trial_n":114,"n_dots":3.15,"target":"left","response":"left","rt":379.70000001788,"correct":true,"confidence":3},{"trial_n":115,"n_dots":3.05,"target":"left","response":"left","rt":434.30000001192,"correct":true,"confidence":5},{"trial_n":116,"n_dots":3.05,"target":"right","response":"right","rt":47.09999999404,"correct":true,"confidence":4},{"trial_n":117,"n_dots":2.95,"target":"right","response":"left","rt":106.29999998212,"correct":false,"confidence":2},{"trial_n":118,"n_dots":3.05,"target":"right","response":"right","rt":408.5,"correct":true,"confidence":3},{"trial_n":119,"n_dots":3.05,"target":"left","response":"left","rt":76.700000017881,"correct":true,"confidence":4},{"trial_n":120,"n_dots":2.95,"target":"right","response":"right","rt":188.5,"correct":true,"confidence":4}]