[{"trial_n":1,"min":25,"max":230,"target":"present","response":"absent","rt":3680,"correct":false,"confidence":-1},{"trial_n":2,"min":25,"max":230,"target":"present","response":"present","rt":676,"correct":true,"confidence":-1},{"trial_n":3,"min":25,"max":230,"target":"absent","response":"absent","rt":662,"correct":true,"confidence":-1},{"trial_n":4,"min":41,"max":214,"target":"absent","response":"absent","rt":978,"correct":true,"confidence":-1},{"trial_n":5,"min":41,"max":214,"target":"present","response":"present","rt":549,"correct":true,"confidence":-1},{"trial_n":6,"min":57,"max":198,"target":"present","response":"present","rt":997,"correct":true,"confidence":-1},{"trial_n":7,"min":57,"max":198,"target":"present","response":"present","rt":483,"correct":true,"confidence":-1},{"trial_n":8,"min":73,"max":182,"target":"present","response":"present","rt":567,"correct":true,"confidence":-1},{"trial_n":9,"min":73,"max":182,"target":"present","response":"absent","rt":568,"correct":false,"confidence":-1},{"trial_n":10,"min":57,"max":198,"target":"absent","response":"absent","rt":677,"correct":true,"confidence":-1},{"trial_n":11,"min":57,"max":198,"target":"absent","response":"absent","rt":545,"correct":true,"confidence":-1},{"trial_n":12,"min":65,"max":190,"target":"absent","response":"absent","rt":563,"correct":true,"confidence":-1},{"trial_n":13,"min":65,"max":190,"target":"present","response":"present","rt":531,"correct":true,"confidence":-1},{"trial_n":14,"min":73,"max":182,"target":"absent","response":"absent","rt":512,"correct":true,"confidence":-1},{"trial_n":15,"min":73,"max":182,"target":"absent","response":"absent","rt":511,"correct":true,"confidence":-1},{"trial_n":16,"min":81,"max":174,"target":"present","response":"present","rt":517,"correct":true,"confidence":-1},{"trial_n":17,"min":81,"max":174,"target":"absent","response":"absent","rt":462,"correct":true,"confidence":-1},{"trial_n":18,"min":89,"max":166,"target":"absent","response":"absent","rt":661,"correct":true,"confidence":-1},{"trial_n":19,"min":89,"max":166,"target":"present","response":"absent","rt":518,"correct":false,"confidence":-1},{"trial_n":20,"min":81,"max":174,"target":"absent","response":"absent","rt":962,"correct":true,"confidence":-1},{"trial_n":21,"min":81,"max":174,"target":"present","response":"absent","rt":869,"correct":false,"confidence":4},{"trial_n":22,"min":77,"max":178,"target":"present","response":"present","rt":670,"correct":true,"confidence":5},{"trial_n":23,"min":77,"max":178,"target":"absent","response":"absent","rt":598,"correct":true,"confidence":3},{"trial_n":24,"min":81,"max":174,"target":"present","response":"present","rt":985.99999999999,"correct":true,"confidence":4},{"trial_n":25,"min":81,"max":174,"target":"absent","response":"absent","rt":697.00000000001,"correct":true,"confidence":5},{"trial_n":26,"min":85,"max":170,"target":"absent","response":"absent","rt":663.99999999999,"correct":true,"confidence":5},{"trial_n":27,"min":85,"max":170,"target":"present","response":"present","rt":1301,"correct":true,"confidence":3},{"trial_n":28,"min":89,"max":166,"target":"present","response":"absent","rt":669.00000000001,"correct":false,"confidence":4},{"trial_n":29,"min":85,"max":170,"target":"absent","response":"absent","rt":565,"correct":true,"confidence":4},{"trial_n":30,"min":85,"max":170,"target":"absent","response":"absent","rt":597,"correct":true,"confidence":4},{"trial_n":31,"min":87,"max":168,"target":"absent","response":"absent","rt":649,"correct":true,"confidence":1},{"trial_n":32,"min":87,"max":168,"target":"present","response":"absent","rt":570,"correct":false,"confidence":3},{"trial_n":33,"min":85,"max":170,"target":"present","response":"present","rt":669.99999999997,"correct":true,"confidence":3},{"trial_n":34,"min":85,"max":170,"target":"present","response":"absent","rt":523,"correct":false,"confidence":3},{"trial_n":35,"min":83,"max":172,"target":"present","response":"absent","rt":586,"correct":false,"confidence":3},{"trial_n":36,"min":81,"max":174,"target":"present","response":"present","rt":669,"correct":true,"confidence":3},{"trial_n":37,"min":81,"max":174,"target":"present","response":"present","rt":670.00000000003,"correct":true,"confidence":3},{"trial_n":38,"min":83,"max":172,"target":"present","response":"present","rt":886,"correct":true,"confidence":3},{"trial_n":39,"min":83,"max":172,"target":"absent","response":"absent","rt":415,"correct":true,"confidence":3},{"trial_n":40,"min":85,"max":170,"target":"absent","response":"absent","rt":480,"correct":true,"confidence":3},{"trial_n":41,"min":85,"max":170,"target":"absent","response":"absent","rt":532.00000000003,"correct":true,"confidence":3},{"trial_n":42,"min":86,"max":169,"target":"absent","response":"absent","rt":414,"correct":true,"confidence":3},{"trial_n":43,"min":86,"max":169,"target":"absent","response":"absent","rt":430.99999999997,"correct":true,"confidence":3},{"trial_n":44,"min":87,"max":168,"target":"absent","response":"absent","rt":446.99999999997,"correct":true,"confidence":3},{"trial_n":45,"min":87,"max":168,"target":"absent","response":"present","rt":714,"correct":false,"confidence":3},{"trial_n":46,"min":86,"max":169,"target":"present","response":"present","rt":448.99999999997,"correct":true,"confidence":3},{"trial_n":47,"min":86,"max":169,"target":"present","response":"present","rt":687,"correct":true,"confidence":3},{"trial_n":48,"min":87,"max":168,"target":"absent","response":"absent","rt":630,"correct":true,"confidence":3},{"trial_n":49,"min":87,"max":168,"target":"present","response":"present","rt":503,"correct":true,"confidence":5},{"trial_n":50,"min":88,"max":167,"target":"present","response":"absent","rt":537,"correct":false,"confidence":3},{"trial_n":51,"min":87,"max":168,"target":"absent","response":"absent","rt":516.00000000003,"correct":true,"confidence":3},{"trial_n":52,"min":87,"max":168,"target":"present","response":"present","rt":521,"correct":true,"confidence":5},{"trial_n":53,"min":88,"max":167,"target":"present","response":"absent","rt":488,"correct":false,"confidence":3},{"trial_n":54,"min":87,"max":168,"target":"present","response":"present","rt":469,"correct":true,"confidence":5},{"trial_n":55,"min":87,"max":168,"target":"present","response":"present","rt":571,"correct":true,"confidence":5},{"trial_n":56,"min":88,"max":167,"target":"absent","response":"absent","rt":513.99999999997,"correct":true,"confidence":3},{"trial_n":57,"min":88,"max":167,"target":"absent","response":"absent","rt":562.99999999997,"correct":true,"confidence":3},{"trial_n":58,"min":89,"max":166,"target":"present","response":"present","rt":518,"correct":true,"confidence":5},{"trial_n":59,"min":89,"max":166,"target":"absent","response":"absent","rt":530,"correct":true,"confidence":3},{"trial_n":60,"min":90,"max":165,"target":"present","response":"present","rt":754.99999999997,"correct":true,"confidence":5},{"trial_n":61,"min":90,"max":165,"target":"absent","response":"absent","rt":599.00000000003,"correct":true,"confidence":3},{"trial_n":62,"min":91,"max":164,"target":"present","response":"present","rt":452,"correct":true,"confidence":5},{"trial_n":63,"min":91,"max":164,"target":"absent","response":"present","rt":547,"correct":false,"confidence":5},{"trial_n":64,"min":90,"max":165,"target":"absent","response":"absent","rt":398,"correct":true,"confidence":5},{"trial_n":65,"min":90,"max":165,"target":"absent","response":"absent","rt":480.99999999997,"correct":true,"confidence":5},{"trial_n":66,"min":91,"max":164,"target":"absent","response":"present","rt":597,"correct":false,"confidence":3},{"trial_n":67,"min":90,"max":165,"target":"present","response":"present","rt":536.99999999997,"correct":true,"confidence":5},{"trial_n":68,"min":90,"max":165,"target":"present","response":"present","rt":903,"correct":true,"confidence":3},{"trial_n":69,"min":91,"max":164,"target":"present","response":"absent","rt":453,"correct":false,"confidence":3},{"trial_n":70,"min":90,"max":165,"target":"absent","response":"absent","rt":464,"correct":true,"confidence":3},{"trial_n":71,"min":41,"max":214,"target":"present","response":"present","rt":1001,"correct":true,"confidence":-1},{"trial_n":72,"min":41,"max":214,"target":"present","response":"present","rt":614,"correct":true,"confidence":-1},{"trial_n":73,"min":57,"max":198,"target":"absent","response":"absent","rt":532,"correct":true,"confidence":-1},{"trial_n":74,"min":57,"max":198,"target":"absent","response":"absent","rt":582,"correct":true,"confidence":-1},{"trial_n":75,"min":73,"max":182,"target":"present","response":"present","rt":532.00000000006,"correct":true,"confidence":-1},{"trial_n":76,"min":73,"max":182,"target":"present","response":"present","rt":581,"correct":true,"confidence":-1},{"trial_n":77,"min":89,"max":166,"target":"present","response":"present","rt":500,"correct":true,"confidence":-1},{"trial_n":78,"min":89,"max":166,"target":"present","response":"present","rt":632,"correct":true,"confidence":-1},{"trial_n":79,"min":105,"max":150,"target":"absent","response":"present","rt":715.00000000006,"correct":false,"confidence":-1},{"trial_n":80,"min":89,"max":166,"target":"present","response":"absent","rt":883.00000000006,"correct":false,"confidence":-1},{"trial_n":81,"min":81,"max":174,"target":"present","response":"present","rt":448,"correct":true,"confidence":-1},{"trial_n":82,"min":81,"max":174,"target":"absent","response":"present","rt":534,"correct":false,"confidence":-1},{"trial_n":83,"min":73,"max":182,"target":"present","response":"present","rt":496,"correct":true,"confidence":-1},{"trial_n":84,"min":73,"max":182,"target":"absent","response":"absent","rt":500,"correct":true,"confidence":-1},{"trial_n":85,"min":81,"max":174,"target":"present","response":"present","rt":649,"correct":true,"confidence":-1},{"trial_n":86,"min":81,"max":174,"target":"absent","response":"present","rt":695.99999999994,"correct":false,"confidence":-1},{"trial_n":87,"min":73,"max":182,"target":"absent","response":"absent","rt":1100,"correct":true,"confidence":-1},{"trial_n":88,"min":73,"max":182,"target":"absent","response":"absent","rt":616,"correct":true,"confidence":-1},{"trial_n":89,"min":81,"max":174,"target":"absent","response":"absent","rt":547.00000000006,"correct":true,"confidence":-1},{"trial_n":90,"min":81,"max":174,"target":"absent","response":"absent","rt":731,"correct":true,"confidence":-1},{"trial_n":91,"min":85,"max":170,"target":"absent","response":"present","rt":600,"correct":false,"confidence":3},{"trial_n":92,"min":81,"max":174,"target":"present","response":"present","rt":699,"correct":true,"confidence":5},{"trial_n":93,"min":81,"max":174,"target":"present","response":"present","rt":501,"correct":true,"confidence":5},{"trial_n":94,"min":85,"max":170,"target":"present","response":"present","rt":504,"correct":true,"confidence":5},{"trial_n":95,"min":85,"max":170,"target":"absent","response":"absent","rt":483,"correct":true,"confidence":5},{"trial_n":96,"min":89,"max":166,"target":"present","response":"present","rt":451.99999999994,"correct":true,"confidence":5},{"trial_n":97,"min":89,"max":166,"target":"present","response":"present","rt":685,"correct":true,"confidence":3},{"trial_n":98,"min":93,"max":162,"target":"present","response":"present","rt":801,"correct":true,"confidence":4},{"trial_n":99,"min":93,"max":162,"target":"present","response":"present","rt":634,"correct":true,"confidence":4},{"trial_n":100,"min":97,"max":158,"target":"absent","response":"present","rt":600,"correct":false,"confidence":4},{"trial_n":101,"min":95,"max":160,"target":"present","response":"present","rt":636,"correct":true,"confidence":4},{"trial_n":102,"min":95,"max":160,"target":"absent","response":"present","rt":535,"correct":false,"confidence":4},{"trial_n":103,"min":93,"max":162,"target":"absent","response":"absent","rt":650,"correct":true,"confidence":4},{"trial_n":104,"min":93,"max":162,"target":"absent","response":"present","rt":418,"correct":false,"confidence":3},{"trial_n":105,"min":91,"max":164,"target":"present","response":"present","rt":651,"correct":true,"confidence":3},{"trial_n":106,"min":91,"max":164,"target":"present","response":"present","rt":567,"correct":true,"confidence":3},{"trial_n":107,"min":93,"max":162,"target":"absent","response":"present","rt":568,"correct":false,"confidence":3},{"trial_n":108,"min":91,"max":164,"target":"absent","response":"absent","rt":750,"correct":true,"confidence":3},{"trial_n":109,"min":91,"max":164,"target":"absent","response":"absent","rt":466,"correct":true,"confidence":3},{"trial_n":110,"min":93,"max":162,"target":"absent","response":"absent","rt":572,"correct":true,"confidence":3},{"trial_n":111,"min":93,"max":162,"target":"present","response":"present","rt":603.00000000006,"correct":true,"confidence":3},{"trial_n":112,"min":94,"max":161,"target":"absent","response":"absent","rt":834,"correct":true,"confidence":3},{"trial_n":113,"min":94,"max":161,"target":"present","response":"present","rt":651,"correct":true,"confidence":3},{"trial_n":114,"min":95,"max":160,"target":"absent","response":"present","rt":716,"correct":false,"confidence":3},{"trial_n":115,"min":94,"max":161,"target":"present","response":"absent","rt":669,"correct":false,"confidence":3},{"trial_n":116,"min":93,"max":162,"target":"present","response":"present","rt":502,"correct":true,"confidence":3},{"trial_n":117,"min":93,"max":162,"target":"absent","response":"present","rt":617,"correct":false,"confidence":3},{"trial_n":118,"min":92,"max":163,"target":"present","response":"present","rt":934,"correct":true,"confidence":3},{"trial_n":119,"min":92,"max":163,"target":"present","response":"present","rt":601,"correct":true,"confidence":3},{"trial_n":120,"min":93,"max":162,"target":"absent","response":"present","rt":983,"correct":false,"confidence":1},{"trial_n":121,"min":92,"max":163,"target":"absent","response":"present","rt":13602,"correct":false,"confidence":3},{"trial_n":122,"min":91,"max":164,"target":"present","response":"present","rt":545,"correct":true,"confidence":3},{"trial_n":123,"min":91,"max":164,"target":"absent","response":"absent","rt":878,"correct":true,"confidence":3},{"trial_n":124,"min":92,"max":163,"target":"present","response":"present","rt":481,"correct":true,"confidence":3},{"trial_n":125,"min":92,"max":163,"target":"absent","response":"present","rt":766.00000000006,"correct":false,"confidence":3},{"trial_n":126,"min":91,"max":164,"target":"present","response":"present","rt":449,"correct":true,"confidence":3},{"trial_n":127,"min":91,"max":164,"target":"absent","response":"present","rt":614.00000000006,"correct":false,"confidence":1},{"trial_n":128,"min":90,"max":165,"target":"present","response":"present","rt":816,"correct":true,"confidence":4},{"trial_n":129,"min":90,"max":165,"target":"present","response":"present","rt":451,"correct":true,"confidence":5},{"trial_n":130,"min":91,"max":164,"target":"present","response":"present","rt":599,"correct":true,"confidence":5},{"trial_n":131,"min":91,"max":164,"target":"absent","response":"present","rt":548,"correct":false,"confidence":5},{"trial_n":132,"min":90,"max":165,"target":"absent","response":"absent","rt":605,"correct":true,"confidence":5},{"trial_n":133,"min":90,"max":165,"target":"present","response":"present","rt":484,"correct":true,"confidence":5},{"trial_n":134,"min":91,"max":164,"target":"absent","response":"present","rt":634,"correct":false,"confidence":3},{"trial_n":135,"min":90,"max":165,"target":"absent","response":"absent","rt":534,"correct":true,"confidence":4},{"trial_n":136,"min":90,"max":165,"target":"present","response":"absent","rt":514,"correct":false,"confidence":1},{"trial_n":137,"min":89,"max":166,"target":"present","response":"present","rt":516,"correct":true,"confidence":5},{"trial_n":138,"min":89,"max":166,"target":"absent","response":"present","rt":1000,"correct":false,"confidence":5},{"trial_n":139,"min":88,"max":167,"target":"absent","response":"present","rt":801,"correct":false,"confidence":5},{"trial_n":140,"min":87,"max":168,"target":"present","response":"present","rt":483,"correct":true,"confidence":5}]