[{"trial_n":1,"n_dots":4.25,"target":"right","response":"left","rt":3275.8000001907,"correct":false,"confidence":-1},{"trial_n":2,"n_dots":4.25,"target":"left","response":"right","rt":925.90000009537,"correct":false,"confidence":-1},{"trial_n":3,"n_dots":4.65,"target":"right","response":"left","rt":1711.4000000954,"correct":false,"confidence":-1},{"trial_n":4,"n_dots":5.05,"target":"right","response":"right","rt":729.29999995232,"correct":true,"confidence":-1},{"trial_n":5,"n_dots":5.05,"target":"right","response":"right","rt":520.19999980927,"correct":true,"confidence":-1},{"trial_n":6,"n_dots":4.65,"target":"right","response":"right","rt":620.10000014305,"correct":true,"confidence":-1},{"trial_n":7,"n_dots":4.65,"target":"right","response":"right","rt":477.90000009537,"correct":true,"confidence":-1},{"trial_n":8,"n_dots":4.45,"target":"right","response":"right","rt":861.79999995232,"correct":true,"confidence":-1},{"trial_n":9,"n_dots":4.45,"target":"left","response":"left","rt":672.20000004768,"correct":true,"confidence":-1},{"trial_n":10,"n_dots":4.25,"target":"left","response":"left","rt":472,"correct":true,"confidence":-1},{"trial_n":11,"n_dots":4.25,"target":"right","response":"right","rt":1047.4000000954,"correct":true,"confidence":-1},{"trial_n":12,"n_dots":4.05,"target":"right","response":"right","rt":386.09999990463,"correct":true,"confidence":-1},{"trial_n":13,"n_dots":4.05,"target":"left","response":"right","rt":707.90000009537,"correct":false,"confidence":-1},{"trial_n":14,"n_dots":4.15,"target":"left","response":"left","rt":488,"correct":true,"confidence":-1},{"trial_n":15,"n_dots":4.15,"target":"right","response":"right","rt":744.29999995232,"correct":true,"confidence":-1},{"trial_n":16,"n_dots":4.05,"target":"left","response":"left","rt":1138.2000000477,"correct":true,"confidence":-1},{"trial_n":17,"n_dots":4.05,"target":"left","response":"left","rt":656.29999995232,"correct":true,"confidence":-1},{"trial_n":18,"n_dots":3.95,"target":"left","response":"left","rt":683.09999990463,"correct":true,"confidence":-1},{"trial_n":19,"n_dots":3.95,"target":"left","response":"right","rt":760.59999990463,"correct":false,"confidence":-1},{"trial_n":20,"n_dots":4.05,"target":"left","response":"left","rt":676.20000004768,"correct":true,"confidence":-1},{"trial_n":21,"n_dots":4.05,"target":"right","response":"right","rt":1380.7999999523,"correct":true,"confidence":5},{"trial_n":22,"n_dots":3.95,"target":"left","response":"right","rt":769,"correct":false,"confidence":3},{"trial_n":23,"n_dots":4.05,"target":"left","response":"left","rt":701.09999990463,"correct":true,"confidence":5},{"trial_n":24,"n_dots":4.05,"target":"right","response":"right","rt":622.59999990463,"correct":true,"confidence":5},{"trial_n":25,"n_dots":3.95,"target":"right","response":"right","rt":841,"correct":true,"confidence":5},{"trial_n":26,"n_dots":3.95,"target":"right","response":"right","rt":904.70000004768,"correct":true,"confidence":5},{"trial_n":27,"n_dots":3.85,"target":"right","response":"right","rt":621.29999995232,"correct":true,"confidence":4},{"trial_n":28,"n_dots":3.85,"target":"left","response":"left","rt":769.09999990463,"correct":true,"confidence":3},{"trial_n":29,"n_dots":3.75,"target":"right","response":"right","rt":836.70000004768,"correct":true,"confidence":3},{"trial_n":30,"n_dots":3.75,"target":"right","response":"right","rt":1065.8999998569,"correct":true,"confidence":3},{"trial_n":31,"n_dots":3.65,"target":"right","response":"right","rt":1753.9000000954,"correct":true,"confidence":3},{"trial_n":32,"n_dots":3.65,"target":"right","response":"right","rt":1049.3000001907,"correct":true,"confidence":3},{"trial_n":33,"n_dots":3.55,"target":"right","response":"right","rt":799.10000014305,"correct":true,"confidence":3},{"trial_n":34,"n_dots":3.55,"target":"right","response":"left","rt":733.40000009537,"correct":false,"confidence":3},{"trial_n":35,"n_dots":3.65,"target":"right","response":"right","rt":757.10000014305,"correct":true,"confidence":3},{"trial_n":36,"n_dots":3.65,"target":"right","response":"right","rt":781.69999980927,"correct":true,"confidence":3},{"trial_n":37,"n_dots":3.55,"target":"right","response":"right","rt":1505.2000000477,"correct":true,"confidence":3},{"trial_n":38,"n_dots":3.55,"target":"left","response":"left","rt":2029.9000000954,"correct":true,"confidence":1},{"trial_n":39,"n_dots":3.45,"target":"right","response":"left","rt":1720.9000000954,"correct":false,"confidence":5},{"trial_n":40,"n_dots":3.55,"target":"left","response":"right","rt":7065.0999999046,"correct":false,"confidence":1},{"trial_n":41,"n_dots":3.65,"target":"left","response":"right","rt":1365.8999998569,"correct":false,"confidence":4},{"trial_n":42,"n_dots":3.75,"target":"left","response":"left","rt":731,"correct":true,"confidence":3},{"trial_n":43,"n_dots":3.75,"target":"left","response":"left","rt":517.59999990463,"correct":true,"confidence":5},{"trial_n":44,"n_dots":3.65,"target":"right","response":"right","rt":797.40000009537,"correct":true,"confidence":5},{"trial_n":45,"n_dots":3.65,"target":"right","response":"right","rt":940.20000004768,"correct":true,"confidence":3},{"trial_n":46,"n_dots":3.55,"target":"left","response":"right","rt":1460,"correct":false,"confidence":3},{"trial_n":47,"n_dots":3.65,"target":"right","response":"right","rt":661.79999995232,"correct":true,"confidence":3},{"trial_n":48,"n_dots":3.65,"target":"right","response":"left","rt":18650.799999952,"correct":false,"confidence":1},{"trial_n":49,"n_dots":3.75,"target":"right","response":"right","rt":1072.7999999523,"correct":true,"confidence":3},{"trial_n":50,"n_dots":3.75,"target":"left","response":"left","rt":956.20000004768,"correct":true,"confidence":5},{"trial_n":51,"n_dots":3.65,"target":"left","response":"left","rt":856.70000004768,"correct":true,"confidence":4},{"trial_n":52,"n_dots":3.65,"target":"left","response":"left","rt":1135.5,"correct":true,"confidence":3},{"trial_n":53,"n_dots":3.55,"target":"left","response":"left","rt":762.89999985695,"correct":true,"confidence":3},{"trial_n":54,"n_dots":3.55,"target":"left","response":"left","rt":946.20000004768,"correct":true,"confidence":3},{"trial_n":55,"n_dots":3.45,"target":"left","response":"left","rt":806.60000014305,"correct":true,"confidence":3},{"trial_n":56,"n_dots":3.45,"target":"right","response":"right","rt":855.19999980927,"correct":true,"confidence":4},{"trial_n":57,"n_dots":3.35,"target":"right","response":"right","rt":1509.7999999523,"correct":true,"confidence":3},{"trial_n":58,"n_dots":3.35,"target":"right","response":"left","rt":938.09999990463,"correct":false,"confidence":2},{"trial_n":59,"n_dots":3.45,"target":"left","response":"left","rt":1756789.8999999,"correct":true,"confidence":1},{"trial_n":60,"n_dots":3.45,"target":"left","response":"left","rt":1927.7000000477,"correct":true,"confidence":3},{"trial_n":61,"n_dots":3.35,"target":"right","response":"right","rt":1976.6000001431,"correct":true,"confidence":3},{"trial_n":62,"n_dots":3.35,"target":"left","response":"right","rt":1610.6000001431,"correct":false,"confidence":2},{"trial_n":63,"n_dots":3.45,"target":"left","response":"left","rt":736.20000004768,"correct":true,"confidence":5},{"trial_n":64,"n_dots":3.45,"target":"right","response":"right","rt":2056.7999999523,"correct":true,"confidence":5},{"trial_n":65,"n_dots":3.35,"target":"right","response":"right","rt":603.09999990463,"correct":true,"confidence":5},{"trial_n":66,"n_dots":3.35,"target":"right","response":"right","rt":914.40000009537,"correct":true,"confidence":5},{"trial_n":67,"n_dots":3.25,"target":"right","response":"right","rt":1483.7999999523,"correct":true,"confidence":5},{"trial_n":68,"n_dots":3.25,"target":"left","response":"right","rt":608.39999985695,"correct":false,"confidence":5},{"trial_n":69,"n_dots":3.35,"target":"right","response":"right","rt":565.29999995232,"correct":true,"confidence":5},{"trial_n":70,"n_dots":3.35,"target":"right","response":"right","rt":444.79999995232,"correct":true,"confidence":5},{"trial_n":71,"n_dots":3.25,"target":"left","response":"right","rt":922.19999980927,"correct":false,"confidence":5},{"trial_n":72,"n_dots":3.35,"target":"left","response":"right","rt":673.29999995232,"correct":false,"confidence":5},{"trial_n":73,"n_dots":3.45,"target":"right","response":"right","rt":551.79999995232,"correct":true,"confidence":5},{"trial_n":74,"n_dots":3.45,"target":"left","response":"left","rt":874.5,"correct":true,"confidence":5},{"trial_n":75,"n_dots":3.35,"target":"left","response":"left","rt":838.79999995232,"correct":true,"confidence":5},{"trial_n":76,"n_dots":3.35,"target":"right","response":"right","rt":536.79999995232,"correct":true,"confidence":5},{"trial_n":77,"n_dots":3.25,"target":"right","response":"right","rt":643.5,"correct":true,"confidence":5},{"trial_n":78,"n_dots":3.25,"target":"left","response":"left","rt":649,"correct":true,"confidence":5},{"trial_n":79,"n_dots":3.15,"target":"right","response":"right","rt":30831.600000143,"correct":true,"confidence":1},{"trial_n":80,"n_dots":3.15,"target":"left","response":"left","rt":720.20000004768,"correct":true,"confidence":5},{"trial_n":81,"n_dots":3.05,"target":"right","response":"right","rt":704.29999995232,"correct":true,"confidence":5},{"trial_n":82,"n_dots":3.05,"target":"left","response":"left","rt":1187.5999999046,"correct":true,"confidence":5},{"trial_n":83,"n_dots":2.95,"target":"right","response":"left","rt":868.30000019073,"correct":false,"confidence":5},{"trial_n":84,"n_dots":3.05,"target":"left","response":"left","rt":542.79999995232,"correct":true,"confidence":5},{"trial_n":85,"n_dots":3.05,"target":"right","response":"right","rt":900,"correct":true,"confidence":5},{"trial_n":86,"n_dots":2.95,"target":"left","response":"left","rt":478.79999995232,"correct":true,"confidence":5},{"trial_n":87,"n_dots":2.95,"target":"left","response":"left","rt":795.20000004768,"correct":true,"confidence":5},{"trial_n":88,"n_dots":2.85,"target":"left","response":"left","rt":698.79999995232,"correct":true,"confidence":5},{"trial_n":89,"n_dots":2.85,"target":"right","response":"right","rt":678.59999990463,"correct":true,"confidence":5},{"trial_n":90,"n_dots":2.75,"target":"right","response":"right","rt":1418.4000000954,"correct":true,"confidence":5},{"trial_n":91,"n_dots":2.75,"target":"right","response":"left","rt":672.79999995232,"correct":false,"confidence":5},{"trial_n":92,"n_dots":2.85,"target":"right","response":"right","rt":392.60000014305,"correct":true,"confidence":5},{"trial_n":93,"n_dots":2.85,"target":"right","response":"right","rt":677.59999990463,"correct":true,"confidence":5},{"trial_n":94,"n_dots":2.75,"target":"left","response":"left","rt":572.90000009537,"correct":true,"confidence":5},{"trial_n":95,"n_dots":2.75,"target":"left","response":"left","rt":898.90000009537,"correct":true,"confidence":5},{"trial_n":96,"n_dots":2.65,"target":"left","response":"right","rt":717.40000009537,"correct":false,"confidence":5},{"trial_n":97,"n_dots":2.75,"target":"left","response":"left","rt":735.69999980927,"correct":true,"confidence":5},{"trial_n":98,"n_dots":2.75,"target":"right","response":"left","rt":903.29999995232,"correct":false,"confidence":5},{"trial_n":99,"n_dots":2.85,"target":"left","response":"left","rt":621.59999990463,"correct":true,"confidence":5},{"trial_n":100,"n_dots":2.85,"target":"left","response":"left","rt":1415.2999999523,"correct":true,"confidence":1},{"trial_n":101,"n_dots":2.75,"target":"left","response":"left","rt":413.90000009537,"correct":true,"confidence":5},{"trial_n":102,"n_dots":2.75,"target":"right","response":"left","rt":679.39999985695,"correct":false,"confidence":5},{"trial_n":103,"n_dots":2.85,"target":"left","response":"left","rt":470.39999985695,"correct":true,"confidence":5},{"trial_n":104,"n_dots":2.85,"target":"left","response":"left","rt":811.90000009537,"correct":true,"confidence":5},{"trial_n":105,"n_dots":2.75,"target":"left","response":"left","rt":683,"correct":true,"confidence":5},{"trial_n":106,"n_dots":2.75,"target":"left","response":"right","rt":574.70000004768,"correct":false,"confidence":5},{"trial_n":107,"n_dots":2.85,"target":"right","response":"left","rt":885.5,"correct":false,"confidence":5},{"trial_n":108,"n_dots":2.95,"target":"right","response":"right","rt":913.89999985695,"correct":true,"confidence":5},{"trial_n":109,"n_dots":2.95,"target":"left","response":"right","rt":1205.4000000954,"correct":false,"confidence":5},{"trial_n":110,"n_dots":3.05,"target":"left","response":"left","rt":614.10000014305,"correct":true,"confidence":5},{"trial_n":111,"n_dots":3.05,"target":"left","response":"left","rt":674.79999995232,"correct":true,"confidence":5},{"trial_n":112,"n_dots":2.95,"target":"left","response":"left","rt":38891.099999905,"correct":true,"confidence":1},{"trial_n":113,"n_dots":2.95,"target":"right","response":"right","rt":982.29999995232,"correct":true,"confidence":5},{"trial_n":114,"n_dots":2.85,"target":"left","response":"left","rt":783.90000009537,"correct":true,"confidence":5},{"trial_n":115,"n_dots":2.85,"target":"left","response":"left","rt":434.79999995232,"correct":true,"confidence":5},{"trial_n":116,"n_dots":2.75,"target":"right","response":"right","rt":504.70000004768,"correct":true,"confidence":5},{"trial_n":117,"n_dots":2.75,"target":"left","response":"right","rt":397.80000019073,"correct":false,"confidence":5},{"trial_n":118,"n_dots":2.85,"target":"left","response":"left","rt":406.89999985695,"correct":true,"confidence":4},{"trial_n":119,"n_dots":2.85,"target":"right","response":"right","rt":584.90000009537,"correct":true,"confidence":5},{"trial_n":120,"n_dots":2.75,"target":"right","response":"left","rt":1260,"correct":false,"confidence":5}]