[{"trial_n":1,"span":8,"encoder":"71803541","distractor":"31803541","target":"present","response":"present","rt":"4567","correct":true,"confidence":-1},{"trial_n":2,"span":8,"encoder":"97244356","distractor":"97214356","target":"present","response":"present","rt":"2674","correct":true,"confidence":-1},{"trial_n":3,"span":10,"encoder":"6294726626","distractor":"6694726626","target":"absent","response":"present","rt":"3219","correct":false,"confidence":-1},{"trial_n":4,"span":8,"encoder":"61151066","distractor":"61551066","target":"absent","response":"absent","rt":"3029","correct":true,"confidence":-1},{"trial_n":5,"span":8,"encoder":"72427888","distractor":"72437888","target":"present","response":"present","rt":"2477","correct":true,"confidence":-1},{"trial_n":6,"span":10,"encoder":"3753823578","distractor":"3773823578","target":"absent","response":"present","rt":"2017","correct":false,"confidence":-1},{"trial_n":7,"span":8,"encoder":"05358800","distractor":"05358802","target":"present","response":"present","rt":"1561","correct":true,"confidence":-1},{"trial_n":8,"span":8,"encoder":"13074858","distractor":"10074858","target":"present","response":"present","rt":"2459","correct":true,"confidence":-1},{"trial_n":9,"span":10,"encoder":"3542153305","distractor":"3242153305","target":"present","response":"present","rt":"2736","correct":true,"confidence":-1},{"trial_n":10,"span":10,"encoder":"8745192529","distractor":"8745112529","target":"absent","response":"absent","rt":"3288","correct":true,"confidence":-1},{"trial_n":11,"span":12,"encoder":"955300616505","distractor":"955300617505","target":"absent","response":"present","rt":"3012","correct":false,"confidence":-1},{"trial_n":12,"span":11,"encoder":"78158686741","distractor":"78158687741","target":"present","response":"present","rt":"1906","correct":true,"confidence":-1},{"trial_n":13,"span":11,"encoder":"38125396872","distractor":"38125397872","target":"present","response":"present","rt":"2559","correct":true,"confidence":-1},{"trial_n":14,"span":12,"encoder":"178362238920","distractor":"176362238920","target":"absent","response":"present","rt":"1379","correct":false,"confidence":-1},{"trial_n":15,"span":11,"encoder":"73911131283","distractor":"73911139283","target":"present","response":"present","rt":"3974","correct":true,"confidence":-1},{"trial_n":16,"span":11,"encoder":"72377987444","distractor":"72377987484","target":"present","response":"present","rt":"3756","correct":true,"confidence":-1},{"trial_n":17,"span":12,"encoder":"504737381723","distractor":"507737381723","target":"absent","response":"present","rt":"3663","correct":false,"confidence":-1},{"trial_n":18,"span":11,"encoder":"41472789950","distractor":"41972789950","target":"present","response":"present","rt":"3674","correct":true,"confidence":-1},{"trial_n":19,"span":11,"encoder":"07372865883","distractor":"07372864883","target":"absent","response":"present","rt":"1558","correct":false,"confidence":-1},{"trial_n":20,"span":10,"encoder":"5289529398","distractor":"5989529398","target":"absent","response":"present","rt":"2070","correct":false,"confidence":-1},{"trial_n":21,"span":9,"encoder":"541001070","distractor":"541001090","target":"absent","response":"present","rt":"2014","correct":false,"confidence":3},{"trial_n":22,"span":8,"encoder":"16402557","distractor":"16402357","target":"absent","response":"present","rt":"3979","correct":false,"confidence":4},{"trial_n":23,"span":7,"encoder":"5182371","distractor":"5882371","target":"present","response":"present","rt":"2874","correct":true,"confidence":4},{"trial_n":24,"span":7,"encoder":"6072759","distractor":"6072739","target":"present","response":"present","rt":"2376","correct":true,"confidence":5},{"trial_n":25,"span":8,"encoder":"51528400","distractor":"51527400","target":"present","response":"present","rt":"3781","correct":true,"confidence":5},{"trial_n":26,"span":8,"encoder":"61296835","distractor":"61296865","target":"present","response":"present","rt":"4179","correct":true,"confidence":3},{"trial_n":27,"span":9,"encoder":"944821288","distractor":"941821288","target":"absent","response":"present","rt":"3884","correct":false,"confidence":4},{"trial_n":28,"span":8,"encoder":"07746080","distractor":"27746080","target":"present","response":"absent","rt":"3347.9999999999","correct":false,"confidence":3},{"trial_n":29,"span":7,"encoder":"9949256","distractor":"9949286","target":"absent","response":"present","rt":"4408","correct":false,"confidence":4},{"trial_n":30,"span":6,"encoder":"487914","distractor":"487974","target":"absent","response":"absent","rt":"3253.0000000001","correct":true,"confidence":5},{"trial_n":31,"span":6,"encoder":"512462","distractor":"542462","target":"present","response":"present","rt":"2271","correct":true,"confidence":5},{"trial_n":32,"span":7,"encoder":"3578881","distractor":"3878881","target":"absent","response":"absent","rt":"2677","correct":true,"confidence":3},{"trial_n":33,"span":7,"encoder":"4970401","distractor":"4970406","target":"absent","response":"absent","rt":"2959","correct":true,"confidence":5},{"trial_n":34,"span":8,"encoder":"39175915","distractor":"39175115","target":"absent","response":"absent","rt":"3346","correct":true,"confidence":3},{"trial_n":35,"span":8,"encoder":"31011038","distractor":"31011538","target":"absent","response":"absent","rt":"3796","correct":true,"confidence":2},{"trial_n":36,"span":9,"encoder":"231360296","distractor":"231360293","target":"present","response":"present","rt":"3601","correct":true,"confidence":2},{"trial_n":37,"span":9,"encoder":"593300214","distractor":"593000214","target":"present","response":"present","rt":"4686","correct":true,"confidence":3},{"trial_n":38,"span":10,"encoder":"7704761472","distractor":"7744761472","target":"absent","response":"absent","rt":"5505","correct":true,"confidence":4},{"trial_n":39,"span":10,"encoder":"3803340203","distractor":"3803348203","target":"absent","response":"present","rt":"4138.9999999999","correct":false,"confidence":3},{"trial_n":40,"span":9,"encoder":"926740703","distractor":"926840703","target":"absent","response":"absent","rt":"3583","correct":true,"confidence":4},{"trial_n":41,"span":9,"encoder":"508669546","distractor":"588669546","target":"absent","response":"absent","rt":"2796","correct":true,"confidence":5},{"trial_n":42,"span":10,"encoder":"7926684945","distractor":"7926684946","target":"present","response":"present","rt":"2940","correct":true,"confidence":4},{"trial_n":43,"span":10,"encoder":"8694182060","distractor":"8894182060","target":"present","response":"present","rt":"4805","correct":true,"confidence":2},{"trial_n":44,"span":11,"encoder":"97580192083","distractor":"97587192083","target":"present","response":"present","rt":"2525","correct":true,"confidence":3},{"trial_n":45,"span":11,"encoder":"59520897266","distractor":"59520867266","target":"present","response":"present","rt":"4494","correct":true,"confidence":3},{"trial_n":46,"span":12,"encoder":"491497692137","distractor":"491498692137","target":"present","response":"present","rt":"4099.0000000001","correct":true,"confidence":2},{"trial_n":47,"span":12,"encoder":"998569030135","distractor":"998529030135","target":"present","response":"absent","rt":"6348","correct":false,"confidence":5},{"trial_n":48,"span":11,"encoder":"03102576063","distractor":"03102577063","target":"absent","response":"present","rt":"5693","correct":false,"confidence":1},{"trial_n":49,"span":10,"encoder":"5590452535","distractor":"5590452035","target":"absent","response":"present","rt":"2822","correct":false,"confidence":2},{"trial_n":50,"span":9,"encoder":"845018127","distractor":"845018126","target":"present","response":"present","rt":"1718","correct":true,"confidence":4},{"trial_n":51,"span":9,"encoder":"952997258","distractor":"952997208","target":"absent","response":"absent","rt":"4517.9999999999","correct":true,"confidence":3},{"trial_n":52,"span":10,"encoder":"9731112970","distractor":"2731112970","target":"present","response":"present","rt":"3605","correct":true,"confidence":3},{"trial_n":53,"span":10,"encoder":"9322520538","distractor":"9322524538","target":"present","response":"present","rt":"1438","correct":true,"confidence":4},{"trial_n":54,"span":11,"encoder":"70149242378","distractor":"70449242378","target":"absent","response":"absent","rt":"4559","correct":true,"confidence":2},{"trial_n":55,"span":11,"encoder":"09038878049","distractor":"09838878049","target":"present","response":"present","rt":"2744","correct":true,"confidence":4},{"trial_n":56,"span":12,"encoder":"394925576496","distractor":"394928576496","target":"absent","response":"absent","rt":"6316.0000000001","correct":true,"confidence":3},{"trial_n":57,"span":12,"encoder":"192040088429","distractor":"192046088429","target":"present","response":"present","rt":"3064","correct":true,"confidence":3},{"trial_n":58,"span":13,"encoder":"7031964534437","distractor":"7031964534432","target":"present","response":"present","rt":"2002","correct":true,"confidence":3},{"trial_n":59,"span":13,"encoder":"4747581078142","distractor":"5747581078142","target":"present","response":"absent","rt":"5518","correct":false,"confidence":3},{"trial_n":60,"span":12,"encoder":"927238187689","distractor":"927268187689","target":"absent","response":"present","rt":"2510","correct":false,"confidence":2},{"trial_n":61,"span":11,"encoder":"28128599198","distractor":"28168599198","target":"absent","response":"present","rt":"5556","correct":false,"confidence":2},{"trial_n":62,"span":10,"encoder":"6914993451","distractor":"6914093451","target":"absent","response":"absent","rt":"3355","correct":true,"confidence":3},{"trial_n":63,"span":10,"encoder":"4543022853","distractor":"4543024853","target":"present","response":"present","rt":"5554","correct":true,"confidence":4},{"trial_n":64,"span":11,"encoder":"28605534658","distractor":"28615534658","target":"present","response":"absent","rt":"4043","correct":false,"confidence":4},{"trial_n":65,"span":10,"encoder":"8282693760","distractor":"8282683760","target":"present","response":"absent","rt":"3939","correct":false,"confidence":4},{"trial_n":66,"span":9,"encoder":"432262765","distractor":"436262765","target":"present","response":"present","rt":"4085","correct":true,"confidence":5},{"trial_n":67,"span":9,"encoder":"350480097","distractor":"355480097","target":"absent","response":"present","rt":"3035","correct":false,"confidence":5},{"trial_n":68,"span":8,"encoder":"09173617","distractor":"09153617","target":"absent","response":"absent","rt":"2663","correct":true,"confidence":5},{"trial_n":69,"span":8,"encoder":"11533465","distractor":"11573465","target":"absent","response":"absent","rt":"3413","correct":true,"confidence":5},{"trial_n":70,"span":9,"encoder":"236409258","distractor":"236309258","target":"absent","response":"absent","rt":"4384","correct":true,"confidence":3},{"trial_n":71,"span":8,"encoder":"28198369","distractor":"20198369","target":"present","response":"present","rt":"4563","correct":true,"confidence":-1},{"trial_n":72,"span":8,"encoder":"13468697","distractor":"18468697","target":"present","response":"present","rt":"3845","correct":true,"confidence":-1},{"trial_n":73,"span":9,"encoder":"463897681","distractor":"463897981","target":"absent","response":"absent","rt":"3582.9999999999","correct":true,"confidence":-1},{"trial_n":74,"span":9,"encoder":"612212546","distractor":"612212946","target":"absent","response":"absent","rt":"2500","correct":true,"confidence":-1},{"trial_n":75,"span":10,"encoder":"1018797250","distractor":"1018799250","target":"present","response":"present","rt":"3136","correct":true,"confidence":-1},{"trial_n":76,"span":10,"encoder":"3020075032","distractor":"3020075038","target":"absent","response":"absent","rt":"2888","correct":true,"confidence":-1},{"trial_n":77,"span":11,"encoder":"81715366374","distractor":"81715376374","target":"present","response":"present","rt":"3726","correct":true,"confidence":-1},{"trial_n":78,"span":11,"encoder":"72501487604","distractor":"72501087604","target":"absent","response":"present","rt":"5008.0000000001","correct":false,"confidence":-1},{"trial_n":79,"span":10,"encoder":"1056478851","distractor":"1056478451","target":"present","response":"present","rt":"3338.0000000001","correct":true,"confidence":-1},{"trial_n":80,"span":10,"encoder":"6874712963","distractor":"6874712913","target":"absent","response":"absent","rt":"3337","correct":true,"confidence":-1},{"trial_n":81,"span":11,"encoder":"22960176795","distractor":"02960176795","target":"present","response":"present","rt":"6474","correct":true,"confidence":-1},{"trial_n":82,"span":11,"encoder":"34738085007","distractor":"34738095007","target":"absent","response":"absent","rt":"5342","correct":true,"confidence":-1},{"trial_n":83,"span":12,"encoder":"534651891929","distractor":"534651821929","target":"present","response":"present","rt":"4462","correct":true,"confidence":-1},{"trial_n":84,"span":12,"encoder":"422814189760","distractor":"432814189760","target":"absent","response":"present","rt":"4814","correct":false,"confidence":-1},{"trial_n":85,"span":11,"encoder":"59455414098","distractor":"59455414091","target":"present","response":"present","rt":"3775.9999999999","correct":true,"confidence":-1},{"trial_n":86,"span":11,"encoder":"77469846226","distractor":"77462846226","target":"absent","response":"present","rt":"6424.0000000001","correct":false,"confidence":-1},{"trial_n":87,"span":10,"encoder":"2876009288","distractor":"2876309288","target":"absent","response":"present","rt":"4470","correct":false,"confidence":-1},{"trial_n":88,"span":9,"encoder":"911780793","distractor":"913780793","target":"present","response":"present","rt":"6700","correct":true,"confidence":-1},{"trial_n":89,"span":9,"encoder":"871188541","distractor":"841188541","target":"present","response":"present","rt":"3500","correct":true,"confidence":-1},{"trial_n":90,"span":10,"encoder":"1862654401","distractor":"1872654401","target":"present","response":"present","rt":"7321","correct":true,"confidence":-1},{"trial_n":91,"span":10,"encoder":"5373529689","distractor":"5383529689","target":"present","response":"present","rt":"6419","correct":true,"confidence":2},{"trial_n":92,"span":11,"encoder":"63605872171","distractor":"67605872171","target":"absent","response":"present","rt":"5360","correct":false,"confidence":1},{"trial_n":93,"span":10,"encoder":"3220206933","distractor":"3620206933","target":"present","response":"absent","rt":"937","correct":false,"confidence":1},{"trial_n":94,"span":9,"encoder":"294457633","distractor":"294257633","target":"absent","response":"present","rt":"5266","correct":false,"confidence":3},{"trial_n":95,"span":8,"encoder":"21809308","distractor":"21889308","target":"absent","response":"present","rt":"3544.9999999998","correct":false,"confidence":3},{"trial_n":96,"span":7,"encoder":"8506012","distractor":"8506022","target":"present","response":"present","rt":"4508","correct":true,"confidence":3},{"trial_n":97,"span":7,"encoder":"0055672","distractor":"0053672","target":"present","response":"present","rt":"2924.0000000002","correct":true,"confidence":5},{"trial_n":98,"span":8,"encoder":"07873175","distractor":"57873175","target":"present","response":"present","rt":"5629","correct":true,"confidence":5},{"trial_n":99,"span":8,"encoder":"28565759","distractor":"28555759","target":"absent","response":"absent","rt":"2980","correct":true,"confidence":5},{"trial_n":100,"span":9,"encoder":"745414081","distractor":"748414081","target":"absent","response":"present","rt":"7419","correct":false,"confidence":3},{"trial_n":101,"span":8,"encoder":"99256138","distractor":"99250138","target":"present","response":"present","rt":"2520","correct":true,"confidence":3},{"trial_n":102,"span":8,"encoder":"74849924","distractor":"74859924","target":"absent","response":"absent","rt":"3880","correct":true,"confidence":4},{"trial_n":103,"span":9,"encoder":"321983420","distractor":"323983420","target":"present","response":"absent","rt":"8266","correct":false,"confidence":2},{"trial_n":104,"span":8,"encoder":"30567040","distractor":"30567640","target":"present","response":"present","rt":"7977","correct":true,"confidence":3},{"trial_n":105,"span":8,"encoder":"32999726","distractor":"32999723","target":"absent","response":"absent","rt":"2679.0000000002","correct":true,"confidence":5},{"trial_n":106,"span":9,"encoder":"827623665","distractor":"627623665","target":"absent","response":"present","rt":"6399","correct":false,"confidence":3},{"trial_n":107,"span":8,"encoder":"36425764","distractor":"36422764","target":"present","response":"absent","rt":"4712","correct":false,"confidence":1},{"trial_n":108,"span":7,"encoder":"8991650","distractor":"8991670","target":"absent","response":"absent","rt":"4023","correct":true,"confidence":4},{"trial_n":109,"span":7,"encoder":"6329561","distractor":"6229561","target":"absent","response":"absent","rt":"2442","correct":true,"confidence":5},{"trial_n":110,"span":8,"encoder":"25719845","distractor":"25719842","target":"absent","response":"absent","rt":"3246","correct":true,"confidence":5},{"trial_n":111,"span":8,"encoder":"69519729","distractor":"69519725","target":"present","response":"present","rt":"6410","correct":true,"confidence":3},{"trial_n":112,"span":9,"encoder":"724782439","distractor":"724482439","target":"absent","response":"absent","rt":"5266","correct":true,"confidence":5},{"trial_n":113,"span":9,"encoder":"342520095","distractor":"442520095","target":"absent","response":"absent","rt":"2449","correct":true,"confidence":3},{"trial_n":114,"span":10,"encoder":"8469900731","distractor":"8469900831","target":"present","response":"absent","rt":"9971","correct":false,"confidence":2},{"trial_n":115,"span":9,"encoder":"458551232","distractor":"458551236","target":"present","response":"present","rt":"2500","correct":true,"confidence":5},{"trial_n":116,"span":9,"encoder":"887781226","distractor":"884781226","target":"present","response":"present","rt":"4567","correct":true,"confidence":5},{"trial_n":117,"span":10,"encoder":"8019685609","distractor":"8019685606","target":"present","response":"present","rt":"2055","correct":true,"confidence":5},{"trial_n":118,"span":10,"encoder":"0197829439","distractor":"8197829439","target":"present","response":"absent","rt":"5521","correct":false,"confidence":5},{"trial_n":119,"span":9,"encoder":"388818018","distractor":"398818018","target":"absent","response":"absent","rt":"4450","correct":true,"confidence":4},{"trial_n":120,"span":9,"encoder":"832755784","distractor":"842755784","target":"absent","response":"absent","rt":"4135","correct":true,"confidence":2},{"trial_n":121,"span":10,"encoder":"5424957422","distractor":"5424157422","target":"absent","response":"absent","rt":"3866","correct":true,"confidence":3},{"trial_n":122,"span":10,"encoder":"3659962609","distractor":"3609962609","target":"present","response":"absent","rt":"7305","correct":false,"confidence":2},{"trial_n":123,"span":9,"encoder":"745946700","distractor":"745946760","target":"present","response":"present","rt":"1716","correct":true,"confidence":5},{"trial_n":124,"span":9,"encoder":"661742051","distractor":"661747051","target":"absent","response":"present","rt":"7217","correct":false,"confidence":2},{"trial_n":125,"span":8,"encoder":"88931969","distractor":"88931929","target":"present","response":"present","rt":"2561","correct":true,"confidence":5},{"trial_n":126,"span":8,"encoder":"53223332","distractor":"53223339","target":"present","response":"present","rt":"4828","correct":true,"confidence":5},{"trial_n":127,"span":9,"encoder":"985646230","distractor":"985646530","target":"absent","response":"absent","rt":"2399","correct":true,"confidence":5},{"trial_n":128,"span":9,"encoder":"127358298","distractor":"117358298","target":"absent","response":"absent","rt":"2284","correct":true,"confidence":5},{"trial_n":129,"span":10,"encoder":"1699521768","distractor":"1699591768","target":"absent","response":"absent","rt":"5538","correct":true,"confidence":3},{"trial_n":130,"span":10,"encoder":"8057718732","distractor":"8057788732","target":"absent","response":"absent","rt":"2837","correct":true,"confidence":2},{"trial_n":131,"span":11,"encoder":"32554095583","distractor":"32554095083","target":"present","response":"present","rt":"6332.9999999998","correct":true,"confidence":2},{"trial_n":132,"span":11,"encoder":"21155365713","distractor":"21155305713","target":"present","response":"present","rt":"4610.0000000002","correct":true,"confidence":2},{"trial_n":133,"span":12,"encoder":"035691673003","distractor":"035691173003","target":"present","response":"present","rt":"5013","correct":true,"confidence":3},{"trial_n":134,"span":12,"encoder":"124071204551","distractor":"124081204551","target":"absent","response":"absent","rt":"4363.0000000002","correct":true,"confidence":3},{"trial_n":135,"span":13,"encoder":"2929800144309","distractor":"2929800544309","target":"present","response":"present","rt":"9751","correct":true,"confidence":3},{"trial_n":136,"span":13,"encoder":"7623423877046","distractor":"5623423877046","target":"absent","response":"present","rt":"3085","correct":false,"confidence":2},{"trial_n":137,"span":12,"encoder":"873742223942","distractor":"873742223242","target":"absent","response":"absent","rt":"3046","correct":true,"confidence":5},{"trial_n":138,"span":12,"encoder":"737435767841","distractor":"732435767841","target":"absent","response":"present","rt":"3980","correct":false,"confidence":1},{"trial_n":139,"span":11,"encoder":"96364356294","distractor":"90364356294","target":"present","response":"present","rt":"7843.0000000002","correct":true,"confidence":2},{"trial_n":140,"span":11,"encoder":"79672965308","distractor":"79672965305","target":"present","response":"present","rt":"4492","correct":true,"confidence":3}]