[{"trial_n":1,"n_dots":4.25,"target":"left","response":"left","rt":4950,"correct":true,"confidence":-1},{"trial_n":2,"n_dots":4.25,"target":"left","response":"left","rt":2058,"correct":true,"confidence":-1},{"trial_n":3,"n_dots":3.85,"target":"left","response":"left","rt":759,"correct":true,"confidence":-1},{"trial_n":4,"n_dots":3.85,"target":"left","response":"left","rt":725,"correct":true,"confidence":-1},{"trial_n":5,"n_dots":3.45,"target":"left","response":"left","rt":1124,"correct":true,"confidence":-1},{"trial_n":6,"n_dots":3.45,"target":"left","response":"left","rt":675,"correct":true,"confidence":-1},{"trial_n":7,"n_dots":3.05,"target":"left","response":"left","rt":695.00000000001,"correct":true,"confidence":-1},{"trial_n":8,"n_dots":3.05,"target":"right","response":"left","rt":625,"correct":false,"confidence":-1},{"trial_n":9,"n_dots":3.25,"target":"right","response":"right","rt":1041,"correct":true,"confidence":-1},{"trial_n":10,"n_dots":3.25,"target":"left","response":"left","rt":743,"correct":true,"confidence":-1},{"trial_n":11,"n_dots":3.05,"target":"right","response":"left","rt":640.99999999999,"correct":false,"confidence":-1},{"trial_n":12,"n_dots":3.25,"target":"left","response":"right","rt":659,"correct":false,"confidence":-1},{"trial_n":13,"n_dots":3.35,"target":"left","response":"left","rt":624,"correct":true,"confidence":-1},{"trial_n":14,"n_dots":3.35,"target":"left","response":"left","rt":809,"correct":true,"confidence":-1},{"trial_n":15,"n_dots":3.25,"target":"left","response":"left","rt":641.00000000001,"correct":true,"confidence":-1},{"trial_n":16,"n_dots":3.25,"target":"right","response":"right","rt":659,"correct":true,"confidence":-1},{"trial_n":17,"n_dots":3.15,"target":"right","response":"left","rt":759,"correct":false,"confidence":-1},{"trial_n":18,"n_dots":3.25,"target":"right","response":"left","rt":875,"correct":false,"confidence":-1},{"trial_n":19,"n_dots":3.35,"target":"right","response":"right","rt":607.99999999999,"correct":true,"confidence":-1},{"trial_n":20,"n_dots":3.35,"target":"right","response":"left","rt":609,"correct":false,"confidence":-1},{"trial_n":21,"n_dots":3.45,"target":"right","response":"left","rt":628,"correct":false,"confidence":2},{"trial_n":22,"n_dots":3.55,"target":"left","response":"left","rt":691,"correct":true,"confidence":3},{"trial_n":23,"n_dots":3.55,"target":"right","response":"right","rt":858.00000000003,"correct":true,"confidence":2},{"trial_n":24,"n_dots":3.45,"target":"left","response":"left","rt":1442,"correct":true,"confidence":2},{"trial_n":25,"n_dots":3.45,"target":"right","response":"right","rt":1074,"correct":true,"confidence":3},{"trial_n":26,"n_dots":3.35,"target":"right","response":"right","rt":908,"correct":true,"confidence":1},{"trial_n":27,"n_dots":3.35,"target":"right","response":"left","rt":858,"correct":false,"confidence":2},{"trial_n":28,"n_dots":3.45,"target":"left","response":"left","rt":891,"correct":true,"confidence":3},{"trial_n":29,"n_dots":3.45,"target":"right","response":"right","rt":958,"correct":true,"confidence":1},{"trial_n":30,"n_dots":3.35,"target":"right","response":"left","rt":707,"correct":false,"confidence":2},{"trial_n":31,"n_dots":3.45,"target":"right","response":"right","rt":575,"correct":true,"confidence":2},{"trial_n":32,"n_dots":3.45,"target":"right","response":"left","rt":490,"correct":false,"confidence":2},{"trial_n":33,"n_dots":3.55,"target":"right","response":"right","rt":508,"correct":true,"confidence":1},{"trial_n":34,"n_dots":3.55,"target":"right","response":"left","rt":659,"correct":false,"confidence":1},{"trial_n":35,"n_dots":3.65,"target":"left","response":"left","rt":458,"correct":true,"confidence":2},{"trial_n":36,"n_dots":3.65,"target":"left","response":"left","rt":591,"correct":true,"confidence":3},{"trial_n":37,"n_dots":3.55,"target":"left","response":"left","rt":858,"correct":true,"confidence":3},{"trial_n":38,"n_dots":3.55,"target":"right","response":"right","rt":509.00000000003,"correct":true,"confidence":3},{"trial_n":39,"n_dots":3.45,"target":"right","response":"left","rt":575,"correct":false,"confidence":2},{"trial_n":40,"n_dots":3.55,"target":"right","response":"right","rt":758,"correct":true,"confidence":1},{"trial_n":41,"n_dots":3.55,"target":"left","response":"left","rt":1460,"correct":true,"confidence":1},{"trial_n":42,"n_dots":3.45,"target":"left","response":"right","rt":724.00000000006,"correct":false,"confidence":1},{"trial_n":43,"n_dots":3.55,"target":"right","response":"right","rt":724,"correct":true,"confidence":2},{"trial_n":44,"n_dots":3.55,"target":"right","response":"left","rt":724,"correct":false,"confidence":1},{"trial_n":45,"n_dots":3.65,"target":"left","response":"right","rt":558,"correct":false,"confidence":1},{"trial_n":46,"n_dots":3.75,"target":"left","response":"left","rt":709,"correct":true,"confidence":2},{"trial_n":47,"n_dots":3.75,"target":"left","response":"left","rt":1006,"correct":true,"confidence":2},{"trial_n":48,"n_dots":3.65,"target":"left","response":"left","rt":508,"correct":true,"confidence":2},{"trial_n":49,"n_dots":3.65,"target":"left","response":"left","rt":659.00000000006,"correct":true,"confidence":2},{"trial_n":50,"n_dots":3.55,"target":"left","response":"left","rt":1025,"correct":true,"confidence":1},{"trial_n":51,"n_dots":3.55,"target":"left","response":"right","rt":642,"correct":false,"confidence":1},{"trial_n":52,"n_dots":3.65,"target":"right","response":"right","rt":607,"correct":true,"confidence":1},{"trial_n":53,"n_dots":3.65,"target":"right","response":"left","rt":641,"correct":false,"confidence":2},{"trial_n":54,"n_dots":3.75,"target":"right","response":"left","rt":691,"correct":false,"confidence":2},{"trial_n":55,"n_dots":3.85,"target":"right","response":"right","rt":822.99999999994,"correct":true,"confidence":3},{"trial_n":56,"n_dots":3.85,"target":"right","response":"right","rt":440.99999999994,"correct":true,"confidence":3},{"trial_n":57,"n_dots":3.75,"target":"left","response":"left","rt":508,"correct":true,"confidence":3},{"trial_n":58,"n_dots":3.75,"target":"right","response":"right","rt":893,"correct":true,"confidence":2},{"trial_n":59,"n_dots":3.65,"target":"right","response":"right","rt":641,"correct":true,"confidence":1},{"trial_n":60,"n_dots":3.65,"target":"left","response":"left","rt":493,"correct":true,"confidence":2},{"trial_n":61,"n_dots":3.55,"target":"left","response":"left","rt":626,"correct":true,"confidence":2},{"trial_n":62,"n_dots":3.55,"target":"right","response":"right","rt":691.00000000006,"correct":true,"confidence":3},{"trial_n":63,"n_dots":3.45,"target":"left","response":"left","rt":359,"correct":true,"confidence":2},{"trial_n":64,"n_dots":3.45,"target":"right","response":"right","rt":293,"correct":true,"confidence":2},{"trial_n":65,"n_dots":3.35,"target":"right","response":"left","rt":524,"correct":false,"confidence":1},{"trial_n":66,"n_dots":3.45,"target":"left","response":"left","rt":558,"correct":true,"confidence":2},{"trial_n":67,"n_dots":3.45,"target":"right","response":"right","rt":474,"correct":true,"confidence":3},{"trial_n":68,"n_dots":3.35,"target":"left","response":"left","rt":475,"correct":true,"confidence":3},{"trial_n":69,"n_dots":3.35,"target":"right","response":"right","rt":559,"correct":true,"confidence":3},{"trial_n":70,"n_dots":3.25,"target":"left","response":"left","rt":223,"correct":true,"confidence":2},{"trial_n":71,"n_dots":3.25,"target":"left","response":"left","rt":407.99999999994,"correct":true,"confidence":2},{"trial_n":72,"n_dots":3.15,"target":"right","response":"right","rt":393.00000000006,"correct":true,"confidence":1},{"trial_n":73,"n_dots":3.15,"target":"right","response":"left","rt":541.99999999994,"correct":false,"confidence":3},{"trial_n":74,"n_dots":3.25,"target":"left","response":"right","rt":676,"correct":false,"confidence":2},{"trial_n":75,"n_dots":3.35,"target":"left","response":"left","rt":626,"correct":true,"confidence":2},{"trial_n":76,"n_dots":3.35,"target":"right","response":"right","rt":525.00000000006,"correct":true,"confidence":2},{"trial_n":77,"n_dots":3.25,"target":"right","response":"right","rt":442,"correct":true,"confidence":2},{"trial_n":78,"n_dots":3.25,"target":"right","response":"left","rt":625,"correct":false,"confidence":2},{"trial_n":79,"n_dots":3.35,"target":"left","response":"left","rt":641,"correct":true,"confidence":2},{"trial_n":80,"n_dots":3.35,"target":"right","response":"left","rt":1026.0000000001,"correct":false,"confidence":1},{"trial_n":81,"n_dots":3.45,"target":"left","response":"left","rt":342.99999999988,"correct":true,"confidence":2},{"trial_n":82,"n_dots":3.45,"target":"right","response":"right","rt":328,"correct":true,"confidence":3},{"trial_n":83,"n_dots":3.35,"target":"left","response":"left","rt":378,"correct":true,"confidence":2},{"trial_n":84,"n_dots":3.35,"target":"left","response":"left","rt":509,"correct":true,"confidence":2},{"trial_n":85,"n_dots":3.25,"target":"right","response":"left","rt":476.99999999988,"correct":false,"confidence":2},{"trial_n":86,"n_dots":3.35,"target":"right","response":"right","rt":509,"correct":true,"confidence":3},{"trial_n":87,"n_dots":3.35,"target":"right","response":"left","rt":376,"correct":false,"confidence":3},{"trial_n":88,"n_dots":3.45,"target":"left","response":"left","rt":392.99999999988,"correct":true,"confidence":3},{"trial_n":89,"n_dots":3.45,"target":"left","response":"right","rt":709.99999999988,"correct":false,"confidence":3},{"trial_n":90,"n_dots":3.55,"target":"left","response":"left","rt":659,"correct":true,"confidence":2},{"trial_n":91,"n_dots":3.55,"target":"left","response":"right","rt":824,"correct":false,"confidence":2},{"trial_n":92,"n_dots":3.65,"target":"left","response":"left","rt":475.00000000012,"correct":true,"confidence":2},{"trial_n":93,"n_dots":3.65,"target":"right","response":"right","rt":359.00000000012,"correct":true,"confidence":2},{"trial_n":94,"n_dots":3.55,"target":"right","response":"left","rt":392,"correct":false,"confidence":2},{"trial_n":95,"n_dots":3.65,"target":"left","response":"right","rt":575,"correct":false,"confidence":2},{"trial_n":96,"n_dots":3.75,"target":"left","response":"right","rt":474,"correct":false,"confidence":2},{"trial_n":97,"n_dots":3.85,"target":"right","response":"right","rt":391,"correct":true,"confidence":2},{"trial_n":98,"n_dots":3.85,"target":"left","response":"left","rt":109.00000000012,"correct":true,"confidence":2},{"trial_n":99,"n_dots":3.75,"target":"left","response":"left","rt":708,"correct":true,"confidence":2},{"trial_n":100,"n_dots":3.75,"target":"right","response":"right","rt":511,"correct":true,"confidence":2},{"trial_n":101,"n_dots":3.65,"target":"right","response":"left","rt":875,"correct":false,"confidence":2},{"trial_n":102,"n_dots":3.75,"target":"left","response":"left","rt":675,"correct":true,"confidence":2},{"trial_n":103,"n_dots":3.75,"target":"left","response":"left","rt":625,"correct":true,"confidence":1},{"trial_n":104,"n_dots":3.65,"target":"right","response":"right","rt":341,"correct":true,"confidence":3},{"trial_n":105,"n_dots":3.65,"target":"left","response":"left","rt":660,"correct":true,"confidence":2},{"trial_n":106,"n_dots":3.55,"target":"left","response":"left","rt":492,"correct":true,"confidence":2},{"trial_n":107,"n_dots":3.55,"target":"right","response":"right","rt":324.99999999988,"correct":true,"confidence":2},{"trial_n":108,"n_dots":3.45,"target":"right","response":"right","rt":308,"correct":true,"confidence":2},{"trial_n":109,"n_dots":3.45,"target":"left","response":"right","rt":511,"correct":false,"confidence":2},{"trial_n":110,"n_dots":3.55,"target":"left","response":"left","rt":92,"correct":true,"confidence":2},{"trial_n":111,"n_dots":3.55,"target":"left","response":"left","rt":259,"correct":true,"confidence":2},{"trial_n":112,"n_dots":3.45,"target":"left","response":"left","rt":307,"correct":true,"confidence":2},{"trial_n":113,"n_dots":3.45,"target":"left","response":"left","rt":225,"correct":true,"confidence":2},{"trial_n":114,"n_dots":3.35,"target":"right","response":"right","rt":142,"correct":true,"confidence":2},{"trial_n":115,"n_dots":3.35,"target":"right","response":"left","rt":160,"correct":false,"confidence":2},{"trial_n":116,"n_dots":3.45,"target":"right","response":"right","rt":273,"correct":true,"confidence":2},{"trial_n":117,"n_dots":3.45,"target":"right","response":"right","rt":125,"correct":true,"confidence":2},{"trial_n":118,"n_dots":3.35,"target":"right","response":"right","rt":159,"correct":true,"confidence":2},{"trial_n":119,"n_dots":3.35,"target":"left","response":"left","rt":226,"correct":true,"confidence":2},{"trial_n":120,"n_dots":3.25,"target":"right","response":"right","rt":807.99999999988,"correct":true,"confidence":2}]