[{"trial_n":1,"min":25,"max":230,"target":"present","response":"present","rt":6813.1000000015,"correct":true,"confidence":-1},{"trial_n":2,"min":25,"max":230,"target":"present","response":"present","rt":745,"correct":true,"confidence":-1},{"trial_n":3,"min":41,"max":214,"target":"absent","response":"absent","rt":745.79999999702,"correct":true,"confidence":-1},{"trial_n":4,"min":41,"max":214,"target":"absent","response":"absent","rt":574,"correct":true,"confidence":-1},{"trial_n":5,"min":57,"max":198,"target":"present","response":"present","rt":794.20000000298,"correct":true,"confidence":-1},{"trial_n":6,"min":57,"max":198,"target":"present","response":"present","rt":998.40000000596,"correct":true,"confidence":-1},{"trial_n":7,"min":73,"max":182,"target":"present","response":"present","rt":1006.8000000045,"correct":true,"confidence":-1},{"trial_n":8,"min":73,"max":182,"target":"absent","response":"absent","rt":868.29999999702,"correct":true,"confidence":-1},{"trial_n":9,"min":89,"max":166,"target":"present","response":"present","rt":928,"correct":true,"confidence":-1},{"trial_n":10,"min":89,"max":166,"target":"absent","response":"absent","rt":912,"correct":true,"confidence":-1},{"trial_n":11,"min":97,"max":158,"target":"present","response":"absent","rt":519.89999999851,"correct":false,"confidence":-1},{"trial_n":12,"min":89,"max":166,"target":"absent","response":"present","rt":991.20000000298,"correct":false,"confidence":-1},{"trial_n":13,"min":81,"max":174,"target":"present","response":"present","rt":573.19999999553,"correct":true,"confidence":-1},{"trial_n":14,"min":81,"max":174,"target":"present","response":"present","rt":456,"correct":true,"confidence":-1},{"trial_n":15,"min":89,"max":166,"target":"absent","response":"present","rt":885.80000000447,"correct":false,"confidence":-1},{"trial_n":16,"min":81,"max":174,"target":"absent","response":"absent","rt":945.70000000298,"correct":true,"confidence":-1},{"trial_n":17,"min":81,"max":174,"target":"present","response":"present","rt":892.10000000149,"correct":true,"confidence":-1},{"trial_n":18,"min":89,"max":166,"target":"absent","response":"present","rt":1071.6999999955,"correct":false,"confidence":-1},{"trial_n":19,"min":81,"max":174,"target":"absent","response":"absent","rt":872,"correct":true,"confidence":-1},{"trial_n":20,"min":81,"max":174,"target":"present","response":"present","rt":647.5,"correct":true,"confidence":-1},{"trial_n":21,"min":85,"max":170,"target":"present","response":"present","rt":1762.6999999955,"correct":true,"confidence":3},{"trial_n":22,"min":85,"max":170,"target":"present","response":"present","rt":815.30000000447,"correct":true,"confidence":5},{"trial_n":23,"min":89,"max":166,"target":"absent","response":"present","rt":903.10000000149,"correct":false,"confidence":5},{"trial_n":24,"min":85,"max":170,"target":"absent","response":"absent","rt":1621.6999999955,"correct":true,"confidence":5},{"trial_n":25,"min":85,"max":170,"target":"absent","response":"absent","rt":1392.6000000015,"correct":true,"confidence":4},{"trial_n":26,"min":89,"max":166,"target":"present","response":"absent","rt":1960.1999999955,"correct":false,"confidence":5},{"trial_n":27,"min":85,"max":170,"target":"absent","response":"absent","rt":3407.799999997,"correct":true,"confidence":2},{"trial_n":28,"min":85,"max":170,"target":"present","response":"present","rt":713.79999999702,"correct":true,"confidence":5},{"trial_n":29,"min":89,"max":166,"target":"absent","response":"present","rt":660.10000000149,"correct":false,"confidence":5},{"trial_n":30,"min":85,"max":170,"target":"absent","response":"absent","rt":1062.6000000015,"correct":true,"confidence":5},{"trial_n":31,"min":85,"max":170,"target":"present","response":"present","rt":896.29999999702,"correct":true,"confidence":5},{"trial_n":32,"min":87,"max":168,"target":"present","response":"present","rt":679.29999999702,"correct":true,"confidence":5},{"trial_n":33,"min":87,"max":168,"target":"absent","response":"present","rt":1714.200000003,"correct":false,"confidence":4},{"trial_n":34,"min":85,"max":170,"target":"present","response":"present","rt":611.40000000596,"correct":true,"confidence":5},{"trial_n":35,"min":85,"max":170,"target":"absent","response":"present","rt":1741.299999997,"correct":false,"confidence":3},{"trial_n":36,"min":83,"max":172,"target":"present","response":"present","rt":666.10000000149,"correct":true,"confidence":5},{"trial_n":37,"min":83,"max":172,"target":"absent","response":"absent","rt":900.29999999702,"correct":true,"confidence":5},{"trial_n":38,"min":85,"max":170,"target":"present","response":"present","rt":2146.8000000045,"correct":true,"confidence":3},{"trial_n":39,"min":85,"max":170,"target":"present","response":"present","rt":750.5,"correct":true,"confidence":5},{"trial_n":40,"min":87,"max":168,"target":"present","response":"present","rt":722.5,"correct":true,"confidence":5},{"trial_n":41,"min":87,"max":168,"target":"present","response":"absent","rt":1077.799999997,"correct":false,"confidence":5},{"trial_n":42,"min":86,"max":169,"target":"absent","response":"absent","rt":1712.6000000015,"correct":true,"confidence":5},{"trial_n":43,"min":86,"max":169,"target":"present","response":"present","rt":731.80000000447,"correct":true,"confidence":5},{"trial_n":44,"min":87,"max":168,"target":"absent","response":"absent","rt":804.39999999851,"correct":true,"confidence":5},{"trial_n":45,"min":87,"max":168,"target":"absent","response":"absent","rt":985.79999999702,"correct":true,"confidence":5},{"trial_n":46,"min":88,"max":167,"target":"absent","response":"absent","rt":817.20000000298,"correct":true,"confidence":5},{"trial_n":47,"min":88,"max":167,"target":"present","response":"absent","rt":889.69999999553,"correct":false,"confidence":4},{"trial_n":48,"min":87,"max":168,"target":"absent","response":"present","rt":2232.599999994,"correct":false,"confidence":2},{"trial_n":49,"min":86,"max":169,"target":"absent","response":"absent","rt":1570.8000000045,"correct":true,"confidence":5},{"trial_n":50,"min":86,"max":169,"target":"present","response":"present","rt":828.5,"correct":true,"confidence":5},{"trial_n":51,"min":87,"max":168,"target":"present","response":"present","rt":1285.3999999985,"correct":true,"confidence":3},{"trial_n":52,"min":87,"max":168,"target":"absent","response":"absent","rt":663.5,"correct":true,"confidence":5},{"trial_n":53,"min":88,"max":167,"target":"absent","response":"absent","rt":637.10000000149,"correct":true,"confidence":5},{"trial_n":54,"min":88,"max":167,"target":"present","response":"present","rt":755.60000000149,"correct":true,"confidence":3},{"trial_n":55,"min":89,"max":166,"target":"absent","response":"absent","rt":618.60000000149,"correct":true,"confidence":5},{"trial_n":56,"min":89,"max":166,"target":"present","response":"absent","rt":763.40000000596,"correct":false,"confidence":5},{"trial_n":57,"min":88,"max":167,"target":"absent","response":"absent","rt":706,"correct":true,"confidence":5},{"trial_n":58,"min":88,"max":167,"target":"present","response":"present","rt":675.70000000298,"correct":true,"confidence":5},{"trial_n":59,"min":89,"max":166,"target":"present","response":"present","rt":934.09999999404,"correct":true,"confidence":3},{"trial_n":60,"min":89,"max":166,"target":"absent","response":"absent","rt":933.39999999851,"correct":true,"confidence":5},{"trial_n":61,"min":90,"max":165,"target":"present","response":"present","rt":634.60000000149,"correct":true,"confidence":5},{"trial_n":62,"min":90,"max":165,"target":"absent","response":"present","rt":717.70000000298,"correct":false,"confidence":4},{"trial_n":63,"min":89,"max":166,"target":"absent","response":"absent","rt":899.60000000149,"correct":true,"confidence":5},{"trial_n":64,"min":89,"max":166,"target":"present","response":"present","rt":709.89999999851,"correct":true,"confidence":4},{"trial_n":65,"min":90,"max":165,"target":"present","response":"present","rt":715.19999999553,"correct":true,"confidence":5},{"trial_n":66,"min":90,"max":165,"target":"absent","response":"present","rt":896.80000000447,"correct":false,"confidence":2},{"trial_n":67,"min":89,"max":166,"target":"present","response":"absent","rt":812.09999999404,"correct":false,"confidence":4},{"trial_n":68,"min":88,"max":167,"target":"present","response":"present","rt":1004.8999999985,"correct":true,"confidence":3},{"trial_n":69,"min":88,"max":167,"target":"absent","response":"absent","rt":1044.6000000015,"correct":true,"confidence":5},{"trial_n":70,"min":89,"max":166,"target":"absent","response":"present","rt":793.19999999553,"correct":false,"confidence":4},{"trial_n":71,"min":41,"max":214,"target":"present","response":"present","rt":2276,"correct":true,"confidence":-1},{"trial_n":72,"min":41,"max":214,"target":"present","response":"present","rt":1814,"correct":true,"confidence":-1},{"trial_n":73,"min":57,"max":198,"target":"absent","response":"absent","rt":516.19999999553,"correct":true,"confidence":-1},{"trial_n":74,"min":57,"max":198,"target":"absent","response":"absent","rt":765.10000000149,"correct":true,"confidence":-1},{"trial_n":75,"min":73,"max":182,"target":"present","response":"present","rt":1142.400000006,"correct":true,"confidence":-1},{"trial_n":76,"min":73,"max":182,"target":"absent","response":"absent","rt":806.89999999851,"correct":true,"confidence":-1},{"trial_n":77,"min":89,"max":166,"target":"absent","response":"present","rt":1346.700000003,"correct":false,"confidence":-1},{"trial_n":78,"min":73,"max":182,"target":"present","response":"present","rt":638.29999999702,"correct":true,"confidence":-1},{"trial_n":79,"min":73,"max":182,"target":"absent","response":"absent","rt":1556.8000000045,"correct":true,"confidence":-1},{"trial_n":80,"min":89,"max":166,"target":"present","response":"present","rt":554.29999999702,"correct":true,"confidence":-1},{"trial_n":81,"min":89,"max":166,"target":"present","response":"present","rt":801,"correct":true,"confidence":-1},{"trial_n":82,"min":97,"max":158,"target":"absent","response":"absent","rt":1088.5,"correct":true,"confidence":-1},{"trial_n":83,"min":97,"max":158,"target":"present","response":"present","rt":671.10000000149,"correct":true,"confidence":-1},{"trial_n":84,"min":105,"max":150,"target":"present","response":"present","rt":901.60000000149,"correct":true,"confidence":-1},{"trial_n":85,"min":105,"max":150,"target":"absent","response":"present","rt":890.60000000149,"correct":false,"confidence":-1},{"trial_n":86,"min":97,"max":158,"target":"absent","response":"absent","rt":976.40000000596,"correct":true,"confidence":-1},{"trial_n":87,"min":97,"max":158,"target":"absent","response":"absent","rt":754.09999999404,"correct":true,"confidence":-1},{"trial_n":88,"min":105,"max":150,"target":"absent","response":"absent","rt":2058.3999999985,"correct":true,"confidence":-1},{"trial_n":89,"min":105,"max":150,"target":"absent","response":"present","rt":861.90000000596,"correct":false,"confidence":-1},{"trial_n":90,"min":97,"max":158,"target":"present","response":"absent","rt":637.30000000447,"correct":false,"confidence":-1},{"trial_n":91,"min":93,"max":162,"target":"absent","response":"present","rt":605.89999999851,"correct":false,"confidence":4},{"trial_n":92,"min":89,"max":166,"target":"absent","response":"absent","rt":766.19999999553,"correct":true,"confidence":5},{"trial_n":93,"min":89,"max":166,"target":"absent","response":"absent","rt":717.70000000298,"correct":true,"confidence":5},{"trial_n":94,"min":93,"max":162,"target":"absent","response":"absent","rt":1625.200000003,"correct":true,"confidence":2},{"trial_n":95,"min":93,"max":162,"target":"absent","response":"absent","rt":809.60000000149,"correct":true,"confidence":5},{"trial_n":96,"min":97,"max":158,"target":"present","response":"present","rt":657.29999999702,"correct":true,"confidence":5},{"trial_n":97,"min":97,"max":158,"target":"present","response":"present","rt":1712.5,"correct":true,"confidence":2},{"trial_n":98,"min":101,"max":154,"target":"absent","response":"absent","rt":774.89999999851,"correct":true,"confidence":4},{"trial_n":99,"min":101,"max":154,"target":"present","response":"present","rt":656.5,"correct":true,"confidence":3},{"trial_n":100,"min":105,"max":150,"target":"absent","response":"absent","rt":2150.1000000015,"correct":true,"confidence":2},{"trial_n":101,"min":105,"max":150,"target":"absent","response":"present","rt":1025.1000000015,"correct":false,"confidence":2},{"trial_n":102,"min":103,"max":152,"target":"present","response":"present","rt":1002.6000000015,"correct":true,"confidence":1},{"trial_n":103,"min":103,"max":152,"target":"absent","response":"present","rt":848.19999999553,"correct":false,"confidence":2},{"trial_n":104,"min":101,"max":154,"target":"absent","response":"absent","rt":1202.5,"correct":true,"confidence":2},{"trial_n":105,"min":101,"max":154,"target":"absent","response":"present","rt":1100,"correct":false,"confidence":2},{"trial_n":106,"min":99,"max":156,"target":"present","response":"present","rt":920.10000000149,"correct":true,"confidence":3},{"trial_n":107,"min":99,"max":156,"target":"absent","response":"absent","rt":788,"correct":true,"confidence":3},{"trial_n":108,"min":101,"max":154,"target":"absent","response":"present","rt":836.39999999851,"correct":false,"confidence":2},{"trial_n":109,"min":99,"max":156,"target":"present","response":"present","rt":1127.299999997,"correct":true,"confidence":2},{"trial_n":110,"min":99,"max":156,"target":"present","response":"present","rt":2850.8000000045,"correct":true,"confidence":1},{"trial_n":111,"min":100,"max":155,"target":"present","response":"absent","rt":942.79999999702,"correct":false,"confidence":1},{"trial_n":112,"min":99,"max":156,"target":"present","response":"present","rt":1467.099999994,"correct":true,"confidence":3},{"trial_n":113,"min":99,"max":156,"target":"absent","response":"present","rt":3180.099999994,"correct":false,"confidence":2},{"trial_n":114,"min":98,"max":157,"target":"present","response":"absent","rt":2159.200000003,"correct":false,"confidence":1},{"trial_n":115,"min":97,"max":158,"target":"absent","response":"present","rt":2356.900000006,"correct":false,"confidence":1},{"trial_n":116,"min":96,"max":159,"target":"absent","response":"present","rt":941.79999999702,"correct":false,"confidence":1},{"trial_n":117,"min":95,"max":160,"target":"present","response":"absent","rt":3044.1999999955,"correct":false,"confidence":1},{"trial_n":118,"min":94,"max":161,"target":"present","response":"present","rt":1213.299999997,"correct":true,"confidence":2},{"trial_n":119,"min":94,"max":161,"target":"present","response":"present","rt":3946.3000000045,"correct":true,"confidence":1},{"trial_n":120,"min":95,"max":160,"target":"absent","response":"present","rt":1713.5,"correct":false,"confidence":2},{"trial_n":121,"min":94,"max":161,"target":"present","response":"present","rt":1306.3999999985,"correct":true,"confidence":5},{"trial_n":122,"min":94,"max":161,"target":"present","response":"present","rt":1043.3999999985,"correct":true,"confidence":4},{"trial_n":123,"min":95,"max":160,"target":"present","response":"present","rt":912.10000000149,"correct":true,"confidence":3},{"trial_n":124,"min":95,"max":160,"target":"absent","response":"present","rt":1086.8000000045,"correct":false,"confidence":4},{"trial_n":125,"min":94,"max":161,"target":"present","response":"present","rt":746.09999999404,"correct":true,"confidence":5},{"trial_n":126,"min":94,"max":161,"target":"absent","response":"absent","rt":1191.799999997,"correct":true,"confidence":1},{"trial_n":127,"min":95,"max":160,"target":"present","response":"present","rt":1201.3999999985,"correct":true,"confidence":3},{"trial_n":128,"min":95,"max":160,"target":"present","response":"absent","rt":1139.8999999985,"correct":false,"confidence":1},{"trial_n":129,"min":94,"max":161,"target":"present","response":"present","rt":858,"correct":true,"confidence":1},{"trial_n":130,"min":94,"max":161,"target":"present","response":"present","rt":2282.299999997,"correct":true,"confidence":1},{"trial_n":131,"min":95,"max":160,"target":"present","response":"present","rt":729.5,"correct":true,"confidence":4},{"trial_n":132,"min":95,"max":160,"target":"present","response":"present","rt":733,"correct":true,"confidence":4},{"trial_n":133,"min":96,"max":159,"target":"present","response":"present","rt":1065.799999997,"correct":true,"confidence":2},{"trial_n":134,"min":96,"max":159,"target":"absent","response":"present","rt":771.39999999851,"correct":false,"confidence":4},{"trial_n":135,"min":95,"max":160,"target":"present","response":"present","rt":807.29999999702,"correct":true,"confidence":5},{"trial_n":136,"min":95,"max":160,"target":"absent","response":"present","rt":902.10000000149,"correct":false,"confidence":1},{"trial_n":137,"min":94,"max":161,"target":"absent","response":"present","rt":1123.400000006,"correct":false,"confidence":1},{"trial_n":138,"min":93,"max":162,"target":"present","response":"present","rt":691.5,"correct":true,"confidence":5},{"trial_n":139,"min":93,"max":162,"target":"present","response":"present","rt":748.89999999851,"correct":true,"confidence":5},{"trial_n":140,"min":94,"max":161,"target":"absent","response":"absent","rt":3884.3999999985,"correct":true,"confidence":1}]