[{"trial_n":1,"n_dots":4.25,"target":"right","response":"right","rt":4465.6000000015,"correct":true,"confidence":-1},{"trial_n":2,"n_dots":4.25,"target":"left","response":"left","rt":525.39999999851,"correct":true,"confidence":-1},{"trial_n":3,"n_dots":3.85,"target":"right","response":"right","rt":365.90000000596,"correct":true,"confidence":-1},{"trial_n":4,"n_dots":3.85,"target":"right","response":"left","rt":679.40000000596,"correct":false,"confidence":-1},{"trial_n":5,"n_dots":4.25,"target":"left","response":"left","rt":443.69999999553,"correct":true,"confidence":-1},{"trial_n":6,"n_dots":4.25,"target":"right","response":"right","rt":253.90000000596,"correct":true,"confidence":-1},{"trial_n":7,"n_dots":3.85,"target":"left","response":"left","rt":242.90000000596,"correct":true,"confidence":-1},{"trial_n":8,"n_dots":3.85,"target":"right","response":"right","rt":251.20000000298,"correct":true,"confidence":-1},{"trial_n":9,"n_dots":3.65,"target":"right","response":"left","rt":651.80000000447,"correct":false,"confidence":-1},{"trial_n":10,"n_dots":3.85,"target":"right","response":"right","rt":256.70000000298,"correct":true,"confidence":-1},{"trial_n":11,"n_dots":3.85,"target":"left","response":"left","rt":553.59999999404,"correct":true,"confidence":-1},{"trial_n":12,"n_dots":3.65,"target":"left","response":"left","rt":461.29999999702,"correct":true,"confidence":-1},{"trial_n":13,"n_dots":3.65,"target":"right","response":"right","rt":276.70000000298,"correct":true,"confidence":-1},{"trial_n":14,"n_dots":3.55,"target":"left","response":"left","rt":437,"correct":true,"confidence":-1},{"trial_n":15,"n_dots":3.55,"target":"right","response":"right","rt":244.70000000298,"correct":true,"confidence":-1},{"trial_n":16,"n_dots":3.45,"target":"right","response":"right","rt":502.90000000596,"correct":true,"confidence":-1},{"trial_n":17,"n_dots":3.45,"target":"left","response":"left","rt":291.79999999702,"correct":true,"confidence":-1},{"trial_n":18,"n_dots":3.35,"target":"left","response":"left","rt":208.29999999702,"correct":true,"confidence":-1},{"trial_n":19,"n_dots":3.35,"target":"left","response":"left","rt":1123.6999999955,"correct":true,"confidence":-1},{"trial_n":20,"n_dots":3.25,"target":"right","response":"right","rt":178.90000000596,"correct":true,"confidence":-1},{"trial_n":21,"n_dots":3.25,"target":"left","response":"left","rt":250,"correct":true,"confidence":5},{"trial_n":22,"n_dots":3.15,"target":"left","response":"left","rt":673.39999999851,"correct":true,"confidence":5},{"trial_n":23,"n_dots":3.15,"target":"right","response":"right","rt":1018.200000003,"correct":true,"confidence":3},{"trial_n":24,"n_dots":3.05,"target":"right","response":"right","rt":1011.799999997,"correct":true,"confidence":4},{"trial_n":25,"n_dots":3.05,"target":"left","response":"left","rt":1003.5,"correct":true,"confidence":4},{"trial_n":26,"n_dots":2.95,"target":"left","response":"right","rt":1082.3999999985,"correct":false,"confidence":4},{"trial_n":27,"n_dots":3.05,"target":"right","response":"right","rt":741.10000000149,"correct":true,"confidence":5},{"trial_n":28,"n_dots":3.05,"target":"right","response":"right","rt":909.5,"correct":true,"confidence":4},{"trial_n":29,"n_dots":2.95,"target":"right","response":"right","rt":745.59999999404,"correct":true,"confidence":4},{"trial_n":30,"n_dots":2.95,"target":"right","response":"right","rt":668.09999999404,"correct":true,"confidence":4},{"trial_n":31,"n_dots":2.85,"target":"left","response":"left","rt":867.79999999702,"correct":true,"confidence":3},{"trial_n":32,"n_dots":2.85,"target":"right","response":"right","rt":850.5,"correct":true,"confidence":4},{"trial_n":33,"n_dots":2.75,"target":"left","response":"left","rt":1253.6999999955,"correct":true,"confidence":2},{"trial_n":34,"n_dots":2.75,"target":"left","response":"right","rt":659.79999999702,"correct":false,"confidence":3},{"trial_n":35,"n_dots":2.85,"target":"left","response":"left","rt":692.80000000447,"correct":true,"confidence":3},{"trial_n":36,"n_dots":2.85,"target":"left","response":"left","rt":568.40000000596,"correct":true,"confidence":4},{"trial_n":37,"n_dots":2.75,"target":"right","response":"left","rt":590.19999999553,"correct":false,"confidence":4},{"trial_n":38,"n_dots":2.85,"target":"right","response":"right","rt":700.29999999702,"correct":true,"confidence":4},{"trial_n":39,"n_dots":2.85,"target":"right","response":"left","rt":507.20000000298,"correct":false,"confidence":3},{"trial_n":40,"n_dots":2.95,"target":"right","response":"right","rt":642.10000000149,"correct":true,"confidence":4},{"trial_n":41,"n_dots":2.95,"target":"right","response":"right","rt":350.29999999702,"correct":true,"confidence":5},{"trial_n":42,"n_dots":2.85,"target":"right","response":"right","rt":406.29999999702,"correct":true,"confidence":4},{"trial_n":43,"n_dots":2.85,"target":"right","response":"right","rt":418.39999999851,"correct":true,"confidence":4},{"trial_n":44,"n_dots":2.75,"target":"right","response":"left","rt":644.09999999404,"correct":false,"confidence":3},{"trial_n":45,"n_dots":2.85,"target":"right","response":"right","rt":1304.6000000015,"correct":true,"confidence":3},{"trial_n":46,"n_dots":2.85,"target":"right","response":"right","rt":2556.1000000015,"correct":true,"confidence":1},{"trial_n":47,"n_dots":2.75,"target":"right","response":"right","rt":656.80000000447,"correct":true,"confidence":4},{"trial_n":48,"n_dots":2.75,"target":"right","response":"right","rt":718.39999999851,"correct":true,"confidence":4},{"trial_n":49,"n_dots":2.65,"target":"left","response":"left","rt":556.5,"correct":true,"confidence":3},{"trial_n":50,"n_dots":2.65,"target":"left","response":"left","rt":1221.299999997,"correct":true,"confidence":2},{"trial_n":51,"n_dots":2.55,"target":"left","response":"left","rt":557.60000000149,"correct":true,"confidence":2},{"trial_n":52,"n_dots":2.55,"target":"left","response":"left","rt":727.60000000149,"correct":true,"confidence":4},{"trial_n":53,"n_dots":2.45,"target":"right","response":"left","rt":1317.5,"correct":false,"confidence":3},{"trial_n":54,"n_dots":2.55,"target":"right","response":"right","rt":608.20000000298,"correct":true,"confidence":4},{"trial_n":55,"n_dots":2.55,"target":"right","response":"left","rt":657.89999999851,"correct":false,"confidence":3},{"trial_n":56,"n_dots":2.65,"target":"right","response":"right","rt":468.20000000298,"correct":true,"confidence":4},{"trial_n":57,"n_dots":2.65,"target":"right","response":"right","rt":821.80000000447,"correct":true,"confidence":3},{"trial_n":58,"n_dots":2.55,"target":"left","response":"left","rt":558.60000000149,"correct":true,"confidence":3},{"trial_n":59,"n_dots":2.55,"target":"left","response":"left","rt":852.79999999702,"correct":true,"confidence":1},{"trial_n":60,"n_dots":2.45,"target":"right","response":"right","rt":380,"correct":true,"confidence":3},{"trial_n":61,"n_dots":2.45,"target":"left","response":"left","rt":1133.3999999985,"correct":true,"confidence":4},{"trial_n":62,"n_dots":2.35,"target":"right","response":"left","rt":851.30000000447,"correct":false,"confidence":3},{"trial_n":63,"n_dots":2.45,"target":"left","response":"left","rt":584.59999999404,"correct":true,"confidence":3},{"trial_n":64,"n_dots":2.45,"target":"left","response":"left","rt":500.59999999404,"correct":true,"confidence":3},{"trial_n":65,"n_dots":2.35,"target":"left","response":"left","rt":803.39999999851,"correct":true,"confidence":3},{"trial_n":66,"n_dots":2.35,"target":"right","response":"right","rt":481.90000000596,"correct":true,"confidence":4},{"trial_n":67,"n_dots":2.25,"target":"right","response":"left","rt":343.19999999553,"correct":false,"confidence":4},{"trial_n":68,"n_dots":2.35,"target":"left","response":"left","rt":607.79999999702,"correct":true,"confidence":3},{"trial_n":69,"n_dots":2.35,"target":"right","response":"left","rt":1883.3999999985,"correct":false,"confidence":2},{"trial_n":70,"n_dots":2.45,"target":"left","response":"left","rt":924.20000000298,"correct":true,"confidence":2},{"trial_n":71,"n_dots":2.45,"target":"right","response":"right","rt":626.60000000149,"correct":true,"confidence":4},{"trial_n":72,"n_dots":2.35,"target":"right","response":"right","rt":606.29999999702,"correct":true,"confidence":3},{"trial_n":73,"n_dots":2.35,"target":"right","response":"right","rt":821.39999999851,"correct":true,"confidence":2},{"trial_n":74,"n_dots":2.25,"target":"left","response":"left","rt":311.39999999851,"correct":true,"confidence":5},{"trial_n":75,"n_dots":2.25,"target":"right","response":"right","rt":754.5,"correct":true,"confidence":3},{"trial_n":76,"n_dots":2.15,"target":"left","response":"left","rt":515.10000000149,"correct":true,"confidence":5},{"trial_n":77,"n_dots":2.15,"target":"left","response":"left","rt":428.29999999702,"correct":true,"confidence":4},{"trial_n":78,"n_dots":2.05,"target":"left","response":"left","rt":359.10000000149,"correct":true,"confidence":4},{"trial_n":79,"n_dots":2.05,"target":"left","response":"right","rt":746.19999999553,"correct":false,"confidence":4},{"trial_n":80,"n_dots":2.15,"target":"left","response":"left","rt":334.60000000149,"correct":true,"confidence":4},{"trial_n":81,"n_dots":2.15,"target":"right","response":"right","rt":781.79999999702,"correct":true,"confidence":4},{"trial_n":82,"n_dots":2.05,"target":"right","response":"left","rt":293.79999999702,"correct":false,"confidence":4},{"trial_n":83,"n_dots":2.15,"target":"right","response":"left","rt":926.10000000149,"correct":false,"confidence":2},{"trial_n":84,"n_dots":2.25,"target":"right","response":"right","rt":897.30000000447,"correct":true,"confidence":3},{"trial_n":85,"n_dots":2.25,"target":"left","response":"right","rt":674,"correct":false,"confidence":4},{"trial_n":86,"n_dots":2.35,"target":"right","response":"left","rt":606.79999999702,"correct":false,"confidence":2},{"trial_n":87,"n_dots":2.45,"target":"left","response":"left","rt":450.39999999851,"correct":true,"confidence":3},{"trial_n":88,"n_dots":2.45,"target":"right","response":"left","rt":527.89999999851,"correct":false,"confidence":3},{"trial_n":89,"n_dots":2.55,"target":"left","response":"left","rt":348.5,"correct":true,"confidence":3},{"trial_n":90,"n_dots":2.55,"target":"left","response":"left","rt":343.5,"correct":true,"confidence":4},{"trial_n":91,"n_dots":2.45,"target":"right","response":"right","rt":419.10000000149,"correct":true,"confidence":3},{"trial_n":92,"n_dots":2.45,"target":"left","response":"right","rt":674.30000000447,"correct":false,"confidence":2},{"trial_n":93,"n_dots":2.55,"target":"left","response":"left","rt":289.60000000149,"correct":true,"confidence":4},{"trial_n":94,"n_dots":2.55,"target":"left","response":"left","rt":553,"correct":true,"confidence":3},{"trial_n":95,"n_dots":2.45,"target":"left","response":"left","rt":1246.099999994,"correct":true,"confidence":2},{"trial_n":96,"n_dots":2.45,"target":"left","response":"left","rt":1008.200000003,"correct":true,"confidence":1},{"trial_n":97,"n_dots":2.35,"target":"left","response":"right","rt":2076.8000000045,"correct":false,"confidence":1},{"trial_n":98,"n_dots":2.45,"target":"left","response":"left","rt":350.89999999851,"correct":true,"confidence":3},{"trial_n":99,"n_dots":2.45,"target":"right","response":"right","rt":338.89999999851,"correct":true,"confidence":4},{"trial_n":100,"n_dots":2.35,"target":"left","response":"left","rt":358.20000000298,"correct":true,"confidence":4},{"trial_n":101,"n_dots":2.35,"target":"right","response":"right","rt":469.79999999702,"correct":true,"confidence":3},{"trial_n":102,"n_dots":2.25,"target":"left","response":"left","rt":367.69999999553,"correct":true,"confidence":4},{"trial_n":103,"n_dots":2.25,"target":"right","response":"right","rt":748.39999999851,"correct":true,"confidence":3},{"trial_n":104,"n_dots":2.15,"target":"right","response":"right","rt":378.30000000447,"correct":true,"confidence":3},{"trial_n":105,"n_dots":2.15,"target":"left","response":"left","rt":461.5,"correct":true,"confidence":3},{"trial_n":106,"n_dots":2.05,"target":"right","response":"right","rt":513.5,"correct":true,"confidence":3},{"trial_n":107,"n_dots":2.05,"target":"right","response":"left","rt":295.5,"correct":false,"confidence":2},{"trial_n":108,"n_dots":2.15,"target":"left","response":"left","rt":1126.3999999985,"correct":true,"confidence":2},{"trial_n":109,"n_dots":2.15,"target":"left","response":"left","rt":329.79999999702,"correct":true,"confidence":5},{"trial_n":110,"n_dots":2.05,"target":"right","response":"right","rt":420.20000000298,"correct":true,"confidence":4},{"trial_n":111,"n_dots":2.05,"target":"left","response":"left","rt":656.60000000149,"correct":true,"confidence":5},{"trial_n":112,"n_dots":1.95,"target":"left","response":"left","rt":1080.5,"correct":true,"confidence":5},{"trial_n":113,"n_dots":1.95,"target":"left","response":"left","rt":886.89999999851,"correct":true,"confidence":5},{"trial_n":114,"n_dots":1.85,"target":"left","response":"left","rt":560.29999999702,"correct":true,"confidence":5},{"trial_n":115,"n_dots":1.85,"target":"left","response":"left","rt":482.5,"correct":true,"confidence":5},{"trial_n":116,"n_dots":1.75,"target":"left","response":"left","rt":673,"correct":true,"confidence":4},{"trial_n":117,"n_dots":1.75,"target":"left","response":"right","rt":527.5,"correct":false,"confidence":3},{"trial_n":118,"n_dots":1.85,"target":"right","response":"right","rt":318.89999999851,"correct":true,"confidence":4},{"trial_n":119,"n_dots":1.85,"target":"right","response":"left","rt":2231.799999997,"correct":false,"confidence":3},{"trial_n":120,"n_dots":1.95,"target":"left","response":"right","rt":606.19999999553,"correct":false,"confidence":4}]