[{"trial_n":1,"span":8,"encoder":"05965255","distractor":"05965055","target":"present","response":"present","rt":"2740","correct":true,"confidence":-1},{"trial_n":2,"span":8,"encoder":"57137289","distractor":"57167289","target":"present","response":"present","rt":"1545","correct":true,"confidence":-1},{"trial_n":3,"span":10,"encoder":"3410380491","distractor":"3400380491","target":"absent","response":"absent","rt":"1922","correct":true,"confidence":-1},{"trial_n":4,"span":10,"encoder":"4294216266","distractor":"4291216266","target":"absent","response":"present","rt":"1519","correct":false,"confidence":-1},{"trial_n":5,"span":8,"encoder":"08759231","distractor":"04759231","target":"present","response":"present","rt":"1682","correct":true,"confidence":-1},{"trial_n":6,"span":8,"encoder":"45203032","distractor":"45293032","target":"present","response":"absent","rt":"2632","correct":false,"confidence":-1},{"trial_n":7,"span":6,"encoder":"788719","distractor":"788319","target":"present","response":"present","rt":"2403","correct":true,"confidence":-1},{"trial_n":8,"span":6,"encoder":"439727","distractor":"439728","target":"absent","response":"absent","rt":"1720","correct":true,"confidence":-1},{"trial_n":9,"span":8,"encoder":"56703313","distractor":"56203313","target":"present","response":"absent","rt":"3184","correct":false,"confidence":-1},{"trial_n":10,"span":6,"encoder":"381065","distractor":"381365","target":"absent","response":"absent","rt":"2254","correct":true,"confidence":-1},{"trial_n":11,"span":6,"encoder":"454072","distractor":"454672","target":"absent","response":"absent","rt":"2038","correct":true,"confidence":-1},{"trial_n":12,"span":7,"encoder":"9110767","distractor":"9110787","target":"present","response":"absent","rt":"1443","correct":false,"confidence":-1},{"trial_n":13,"span":6,"encoder":"253156","distractor":"253136","target":"absent","response":"present","rt":"955","correct":false,"confidence":-1},{"trial_n":14,"span":5,"encoder":"07352","distractor":"07152","target":"present","response":"present","rt":"2586","correct":true,"confidence":-1},{"trial_n":15,"span":5,"encoder":"97912","distractor":"97212","target":"absent","response":"absent","rt":"2303","correct":true,"confidence":-1},{"trial_n":16,"span":6,"encoder":"897474","distractor":"897404","target":"present","response":"present","rt":"1523","correct":true,"confidence":-1},{"trial_n":17,"span":6,"encoder":"463836","distractor":"463831","target":"absent","response":"absent","rt":"2155","correct":true,"confidence":-1},{"trial_n":18,"span":7,"encoder":"2951508","distractor":"2251508","target":"absent","response":"absent","rt":"1711","correct":true,"confidence":-1},{"trial_n":19,"span":7,"encoder":"5187235","distractor":"5117235","target":"absent","response":"absent","rt":"1460","correct":true,"confidence":-1},{"trial_n":20,"span":8,"encoder":"68430887","distractor":"68430087","target":"absent","response":"absent","rt":"1267","correct":true,"confidence":-1},{"trial_n":21,"span":8,"encoder":"95378052","distractor":"95358052","target":"absent","response":"absent","rt":"2982","correct":true,"confidence":5},{"trial_n":22,"span":9,"encoder":"343992694","distractor":"343992794","target":"present","response":"present","rt":"2075","correct":true,"confidence":4},{"trial_n":23,"span":9,"encoder":"032906784","distractor":"032906704","target":"absent","response":"absent","rt":"2078","correct":true,"confidence":4},{"trial_n":24,"span":10,"encoder":"4144180661","distractor":"4144150661","target":"present","response":"present","rt":"1362","correct":true,"confidence":3},{"trial_n":25,"span":10,"encoder":"3418327227","distractor":"3618327227","target":"present","response":"absent","rt":"2099","correct":false,"confidence":3},{"trial_n":26,"span":9,"encoder":"318051983","distractor":"318041983","target":"absent","response":"absent","rt":"3212","correct":true,"confidence":3},{"trial_n":27,"span":9,"encoder":"578296976","distractor":"578292976","target":"present","response":"absent","rt":"4129","correct":false,"confidence":4},{"trial_n":28,"span":8,"encoder":"97695153","distractor":"94695153","target":"absent","response":"absent","rt":"2005","correct":true,"confidence":5},{"trial_n":29,"span":8,"encoder":"32110651","distractor":"36110651","target":"present","response":"present","rt":"3909","correct":true,"confidence":5},{"trial_n":30,"span":9,"encoder":"742684370","distractor":"745684370","target":"present","response":"absent","rt":"1911","correct":false,"confidence":5},{"trial_n":31,"span":8,"encoder":"87443984","distractor":"87443983","target":"present","response":"present","rt":"5031","correct":true,"confidence":3},{"trial_n":32,"span":8,"encoder":"61746614","distractor":"61946614","target":"absent","response":"absent","rt":"2542","correct":true,"confidence":3},{"trial_n":33,"span":9,"encoder":"109043656","distractor":"109049656","target":"absent","response":"absent","rt":"3262","correct":true,"confidence":5},{"trial_n":34,"span":9,"encoder":"528851819","distractor":"528871819","target":"present","response":"present","rt":"4244","correct":true,"confidence":2},{"trial_n":35,"span":10,"encoder":"2397002898","distractor":"2390002898","target":"present","response":"present","rt":"2413","correct":true,"confidence":5},{"trial_n":36,"span":10,"encoder":"7618877643","distractor":"7616877643","target":"present","response":"absent","rt":"2985","correct":false,"confidence":5},{"trial_n":37,"span":9,"encoder":"756499741","distractor":"756497741","target":"present","response":"absent","rt":"3232","correct":false,"confidence":5},{"trial_n":38,"span":8,"encoder":"67108610","distractor":"67108910","target":"absent","response":"absent","rt":"2039","correct":true,"confidence":5},{"trial_n":39,"span":8,"encoder":"72745466","distractor":"72775466","target":"present","response":"absent","rt":"3562","correct":false,"confidence":4},{"trial_n":40,"span":7,"encoder":"9857369","distractor":"9057369","target":"present","response":"absent","rt":"4158.0000000001","correct":false,"confidence":5},{"trial_n":41,"span":6,"encoder":"554366","distractor":"554365","target":"present","response":"present","rt":"2487","correct":true,"confidence":4},{"trial_n":42,"span":6,"encoder":"745952","distractor":"445952","target":"absent","response":"absent","rt":"1815.9999999999","correct":true,"confidence":5},{"trial_n":43,"span":7,"encoder":"8110700","distractor":"8119700","target":"present","response":"absent","rt":"2224","correct":false,"confidence":5},{"trial_n":44,"span":6,"encoder":"571946","distractor":"571996","target":"absent","response":"absent","rt":"3766","correct":true,"confidence":5},{"trial_n":45,"span":6,"encoder":"197328","distractor":"197398","target":"present","response":"present","rt":"3017","correct":true,"confidence":5},{"trial_n":46,"span":7,"encoder":"4681604","distractor":"4681609","target":"present","response":"present","rt":"6460","correct":true,"confidence":5},{"trial_n":47,"span":7,"encoder":"6232867","distractor":"6232967","target":"present","response":"present","rt":"4892.9999999999","correct":true,"confidence":5},{"trial_n":48,"span":8,"encoder":"38297122","distractor":"38297222","target":"absent","response":"absent","rt":"1548","correct":true,"confidence":4},{"trial_n":49,"span":8,"encoder":"63023388","distractor":"63023328","target":"absent","response":"present","rt":"2914","correct":false,"confidence":2},{"trial_n":50,"span":7,"encoder":"4899366","distractor":"4899369","target":"absent","response":"absent","rt":"3439.0000000001","correct":true,"confidence":5},{"trial_n":51,"span":7,"encoder":"2767610","distractor":"8767610","target":"absent","response":"absent","rt":"1852.9999999999","correct":true,"confidence":5},{"trial_n":52,"span":8,"encoder":"41546971","distractor":"41596971","target":"absent","response":"absent","rt":"2181","correct":true,"confidence":5},{"trial_n":53,"span":8,"encoder":"90028940","distractor":"90328940","target":"present","response":"absent","rt":"4245","correct":false,"confidence":5},{"trial_n":54,"span":7,"encoder":"5630789","distractor":"4630789","target":"absent","response":"absent","rt":"2428","correct":true,"confidence":4},{"trial_n":55,"span":7,"encoder":"3191355","distractor":"3195355","target":"absent","response":"absent","rt":"3275","correct":true,"confidence":4},{"trial_n":56,"span":8,"encoder":"52976698","distractor":"52976298","target":"absent","response":"absent","rt":"2334","correct":true,"confidence":3},{"trial_n":57,"span":8,"encoder":"58267911","distractor":"58227911","target":"present","response":"absent","rt":"2552","correct":false,"confidence":3},{"trial_n":58,"span":7,"encoder":"7435277","distractor":"7431277","target":"absent","response":"present","rt":"1675","correct":false,"confidence":3},{"trial_n":59,"span":6,"encoder":"814506","distractor":"814536","target":"present","response":"present","rt":"3609.0000000001","correct":true,"confidence":4},{"trial_n":60,"span":6,"encoder":"999719","distractor":"999716","target":"present","response":"present","rt":"1339","correct":true,"confidence":5},{"trial_n":61,"span":7,"encoder":"2320716","distractor":"2320616","target":"absent","response":"absent","rt":"2011","correct":true,"confidence":4},{"trial_n":62,"span":7,"encoder":"5044181","distractor":"5044981","target":"present","response":"absent","rt":"3714","correct":false,"confidence":4},{"trial_n":63,"span":6,"encoder":"484918","distractor":"484618","target":"present","response":"absent","rt":"3977.0000000001","correct":false,"confidence":4},{"trial_n":64,"span":5,"encoder":"26901","distractor":"26904","target":"absent","response":"absent","rt":"1674","correct":true,"confidence":3},{"trial_n":65,"span":5,"encoder":"82282","distractor":"82252","target":"present","response":"present","rt":"1707","correct":true,"confidence":3},{"trial_n":66,"span":6,"encoder":"232236","distractor":"282236","target":"absent","response":"absent","rt":"2508.0000000001","correct":true,"confidence":5},{"trial_n":67,"span":6,"encoder":"816788","distractor":"816588","target":"present","response":"present","rt":"2108","correct":true,"confidence":5},{"trial_n":68,"span":7,"encoder":"8136741","distractor":"2136741","target":"absent","response":"absent","rt":"1384","correct":true,"confidence":5},{"trial_n":69,"span":7,"encoder":"3389210","distractor":"3389220","target":"present","response":"absent","rt":"1649","correct":false,"confidence":5},{"trial_n":70,"span":6,"encoder":"593289","distractor":"593219","target":"absent","response":"absent","rt":"3076.0000000001","correct":true,"confidence":5},{"trial_n":71,"span":8,"encoder":"52666764","distractor":"52636764","target":"present","response":"present","rt":"2159","correct":true,"confidence":-1},{"trial_n":72,"span":8,"encoder":"69056942","distractor":"61056942","target":"present","response":"present","rt":"6536","correct":true,"confidence":-1},{"trial_n":73,"span":9,"encoder":"557425379","distractor":"557425349","target":"absent","response":"present","rt":"3140","correct":false,"confidence":-1},{"trial_n":74,"span":8,"encoder":"10656738","distractor":"10658738","target":"absent","response":"absent","rt":"3703.0000000001","correct":true,"confidence":-1},{"trial_n":75,"span":8,"encoder":"94005496","distractor":"94005406","target":"present","response":"present","rt":"4354","correct":true,"confidence":-1},{"trial_n":76,"span":9,"encoder":"044089642","distractor":"044489642","target":"present","response":"present","rt":"2595","correct":true,"confidence":-1},{"trial_n":77,"span":9,"encoder":"368376157","distractor":"368356157","target":"present","response":"present","rt":"5827.9999999999","correct":true,"confidence":-1},{"trial_n":78,"span":10,"encoder":"7714022975","distractor":"7715022975","target":"present","response":"absent","rt":"2382","correct":false,"confidence":-1},{"trial_n":79,"span":9,"encoder":"605659169","distractor":"605659469","target":"absent","response":"absent","rt":"1592","correct":true,"confidence":-1},{"trial_n":80,"span":9,"encoder":"635886987","distractor":"635826987","target":"absent","response":"absent","rt":"2810","correct":true,"confidence":-1},{"trial_n":81,"span":10,"encoder":"2971074397","distractor":"2975074397","target":"absent","response":"absent","rt":"4997.9999999999","correct":true,"confidence":-1},{"trial_n":82,"span":10,"encoder":"6021099122","distractor":"6021092122","target":"absent","response":"absent","rt":"2646","correct":true,"confidence":-1},{"trial_n":83,"span":11,"encoder":"42583002919","distractor":"02583002919","target":"present","response":"absent","rt":"2206","correct":false,"confidence":-1},{"trial_n":84,"span":10,"encoder":"7542262265","distractor":"7542252265","target":"absent","response":"absent","rt":"3502","correct":true,"confidence":-1},{"trial_n":85,"span":10,"encoder":"5431771800","distractor":"5431771880","target":"absent","response":"present","rt":"5164.9999999999","correct":false,"confidence":-1},{"trial_n":86,"span":9,"encoder":"109695173","distractor":"109690173","target":"absent","response":"present","rt":"2996","correct":false,"confidence":-1},{"trial_n":87,"span":8,"encoder":"20461608","distractor":"20481608","target":"present","response":"present","rt":"3763","correct":true,"confidence":-1},{"trial_n":88,"span":8,"encoder":"74246001","distractor":"74246301","target":"present","response":"present","rt":"1593.0000000001","correct":true,"confidence":-1},{"trial_n":89,"span":9,"encoder":"797948891","distractor":"793948891","target":"present","response":"present","rt":"2846","correct":true,"confidence":-1},{"trial_n":90,"span":9,"encoder":"919650690","distractor":"919650695","target":"present","response":"present","rt":"2148.0000000001","correct":true,"confidence":-1},{"trial_n":91,"span":10,"encoder":"6422622623","distractor":"6422692623","target":"present","response":"absent","rt":"908","correct":false,"confidence":4},{"trial_n":92,"span":9,"encoder":"723826248","distractor":"323826248","target":"absent","response":"present","rt":"1203","correct":false,"confidence":3},{"trial_n":93,"span":8,"encoder":"45107399","distractor":"45187399","target":"present","response":"present","rt":"4545.9999999999","correct":true,"confidence":5},{"trial_n":94,"span":8,"encoder":"74261046","distractor":"74263046","target":"absent","response":"absent","rt":"1947.9999999999","correct":true,"confidence":5},{"trial_n":95,"span":9,"encoder":"887035601","distractor":"887035603","target":"present","response":"present","rt":"5069","correct":true,"confidence":5},{"trial_n":96,"span":9,"encoder":"643931499","distractor":"643930499","target":"present","response":"absent","rt":"3703","correct":false,"confidence":4},{"trial_n":97,"span":8,"encoder":"48153421","distractor":"48853421","target":"present","response":"absent","rt":"8801","correct":false,"confidence":5},{"trial_n":98,"span":7,"encoder":"5077340","distractor":"5075340","target":"present","response":"present","rt":"3828","correct":true,"confidence":5},{"trial_n":99,"span":7,"encoder":"7622671","distractor":"2622671","target":"present","response":"present","rt":"3077","correct":true,"confidence":5},{"trial_n":100,"span":8,"encoder":"54865091","distractor":"54885091","target":"absent","response":"absent","rt":"3117","correct":true,"confidence":5},{"trial_n":101,"span":8,"encoder":"45449791","distractor":"45445791","target":"absent","response":"present","rt":"1506","correct":false,"confidence":3},{"trial_n":102,"span":7,"encoder":"2685836","distractor":"2785836","target":"absent","response":"present","rt":"3113","correct":false,"confidence":3},{"trial_n":103,"span":6,"encoder":"758951","distractor":"728951","target":"absent","response":"absent","rt":"2106","correct":true,"confidence":5},{"trial_n":104,"span":6,"encoder":"843890","distractor":"840890","target":"absent","response":"absent","rt":"2125","correct":true,"confidence":3},{"trial_n":105,"span":7,"encoder":"2169689","distractor":"2169589","target":"present","response":"present","rt":"1713.9999999999","correct":true,"confidence":4},{"trial_n":106,"span":7,"encoder":"4444441","distractor":"4444443","target":"absent","response":"absent","rt":"1562","correct":true,"confidence":5},{"trial_n":107,"span":8,"encoder":"29602396","distractor":"29602896","target":"present","response":"present","rt":"1117","correct":true,"confidence":3},{"trial_n":108,"span":8,"encoder":"68196169","distractor":"68196167","target":"absent","response":"absent","rt":"1852","correct":true,"confidence":5},{"trial_n":109,"span":9,"encoder":"402611110","distractor":"402619110","target":"present","response":"present","rt":"1339.0000000001","correct":true,"confidence":4},{"trial_n":110,"span":9,"encoder":"621173137","distractor":"661173137","target":"present","response":"absent","rt":"3410.0000000001","correct":false,"confidence":3},{"trial_n":111,"span":8,"encoder":"02469013","distractor":"02429013","target":"present","response":"present","rt":"1774","correct":true,"confidence":3},{"trial_n":112,"span":8,"encoder":"09636183","distractor":"09626183","target":"present","response":"present","rt":"8968","correct":true,"confidence":4},{"trial_n":113,"span":9,"encoder":"226450177","distractor":"226450377","target":"absent","response":"present","rt":"3974.0000000001","correct":false,"confidence":4},{"trial_n":114,"span":8,"encoder":"14473655","distractor":"14473455","target":"absent","response":"absent","rt":"2668","correct":true,"confidence":5},{"trial_n":115,"span":8,"encoder":"13809351","distractor":"13819351","target":"absent","response":"absent","rt":"3776","correct":true,"confidence":5},{"trial_n":116,"span":9,"encoder":"876800512","distractor":"876801512","target":"absent","response":"absent","rt":"2309","correct":true,"confidence":5},{"trial_n":117,"span":9,"encoder":"198621852","distractor":"198621052","target":"present","response":"present","rt":"3013","correct":true,"confidence":5},{"trial_n":118,"span":10,"encoder":"5982784243","distractor":"5989784243","target":"absent","response":"absent","rt":"5996","correct":true,"confidence":4},{"trial_n":119,"span":10,"encoder":"4304063840","distractor":"4304023840","target":"absent","response":"absent","rt":"3099","correct":true,"confidence":3},{"trial_n":120,"span":11,"encoder":"76235136624","distractor":"76235139624","target":"present","response":"present","rt":"2321","correct":true,"confidence":5},{"trial_n":121,"span":11,"encoder":"47662463357","distractor":"47662763357","target":"absent","response":"present","rt":"2017.0000000001","correct":false,"confidence":3},{"trial_n":122,"span":10,"encoder":"0690899263","distractor":"0690892263","target":"absent","response":"absent","rt":"4967","correct":true,"confidence":3},{"trial_n":123,"span":10,"encoder":"0473965198","distractor":"0473965193","target":"absent","response":"absent","rt":"1719","correct":true,"confidence":5},{"trial_n":124,"span":11,"encoder":"77433429361","distractor":"77433929361","target":"present","response":"absent","rt":"3588.9999999998","correct":false,"confidence":3},{"trial_n":125,"span":10,"encoder":"7606597242","distractor":"7606597292","target":"absent","response":"present","rt":"3135","correct":false,"confidence":2},{"trial_n":126,"span":9,"encoder":"238531337","distractor":"238501337","target":"absent","response":"absent","rt":"1917","correct":true,"confidence":3},{"trial_n":127,"span":9,"encoder":"261177531","distractor":"261157531","target":"present","response":"present","rt":"1449.0000000002","correct":true,"confidence":2},{"trial_n":128,"span":10,"encoder":"1412620143","distractor":"6412620143","target":"present","response":"absent","rt":"4117","correct":false,"confidence":4},{"trial_n":129,"span":9,"encoder":"726433789","distractor":"726233789","target":"absent","response":"present","rt":"3214","correct":false,"confidence":4},{"trial_n":130,"span":8,"encoder":"33826609","distractor":"33821609","target":"absent","response":"absent","rt":"1048","correct":true,"confidence":3},{"trial_n":131,"span":8,"encoder":"46385006","distractor":"46385906","target":"present","response":"present","rt":"928","correct":true,"confidence":2},{"trial_n":132,"span":9,"encoder":"325250079","distractor":"325250279","target":"present","response":"present","rt":"1734","correct":true,"confidence":5},{"trial_n":133,"span":9,"encoder":"559284605","distractor":"559284675","target":"present","response":"present","rt":"1465.0000000002","correct":true,"confidence":5},{"trial_n":134,"span":10,"encoder":"9196635486","distractor":"9096635486","target":"present","response":"present","rt":"4939","correct":true,"confidence":5},{"trial_n":135,"span":10,"encoder":"8021973060","distractor":"8021973062","target":"absent","response":"absent","rt":"1236.0000000002","correct":true,"confidence":2},{"trial_n":136,"span":11,"encoder":"23606200413","distractor":"23604200413","target":"present","response":"present","rt":"8145","correct":true,"confidence":4},{"trial_n":137,"span":11,"encoder":"40325009040","distractor":"40125009040","target":"present","response":"present","rt":"3328","correct":true,"confidence":4},{"trial_n":138,"span":12,"encoder":"335993645013","distractor":"335993605013","target":"absent","response":"absent","rt":"3049","correct":true,"confidence":4},{"trial_n":139,"span":12,"encoder":"934958106395","distractor":"934998106395","target":"present","response":"present","rt":"882","correct":true,"confidence":3},{"trial_n":140,"span":13,"encoder":"9712858702176","distractor":"7712858702176","target":"absent","response":"present","rt":"1554.9999999998","correct":false,"confidence":3}]