[{"trial_n":1,"span":8,"encoder":"61787514","distractor":"65787514","target":"present","response":"present","rt":"3180.3999999985","correct":true,"confidence":-1},{"trial_n":2,"span":8,"encoder":"59712494","distractor":"59712464","target":"present","response":"present","rt":"2446.700000003","correct":true,"confidence":-1},{"trial_n":3,"span":10,"encoder":"5594225211","distractor":"5594225217","target":"absent","response":"absent","rt":"3860.6000000015","correct":true,"confidence":-1},{"trial_n":4,"span":10,"encoder":"0261223130","distractor":"0261223190","target":"absent","response":"absent","rt":"2510.5","correct":true,"confidence":-1},{"trial_n":5,"span":12,"encoder":"764464083758","distractor":"764464080758","target":"present","response":"present","rt":"2201.200000003","correct":true,"confidence":-1},{"trial_n":6,"span":12,"encoder":"021729071385","distractor":"821729071385","target":"absent","response":"present","rt":"3423.5","correct":false,"confidence":-1},{"trial_n":7,"span":10,"encoder":"6316029703","distractor":"6316029707","target":"absent","response":"absent","rt":"2466.1000000015","correct":true,"confidence":-1},{"trial_n":8,"span":10,"encoder":"6081550431","distractor":"6181550431","target":"absent","response":"present","rt":"1939.799999997","correct":false,"confidence":-1},{"trial_n":9,"span":8,"encoder":"33124816","distractor":"33121816","target":"absent","response":"present","rt":"3570.1000000015","correct":false,"confidence":-1},{"trial_n":10,"span":6,"encoder":"961682","distractor":"661682","target":"absent","response":"absent","rt":"1457.8000000045","correct":true,"confidence":-1},{"trial_n":11,"span":6,"encoder":"622781","distractor":"628781","target":"present","response":"present","rt":"1609","correct":true,"confidence":-1},{"trial_n":12,"span":7,"encoder":"2935362","distractor":"2935369","target":"present","response":"present","rt":"2481.299999997","correct":true,"confidence":-1},{"trial_n":13,"span":7,"encoder":"1172032","distractor":"1175032","target":"absent","response":"absent","rt":"2128.5","correct":true,"confidence":-1},{"trial_n":14,"span":8,"encoder":"04453444","distractor":"04453344","target":"absent","response":"present","rt":"1331.1000000015","correct":false,"confidence":-1},{"trial_n":15,"span":7,"encoder":"5375520","distractor":"0375520","target":"present","response":"present","rt":"1862.8999999985","correct":true,"confidence":-1},{"trial_n":16,"span":7,"encoder":"7971321","distractor":"7973321","target":"absent","response":"absent","rt":"2014.8999999985","correct":true,"confidence":-1},{"trial_n":17,"span":8,"encoder":"91215438","distractor":"81215438","target":"present","response":"present","rt":"2351.700000003","correct":true,"confidence":-1},{"trial_n":18,"span":8,"encoder":"39114282","distractor":"39114285","target":"present","response":"present","rt":"1451.6999999955","correct":true,"confidence":-1},{"trial_n":19,"span":9,"encoder":"518135973","distractor":"318135973","target":"absent","response":"present","rt":"1214.6999999955","correct":false,"confidence":-1},{"trial_n":20,"span":8,"encoder":"19026755","distractor":"19022755","target":"present","response":"present","rt":"1239.5","correct":true,"confidence":-1},{"trial_n":21,"span":8,"encoder":"56088645","distractor":"56088685","target":"absent","response":"absent","rt":"2285.400000006","correct":true,"confidence":5},{"trial_n":22,"span":9,"encoder":"355388489","distractor":"354388489","target":"absent","response":"absent","rt":"3165","correct":true,"confidence":5},{"trial_n":23,"span":9,"encoder":"153352871","distractor":"153552871","target":"present","response":"absent","rt":"2400.400000006","correct":false,"confidence":3},{"trial_n":24,"span":8,"encoder":"53238945","distractor":"53238905","target":"absent","response":"absent","rt":"1485","correct":true,"confidence":5},{"trial_n":25,"span":8,"encoder":"23134105","distractor":"23334105","target":"present","response":"present","rt":"2740","correct":true,"confidence":5},{"trial_n":26,"span":9,"encoder":"229442013","distractor":"229440013","target":"absent","response":"absent","rt":"2891.799999997","correct":true,"confidence":5},{"trial_n":27,"span":9,"encoder":"741164141","distractor":"741164041","target":"present","response":"absent","rt":"2804.299999997","correct":false,"confidence":4},{"trial_n":28,"span":8,"encoder":"80517862","distractor":"80567862","target":"present","response":"absent","rt":"2077.799999997","correct":false,"confidence":4},{"trial_n":29,"span":7,"encoder":"9062855","distractor":"9062825","target":"absent","response":"absent","rt":"2064.700000003","correct":true,"confidence":5},{"trial_n":30,"span":7,"encoder":"0338237","distractor":"0338287","target":"absent","response":"absent","rt":"4615.5","correct":true,"confidence":3},{"trial_n":31,"span":8,"encoder":"08951680","distractor":"08951660","target":"present","response":"present","rt":"3224.1000000015","correct":true,"confidence":5},{"trial_n":32,"span":8,"encoder":"83224826","distractor":"83424826","target":"present","response":"present","rt":"3482.099999994","correct":true,"confidence":5},{"trial_n":33,"span":9,"encoder":"551515738","distractor":"551515438","target":"present","response":"present","rt":"2825.900000006","correct":true,"confidence":5},{"trial_n":34,"span":9,"encoder":"363239903","distractor":"323239903","target":"present","response":"present","rt":"2544.1000000015","correct":true,"confidence":5},{"trial_n":35,"span":10,"encoder":"2475157994","distractor":"2475157964","target":"absent","response":"absent","rt":"1202.099999994","correct":true,"confidence":5},{"trial_n":36,"span":10,"encoder":"3842039299","distractor":"3842339299","target":"present","response":"present","rt":"4456.1000000015","correct":true,"confidence":5},{"trial_n":37,"span":11,"encoder":"62474058088","distractor":"64474058088","target":"absent","response":"absent","rt":"1935.5","correct":true,"confidence":1},{"trial_n":38,"span":11,"encoder":"87661590764","distractor":"67661590764","target":"present","response":"present","rt":"2862.5","correct":true,"confidence":5},{"trial_n":39,"span":12,"encoder":"568903023565","distractor":"568903023545","target":"absent","response":"absent","rt":"3647.1000000015","correct":true,"confidence":5},{"trial_n":40,"span":12,"encoder":"238184486490","distractor":"238184416490","target":"absent","response":"absent","rt":"3650.6000000015","correct":true,"confidence":5},{"trial_n":41,"span":13,"encoder":"0025393626191","distractor":"0025393626491","target":"present","response":"present","rt":"4231.700000003","correct":true,"confidence":2},{"trial_n":42,"span":13,"encoder":"5756042709919","distractor":"5756042706919","target":"present","response":"absent","rt":"2323.299999997","correct":false,"confidence":2},{"trial_n":43,"span":12,"encoder":"562929103438","distractor":"562929108438","target":"present","response":"absent","rt":"3912.900000006","correct":false,"confidence":4},{"trial_n":44,"span":11,"encoder":"84257388729","distractor":"84257378729","target":"absent","response":"absent","rt":"4881.5","correct":true,"confidence":5},{"trial_n":45,"span":11,"encoder":"32241360153","distractor":"32241390153","target":"absent","response":"absent","rt":"3328.799999997","correct":true,"confidence":4},{"trial_n":46,"span":12,"encoder":"716643952016","distractor":"716643952014","target":"absent","response":"absent","rt":"1787.1999999955","correct":true,"confidence":5},{"trial_n":47,"span":12,"encoder":"985897812813","distractor":"985897712813","target":"present","response":"absent","rt":"4103.6000000015","correct":false,"confidence":2},{"trial_n":48,"span":11,"encoder":"00105065502","distractor":"02105065502","target":"present","response":"absent","rt":"2259.5","correct":false,"confidence":5},{"trial_n":49,"span":10,"encoder":"3214384319","distractor":"3218384319","target":"present","response":"present","rt":"6256","correct":true,"confidence":4},{"trial_n":50,"span":10,"encoder":"1237111267","distractor":"1227111267","target":"present","response":"absent","rt":"4067.8999999985","correct":false,"confidence":3},{"trial_n":51,"span":9,"encoder":"201264943","distractor":"281264943","target":"present","response":"present","rt":"1499.3000000045","correct":true,"confidence":4},{"trial_n":52,"span":9,"encoder":"390442820","distractor":"590442820","target":"absent","response":"present","rt":"4541.6000000015","correct":false,"confidence":4},{"trial_n":53,"span":8,"encoder":"60708985","distractor":"64708985","target":"present","response":"present","rt":"3120.700000003","correct":true,"confidence":5},{"trial_n":54,"span":8,"encoder":"78835569","distractor":"79835569","target":"present","response":"present","rt":"1991.299999997","correct":true,"confidence":5},{"trial_n":55,"span":9,"encoder":"410608623","distractor":"410608622","target":"absent","response":"absent","rt":"1685","correct":true,"confidence":5},{"trial_n":56,"span":9,"encoder":"492118286","distractor":"490118286","target":"present","response":"present","rt":"4087.099999994","correct":true,"confidence":5},{"trial_n":57,"span":10,"encoder":"9573028396","distractor":"9503028396","target":"absent","response":"absent","rt":"2423.5","correct":true,"confidence":3},{"trial_n":58,"span":10,"encoder":"5173827022","distractor":"5173887022","target":"present","response":"present","rt":"2722.700000003","correct":true,"confidence":5},{"trial_n":59,"span":11,"encoder":"22747833274","distractor":"82747833274","target":"absent","response":"present","rt":"16419.5","correct":false,"confidence":3},{"trial_n":60,"span":10,"encoder":"8840935770","distractor":"8840635770","target":"present","response":"present","rt":"1583.700000003","correct":true,"confidence":4},{"trial_n":61,"span":10,"encoder":"7397161496","distractor":"7397161492","target":"absent","response":"absent","rt":"3580.200000003","correct":true,"confidence":5},{"trial_n":62,"span":11,"encoder":"17333287223","distractor":"16333287223","target":"present","response":"absent","rt":"1536.299999997","correct":false,"confidence":3},{"trial_n":63,"span":10,"encoder":"8471345412","distractor":"8171345412","target":"present","response":"absent","rt":"2946.700000003","correct":false,"confidence":4},{"trial_n":64,"span":9,"encoder":"526511703","distractor":"523511703","target":"absent","response":"present","rt":"1497.799999997","correct":false,"confidence":4},{"trial_n":65,"span":8,"encoder":"14246682","distractor":"14240682","target":"present","response":"present","rt":"2033.8999999985","correct":true,"confidence":5},{"trial_n":66,"span":8,"encoder":"95442292","distractor":"95422292","target":"absent","response":"absent","rt":"2992.299999997","correct":true,"confidence":5},{"trial_n":67,"span":9,"encoder":"826829753","distractor":"824829753","target":"absent","response":"present","rt":"2214.8999999985","correct":false,"confidence":5},{"trial_n":68,"span":8,"encoder":"13202941","distractor":"13202961","target":"present","response":"present","rt":"2243.799999997","correct":true,"confidence":5},{"trial_n":69,"span":8,"encoder":"68863303","distractor":"68863313","target":"absent","response":"absent","rt":"2225","correct":true,"confidence":5},{"trial_n":70,"span":9,"encoder":"234920893","distractor":"234920896","target":"absent","response":"absent","rt":"1699","correct":true,"confidence":5},{"trial_n":71,"span":8,"encoder":"50041401","distractor":"50071401","target":"present","response":"present","rt":"2413.1999999955","correct":true,"confidence":-1},{"trial_n":72,"span":8,"encoder":"23017705","distractor":"23067705","target":"present","response":"present","rt":"1604.6000000015","correct":true,"confidence":-1},{"trial_n":73,"span":9,"encoder":"003551537","distractor":"000551537","target":"absent","response":"absent","rt":"3339.1000000015","correct":true,"confidence":-1},{"trial_n":74,"span":9,"encoder":"490537852","distractor":"490537752","target":"absent","response":"absent","rt":"1578","correct":true,"confidence":-1},{"trial_n":75,"span":10,"encoder":"0893446593","distractor":"0893476593","target":"present","response":"absent","rt":"2436.799999997","correct":false,"confidence":-1},{"trial_n":76,"span":9,"encoder":"192491274","distractor":"792491274","target":"absent","response":"present","rt":"4126.5","correct":false,"confidence":-1},{"trial_n":77,"span":8,"encoder":"56614928","distractor":"56614628","target":"present","response":"present","rt":"1799.299999997","correct":true,"confidence":-1},{"trial_n":78,"span":8,"encoder":"22952869","distractor":"22954869","target":"present","response":"present","rt":"3379.8000000045","correct":true,"confidence":-1},{"trial_n":79,"span":9,"encoder":"462056936","distractor":"463056936","target":"absent","response":"absent","rt":"2694.8999999985","correct":true,"confidence":-1},{"trial_n":80,"span":9,"encoder":"800739115","distractor":"800739117","target":"absent","response":"absent","rt":"2002.3999999985","correct":true,"confidence":-1},{"trial_n":81,"span":10,"encoder":"2481633261","distractor":"1481633261","target":"absent","response":"present","rt":"2789.3999999985","correct":false,"confidence":-1},{"trial_n":82,"span":9,"encoder":"051629750","distractor":"051627750","target":"present","response":"present","rt":"2190.3999999985","correct":true,"confidence":-1},{"trial_n":83,"span":9,"encoder":"693417226","distractor":"693317226","target":"present","response":"absent","rt":"4529.200000003","correct":false,"confidence":-1},{"trial_n":84,"span":8,"encoder":"52516460","distractor":"57516460","target":"absent","response":"absent","rt":"1800.5","correct":true,"confidence":-1},{"trial_n":85,"span":8,"encoder":"00631636","distractor":"00631236","target":"present","response":"present","rt":"2997.6999999955","correct":true,"confidence":-1},{"trial_n":86,"span":9,"encoder":"629090839","distractor":"622090839","target":"absent","response":"present","rt":"3859.3999999985","correct":false,"confidence":-1},{"trial_n":87,"span":8,"encoder":"80748313","distractor":"20748313","target":"absent","response":"absent","rt":"2922.8999999985","correct":true,"confidence":-1},{"trial_n":88,"span":8,"encoder":"92883541","distractor":"92883241","target":"absent","response":"absent","rt":"3516.8999999985","correct":true,"confidence":-1},{"trial_n":89,"span":9,"encoder":"213421582","distractor":"213421586","target":"present","response":"present","rt":"1762.3000000045","correct":true,"confidence":-1},{"trial_n":90,"span":9,"encoder":"772080343","distractor":"722080343","target":"absent","response":"absent","rt":"3352.099999994","correct":true,"confidence":-1},{"trial_n":91,"span":10,"encoder":"4961327300","distractor":"4981327300","target":"absent","response":"absent","rt":"2471.6000000015","correct":true,"confidence":5},{"trial_n":92,"span":10,"encoder":"7445515147","distractor":"7445512147","target":"absent","response":"absent","rt":"3783.299999997","correct":true,"confidence":5},{"trial_n":93,"span":11,"encoder":"27460456860","distractor":"97460456860","target":"present","response":"absent","rt":"11501.299999997","correct":false,"confidence":3},{"trial_n":94,"span":10,"encoder":"5711804189","distractor":"5711804129","target":"absent","response":"absent","rt":"6796.700000003","correct":true,"confidence":3},{"trial_n":95,"span":10,"encoder":"7584009753","distractor":"7584009553","target":"absent","response":"absent","rt":"2663.6000000015","correct":true,"confidence":5},{"trial_n":96,"span":11,"encoder":"93689034449","distractor":"93689032449","target":"absent","response":"absent","rt":"3353.6000000015","correct":true,"confidence":5},{"trial_n":97,"span":11,"encoder":"38277894456","distractor":"38277894056","target":"present","response":"present","rt":"2629.8999999985","correct":true,"confidence":5},{"trial_n":98,"span":12,"encoder":"544015999261","distractor":"544015999961","target":"present","response":"present","rt":"6560.6000000015","correct":true,"confidence":4},{"trial_n":99,"span":12,"encoder":"897120611230","distractor":"497120611230","target":"present","response":"present","rt":"3038.200000003","correct":true,"confidence":5},{"trial_n":100,"span":13,"encoder":"9721969606719","distractor":"9721939606719","target":"present","response":"present","rt":"6838.8999999985","correct":true,"confidence":2},{"trial_n":101,"span":13,"encoder":"5801318811392","distractor":"5801318812392","target":"present","response":"absent","rt":"8506.900000006","correct":false,"confidence":4},{"trial_n":102,"span":12,"encoder":"159518651471","distractor":"159518651473","target":"absent","response":"absent","rt":"2036.299999997","correct":true,"confidence":5},{"trial_n":103,"span":12,"encoder":"026826356393","distractor":"026856356393","target":"present","response":"present","rt":"8164.8000000045","correct":true,"confidence":3},{"trial_n":104,"span":13,"encoder":"2985518728944","distractor":"2985518727944","target":"present","response":"present","rt":"4972.5","correct":true,"confidence":4},{"trial_n":105,"span":13,"encoder":"3988254737895","distractor":"3388254737895","target":"absent","response":"absent","rt":"5388","correct":true,"confidence":3},{"trial_n":106,"span":14,"encoder":"44658839763527","distractor":"44658889763527","target":"absent","response":"absent","rt":"6447.1000000015","correct":true,"confidence":3},{"trial_n":107,"span":14,"encoder":"68041344576101","distractor":"60041344576101","target":"present","response":"present","rt":"5380.299999997","correct":true,"confidence":3},{"trial_n":108,"span":15,"encoder":"119212359775335","distractor":"116212359775335","target":"present","response":"present","rt":"4692.6000000015","correct":true,"confidence":2},{"trial_n":109,"span":15,"encoder":"666192891951171","distractor":"666192891951871","target":"absent","response":"absent","rt":"2961.299999997","correct":true,"confidence":4},{"trial_n":110,"span":16,"encoder":"1528246720174519","distractor":"1528246721174519","target":"absent","response":"absent","rt":"5713.200000003","correct":true,"confidence":2},{"trial_n":111,"span":16,"encoder":"8745772006598410","distractor":"8745472006598410","target":"present","response":"present","rt":"7906.5","correct":true,"confidence":2},{"trial_n":112,"span":17,"encoder":"19996923694809801","distractor":"19996923694809201","target":"present","response":"present","rt":"2490.1000000015","correct":true,"confidence":5},{"trial_n":113,"span":17,"encoder":"04864511172627726","distractor":"04864511472627726","target":"absent","response":"absent","rt":"3308.799999997","correct":true,"confidence":5},{"trial_n":114,"span":18,"encoder":"768749444518406980","distractor":"768749494518406980","target":"present","response":"present","rt":"5821.6999999955","correct":true,"confidence":5},{"trial_n":115,"span":18,"encoder":"667285816002647310","distractor":"667215816002647310","target":"absent","response":"present","rt":"8311.299999997","correct":false,"confidence":2},{"trial_n":116,"span":17,"encoder":"96583545741889590","distractor":"96583565741889590","target":"present","response":"absent","rt":"7552.700000003","correct":false,"confidence":1},{"trial_n":117,"span":16,"encoder":"5317588536720231","distractor":"5317538536720231","target":"absent","response":"present","rt":"9458.200000003","correct":false,"confidence":4},{"trial_n":118,"span":15,"encoder":"674452144413050","distractor":"674452144413058","target":"absent","response":"absent","rt":"6791","correct":true,"confidence":2},{"trial_n":119,"span":15,"encoder":"437154242973045","distractor":"437114242973045","target":"present","response":"present","rt":"3913.799999997","correct":true,"confidence":5},{"trial_n":120,"span":16,"encoder":"1006562474299426","distractor":"1006562474299826","target":"absent","response":"absent","rt":"6238.700000003","correct":true,"confidence":5},{"trial_n":121,"span":16,"encoder":"1193673848768606","distractor":"1193673648768606","target":"absent","response":"absent","rt":"8626.6000000015","correct":true,"confidence":4},{"trial_n":122,"span":17,"encoder":"71209534380951304","distractor":"71279534380951304","target":"present","response":"present","rt":"6002.5","correct":true,"confidence":4},{"trial_n":123,"span":17,"encoder":"59026921545834056","distractor":"19026921545834056","target":"absent","response":"present","rt":"5075.6999999955","correct":false,"confidence":3},{"trial_n":124,"span":16,"encoder":"1558316560498102","distractor":"1558313560498102","target":"present","response":"absent","rt":"11025.300000004","correct":false,"confidence":2},{"trial_n":125,"span":15,"encoder":"844028350881168","distractor":"864028350881168","target":"absent","response":"absent","rt":"3594.1000000015","correct":true,"confidence":4},{"trial_n":126,"span":15,"encoder":"911269629490663","distractor":"911239629490663","target":"present","response":"present","rt":"4675.200000003","correct":true,"confidence":2},{"trial_n":127,"span":16,"encoder":"9483966650979619","distractor":"9488966650979619","target":"present","response":"present","rt":"5295.700000003","correct":true,"confidence":4},{"trial_n":128,"span":16,"encoder":"2569215236413098","distractor":"2561215236413098","target":"absent","response":"absent","rt":"8539.8999999985","correct":true,"confidence":2},{"trial_n":129,"span":17,"encoder":"37437744449731111","distractor":"37437744749731111","target":"present","response":"present","rt":"2625.3999999985","correct":true,"confidence":5},{"trial_n":130,"span":17,"encoder":"75160803513935337","distractor":"75190803513935337","target":"present","response":"present","rt":"4347.3999999985","correct":true,"confidence":1},{"trial_n":131,"span":18,"encoder":"446546694098195915","distractor":"446546694098195919","target":"present","response":"present","rt":"2797.3999999985","correct":true,"confidence":5},{"trial_n":132,"span":18,"encoder":"666098967294564869","distractor":"666098967294864869","target":"absent","response":"present","rt":"7205.6000000015","correct":false,"confidence":1},{"trial_n":133,"span":17,"encoder":"64328996502581666","distractor":"54328996502581666","target":"present","response":"absent","rt":"4881.5","correct":false,"confidence":2},{"trial_n":134,"span":16,"encoder":"6083333602447858","distractor":"6083333602447838","target":"absent","response":"present","rt":"7774.8000000045","correct":false,"confidence":1},{"trial_n":135,"span":15,"encoder":"498033818552541","distractor":"498033818555541","target":"present","response":"present","rt":"9346.799999997","correct":true,"confidence":1},{"trial_n":136,"span":15,"encoder":"432254227544039","distractor":"432204227544039","target":"present","response":"absent","rt":"5969.1000000015","correct":false,"confidence":2},{"trial_n":137,"span":14,"encoder":"41511937771000","distractor":"44511937771000","target":"present","response":"present","rt":"4309.1000000015","correct":true,"confidence":2},{"trial_n":138,"span":14,"encoder":"14263822967532","distractor":"14263822967502","target":"absent","response":"absent","rt":"1578.299999997","correct":true,"confidence":5},{"trial_n":139,"span":15,"encoder":"956847206451489","distractor":"956847208451489","target":"present","response":"absent","rt":"5410.3000000045","correct":false,"confidence":3},{"trial_n":140,"span":14,"encoder":"80252192222668","distractor":"80252192228668","target":"absent","response":"absent","rt":"10744.299999997","correct":true,"confidence":3}]