[{"trial_n":1,"n_dots":4.25,"target":"right","response":"left","rt":3803,"correct":false,"confidence":-1},{"trial_n":2,"n_dots":4.25,"target":"right","response":"right","rt":1554,"correct":true,"confidence":-1},{"trial_n":3,"n_dots":4.25,"target":"left","response":"left","rt":2240,"correct":true,"confidence":-1},{"trial_n":4,"n_dots":3.85,"target":"left","response":"left","rt":1120,"correct":true,"confidence":-1},{"trial_n":5,"n_dots":3.85,"target":"left","response":"left","rt":1806,"correct":true,"confidence":-1},{"trial_n":6,"n_dots":3.45,"target":"right","response":"left","rt":1467,"correct":false,"confidence":-1},{"trial_n":7,"n_dots":3.85,"target":"right","response":"right","rt":935,"correct":true,"confidence":-1},{"trial_n":8,"n_dots":3.85,"target":"right","response":"right","rt":847.99999999999,"correct":true,"confidence":-1},{"trial_n":9,"n_dots":3.65,"target":"right","response":"right","rt":1192,"correct":true,"confidence":-1},{"trial_n":10,"n_dots":3.65,"target":"right","response":"left","rt":1027,"correct":false,"confidence":-1},{"trial_n":11,"n_dots":3.85,"target":"left","response":"left","rt":885,"correct":true,"confidence":-1},{"trial_n":12,"n_dots":3.85,"target":"left","response":"right","rt":747,"correct":false,"confidence":-1},{"trial_n":13,"n_dots":3.95,"target":"left","response":"left","rt":787,"correct":true,"confidence":-1},{"trial_n":14,"n_dots":3.95,"target":"right","response":"right","rt":680,"correct":true,"confidence":-1},{"trial_n":15,"n_dots":3.85,"target":"left","response":"left","rt":876.99999999999,"correct":true,"confidence":-1},{"trial_n":16,"n_dots":3.85,"target":"left","response":"left","rt":1492,"correct":true,"confidence":-1},{"trial_n":17,"n_dots":3.75,"target":"left","response":"left","rt":854.99999999999,"correct":true,"confidence":-1},{"trial_n":18,"n_dots":3.75,"target":"right","response":"right","rt":582,"correct":true,"confidence":-1},{"trial_n":19,"n_dots":3.65,"target":"right","response":"right","rt":787,"correct":true,"confidence":-1},{"trial_n":20,"n_dots":3.65,"target":"left","response":"left","rt":845,"correct":true,"confidence":-1},{"trial_n":21,"n_dots":3.55,"target":"right","response":"left","rt":2729,"correct":false,"confidence":3},{"trial_n":22,"n_dots":3.65,"target":"left","response":"left","rt":1105,"correct":true,"confidence":3},{"trial_n":23,"n_dots":3.65,"target":"left","response":"right","rt":1200,"correct":false,"confidence":4},{"trial_n":24,"n_dots":3.75,"target":"right","response":"left","rt":1048,"correct":false,"confidence":4},{"trial_n":25,"n_dots":3.85,"target":"right","response":"right","rt":1120,"correct":true,"confidence":3},{"trial_n":26,"n_dots":3.85,"target":"right","response":"left","rt":948,"correct":false,"confidence":5},{"trial_n":27,"n_dots":3.95,"target":"left","response":"left","rt":729.00000000001,"correct":true,"confidence":5},{"trial_n":28,"n_dots":3.95,"target":"right","response":"right","rt":707,"correct":true,"confidence":4},{"trial_n":29,"n_dots":3.85,"target":"left","response":"left","rt":970,"correct":true,"confidence":4},{"trial_n":30,"n_dots":3.85,"target":"right","response":"left","rt":1115,"correct":false,"confidence":4},{"trial_n":31,"n_dots":3.95,"target":"left","response":"left","rt":1034,"correct":true,"confidence":4},{"trial_n":32,"n_dots":3.95,"target":"right","response":"right","rt":725,"correct":true,"confidence":4},{"trial_n":33,"n_dots":3.85,"target":"right","response":"left","rt":4560,"correct":false,"confidence":3},{"trial_n":34,"n_dots":3.95,"target":"left","response":"left","rt":797.00000000003,"correct":true,"confidence":4},{"trial_n":35,"n_dots":3.95,"target":"left","response":"left","rt":1051,"correct":true,"confidence":5},{"trial_n":36,"n_dots":3.85,"target":"right","response":"right","rt":651,"correct":true,"confidence":5},{"trial_n":37,"n_dots":3.85,"target":"right","response":"left","rt":1090,"correct":false,"confidence":3},{"trial_n":38,"n_dots":3.95,"target":"right","response":"right","rt":820.00000000003,"correct":true,"confidence":4},{"trial_n":39,"n_dots":3.95,"target":"left","response":"left","rt":5128,"correct":true,"confidence":4},{"trial_n":40,"n_dots":3.85,"target":"left","response":"left","rt":615.99999999997,"correct":true,"confidence":4},{"trial_n":41,"n_dots":3.85,"target":"left","response":"left","rt":629.99999999997,"correct":true,"confidence":4},{"trial_n":42,"n_dots":3.75,"target":"right","response":"right","rt":849.99999999997,"correct":true,"confidence":5},{"trial_n":43,"n_dots":3.75,"target":"right","response":"right","rt":4418,"correct":true,"confidence":4},{"trial_n":44,"n_dots":3.65,"target":"right","response":"left","rt":811,"correct":false,"confidence":5},{"trial_n":45,"n_dots":3.75,"target":"left","response":"left","rt":821,"correct":true,"confidence":5},{"trial_n":46,"n_dots":3.75,"target":"right","response":"left","rt":1154,"correct":false,"confidence":4},{"trial_n":47,"n_dots":3.85,"target":"right","response":"right","rt":1611,"correct":true,"confidence":3},{"trial_n":48,"n_dots":3.85,"target":"left","response":"left","rt":667,"correct":true,"confidence":5},{"trial_n":49,"n_dots":3.75,"target":"right","response":"right","rt":1352,"correct":true,"confidence":1},{"trial_n":50,"n_dots":3.75,"target":"left","response":"left","rt":939.00000000003,"correct":true,"confidence":3},{"trial_n":51,"n_dots":3.65,"target":"right","response":"right","rt":665,"correct":true,"confidence":3},{"trial_n":52,"n_dots":3.65,"target":"left","response":"left","rt":3416,"correct":true,"confidence":3},{"trial_n":53,"n_dots":3.55,"target":"right","response":"right","rt":917.00000000006,"correct":true,"confidence":4},{"trial_n":54,"n_dots":3.55,"target":"right","response":"left","rt":1215.9999999999,"correct":false,"confidence":2},{"trial_n":55,"n_dots":3.65,"target":"right","response":"left","rt":835,"correct":false,"confidence":2},{"trial_n":56,"n_dots":3.75,"target":"right","response":"right","rt":1135,"correct":true,"confidence":4},{"trial_n":57,"n_dots":3.75,"target":"left","response":"left","rt":834.99999999994,"correct":true,"confidence":2},{"trial_n":58,"n_dots":3.65,"target":"left","response":"right","rt":700,"correct":false,"confidence":3},{"trial_n":59,"n_dots":3.75,"target":"left","response":"left","rt":868.99999999994,"correct":true,"confidence":3},{"trial_n":60,"n_dots":3.75,"target":"left","response":"left","rt":852,"correct":true,"confidence":5},{"trial_n":61,"n_dots":3.65,"target":"left","response":"right","rt":1332,"correct":false,"confidence":1},{"trial_n":62,"n_dots":3.75,"target":"right","response":"right","rt":1214,"correct":true,"confidence":4},{"trial_n":63,"n_dots":3.75,"target":"left","response":"left","rt":728,"correct":true,"confidence":3},{"trial_n":64,"n_dots":3.65,"target":"right","response":"right","rt":618.00000000006,"correct":true,"confidence":5},{"trial_n":65,"n_dots":3.65,"target":"right","response":"right","rt":669,"correct":true,"confidence":5},{"trial_n":66,"n_dots":3.55,"target":"left","response":"left","rt":420,"correct":true,"confidence":3},{"trial_n":67,"n_dots":3.55,"target":"right","response":"right","rt":702.99999999994,"correct":true,"confidence":4},{"trial_n":68,"n_dots":3.45,"target":"right","response":"right","rt":404,"correct":true,"confidence":1},{"trial_n":69,"n_dots":3.45,"target":"right","response":"right","rt":421,"correct":true,"confidence":4},{"trial_n":70,"n_dots":3.35,"target":"right","response":"right","rt":556,"correct":true,"confidence":3},{"trial_n":71,"n_dots":3.35,"target":"left","response":"left","rt":357,"correct":true,"confidence":4},{"trial_n":72,"n_dots":3.25,"target":"right","response":"right","rt":1405,"correct":true,"confidence":2},{"trial_n":73,"n_dots":3.25,"target":"right","response":"left","rt":838.00000000006,"correct":false,"confidence":5},{"trial_n":74,"n_dots":3.35,"target":"left","response":"left","rt":537,"correct":true,"confidence":4},{"trial_n":75,"n_dots":3.35,"target":"left","response":"right","rt":1438,"correct":false,"confidence":1},{"trial_n":76,"n_dots":3.45,"target":"left","response":"left","rt":674,"correct":true,"confidence":3},{"trial_n":77,"n_dots":3.45,"target":"left","response":"left","rt":688,"correct":true,"confidence":3},{"trial_n":78,"n_dots":3.35,"target":"right","response":"right","rt":806.99999999994,"correct":true,"confidence":3},{"trial_n":79,"n_dots":3.35,"target":"left","response":"left","rt":2625,"correct":true,"confidence":3},{"trial_n":80,"n_dots":3.25,"target":"left","response":"left","rt":423.99999999994,"correct":true,"confidence":4},{"trial_n":81,"n_dots":3.25,"target":"right","response":"right","rt":572.99999999994,"correct":true,"confidence":3},{"trial_n":82,"n_dots":3.15,"target":"left","response":"right","rt":1141,"correct":false,"confidence":2},{"trial_n":83,"n_dots":3.25,"target":"right","response":"right","rt":323,"correct":true,"confidence":2},{"trial_n":84,"n_dots":3.25,"target":"right","response":"right","rt":557,"correct":true,"confidence":2},{"trial_n":85,"n_dots":3.15,"target":"left","response":"left","rt":710,"correct":true,"confidence":2},{"trial_n":86,"n_dots":3.15,"target":"right","response":"left","rt":590,"correct":false,"confidence":2},{"trial_n":87,"n_dots":3.25,"target":"left","response":"left","rt":308,"correct":true,"confidence":4},{"trial_n":88,"n_dots":3.25,"target":"left","response":"left","rt":574,"correct":true,"confidence":2},{"trial_n":89,"n_dots":3.15,"target":"left","response":"left","rt":908.00000000006,"correct":true,"confidence":2},{"trial_n":90,"n_dots":3.15,"target":"left","response":"right","rt":1039.9999999999,"correct":false,"confidence":1},{"trial_n":91,"n_dots":3.25,"target":"right","response":"left","rt":675.99999999994,"correct":false,"confidence":2},{"trial_n":92,"n_dots":3.35,"target":"left","response":"left","rt":825,"correct":true,"confidence":1},{"trial_n":93,"n_dots":3.35,"target":"right","response":"right","rt":926.00000000006,"correct":true,"confidence":1},{"trial_n":94,"n_dots":3.25,"target":"right","response":"right","rt":692,"correct":true,"confidence":1},{"trial_n":95,"n_dots":3.25,"target":"right","response":"left","rt":492,"correct":false,"confidence":3},{"trial_n":96,"n_dots":3.35,"target":"left","response":"right","rt":776,"correct":false,"confidence":2},{"trial_n":97,"n_dots":3.45,"target":"left","response":"right","rt":1859,"correct":false,"confidence":2},{"trial_n":98,"n_dots":3.55,"target":"left","response":"left","rt":809,"correct":true,"confidence":3},{"trial_n":99,"n_dots":3.55,"target":"right","response":"left","rt":1043,"correct":false,"confidence":4},{"trial_n":100,"n_dots":3.65,"target":"left","response":"left","rt":962,"correct":true,"confidence":4},{"trial_n":101,"n_dots":3.65,"target":"left","response":"left","rt":598,"correct":true,"confidence":2},{"trial_n":102,"n_dots":3.55,"target":"left","response":"right","rt":277.99999999994,"correct":false,"confidence":3},{"trial_n":103,"n_dots":3.65,"target":"left","response":"left","rt":244,"correct":true,"confidence":4},{"trial_n":104,"n_dots":3.65,"target":"right","response":"right","rt":277.00000000006,"correct":true,"confidence":4},{"trial_n":105,"n_dots":3.55,"target":"right","response":"right","rt":378.00000000006,"correct":true,"confidence":1},{"trial_n":106,"n_dots":3.55,"target":"right","response":"right","rt":413,"correct":true,"confidence":1},{"trial_n":107,"n_dots":3.45,"target":"left","response":"left","rt":411,"correct":true,"confidence":3},{"trial_n":108,"n_dots":3.45,"target":"left","response":"left","rt":761,"correct":true,"confidence":4},{"trial_n":109,"n_dots":3.35,"target":"left","response":"right","rt":548,"correct":false,"confidence":4},{"trial_n":110,"n_dots":3.45,"target":"right","response":"right","rt":596,"correct":true,"confidence":4},{"trial_n":111,"n_dots":3.45,"target":"left","response":"left","rt":578,"correct":true,"confidence":2},{"trial_n":112,"n_dots":3.35,"target":"right","response":"right","rt":1344,"correct":true,"confidence":3},{"trial_n":113,"n_dots":3.35,"target":"right","response":"right","rt":644.99999999988,"correct":true,"confidence":4},{"trial_n":114,"n_dots":3.25,"target":"left","response":"left","rt":532,"correct":true,"confidence":4},{"trial_n":115,"n_dots":3.25,"target":"left","response":"left","rt":663,"correct":true,"confidence":4},{"trial_n":116,"n_dots":3.15,"target":"left","response":"left","rt":467,"correct":true,"confidence":4},{"trial_n":117,"n_dots":3.15,"target":"left","response":"left","rt":565,"correct":true,"confidence":4},{"trial_n":118,"n_dots":3.05,"target":"right","response":"left","rt":880,"correct":false,"confidence":2},{"trial_n":119,"n_dots":3.15,"target":"right","response":"left","rt":864,"correct":false,"confidence":2},{"trial_n":120,"n_dots":3.25,"target":"right","response":"right","rt":916,"correct":true,"confidence":2}]