[{"trial_n":1,"n_dots":4.25,"target":"right","response":"right","rt":5258.3999999762,"correct":true,"confidence":-1},{"trial_n":2,"n_dots":4.25,"target":"left","response":"right","rt":2063.6999999285,"correct":false,"confidence":-1},{"trial_n":3,"n_dots":4.65,"target":"right","response":"right","rt":976.80000007153,"correct":true,"confidence":-1},{"trial_n":4,"n_dots":4.65,"target":"left","response":"left","rt":795.60000002384,"correct":true,"confidence":-1},{"trial_n":5,"n_dots":4.25,"target":"left","response":"right","rt":1296.5,"correct":false,"confidence":-1},{"trial_n":6,"n_dots":4.65,"target":"left","response":"left","rt":830.89999997616,"correct":true,"confidence":-1},{"trial_n":7,"n_dots":4.65,"target":"right","response":"right","rt":679,"correct":true,"confidence":-1},{"trial_n":8,"n_dots":4.45,"target":"right","response":"right","rt":584.5,"correct":true,"confidence":-1},{"trial_n":9,"n_dots":4.45,"target":"left","response":"left","rt":414.89999997616,"correct":true,"confidence":-1},{"trial_n":10,"n_dots":4.25,"target":"right","response":"right","rt":562.70000004768,"correct":true,"confidence":-1},{"trial_n":11,"n_dots":4.25,"target":"left","response":"left","rt":684.10000002384,"correct":true,"confidence":-1},{"trial_n":12,"n_dots":4.05,"target":"left","response":"left","rt":842.40000009537,"correct":true,"confidence":-1},{"trial_n":13,"n_dots":4.05,"target":"right","response":"right","rt":569.79999995232,"correct":true,"confidence":-1},{"trial_n":14,"n_dots":3.95,"target":"right","response":"right","rt":724.30000007153,"correct":true,"confidence":-1},{"trial_n":15,"n_dots":3.95,"target":"left","response":"left","rt":602.90000009537,"correct":true,"confidence":-1},{"trial_n":16,"n_dots":3.85,"target":"right","response":"right","rt":562.60000002384,"correct":true,"confidence":-1},{"trial_n":17,"n_dots":3.85,"target":"right","response":"right","rt":637.09999990463,"correct":true,"confidence":-1},{"trial_n":18,"n_dots":3.75,"target":"right","response":"right","rt":612.19999992847,"correct":true,"confidence":-1},{"trial_n":19,"n_dots":3.75,"target":"left","response":"right","rt":610.10000002384,"correct":false,"confidence":-1},{"trial_n":20,"n_dots":3.85,"target":"right","response":"right","rt":909,"correct":true,"confidence":-1},{"trial_n":21,"n_dots":3.85,"target":"right","response":"right","rt":573.90000009537,"correct":true,"confidence":4},{"trial_n":22,"n_dots":3.75,"target":"left","response":"left","rt":1080.2000000477,"correct":true,"confidence":4},{"trial_n":23,"n_dots":3.75,"target":"left","response":"left","rt":1115.6000000238,"correct":true,"confidence":3},{"trial_n":24,"n_dots":3.65,"target":"left","response":"left","rt":867.29999995232,"correct":true,"confidence":3},{"trial_n":25,"n_dots":3.65,"target":"right","response":"right","rt":1029.5,"correct":true,"confidence":3},{"trial_n":26,"n_dots":3.55,"target":"left","response":"left","rt":1295.5,"correct":true,"confidence":3},{"trial_n":27,"n_dots":3.55,"target":"left","response":"right","rt":1185.7999999523,"correct":false,"confidence":3},{"trial_n":28,"n_dots":3.65,"target":"left","response":"left","rt":1099.3000000715,"correct":true,"confidence":3},{"trial_n":29,"n_dots":3.65,"target":"left","response":"left","rt":2240.7000000477,"correct":true,"confidence":3},{"trial_n":30,"n_dots":3.55,"target":"left","response":"right","rt":2293.5,"correct":false,"confidence":3},{"trial_n":31,"n_dots":3.65,"target":"right","response":"right","rt":575.10000002384,"correct":true,"confidence":4},{"trial_n":32,"n_dots":3.65,"target":"left","response":"left","rt":1294,"correct":true,"confidence":3},{"trial_n":33,"n_dots":3.55,"target":"right","response":"right","rt":504.5,"correct":true,"confidence":3},{"trial_n":34,"n_dots":3.55,"target":"right","response":"right","rt":716.5,"correct":true,"confidence":3},{"trial_n":35,"n_dots":3.45,"target":"left","response":"left","rt":1048.1999999285,"correct":true,"confidence":3},{"trial_n":36,"n_dots":3.45,"target":"left","response":"left","rt":829.5,"correct":true,"confidence":3},{"trial_n":37,"n_dots":3.35,"target":"left","response":"left","rt":695.80000007153,"correct":true,"confidence":3},{"trial_n":38,"n_dots":3.35,"target":"right","response":"left","rt":2739.7000000477,"correct":false,"confidence":3},{"trial_n":39,"n_dots":3.45,"target":"right","response":"right","rt":522.89999997616,"correct":true,"confidence":3},{"trial_n":40,"n_dots":3.45,"target":"left","response":"left","rt":1095.7999999523,"correct":true,"confidence":3},{"trial_n":41,"n_dots":3.35,"target":"right","response":"right","rt":477.29999995232,"correct":true,"confidence":3},{"trial_n":42,"n_dots":3.35,"target":"left","response":"left","rt":667.60000002384,"correct":true,"confidence":3},{"trial_n":43,"n_dots":3.25,"target":"left","response":"left","rt":942.89999997616,"correct":true,"confidence":3},{"trial_n":44,"n_dots":3.25,"target":"left","response":"right","rt":984.10000002384,"correct":false,"confidence":3},{"trial_n":45,"n_dots":3.35,"target":"right","response":"right","rt":614,"correct":true,"confidence":3},{"trial_n":46,"n_dots":3.35,"target":"left","response":"left","rt":714.79999995232,"correct":true,"confidence":3},{"trial_n":47,"n_dots":3.25,"target":"left","response":"left","rt":933,"correct":true,"confidence":3},{"trial_n":48,"n_dots":3.25,"target":"right","response":"right","rt":633.60000002384,"correct":true,"confidence":3},{"trial_n":49,"n_dots":3.15,"target":"right","response":"right","rt":1449.8999999762,"correct":true,"confidence":3},{"trial_n":50,"n_dots":3.15,"target":"right","response":"left","rt":906.60000002384,"correct":false,"confidence":3},{"trial_n":51,"n_dots":3.25,"target":"left","response":"left","rt":1881.8000000715,"correct":true,"confidence":3},{"trial_n":52,"n_dots":3.25,"target":"left","response":"left","rt":1040.7000000477,"correct":true,"confidence":3},{"trial_n":53,"n_dots":3.15,"target":"right","response":"left","rt":1483.7999999523,"correct":false,"confidence":3},{"trial_n":54,"n_dots":3.25,"target":"right","response":"right","rt":1493.5,"correct":true,"confidence":3},{"trial_n":55,"n_dots":3.25,"target":"right","response":"right","rt":1189.8999999762,"correct":true,"confidence":3},{"trial_n":56,"n_dots":3.15,"target":"left","response":"left","rt":1330.8999999762,"correct":true,"confidence":3},{"trial_n":57,"n_dots":3.15,"target":"left","response":"left","rt":886.09999990463,"correct":true,"confidence":3},{"trial_n":58,"n_dots":3.05,"target":"left","response":"right","rt":1066.2000000477,"correct":false,"confidence":3},{"trial_n":59,"n_dots":3.15,"target":"right","response":"left","rt":929.19999992847,"correct":false,"confidence":3},{"trial_n":60,"n_dots":3.25,"target":"right","response":"right","rt":775.5,"correct":true,"confidence":3},{"trial_n":61,"n_dots":3.25,"target":"right","response":"right","rt":586.30000007153,"correct":true,"confidence":3},{"trial_n":62,"n_dots":3.15,"target":"left","response":"right","rt":703.60000002384,"correct":false,"confidence":3},{"trial_n":63,"n_dots":3.25,"target":"left","response":"left","rt":612.89999997616,"correct":true,"confidence":3},{"trial_n":64,"n_dots":3.25,"target":"right","response":"right","rt":471,"correct":true,"confidence":3},{"trial_n":65,"n_dots":3.15,"target":"left","response":"left","rt":729.09999990463,"correct":true,"confidence":3},{"trial_n":66,"n_dots":3.15,"target":"right","response":"right","rt":420.70000004768,"correct":true,"confidence":3},{"trial_n":67,"n_dots":3.05,"target":"left","response":"right","rt":843.39999997616,"correct":false,"confidence":3},{"trial_n":68,"n_dots":3.15,"target":"left","response":"right","rt":721,"correct":false,"confidence":3},{"trial_n":69,"n_dots":3.25,"target":"right","response":"right","rt":437.69999992847,"correct":true,"confidence":3},{"trial_n":70,"n_dots":3.25,"target":"right","response":"right","rt":420.5,"correct":true,"confidence":3},{"trial_n":71,"n_dots":3.15,"target":"left","response":"right","rt":1318.3999999762,"correct":false,"confidence":3},{"trial_n":72,"n_dots":3.25,"target":"right","response":"right","rt":662.10000002384,"correct":true,"confidence":3},{"trial_n":73,"n_dots":3.25,"target":"right","response":"right","rt":481.09999990463,"correct":true,"confidence":3},{"trial_n":74,"n_dots":3.15,"target":"right","response":"right","rt":620.79999995232,"correct":true,"confidence":3},{"trial_n":75,"n_dots":3.15,"target":"right","response":"right","rt":600.19999992847,"correct":true,"confidence":3},{"trial_n":76,"n_dots":3.05,"target":"left","response":"left","rt":879.39999997616,"correct":true,"confidence":3},{"trial_n":77,"n_dots":3.05,"target":"left","response":"right","rt":1292.6999999285,"correct":false,"confidence":3},{"trial_n":78,"n_dots":3.15,"target":"left","response":"left","rt":810.60000002384,"correct":true,"confidence":3},{"trial_n":79,"n_dots":3.15,"target":"left","response":"left","rt":830.19999992847,"correct":true,"confidence":3},{"trial_n":80,"n_dots":3.05,"target":"left","response":"left","rt":1109.2999999523,"correct":true,"confidence":3},{"trial_n":81,"n_dots":3.05,"target":"right","response":"left","rt":1129.2999999523,"correct":false,"confidence":3},{"trial_n":82,"n_dots":3.15,"target":"left","response":"right","rt":292.89999997616,"correct":false,"confidence":3},{"trial_n":83,"n_dots":3.25,"target":"left","response":"right","rt":515.79999995232,"correct":false,"confidence":3},{"trial_n":84,"n_dots":3.35,"target":"right","response":"right","rt":507.80000007153,"correct":true,"confidence":3},{"trial_n":85,"n_dots":3.35,"target":"left","response":"right","rt":854,"correct":false,"confidence":3},{"trial_n":86,"n_dots":3.45,"target":"right","response":"right","rt":353.29999995232,"correct":true,"confidence":3},{"trial_n":87,"n_dots":3.45,"target":"right","response":"right","rt":284.09999990463,"correct":true,"confidence":3},{"trial_n":88,"n_dots":3.35,"target":"right","response":"right","rt":206.89999997616,"correct":true,"confidence":3},{"trial_n":89,"n_dots":3.35,"target":"right","response":"right","rt":238.30000007153,"correct":true,"confidence":3},{"trial_n":90,"n_dots":3.25,"target":"left","response":"right","rt":372.29999995232,"correct":false,"confidence":3},{"trial_n":91,"n_dots":3.35,"target":"right","response":"right","rt":341.5,"correct":true,"confidence":3},{"trial_n":92,"n_dots":3.35,"target":"right","response":"right","rt":300.09999990463,"correct":true,"confidence":3},{"trial_n":93,"n_dots":3.25,"target":"left","response":"left","rt":700,"correct":true,"confidence":3},{"trial_n":94,"n_dots":3.25,"target":"left","response":"right","rt":360.90000009537,"correct":false,"confidence":3},{"trial_n":95,"n_dots":3.35,"target":"right","response":"right","rt":529.89999997616,"correct":true,"confidence":3},{"trial_n":96,"n_dots":3.35,"target":"right","response":"right","rt":1280.1000000238,"correct":true,"confidence":3},{"trial_n":97,"n_dots":3.25,"target":"right","response":"right","rt":680.29999995232,"correct":true,"confidence":3},{"trial_n":98,"n_dots":3.25,"target":"left","response":"left","rt":758.5,"correct":true,"confidence":3},{"trial_n":99,"n_dots":3.15,"target":"right","response":"right","rt":334.30000007153,"correct":true,"confidence":3},{"trial_n":100,"n_dots":3.15,"target":"left","response":"left","rt":533.5,"correct":true,"confidence":3},{"trial_n":101,"n_dots":3.05,"target":"right","response":"right","rt":361.19999992847,"correct":true,"confidence":3},{"trial_n":102,"n_dots":3.05,"target":"left","response":"right","rt":817.80000007153,"correct":false,"confidence":3},{"trial_n":103,"n_dots":3.15,"target":"left","response":"left","rt":337.20000004768,"correct":true,"confidence":3},{"trial_n":104,"n_dots":3.15,"target":"left","response":"left","rt":650.20000004768,"correct":true,"confidence":3},{"trial_n":105,"n_dots":3.05,"target":"right","response":"right","rt":350.79999995232,"correct":true,"confidence":3},{"trial_n":106,"n_dots":3.05,"target":"right","response":"right","rt":434.29999995232,"correct":true,"confidence":3},{"trial_n":107,"n_dots":2.95,"target":"left","response":"left","rt":700.89999997616,"correct":true,"confidence":3},{"trial_n":108,"n_dots":2.95,"target":"left","response":"left","rt":752.09999990463,"correct":true,"confidence":3},{"trial_n":109,"n_dots":2.85,"target":"right","response":"right","rt":728.80000007153,"correct":true,"confidence":3},{"trial_n":110,"n_dots":2.85,"target":"left","response":"right","rt":751.70000004768,"correct":false,"confidence":3},{"trial_n":111,"n_dots":2.95,"target":"right","response":"left","rt":630.20000004768,"correct":false,"confidence":3},{"trial_n":112,"n_dots":3.05,"target":"left","response":"right","rt":657.60000002384,"correct":false,"confidence":3},{"trial_n":113,"n_dots":3.15,"target":"right","response":"left","rt":548.69999992847,"correct":false,"confidence":3},{"trial_n":114,"n_dots":3.25,"target":"right","response":"right","rt":628.39999997616,"correct":true,"confidence":3},{"trial_n":115,"n_dots":3.25,"target":"right","response":"right","rt":629,"correct":true,"confidence":3},{"trial_n":116,"n_dots":3.15,"target":"right","response":"left","rt":886.59999990463,"correct":false,"confidence":3},{"trial_n":117,"n_dots":3.25,"target":"left","response":"right","rt":910.09999990463,"correct":false,"confidence":3},{"trial_n":118,"n_dots":3.35,"target":"right","response":"right","rt":519.59999990463,"correct":true,"confidence":3},{"trial_n":119,"n_dots":3.35,"target":"left","response":"left","rt":1528.1999999285,"correct":true,"confidence":3},{"trial_n":120,"n_dots":3.25,"target":"right","response":"right","rt":516.5,"correct":true,"confidence":3}]