[{"trial_n":1,"min":25,"max":230,"target":"present","response":"present","rt":7192.1999999285,"correct":true,"confidence":-1},{"trial_n":2,"min":25,"max":230,"target":"present","response":"present","rt":1114.3000000715,"correct":true,"confidence":-1},{"trial_n":3,"min":41,"max":214,"target":"absent","response":"absent","rt":1453.7000000477,"correct":true,"confidence":-1},{"trial_n":4,"min":41,"max":214,"target":"absent","response":"absent","rt":898.60000002384,"correct":true,"confidence":-1},{"trial_n":5,"min":57,"max":198,"target":"present","response":"present","rt":925.80000007153,"correct":true,"confidence":-1},{"trial_n":6,"min":57,"max":198,"target":"absent","response":"absent","rt":494.70000004768,"correct":true,"confidence":-1},{"trial_n":7,"min":73,"max":182,"target":"absent","response":"absent","rt":446.60000002384,"correct":true,"confidence":-1},{"trial_n":8,"min":73,"max":182,"target":"absent","response":"absent","rt":353.59999990463,"correct":true,"confidence":-1},{"trial_n":9,"min":89,"max":166,"target":"present","response":"absent","rt":171.60000002384,"correct":false,"confidence":-1},{"trial_n":10,"min":73,"max":182,"target":"present","response":"absent","rt":1230.2000000477,"correct":false,"confidence":-1},{"trial_n":11,"min":65,"max":190,"target":"absent","response":"absent","rt":361.29999995232,"correct":true,"confidence":-1},{"trial_n":12,"min":65,"max":190,"target":"absent","response":"absent","rt":392.10000002384,"correct":true,"confidence":-1},{"trial_n":13,"min":73,"max":182,"target":"absent","response":"absent","rt":173.30000007153,"correct":true,"confidence":-1},{"trial_n":14,"min":73,"max":182,"target":"present","response":"absent","rt":680,"correct":false,"confidence":-1},{"trial_n":15,"min":65,"max":190,"target":"absent","response":"absent","rt":278.40000009537,"correct":true,"confidence":-1},{"trial_n":16,"min":65,"max":190,"target":"absent","response":"absent","rt":244,"correct":true,"confidence":-1},{"trial_n":17,"min":73,"max":182,"target":"present","response":"absent","rt":725.70000004768,"correct":false,"confidence":-1},{"trial_n":18,"min":65,"max":190,"target":"absent","response":"absent","rt":349.80000007153,"correct":true,"confidence":-1},{"trial_n":19,"min":65,"max":190,"target":"absent","response":"absent","rt":406.70000004768,"correct":true,"confidence":-1},{"trial_n":20,"min":73,"max":182,"target":"present","response":"absent","rt":429.80000007153,"correct":false,"confidence":-1},{"trial_n":21,"min":69,"max":186,"target":"absent","response":"absent","rt":746.30000007153,"correct":true,"confidence":3},{"trial_n":22,"min":69,"max":186,"target":"present","response":"present","rt":1246.5999999046,"correct":true,"confidence":3},{"trial_n":23,"min":73,"max":182,"target":"present","response":"present","rt":1863.3000000715,"correct":true,"confidence":3},{"trial_n":24,"min":73,"max":182,"target":"absent","response":"absent","rt":1340.6999999285,"correct":true,"confidence":4},{"trial_n":25,"min":77,"max":178,"target":"absent","response":"absent","rt":1385.5,"correct":true,"confidence":4},{"trial_n":26,"min":77,"max":178,"target":"present","response":"absent","rt":1592.7000000477,"correct":false,"confidence":4},{"trial_n":27,"min":73,"max":182,"target":"absent","response":"absent","rt":1238.5,"correct":true,"confidence":4},{"trial_n":28,"min":73,"max":182,"target":"absent","response":"absent","rt":1036.2000000477,"correct":true,"confidence":5},{"trial_n":29,"min":77,"max":178,"target":"present","response":"absent","rt":1081.5,"correct":false,"confidence":5},{"trial_n":30,"min":73,"max":182,"target":"present","response":"present","rt":1247,"correct":true,"confidence":3},{"trial_n":31,"min":73,"max":182,"target":"present","response":"present","rt":1061.7000000477,"correct":true,"confidence":3},{"trial_n":32,"min":75,"max":180,"target":"absent","response":"absent","rt":1559.5999999046,"correct":true,"confidence":3},{"trial_n":33,"min":75,"max":180,"target":"present","response":"present","rt":966,"correct":true,"confidence":3},{"trial_n":34,"min":77,"max":178,"target":"absent","response":"absent","rt":1457.1999999285,"correct":true,"confidence":3},{"trial_n":35,"min":77,"max":178,"target":"present","response":"present","rt":2615.3999999762,"correct":true,"confidence":3},{"trial_n":36,"min":79,"max":176,"target":"absent","response":"absent","rt":1472.9000000954,"correct":true,"confidence":3},{"trial_n":37,"min":79,"max":176,"target":"absent","response":"absent","rt":914.20000004768,"correct":true,"confidence":4},{"trial_n":38,"min":81,"max":174,"target":"present","response":"present","rt":2081.9000000954,"correct":true,"confidence":3},{"trial_n":39,"min":81,"max":174,"target":"present","response":"absent","rt":921,"correct":false,"confidence":4},{"trial_n":40,"min":79,"max":176,"target":"absent","response":"absent","rt":857,"correct":true,"confidence":4},{"trial_n":41,"min":79,"max":176,"target":"absent","response":"absent","rt":979.39999997616,"correct":true,"confidence":4},{"trial_n":42,"min":80,"max":175,"target":"absent","response":"absent","rt":1628.1000000238,"correct":true,"confidence":4},{"trial_n":43,"min":80,"max":175,"target":"absent","response":"absent","rt":955.70000004768,"correct":true,"confidence":4},{"trial_n":44,"min":81,"max":174,"target":"present","response":"present","rt":963.39999997616,"correct":true,"confidence":3},{"trial_n":45,"min":81,"max":174,"target":"present","response":"absent","rt":1467.2000000477,"correct":false,"confidence":3},{"trial_n":46,"min":80,"max":175,"target":"absent","response":"absent","rt":1628.2999999523,"correct":true,"confidence":3},{"trial_n":47,"min":80,"max":175,"target":"present","response":"present","rt":872,"correct":true,"confidence":2},{"trial_n":48,"min":81,"max":174,"target":"present","response":"present","rt":905.40000009537,"correct":true,"confidence":3},{"trial_n":49,"min":81,"max":174,"target":"present","response":"absent","rt":1021.1000000238,"correct":false,"confidence":3},{"trial_n":50,"min":80,"max":175,"target":"present","response":"absent","rt":1335.8000000715,"correct":false,"confidence":3},{"trial_n":51,"min":79,"max":176,"target":"present","response":"present","rt":1111.0999999046,"correct":true,"confidence":3},{"trial_n":52,"min":79,"max":176,"target":"present","response":"present","rt":1339.6000000238,"correct":true,"confidence":3},{"trial_n":53,"min":80,"max":175,"target":"absent","response":"present","rt":1140.2999999523,"correct":false,"confidence":3},{"trial_n":54,"min":79,"max":176,"target":"present","response":"present","rt":967.19999992847,"correct":true,"confidence":3},{"trial_n":55,"min":79,"max":176,"target":"present","response":"present","rt":825.39999997616,"correct":true,"confidence":3},{"trial_n":56,"min":80,"max":175,"target":"present","response":"present","rt":868.89999997616,"correct":true,"confidence":3},{"trial_n":57,"min":80,"max":175,"target":"present","response":"absent","rt":1854.8999999762,"correct":false,"confidence":3},{"trial_n":58,"min":79,"max":176,"target":"absent","response":"absent","rt":1194.8999999762,"correct":true,"confidence":3},{"trial_n":59,"min":79,"max":176,"target":"present","response":"present","rt":4160.5,"correct":true,"confidence":3},{"trial_n":60,"min":80,"max":175,"target":"absent","response":"absent","rt":1156.7000000477,"correct":true,"confidence":3},{"trial_n":61,"min":80,"max":175,"target":"present","response":"present","rt":1408.6000000238,"correct":true,"confidence":3},{"trial_n":62,"min":81,"max":174,"target":"absent","response":"absent","rt":942,"correct":true,"confidence":3},{"trial_n":63,"min":81,"max":174,"target":"absent","response":"absent","rt":941.29999995232,"correct":true,"confidence":3},{"trial_n":64,"min":82,"max":173,"target":"absent","response":"absent","rt":1041.1999999285,"correct":true,"confidence":3},{"trial_n":65,"min":82,"max":173,"target":"present","response":"absent","rt":2254.9000000954,"correct":false,"confidence":2},{"trial_n":66,"min":81,"max":174,"target":"present","response":"absent","rt":1525.2999999523,"correct":false,"confidence":3},{"trial_n":67,"min":80,"max":175,"target":"present","response":"present","rt":1009.3999999762,"correct":true,"confidence":2},{"trial_n":68,"min":80,"max":175,"target":"absent","response":"absent","rt":1262.7000000477,"correct":true,"confidence":3},{"trial_n":69,"min":81,"max":174,"target":"absent","response":"absent","rt":2078.5,"correct":true,"confidence":3},{"trial_n":70,"min":81,"max":174,"target":"present","response":"present","rt":1054.3000000715,"correct":true,"confidence":3},{"trial_n":71,"min":41,"max":214,"target":"present","response":"present","rt":4562.2000000477,"correct":true,"confidence":-1},{"trial_n":72,"min":41,"max":214,"target":"present","response":"present","rt":1302.7000000477,"correct":true,"confidence":-1},{"trial_n":73,"min":57,"max":198,"target":"absent","response":"absent","rt":1467.8000000715,"correct":true,"confidence":-1},{"trial_n":74,"min":57,"max":198,"target":"absent","response":"absent","rt":1452,"correct":true,"confidence":-1},{"trial_n":75,"min":73,"max":182,"target":"present","response":"present","rt":1128.5,"correct":true,"confidence":-1},{"trial_n":76,"min":73,"max":182,"target":"absent","response":"absent","rt":1423.2000000477,"correct":true,"confidence":-1},{"trial_n":77,"min":89,"max":166,"target":"absent","response":"absent","rt":1603.3999999762,"correct":true,"confidence":-1},{"trial_n":78,"min":89,"max":166,"target":"present","response":"present","rt":1098.7000000477,"correct":true,"confidence":-1},{"trial_n":79,"min":105,"max":150,"target":"present","response":"absent","rt":1307.7000000477,"correct":false,"confidence":-1},{"trial_n":80,"min":89,"max":166,"target":"absent","response":"present","rt":2999.2999999523,"correct":false,"confidence":-1},{"trial_n":81,"min":81,"max":174,"target":"absent","response":"present","rt":1844.9000000954,"correct":false,"confidence":-1},{"trial_n":82,"min":73,"max":182,"target":"present","response":"present","rt":749.5,"correct":true,"confidence":-1},{"trial_n":83,"min":73,"max":182,"target":"absent","response":"absent","rt":1226.2000000477,"correct":true,"confidence":-1},{"trial_n":84,"min":81,"max":174,"target":"absent","response":"absent","rt":1269,"correct":true,"confidence":-1},{"trial_n":85,"min":81,"max":174,"target":"present","response":"present","rt":1248.2999999523,"correct":true,"confidence":-1},{"trial_n":86,"min":89,"max":166,"target":"absent","response":"absent","rt":1560.2999999523,"correct":true,"confidence":-1},{"trial_n":87,"min":89,"max":166,"target":"present","response":"present","rt":934.89999997616,"correct":true,"confidence":-1},{"trial_n":88,"min":97,"max":158,"target":"absent","response":"present","rt":1302.3999999762,"correct":false,"confidence":-1},{"trial_n":89,"min":89,"max":166,"target":"present","response":"present","rt":1680.6000000238,"correct":true,"confidence":-1},{"trial_n":90,"min":89,"max":166,"target":"absent","response":"present","rt":1460.2000000477,"correct":false,"confidence":-1},{"trial_n":91,"min":85,"max":170,"target":"present","response":"present","rt":1498.6999999285,"correct":true,"confidence":3},{"trial_n":92,"min":85,"max":170,"target":"absent","response":"present","rt":1048.9000000954,"correct":false,"confidence":3},{"trial_n":93,"min":81,"max":174,"target":"absent","response":"absent","rt":1099.2000000477,"correct":true,"confidence":3},{"trial_n":94,"min":81,"max":174,"target":"absent","response":"absent","rt":1811.5999999046,"correct":true,"confidence":3},{"trial_n":95,"min":85,"max":170,"target":"present","response":"present","rt":1195.7999999523,"correct":true,"confidence":3},{"trial_n":96,"min":85,"max":170,"target":"absent","response":"present","rt":1273.5,"correct":false,"confidence":3},{"trial_n":97,"min":81,"max":174,"target":"present","response":"present","rt":1034.3000000715,"correct":true,"confidence":3},{"trial_n":98,"min":81,"max":174,"target":"present","response":"present","rt":831.79999995232,"correct":true,"confidence":3},{"trial_n":99,"min":85,"max":170,"target":"absent","response":"absent","rt":931.60000002384,"correct":true,"confidence":3},{"trial_n":100,"min":85,"max":170,"target":"present","response":"present","rt":927.89999997616,"correct":true,"confidence":3},{"trial_n":101,"min":87,"max":168,"target":"absent","response":"absent","rt":1274.8000000715,"correct":true,"confidence":3},{"trial_n":102,"min":87,"max":168,"target":"present","response":"present","rt":930,"correct":true,"confidence":3},{"trial_n":103,"min":89,"max":166,"target":"absent","response":"absent","rt":1625.5,"correct":true,"confidence":3},{"trial_n":104,"min":89,"max":166,"target":"present","response":"present","rt":714,"correct":true,"confidence":3},{"trial_n":105,"min":91,"max":164,"target":"absent","response":"present","rt":1061.2999999523,"correct":false,"confidence":3},{"trial_n":106,"min":89,"max":166,"target":"present","response":"present","rt":986.5,"correct":true,"confidence":3},{"trial_n":107,"min":89,"max":166,"target":"absent","response":"absent","rt":1302.2000000477,"correct":true,"confidence":3},{"trial_n":108,"min":91,"max":164,"target":"present","response":"absent","rt":1628.5,"correct":false,"confidence":1},{"trial_n":109,"min":89,"max":166,"target":"absent","response":"present","rt":2096.5,"correct":false,"confidence":1},{"trial_n":110,"min":87,"max":168,"target":"present","response":"absent","rt":1066.9000000954,"correct":false,"confidence":1},{"trial_n":111,"min":86,"max":169,"target":"absent","response":"present","rt":2002.8999999762,"correct":false,"confidence":2},{"trial_n":112,"min":85,"max":170,"target":"present","response":"present","rt":1618.5,"correct":true,"confidence":2},{"trial_n":113,"min":85,"max":170,"target":"present","response":"present","rt":3451.2999999523,"correct":true,"confidence":2},{"trial_n":114,"min":86,"max":169,"target":"present","response":"present","rt":765.30000007153,"correct":true,"confidence":3},{"trial_n":115,"min":86,"max":169,"target":"absent","response":"absent","rt":1373.3999999762,"correct":true,"confidence":3},{"trial_n":116,"min":87,"max":168,"target":"present","response":"present","rt":995.60000002384,"correct":true,"confidence":3},{"trial_n":117,"min":87,"max":168,"target":"absent","response":"absent","rt":1030.2999999523,"correct":true,"confidence":3},{"trial_n":118,"min":88,"max":167,"target":"present","response":"present","rt":1682.1999999285,"correct":true,"confidence":2},{"trial_n":119,"min":88,"max":167,"target":"absent","response":"present","rt":1566.2999999523,"correct":false,"confidence":3},{"trial_n":120,"min":87,"max":168,"target":"absent","response":"absent","rt":1664.5,"correct":true,"confidence":2},{"trial_n":121,"min":87,"max":168,"target":"present","response":"present","rt":1803.8999999762,"correct":true,"confidence":2},{"trial_n":122,"min":88,"max":167,"target":"absent","response":"absent","rt":2022.7999999523,"correct":true,"confidence":3},{"trial_n":123,"min":88,"max":167,"target":"absent","response":"absent","rt":1746,"correct":true,"confidence":3},{"trial_n":124,"min":89,"max":166,"target":"present","response":"present","rt":1948.3000000715,"correct":true,"confidence":3},{"trial_n":125,"min":89,"max":166,"target":"absent","response":"absent","rt":950.89999997616,"correct":true,"confidence":3},{"trial_n":126,"min":90,"max":165,"target":"absent","response":"absent","rt":1741.8000000715,"correct":true,"confidence":3},{"trial_n":127,"min":90,"max":165,"target":"present","response":"present","rt":786.5,"correct":true,"confidence":3},{"trial_n":128,"min":91,"max":164,"target":"absent","response":"absent","rt":1218.6000000238,"correct":true,"confidence":3},{"trial_n":129,"min":91,"max":164,"target":"present","response":"present","rt":1857.3999999762,"correct":true,"confidence":2},{"trial_n":130,"min":92,"max":163,"target":"present","response":"present","rt":1487.6000000238,"correct":true,"confidence":3},{"trial_n":131,"min":92,"max":163,"target":"present","response":"present","rt":952.40000009537,"correct":true,"confidence":3},{"trial_n":132,"min":93,"max":162,"target":"present","response":"present","rt":747.79999995232,"correct":true,"confidence":3},{"trial_n":133,"min":93,"max":162,"target":"absent","response":"present","rt":1635.1000000238,"correct":false,"confidence":3},{"trial_n":134,"min":92,"max":163,"target":"present","response":"present","rt":1097.1000000238,"correct":true,"confidence":3},{"trial_n":135,"min":92,"max":163,"target":"present","response":"absent","rt":984.29999995232,"correct":false,"confidence":3},{"trial_n":136,"min":91,"max":164,"target":"present","response":"present","rt":963,"correct":true,"confidence":3},{"trial_n":137,"min":91,"max":164,"target":"present","response":"absent","rt":2500.7000000477,"correct":false,"confidence":2},{"trial_n":138,"min":90,"max":165,"target":"present","response":"present","rt":784.30000007153,"correct":true,"confidence":2},{"trial_n":139,"min":90,"max":165,"target":"absent","response":"present","rt":866.60000002384,"correct":false,"confidence":2},{"trial_n":140,"min":89,"max":166,"target":"absent","response":"absent","rt":1592.7999999523,"correct":true,"confidence":2}]