[{"trial_n":1,"min":25,"max":230,"target":"present","response":"present","rt":1874,"correct":true,"confidence":-1},{"trial_n":2,"min":25,"max":230,"target":"present","response":"present","rt":1433,"correct":true,"confidence":-1},{"trial_n":3,"min":41,"max":214,"target":"absent","response":"absent","rt":1155,"correct":true,"confidence":-1},{"trial_n":4,"min":41,"max":214,"target":"absent","response":"absent","rt":871,"correct":true,"confidence":-1},{"trial_n":5,"min":57,"max":198,"target":"present","response":"absent","rt":817,"correct":false,"confidence":-1},{"trial_n":6,"min":41,"max":214,"target":"present","response":"present","rt":816,"correct":true,"confidence":-1},{"trial_n":7,"min":41,"max":214,"target":"present","response":"present","rt":936,"correct":true,"confidence":-1},{"trial_n":8,"min":57,"max":198,"target":"present","response":"present","rt":1149,"correct":true,"confidence":-1},{"trial_n":9,"min":57,"max":198,"target":"present","response":"present","rt":699,"correct":true,"confidence":-1},{"trial_n":10,"min":73,"max":182,"target":"present","response":"absent","rt":1217,"correct":false,"confidence":-1},{"trial_n":11,"min":65,"max":190,"target":"absent","response":"present","rt":723,"correct":false,"confidence":-1},{"trial_n":12,"min":57,"max":198,"target":"absent","response":"absent","rt":1188,"correct":true,"confidence":-1},{"trial_n":13,"min":57,"max":198,"target":"present","response":"present","rt":804,"correct":true,"confidence":-1},{"trial_n":14,"min":65,"max":190,"target":"absent","response":"absent","rt":872,"correct":true,"confidence":-1},{"trial_n":15,"min":65,"max":190,"target":"present","response":"present","rt":720,"correct":true,"confidence":-1},{"trial_n":16,"min":73,"max":182,"target":"present","response":"absent","rt":1252,"correct":false,"confidence":-1},{"trial_n":17,"min":65,"max":190,"target":"absent","response":"absent","rt":989,"correct":true,"confidence":-1},{"trial_n":18,"min":65,"max":190,"target":"absent","response":"absent","rt":939,"correct":true,"confidence":-1},{"trial_n":19,"min":73,"max":182,"target":"present","response":"absent","rt":835.00000000001,"correct":false,"confidence":-1},{"trial_n":20,"min":65,"max":190,"target":"absent","response":"absent","rt":825,"correct":true,"confidence":-1},{"trial_n":21,"min":65,"max":190,"target":"absent","response":"absent","rt":1224,"correct":true,"confidence":4},{"trial_n":22,"min":69,"max":186,"target":"absent","response":"present","rt":1040,"correct":false,"confidence":3},{"trial_n":23,"min":65,"max":190,"target":"present","response":"absent","rt":870,"correct":false,"confidence":4},{"trial_n":24,"min":61,"max":194,"target":"absent","response":"present","rt":1124,"correct":false,"confidence":3},{"trial_n":25,"min":57,"max":198,"target":"present","response":"present","rt":1902,"correct":true,"confidence":5},{"trial_n":26,"min":57,"max":198,"target":"present","response":"present","rt":1068,"correct":true,"confidence":5},{"trial_n":27,"min":61,"max":194,"target":"present","response":"present","rt":969.99999999999,"correct":true,"confidence":5},{"trial_n":28,"min":61,"max":194,"target":"absent","response":"absent","rt":1075,"correct":true,"confidence":3},{"trial_n":29,"min":65,"max":190,"target":"present","response":"absent","rt":884,"correct":false,"confidence":3},{"trial_n":30,"min":61,"max":194,"target":"present","response":"present","rt":803.00000000001,"correct":true,"confidence":5},{"trial_n":31,"min":61,"max":194,"target":"absent","response":"present","rt":879,"correct":false,"confidence":3},{"trial_n":32,"min":59,"max":196,"target":"absent","response":"absent","rt":1243,"correct":true,"confidence":4},{"trial_n":33,"min":59,"max":196,"target":"present","response":"present","rt":836,"correct":true,"confidence":5},{"trial_n":34,"min":61,"max":194,"target":"present","response":"present","rt":839,"correct":true,"confidence":5},{"trial_n":35,"min":61,"max":194,"target":"absent","response":"absent","rt":961,"correct":true,"confidence":4},{"trial_n":36,"min":63,"max":192,"target":"absent","response":"absent","rt":877,"correct":true,"confidence":4},{"trial_n":37,"min":63,"max":192,"target":"absent","response":"absent","rt":960.99999999999,"correct":true,"confidence":4},{"trial_n":38,"min":65,"max":190,"target":"present","response":"present","rt":1071,"correct":true,"confidence":5},{"trial_n":39,"min":65,"max":190,"target":"absent","response":"absent","rt":1029,"correct":true,"confidence":4},{"trial_n":40,"min":67,"max":188,"target":"absent","response":"absent","rt":912,"correct":true,"confidence":5},{"trial_n":41,"min":67,"max":188,"target":"absent","response":"absent","rt":1480,"correct":true,"confidence":3},{"trial_n":42,"min":68,"max":187,"target":"present","response":"present","rt":821,"correct":true,"confidence":5},{"trial_n":43,"min":68,"max":187,"target":"present","response":"present","rt":1724,"correct":true,"confidence":5},{"trial_n":44,"min":69,"max":186,"target":"absent","response":"absent","rt":1010,"correct":true,"confidence":4},{"trial_n":45,"min":69,"max":186,"target":"present","response":"absent","rt":841.99999999999,"correct":false,"confidence":5},{"trial_n":46,"min":68,"max":187,"target":"absent","response":"absent","rt":1279,"correct":true,"confidence":2},{"trial_n":47,"min":68,"max":187,"target":"present","response":"present","rt":1359,"correct":true,"confidence":4},{"trial_n":48,"min":69,"max":186,"target":"absent","response":"present","rt":911,"correct":false,"confidence":4},{"trial_n":49,"min":68,"max":187,"target":"present","response":"present","rt":1009,"correct":true,"confidence":5},{"trial_n":50,"min":68,"max":187,"target":"absent","response":"absent","rt":844,"correct":true,"confidence":4},{"trial_n":51,"min":69,"max":186,"target":"present","response":"present","rt":937,"correct":true,"confidence":5},{"trial_n":52,"min":69,"max":186,"target":"present","response":"present","rt":1208,"correct":true,"confidence":5},{"trial_n":53,"min":70,"max":185,"target":"present","response":"present","rt":774,"correct":true,"confidence":5},{"trial_n":54,"min":70,"max":185,"target":"absent","response":"absent","rt":1246,"correct":true,"confidence":2},{"trial_n":55,"min":71,"max":184,"target":"present","response":"present","rt":1025,"correct":true,"confidence":5},{"trial_n":56,"min":71,"max":184,"target":"absent","response":"absent","rt":927,"correct":true,"confidence":5},{"trial_n":57,"min":72,"max":183,"target":"present","response":"present","rt":872,"correct":true,"confidence":5},{"trial_n":58,"min":72,"max":183,"target":"absent","response":"absent","rt":830,"correct":true,"confidence":4},{"trial_n":59,"min":73,"max":182,"target":"present","response":"present","rt":1007,"correct":true,"confidence":5},{"trial_n":60,"min":73,"max":182,"target":"present","response":"present","rt":1060,"correct":true,"confidence":4},{"trial_n":61,"min":74,"max":181,"target":"absent","response":"absent","rt":2200,"correct":true,"confidence":4},{"trial_n":62,"min":74,"max":181,"target":"absent","response":"present","rt":980,"correct":false,"confidence":4},{"trial_n":63,"min":73,"max":182,"target":"present","response":"present","rt":1240,"correct":true,"confidence":4},{"trial_n":64,"min":73,"max":182,"target":"absent","response":"absent","rt":996,"correct":true,"confidence":4},{"trial_n":65,"min":74,"max":181,"target":"absent","response":"absent","rt":1431,"correct":true,"confidence":4},{"trial_n":66,"min":74,"max":181,"target":"absent","response":"absent","rt":897,"correct":true,"confidence":4},{"trial_n":67,"min":75,"max":180,"target":"absent","response":"absent","rt":1198,"correct":true,"confidence":4},{"trial_n":68,"min":75,"max":180,"target":"present","response":"present","rt":976,"correct":true,"confidence":5},{"trial_n":69,"min":76,"max":179,"target":"absent","response":"absent","rt":897.99999999997,"correct":true,"confidence":4},{"trial_n":70,"min":76,"max":179,"target":"present","response":"present","rt":1044,"correct":true,"confidence":5},{"trial_n":71,"min":41,"max":214,"target":"present","response":"present","rt":2128,"correct":true,"confidence":-1},{"trial_n":72,"min":41,"max":214,"target":"present","response":"present","rt":640,"correct":true,"confidence":-1},{"trial_n":73,"min":57,"max":198,"target":"absent","response":"absent","rt":940,"correct":true,"confidence":-1},{"trial_n":74,"min":57,"max":198,"target":"absent","response":"absent","rt":1439,"correct":true,"confidence":-1},{"trial_n":75,"min":73,"max":182,"target":"present","response":"present","rt":872,"correct":true,"confidence":-1},{"trial_n":76,"min":73,"max":182,"target":"absent","response":"absent","rt":889.99999999997,"correct":true,"confidence":-1},{"trial_n":77,"min":89,"max":166,"target":"absent","response":"absent","rt":973.00000000003,"correct":true,"confidence":-1},{"trial_n":78,"min":89,"max":166,"target":"absent","response":"absent","rt":823,"correct":true,"confidence":-1},{"trial_n":79,"min":105,"max":150,"target":"present","response":"absent","rt":756,"correct":false,"confidence":-1},{"trial_n":80,"min":89,"max":166,"target":"absent","response":"absent","rt":1389,"correct":true,"confidence":-1},{"trial_n":81,"min":89,"max":166,"target":"present","response":"present","rt":892.00000000003,"correct":true,"confidence":-1},{"trial_n":82,"min":97,"max":158,"target":"absent","response":"present","rt":923,"correct":false,"confidence":-1},{"trial_n":83,"min":89,"max":166,"target":"present","response":"absent","rt":1125,"correct":false,"confidence":-1},{"trial_n":84,"min":81,"max":174,"target":"present","response":"present","rt":807,"correct":true,"confidence":-1},{"trial_n":85,"min":81,"max":174,"target":"absent","response":"present","rt":973,"correct":false,"confidence":-1},{"trial_n":86,"min":73,"max":182,"target":"present","response":"present","rt":892.00000000003,"correct":true,"confidence":-1},{"trial_n":87,"min":73,"max":182,"target":"absent","response":"absent","rt":724,"correct":true,"confidence":-1},{"trial_n":88,"min":81,"max":174,"target":"present","response":"present","rt":1193,"correct":true,"confidence":-1},{"trial_n":89,"min":81,"max":174,"target":"absent","response":"present","rt":1943,"correct":false,"confidence":-1},{"trial_n":90,"min":73,"max":182,"target":"absent","response":"absent","rt":1974,"correct":true,"confidence":-1},{"trial_n":91,"min":73,"max":182,"target":"absent","response":"absent","rt":1339,"correct":true,"confidence":4},{"trial_n":92,"min":77,"max":178,"target":"present","response":"present","rt":694,"correct":true,"confidence":5},{"trial_n":93,"min":77,"max":178,"target":"present","response":"present","rt":892,"correct":true,"confidence":5},{"trial_n":94,"min":81,"max":174,"target":"absent","response":"absent","rt":1411,"correct":true,"confidence":2},{"trial_n":95,"min":81,"max":174,"target":"absent","response":"present","rt":1360,"correct":false,"confidence":2},{"trial_n":96,"min":77,"max":178,"target":"present","response":"present","rt":1012,"correct":true,"confidence":4},{"trial_n":97,"min":77,"max":178,"target":"absent","response":"absent","rt":1043,"correct":true,"confidence":5},{"trial_n":98,"min":81,"max":174,"target":"present","response":"present","rt":1147,"correct":true,"confidence":2},{"trial_n":99,"min":81,"max":174,"target":"present","response":"present","rt":1128,"correct":true,"confidence":1},{"trial_n":100,"min":85,"max":170,"target":"absent","response":"absent","rt":1309.9999999999,"correct":true,"confidence":1},{"trial_n":101,"min":85,"max":170,"target":"absent","response":"absent","rt":1165,"correct":true,"confidence":2},{"trial_n":102,"min":87,"max":168,"target":"present","response":"present","rt":1294,"correct":true,"confidence":2},{"trial_n":103,"min":87,"max":168,"target":"present","response":"present","rt":1012,"correct":true,"confidence":5},{"trial_n":104,"min":89,"max":166,"target":"present","response":"present","rt":1462,"correct":true,"confidence":2},{"trial_n":105,"min":89,"max":166,"target":"absent","response":"absent","rt":1347,"correct":true,"confidence":3},{"trial_n":106,"min":91,"max":164,"target":"absent","response":"present","rt":1179,"correct":false,"confidence":2},{"trial_n":107,"min":89,"max":166,"target":"present","response":"present","rt":1262,"correct":true,"confidence":3},{"trial_n":108,"min":89,"max":166,"target":"present","response":"present","rt":998.00000000006,"correct":true,"confidence":3},{"trial_n":109,"min":91,"max":164,"target":"absent","response":"present","rt":1260,"correct":false,"confidence":3},{"trial_n":110,"min":89,"max":166,"target":"absent","response":"absent","rt":1111,"correct":true,"confidence":4},{"trial_n":111,"min":89,"max":166,"target":"present","response":"present","rt":1082,"correct":true,"confidence":3},{"trial_n":112,"min":90,"max":165,"target":"present","response":"present","rt":996,"correct":true,"confidence":3},{"trial_n":113,"min":90,"max":165,"target":"absent","response":"present","rt":1363,"correct":false,"confidence":2},{"trial_n":114,"min":89,"max":166,"target":"present","response":"present","rt":1114,"correct":true,"confidence":5},{"trial_n":115,"min":89,"max":166,"target":"present","response":"absent","rt":1447,"correct":false,"confidence":4},{"trial_n":116,"min":88,"max":167,"target":"present","response":"present","rt":1363,"correct":true,"confidence":4},{"trial_n":117,"min":88,"max":167,"target":"present","response":"present","rt":1331,"correct":true,"confidence":4},{"trial_n":118,"min":89,"max":166,"target":"absent","response":"absent","rt":1182,"correct":true,"confidence":2},{"trial_n":119,"min":89,"max":166,"target":"present","response":"present","rt":1198,"correct":true,"confidence":5},{"trial_n":120,"min":90,"max":165,"target":"absent","response":"absent","rt":1248,"correct":true,"confidence":2},{"trial_n":121,"min":90,"max":165,"target":"absent","response":"present","rt":834,"correct":false,"confidence":2},{"trial_n":122,"min":89,"max":166,"target":"present","response":"present","rt":1047,"correct":true,"confidence":1},{"trial_n":123,"min":89,"max":166,"target":"present","response":"present","rt":1098,"correct":true,"confidence":1},{"trial_n":124,"min":90,"max":165,"target":"absent","response":"present","rt":1615,"correct":false,"confidence":4},{"trial_n":125,"min":89,"max":166,"target":"present","response":"absent","rt":1316,"correct":false,"confidence":4},{"trial_n":126,"min":88,"max":167,"target":"present","response":"absent","rt":1081,"correct":false,"confidence":4},{"trial_n":127,"min":87,"max":168,"target":"absent","response":"present","rt":1032,"correct":false,"confidence":1},{"trial_n":128,"min":86,"max":169,"target":"absent","response":"present","rt":997,"correct":false,"confidence":1},{"trial_n":129,"min":85,"max":170,"target":"present","response":"present","rt":1050,"correct":true,"confidence":5},{"trial_n":130,"min":85,"max":170,"target":"present","response":"present","rt":1599,"correct":true,"confidence":5},{"trial_n":131,"min":86,"max":169,"target":"present","response":"present","rt":1025.9999999999,"correct":true,"confidence":5},{"trial_n":132,"min":86,"max":169,"target":"absent","response":"absent","rt":1048,"correct":true,"confidence":3},{"trial_n":133,"min":87,"max":168,"target":"absent","response":"absent","rt":1483,"correct":true,"confidence":1},{"trial_n":134,"min":87,"max":168,"target":"present","response":"present","rt":1035,"correct":true,"confidence":4},{"trial_n":135,"min":88,"max":167,"target":"absent","response":"present","rt":1448.0000000001,"correct":false,"confidence":4},{"trial_n":136,"min":87,"max":168,"target":"absent","response":"present","rt":2150,"correct":false,"confidence":1},{"trial_n":137,"min":86,"max":169,"target":"present","response":"present","rt":901.00000000006,"correct":true,"confidence":5},{"trial_n":138,"min":86,"max":169,"target":"present","response":"present","rt":967,"correct":true,"confidence":5},{"trial_n":139,"min":87,"max":168,"target":"absent","response":"absent","rt":1865,"correct":true,"confidence":4},{"trial_n":140,"min":87,"max":168,"target":"absent","response":"absent","rt":1033,"correct":true,"confidence":4}]