[{"trial_n":1,"span":8,"encoder":"49400792","distractor":"49400793","target":"present","response":"present","rt":"7181.1000000238","correct":true,"confidence":-1},{"trial_n":2,"span":8,"encoder":"70434104","distractor":"70444104","target":"present","response":"present","rt":"3627.6000000238","correct":true,"confidence":-1},{"trial_n":3,"span":10,"encoder":"8890314539","distractor":"8890714539","target":"absent","response":"absent","rt":"3557","correct":true,"confidence":-1},{"trial_n":4,"span":10,"encoder":"9230455673","distractor":"9230475673","target":"absent","response":"absent","rt":"3514.7000000477","correct":true,"confidence":-1},{"trial_n":5,"span":12,"encoder":"120488580269","distractor":"125488580269","target":"present","response":"present","rt":"4230.5","correct":true,"confidence":-1},{"trial_n":6,"span":12,"encoder":"686297728745","distractor":"686297708745","target":"present","response":"present","rt":"3466.6000000238","correct":true,"confidence":-1},{"trial_n":7,"span":14,"encoder":"20158511690743","distractor":"20158511691743","target":"present","response":"present","rt":"5418.3999999762","correct":true,"confidence":-1},{"trial_n":8,"span":14,"encoder":"95744634896342","distractor":"95744634896302","target":"absent","response":"absent","rt":"3395.5","correct":true,"confidence":-1},{"trial_n":9,"span":16,"encoder":"7610370989403610","distractor":"5610370989403610","target":"absent","response":"absent","rt":"3975.3000000715","correct":true,"confidence":-1},{"trial_n":10,"span":16,"encoder":"8819778727260455","distractor":"8819778227260455","target":"absent","response":"present","rt":"5908.4000000954","correct":false,"confidence":-1},{"trial_n":11,"span":14,"encoder":"33301728009996","distractor":"53301728009996","target":"absent","response":"present","rt":"4685.3999999762","correct":false,"confidence":-1},{"trial_n":12,"span":13,"encoder":"7801451984229","distractor":"2801451984229","target":"absent","response":"present","rt":"4132.6999999285","correct":false,"confidence":-1},{"trial_n":13,"span":12,"encoder":"748531238740","distractor":"708531238740","target":"present","response":"absent","rt":"4383.1000000238","correct":false,"confidence":-1},{"trial_n":14,"span":11,"encoder":"31405923697","distractor":"31405923617","target":"absent","response":"present","rt":"4173","correct":false,"confidence":-1},{"trial_n":15,"span":10,"encoder":"7266603742","distractor":"7766603742","target":"absent","response":"present","rt":"1273.8000000715","correct":false,"confidence":-1},{"trial_n":16,"span":9,"encoder":"047343783","distractor":"047343713","target":"absent","response":"present","rt":"1192","correct":false,"confidence":-1},{"trial_n":17,"span":8,"encoder":"89045608","distractor":"82045608","target":"absent","response":"present","rt":"3136.1999999285","correct":false,"confidence":-1},{"trial_n":18,"span":7,"encoder":"1400522","distractor":"1460522","target":"present","response":"present","rt":"2631.6999999285","correct":true,"confidence":-1},{"trial_n":19,"span":7,"encoder":"8570405","distractor":"8577405","target":"present","response":"present","rt":"1455.2000000477","correct":true,"confidence":-1},{"trial_n":20,"span":8,"encoder":"13006870","distractor":"13306870","target":"present","response":"present","rt":"2140","correct":true,"confidence":-1},{"trial_n":21,"span":8,"encoder":"05616030","distractor":"05616037","target":"absent","response":"absent","rt":"2860.7000000477","correct":true,"confidence":3},{"trial_n":22,"span":9,"encoder":"513809277","distractor":"113809277","target":"absent","response":"absent","rt":"3059.1999999285","correct":true,"confidence":4},{"trial_n":23,"span":9,"encoder":"987894264","distractor":"981894264","target":"absent","response":"absent","rt":"2518.8999999762","correct":true,"confidence":3},{"trial_n":24,"span":10,"encoder":"1104971871","distractor":"1105971871","target":"absent","response":"absent","rt":"2648.8999999762","correct":true,"confidence":3},{"trial_n":25,"span":10,"encoder":"0002185278","distractor":"0002145278","target":"absent","response":"absent","rt":"4359.1000000238","correct":true,"confidence":3},{"trial_n":26,"span":11,"encoder":"12900727505","distractor":"12400727505","target":"present","response":"present","rt":"7118.1000000238","correct":true,"confidence":3},{"trial_n":27,"span":11,"encoder":"54409699426","distractor":"54407699426","target":"absent","response":"present","rt":"2670.8999999762","correct":false,"confidence":3},{"trial_n":28,"span":10,"encoder":"4148988829","distractor":"4148988899","target":"absent","response":"absent","rt":"6787.6999999285","correct":true,"confidence":3},{"trial_n":29,"span":10,"encoder":"2679566755","distractor":"2679566757","target":"present","response":"present","rt":"7573.6999999285","correct":true,"confidence":3},{"trial_n":30,"span":11,"encoder":"48673864333","distractor":"48673864303","target":"present","response":"present","rt":"3247","correct":true,"confidence":3},{"trial_n":31,"span":11,"encoder":"75501468419","distractor":"75505468419","target":"absent","response":"absent","rt":"2662.6999999285","correct":true,"confidence":3},{"trial_n":32,"span":12,"encoder":"082384352843","distractor":"082384352743","target":"present","response":"present","rt":"3085.3000000715","correct":true,"confidence":2},{"trial_n":33,"span":12,"encoder":"012851255764","distractor":"012851255760","target":"absent","response":"absent","rt":"7917.7000000477","correct":true,"confidence":3},{"trial_n":34,"span":13,"encoder":"2997477195058","distractor":"2987477195058","target":"present","response":"present","rt":"4226.3999999762","correct":true,"confidence":3},{"trial_n":35,"span":13,"encoder":"1325119133369","distractor":"1325119103369","target":"absent","response":"present","rt":"5902.2999999523","correct":false,"confidence":3},{"trial_n":36,"span":12,"encoder":"871122585898","distractor":"871122085898","target":"present","response":"absent","rt":"5802.8999999762","correct":false,"confidence":3},{"trial_n":37,"span":11,"encoder":"92040212500","distractor":"92090212500","target":"present","response":"present","rt":"5246.8000000715","correct":true,"confidence":3},{"trial_n":38,"span":11,"encoder":"38660402031","distractor":"38660405031","target":"present","response":"present","rt":"4434.1000000238","correct":true,"confidence":3},{"trial_n":39,"span":12,"encoder":"699785700764","distractor":"695785700764","target":"absent","response":"absent","rt":"5739.1000000238","correct":true,"confidence":3},{"trial_n":40,"span":12,"encoder":"833476744908","distractor":"833471744908","target":"absent","response":"present","rt":"4726.7000000477","correct":false,"confidence":3},{"trial_n":41,"span":11,"encoder":"20655764774","distractor":"30655764774","target":"present","response":"present","rt":"5031.1999999285","correct":true,"confidence":3},{"trial_n":42,"span":11,"encoder":"82645950341","distractor":"42645950341","target":"absent","response":"present","rt":"6164.6000000238","correct":false,"confidence":3},{"trial_n":43,"span":10,"encoder":"9263778645","distractor":"2263778645","target":"absent","response":"absent","rt":"3493.6999999285","correct":true,"confidence":3},{"trial_n":44,"span":10,"encoder":"4479418187","distractor":"4479418887","target":"present","response":"present","rt":"5246.4000000954","correct":true,"confidence":4},{"trial_n":45,"span":11,"encoder":"01962193509","distractor":"01962193549","target":"present","response":"present","rt":"3288.8000000715","correct":true,"confidence":3},{"trial_n":46,"span":11,"encoder":"47794075359","distractor":"47794071359","target":"present","response":"present","rt":"26465.799999952","correct":true,"confidence":3},{"trial_n":47,"span":12,"encoder":"545798733936","distractor":"595798733936","target":"present","response":"absent","rt":"9121.8999999762","correct":false,"confidence":3},{"trial_n":48,"span":11,"encoder":"62118175345","distractor":"62118175315","target":"absent","response":"absent","rt":"3982","correct":true,"confidence":3},{"trial_n":49,"span":11,"encoder":"21791516678","distractor":"21491516678","target":"present","response":"present","rt":"4753.5","correct":true,"confidence":3},{"trial_n":50,"span":12,"encoder":"234306042762","distractor":"234306342762","target":"absent","response":"present","rt":"1555.2999999523","correct":false,"confidence":3},{"trial_n":51,"span":11,"encoder":"33300334932","distractor":"63300334932","target":"present","response":"present","rt":"4088.1000000238","correct":true,"confidence":4},{"trial_n":52,"span":11,"encoder":"42693031681","distractor":"42693031689","target":"absent","response":"absent","rt":"7752.1000000238","correct":true,"confidence":3},{"trial_n":53,"span":12,"encoder":"098030342096","distractor":"098031342096","target":"present","response":"present","rt":"5391.6999999285","correct":true,"confidence":3},{"trial_n":54,"span":12,"encoder":"076497972040","distractor":"076597972040","target":"present","response":"present","rt":"3717.5","correct":true,"confidence":3},{"trial_n":55,"span":13,"encoder":"6235851111591","distractor":"6235851111599","target":"present","response":"present","rt":"5184","correct":true,"confidence":3},{"trial_n":56,"span":13,"encoder":"8540776492022","distractor":"8540776493022","target":"present","response":"present","rt":"5010.8999999762","correct":true,"confidence":3},{"trial_n":57,"span":14,"encoder":"75841275379409","distractor":"75841275579409","target":"absent","response":"absent","rt":"3124","correct":true,"confidence":3},{"trial_n":58,"span":14,"encoder":"00440687236505","distractor":"00460687236505","target":"present","response":"absent","rt":"9152.7000000477","correct":false,"confidence":3},{"trial_n":59,"span":13,"encoder":"5189495986293","distractor":"5189493986293","target":"absent","response":"present","rt":"7423.6000000238","correct":false,"confidence":3},{"trial_n":60,"span":12,"encoder":"917216362837","distractor":"917216362847","target":"absent","response":"present","rt":"3774.6000000238","correct":false,"confidence":3},{"trial_n":61,"span":11,"encoder":"77463079229","distractor":"77463079629","target":"present","response":"present","rt":"1905.5","correct":true,"confidence":3},{"trial_n":62,"span":11,"encoder":"06019869400","distractor":"09019869400","target":"absent","response":"present","rt":"4796.1000000238","correct":false,"confidence":3},{"trial_n":63,"span":10,"encoder":"3464085514","distractor":"5464085514","target":"absent","response":"present","rt":"4689.7000000477","correct":false,"confidence":3},{"trial_n":64,"span":9,"encoder":"073787510","distractor":"073797510","target":"absent","response":"absent","rt":"2636.7000000477","correct":true,"confidence":4},{"trial_n":65,"span":9,"encoder":"632202164","distractor":"632502164","target":"present","response":"present","rt":"4202.6000000238","correct":true,"confidence":3},{"trial_n":66,"span":10,"encoder":"2473691907","distractor":"2873691907","target":"present","response":"present","rt":"6007.6000000238","correct":true,"confidence":3},{"trial_n":67,"span":10,"encoder":"0062639907","distractor":"9062639907","target":"present","response":"present","rt":"2779.6000000238","correct":true,"confidence":3},{"trial_n":68,"span":11,"encoder":"24695726650","distractor":"24605726650","target":"present","response":"present","rt":"5008.8000000715","correct":true,"confidence":3},{"trial_n":69,"span":11,"encoder":"05924064006","distractor":"05924064706","target":"present","response":"present","rt":"5717.2000000477","correct":true,"confidence":4},{"trial_n":70,"span":12,"encoder":"231989378551","distractor":"231989678551","target":"present","response":"present","rt":"2889.5","correct":true,"confidence":3},{"trial_n":71,"span":8,"encoder":"81092533","distractor":"81082533","target":"present","response":"present","rt":"5102.8000000715","correct":true,"confidence":-1},{"trial_n":72,"span":8,"encoder":"71379488","distractor":"71379288","target":"present","response":"present","rt":"3369.3000000715","correct":true,"confidence":-1},{"trial_n":73,"span":9,"encoder":"911846520","distractor":"911876520","target":"absent","response":"absent","rt":"4590.8999999762","correct":true,"confidence":-1},{"trial_n":74,"span":9,"encoder":"058160103","distractor":"058167103","target":"absent","response":"absent","rt":"5734","correct":true,"confidence":-1},{"trial_n":75,"span":10,"encoder":"6091042477","distractor":"6191042477","target":"present","response":"present","rt":"3800","correct":true,"confidence":-1},{"trial_n":76,"span":10,"encoder":"4655020587","distractor":"4655620587","target":"absent","response":"absent","rt":"2767.1000000238","correct":true,"confidence":-1},{"trial_n":77,"span":11,"encoder":"96121858425","distractor":"91121858425","target":"present","response":"absent","rt":"2058","correct":false,"confidence":-1},{"trial_n":78,"span":10,"encoder":"6721826360","distractor":"6721826260","target":"present","response":"present","rt":"2939.8999999762","correct":true,"confidence":-1},{"trial_n":79,"span":10,"encoder":"9147882513","distractor":"9147082513","target":"present","response":"absent","rt":"453","correct":false,"confidence":-1},{"trial_n":80,"span":9,"encoder":"546405773","distractor":"746405773","target":"present","response":"absent","rt":"1153.6000000238","correct":false,"confidence":-1},{"trial_n":81,"span":8,"encoder":"19355575","distractor":"19855575","target":"present","response":"absent","rt":"2383.3999999762","correct":false,"confidence":-1},{"trial_n":82,"span":7,"encoder":"2470589","distractor":"2470585","target":"absent","response":"present","rt":"5827.5","correct":false,"confidence":-1},{"trial_n":83,"span":6,"encoder":"324968","distractor":"324468","target":"present","response":"present","rt":"5681.1000000238","correct":true,"confidence":-1},{"trial_n":84,"span":6,"encoder":"554220","distractor":"514220","target":"present","response":"present","rt":"544","correct":true,"confidence":-1},{"trial_n":85,"span":7,"encoder":"0662524","distractor":"0662594","target":"present","response":"present","rt":"814","correct":true,"confidence":-1},{"trial_n":86,"span":7,"encoder":"8191757","distractor":"8191717","target":"present","response":"present","rt":"569.60000002384","correct":true,"confidence":-1},{"trial_n":87,"span":8,"encoder":"97721962","distractor":"87721962","target":"present","response":"present","rt":"620.80000007153","correct":true,"confidence":-1},{"trial_n":88,"span":8,"encoder":"66352243","distractor":"66752243","target":"present","response":"absent","rt":"1265.7999999523","correct":false,"confidence":-1},{"trial_n":89,"span":7,"encoder":"0742721","distractor":"0742726","target":"present","response":"present","rt":"588","correct":true,"confidence":-1},{"trial_n":90,"span":7,"encoder":"2554556","distractor":"8554556","target":"absent","response":"present","rt":"682.60000002384","correct":false,"confidence":-1},{"trial_n":91,"span":6,"encoder":"101653","distractor":"161653","target":"present","response":"present","rt":"2537.6000000238","correct":true,"confidence":5},{"trial_n":92,"span":6,"encoder":"311293","distractor":"311203","target":"present","response":"present","rt":"2883.7000000477","correct":true,"confidence":5},{"trial_n":93,"span":7,"encoder":"3144474","distractor":"3144454","target":"present","response":"present","rt":"1832.6000000238","correct":true,"confidence":5},{"trial_n":94,"span":7,"encoder":"8957039","distractor":"8157039","target":"present","response":"present","rt":"4455.1000000238","correct":true,"confidence":5},{"trial_n":95,"span":8,"encoder":"50631742","distractor":"59631742","target":"absent","response":"absent","rt":"4789.6000000238","correct":true,"confidence":5},{"trial_n":96,"span":8,"encoder":"55071985","distractor":"55071685","target":"absent","response":"absent","rt":"4345.5","correct":true,"confidence":5},{"trial_n":97,"span":9,"encoder":"356784153","distractor":"356484153","target":"present","response":"present","rt":"6777.1000000238","correct":true,"confidence":5},{"trial_n":98,"span":9,"encoder":"797144086","distractor":"797184086","target":"present","response":"absent","rt":"8319.7999999523","correct":false,"confidence":4},{"trial_n":99,"span":8,"encoder":"89284183","distractor":"89284983","target":"absent","response":"absent","rt":"3056.7999999523","correct":true,"confidence":5},{"trial_n":100,"span":8,"encoder":"00776004","distractor":"00773004","target":"absent","response":"absent","rt":"2501.6999999285","correct":true,"confidence":5},{"trial_n":101,"span":9,"encoder":"625917229","distractor":"625917224","target":"absent","response":"absent","rt":"5991.6000000238","correct":true,"confidence":3},{"trial_n":102,"span":9,"encoder":"580402334","distractor":"587402334","target":"present","response":"present","rt":"21465.799999952","correct":true,"confidence":5},{"trial_n":103,"span":10,"encoder":"5549712392","distractor":"5549712398","target":"absent","response":"absent","rt":"6014.3999999762","correct":true,"confidence":4},{"trial_n":104,"span":10,"encoder":"4601710245","distractor":"4601711245","target":"absent","response":"present","rt":"8838.8999999762","correct":false,"confidence":3},{"trial_n":105,"span":9,"encoder":"529782243","distractor":"529382243","target":"present","response":"absent","rt":"11259.800000072","correct":false,"confidence":3},{"trial_n":106,"span":8,"encoder":"58950408","distractor":"58950008","target":"absent","response":"absent","rt":"3701.7999999523","correct":true,"confidence":5},{"trial_n":107,"span":8,"encoder":"40401033","distractor":"40401013","target":"absent","response":"absent","rt":"8036.8000000715","correct":true,"confidence":5},{"trial_n":108,"span":9,"encoder":"079962406","distractor":"079969406","target":"present","response":"present","rt":"4868.8999999762","correct":true,"confidence":4},{"trial_n":109,"span":9,"encoder":"070037853","distractor":"070039853","target":"absent","response":"absent","rt":"2999.7999999523","correct":true,"confidence":4},{"trial_n":110,"span":10,"encoder":"3463063814","distractor":"3463063819","target":"absent","response":"absent","rt":"3589.6999999285","correct":true,"confidence":5},{"trial_n":111,"span":10,"encoder":"9376401781","distractor":"9376401581","target":"absent","response":"present","rt":"5415","correct":false,"confidence":3},{"trial_n":112,"span":9,"encoder":"564552870","distractor":"864552870","target":"absent","response":"absent","rt":"2287.2000000477","correct":true,"confidence":4},{"trial_n":113,"span":9,"encoder":"135283483","distractor":"135283453","target":"absent","response":"absent","rt":"2812","correct":true,"confidence":3},{"trial_n":114,"span":10,"encoder":"1041361059","distractor":"9041361059","target":"present","response":"present","rt":"2960.6000000238","correct":true,"confidence":5},{"trial_n":115,"span":10,"encoder":"9656362378","distractor":"0656362378","target":"absent","response":"absent","rt":"2303","correct":true,"confidence":4},{"trial_n":116,"span":11,"encoder":"16938797075","distractor":"13938797075","target":"absent","response":"absent","rt":"2042.0999999046","correct":true,"confidence":4},{"trial_n":117,"span":11,"encoder":"93273276609","distractor":"94273276609","target":"absent","response":"absent","rt":"2427.7000000477","correct":true,"confidence":4},{"trial_n":118,"span":12,"encoder":"262838988105","distractor":"262038988105","target":"absent","response":"absent","rt":"6731.2999999523","correct":true,"confidence":3},{"trial_n":119,"span":12,"encoder":"920509360842","distractor":"920509360542","target":"present","response":"present","rt":"7548.6000000238","correct":true,"confidence":4},{"trial_n":120,"span":13,"encoder":"4216943816515","distractor":"4416943816515","target":"present","response":"present","rt":"6596.3999999762","correct":true,"confidence":3},{"trial_n":121,"span":13,"encoder":"7416626247603","distractor":"7416626647603","target":"present","response":"present","rt":"5520.7999999523","correct":true,"confidence":2},{"trial_n":122,"span":14,"encoder":"97327981716294","distractor":"95327981716294","target":"absent","response":"absent","rt":"2635.6000000238","correct":true,"confidence":4},{"trial_n":123,"span":14,"encoder":"42150075162107","distractor":"92150075162107","target":"absent","response":"absent","rt":"6052.2000000477","correct":true,"confidence":3},{"trial_n":124,"span":15,"encoder":"910655909066762","distractor":"910655909066742","target":"present","response":"absent","rt":"10215.200000048","correct":false,"confidence":3},{"trial_n":125,"span":14,"encoder":"89738631032185","distractor":"89538631032185","target":"present","response":"present","rt":"3150","correct":true,"confidence":3},{"trial_n":126,"span":14,"encoder":"78799251876743","distractor":"78729251876743","target":"absent","response":"absent","rt":"3329.3000000715","correct":true,"confidence":5},{"trial_n":127,"span":15,"encoder":"109097333823388","distractor":"109097333823389","target":"present","response":"absent","rt":"9040.8999999762","correct":false,"confidence":3},{"trial_n":128,"span":14,"encoder":"47994204039205","distractor":"47994234039205","target":"absent","response":"absent","rt":"6462.6000000238","correct":true,"confidence":3},{"trial_n":129,"span":14,"encoder":"93290149789927","distractor":"93290149789727","target":"present","response":"present","rt":"32904.200000048","correct":true,"confidence":3},{"trial_n":130,"span":15,"encoder":"756427296534222","distractor":"756427296534722","target":"absent","response":"present","rt":"9249.2000000477","correct":false,"confidence":3},{"trial_n":131,"span":14,"encoder":"68089689413451","distractor":"68089689413851","target":"present","response":"present","rt":"6491.1000000238","correct":true,"confidence":3},{"trial_n":132,"span":14,"encoder":"41350721380527","distractor":"41350721380727","target":"present","response":"present","rt":"6284","correct":true,"confidence":3},{"trial_n":133,"span":15,"encoder":"583633760795162","distractor":"583633770795162","target":"present","response":"present","rt":"3559.7999999523","correct":true,"confidence":3},{"trial_n":134,"span":15,"encoder":"185097521490081","distractor":"185097521490021","target":"absent","response":"present","rt":"5152.2999999523","correct":false,"confidence":3},{"trial_n":135,"span":14,"encoder":"26757819181926","distractor":"26157819181926","target":"absent","response":"absent","rt":"6205.2000000477","correct":true,"confidence":4},{"trial_n":136,"span":14,"encoder":"12045385133930","distractor":"12045385133990","target":"absent","response":"absent","rt":"9161.6000000238","correct":true,"confidence":3},{"trial_n":137,"span":15,"encoder":"501220364611042","distractor":"501230364611042","target":"absent","response":"absent","rt":"3493.4000000954","correct":true,"confidence":3},{"trial_n":138,"span":15,"encoder":"167487224752188","distractor":"167487224732188","target":"present","response":"present","rt":"11404.200000048","correct":true,"confidence":3},{"trial_n":139,"span":16,"encoder":"9285459444950275","distractor":"9285459444953275","target":"absent","response":"absent","rt":"5398.8999999762","correct":true,"confidence":3},{"trial_n":140,"span":16,"encoder":"3898322287765586","distractor":"3848322287765586","target":"absent","response":"present","rt":"3959.2999999523","correct":false,"confidence":3}]