[{"trial_n":1,"min":25,"max":230,"target":"present","response":"present","rt":4091.6999999993,"correct":true,"confidence":-1},{"trial_n":2,"min":25,"max":230,"target":"present","response":"present","rt":558.90000000224,"correct":true,"confidence":-1},{"trial_n":3,"min":41,"max":214,"target":"absent","response":"absent","rt":1072.6999999993,"correct":true,"confidence":-1},{"trial_n":4,"min":41,"max":214,"target":"absent","response":"absent","rt":528.5,"correct":true,"confidence":-1},{"trial_n":5,"min":57,"max":198,"target":"present","response":"present","rt":787.60000000149,"correct":true,"confidence":-1},{"trial_n":6,"min":57,"max":198,"target":"absent","response":"absent","rt":495.80000000075,"correct":true,"confidence":-1},{"trial_n":7,"min":73,"max":182,"target":"present","response":"present","rt":440.90000000224,"correct":true,"confidence":-1},{"trial_n":8,"min":73,"max":182,"target":"present","response":"absent","rt":248.80000000075,"correct":false,"confidence":-1},{"trial_n":9,"min":57,"max":198,"target":"absent","response":"absent","rt":999.40000000224,"correct":true,"confidence":-1},{"trial_n":10,"min":57,"max":198,"target":"present","response":"present","rt":406.79999999702,"correct":true,"confidence":-1},{"trial_n":11,"min":65,"max":190,"target":"present","response":"present","rt":357,"correct":true,"confidence":-1},{"trial_n":12,"min":65,"max":190,"target":"present","response":"present","rt":621.79999999702,"correct":true,"confidence":-1},{"trial_n":13,"min":73,"max":182,"target":"present","response":"present","rt":372.19999999925,"correct":true,"confidence":-1},{"trial_n":14,"min":73,"max":182,"target":"absent","response":"absent","rt":467.40000000224,"correct":true,"confidence":-1},{"trial_n":15,"min":81,"max":174,"target":"present","response":"present","rt":425,"correct":true,"confidence":-1},{"trial_n":16,"min":81,"max":174,"target":"absent","response":"absent","rt":394.80000000075,"correct":true,"confidence":-1},{"trial_n":17,"min":89,"max":166,"target":"absent","response":"absent","rt":396.80000000075,"correct":true,"confidence":-1},{"trial_n":18,"min":89,"max":166,"target":"present","response":"absent","rt":528,"correct":false,"confidence":-1},{"trial_n":19,"min":81,"max":174,"target":"absent","response":"present","rt":352.90000000224,"correct":false,"confidence":-1},{"trial_n":20,"min":73,"max":182,"target":"present","response":"present","rt":794.5,"correct":true,"confidence":-1},{"trial_n":21,"min":73,"max":182,"target":"present","response":"present","rt":250.19999999925,"correct":true,"confidence":5},{"trial_n":22,"min":77,"max":178,"target":"absent","response":"absent","rt":740.59999999776,"correct":true,"confidence":5},{"trial_n":23,"min":77,"max":178,"target":"present","response":"present","rt":992.5,"correct":true,"confidence":3},{"trial_n":24,"min":81,"max":174,"target":"absent","response":"present","rt":1125.5,"correct":false,"confidence":4},{"trial_n":25,"min":77,"max":178,"target":"absent","response":"absent","rt":1232.5999999978,"correct":true,"confidence":3},{"trial_n":26,"min":77,"max":178,"target":"absent","response":"absent","rt":763.09999999776,"correct":true,"confidence":5},{"trial_n":27,"min":81,"max":174,"target":"present","response":"present","rt":1075.3000000007,"correct":true,"confidence":5},{"trial_n":28,"min":81,"max":174,"target":"absent","response":"absent","rt":750.79999999702,"correct":true,"confidence":5},{"trial_n":29,"min":85,"max":170,"target":"absent","response":"absent","rt":6274.1999999993,"correct":true,"confidence":3},{"trial_n":30,"min":85,"max":170,"target":"absent","response":"absent","rt":958.10000000149,"correct":true,"confidence":5},{"trial_n":31,"min":87,"max":168,"target":"absent","response":"absent","rt":2360.4000000022,"correct":true,"confidence":3},{"trial_n":32,"min":87,"max":168,"target":"present","response":"absent","rt":858.5,"correct":false,"confidence":5},{"trial_n":33,"min":85,"max":170,"target":"present","response":"absent","rt":615.69999999925,"correct":false,"confidence":5},{"trial_n":34,"min":83,"max":172,"target":"present","response":"present","rt":1036.5999999978,"correct":true,"confidence":5},{"trial_n":35,"min":83,"max":172,"target":"absent","response":"present","rt":2414.8000000007,"correct":false,"confidence":5},{"trial_n":36,"min":81,"max":174,"target":"absent","response":"present","rt":2754.5999999978,"correct":false,"confidence":5},{"trial_n":37,"min":79,"max":176,"target":"present","response":"present","rt":801.5,"correct":true,"confidence":5},{"trial_n":38,"min":79,"max":176,"target":"absent","response":"absent","rt":806.79999999702,"correct":true,"confidence":5},{"trial_n":39,"min":81,"max":174,"target":"absent","response":"absent","rt":1471.6999999993,"correct":true,"confidence":2},{"trial_n":40,"min":81,"max":174,"target":"absent","response":"absent","rt":1962.9000000022,"correct":true,"confidence":2},{"trial_n":41,"min":82,"max":173,"target":"present","response":"present","rt":978.60000000149,"correct":true,"confidence":5},{"trial_n":42,"min":82,"max":173,"target":"present","response":"present","rt":968.5,"correct":true,"confidence":5},{"trial_n":43,"min":83,"max":172,"target":"absent","response":"absent","rt":1542.3000000007,"correct":true,"confidence":3},{"trial_n":44,"min":83,"max":172,"target":"present","response":"present","rt":938.29999999702,"correct":true,"confidence":4},{"trial_n":45,"min":84,"max":171,"target":"absent","response":"present","rt":768.19999999925,"correct":false,"confidence":4},{"trial_n":46,"min":83,"max":172,"target":"present","response":"absent","rt":858.70000000298,"correct":false,"confidence":3},{"trial_n":47,"min":82,"max":173,"target":"absent","response":"absent","rt":881.89999999851,"correct":true,"confidence":5},{"trial_n":48,"min":82,"max":173,"target":"present","response":"present","rt":717.90000000224,"correct":true,"confidence":5},{"trial_n":49,"min":83,"max":172,"target":"absent","response":"absent","rt":656.19999999925,"correct":true,"confidence":5},{"trial_n":50,"min":83,"max":172,"target":"absent","response":"absent","rt":829.60000000149,"correct":true,"confidence":5},{"trial_n":51,"min":84,"max":171,"target":"present","response":"present","rt":1970.8000000007,"correct":true,"confidence":2},{"trial_n":52,"min":84,"max":171,"target":"present","response":"present","rt":690.89999999851,"correct":true,"confidence":5},{"trial_n":53,"min":85,"max":170,"target":"present","response":"present","rt":1139.1000000015,"correct":true,"confidence":5},{"trial_n":54,"min":85,"max":170,"target":"present","response":"absent","rt":2329.6999999993,"correct":false,"confidence":3},{"trial_n":55,"min":84,"max":171,"target":"absent","response":"present","rt":2383.3999999985,"correct":false,"confidence":5},{"trial_n":56,"min":83,"max":172,"target":"absent","response":"present","rt":694.69999999925,"correct":false,"confidence":5},{"trial_n":57,"min":82,"max":173,"target":"present","response":"present","rt":995.69999999925,"correct":true,"confidence":5},{"trial_n":58,"min":82,"max":173,"target":"present","response":"absent","rt":1514.8999999985,"correct":false,"confidence":3},{"trial_n":59,"min":81,"max":174,"target":"present","response":"present","rt":951,"correct":true,"confidence":5},{"trial_n":60,"min":81,"max":174,"target":"present","response":"present","rt":1021.1000000015,"correct":true,"confidence":5},{"trial_n":61,"min":82,"max":173,"target":"present","response":"present","rt":1037.1999999993,"correct":true,"confidence":5},{"trial_n":62,"min":82,"max":173,"target":"absent","response":"absent","rt":1490.5,"correct":true,"confidence":3},{"trial_n":63,"min":83,"max":172,"target":"absent","response":"absent","rt":1119.8999999985,"correct":true,"confidence":3},{"trial_n":64,"min":83,"max":172,"target":"absent","response":"absent","rt":1189.6000000015,"correct":true,"confidence":5},{"trial_n":65,"min":84,"max":171,"target":"present","response":"present","rt":3486.200000003,"correct":true,"confidence":5},{"trial_n":66,"min":84,"max":171,"target":"absent","response":"absent","rt":739.80000000075,"correct":true,"confidence":3},{"trial_n":67,"min":85,"max":170,"target":"present","response":"present","rt":661.29999999702,"correct":true,"confidence":5},{"trial_n":68,"min":85,"max":170,"target":"present","response":"present","rt":681.19999999925,"correct":true,"confidence":5},{"trial_n":69,"min":86,"max":169,"target":"absent","response":"absent","rt":753.89999999851,"correct":true,"confidence":5},{"trial_n":70,"min":86,"max":169,"target":"absent","response":"absent","rt":569.30000000075,"correct":true,"confidence":5},{"trial_n":71,"min":41,"max":214,"target":"present","response":"absent","rt":1366.5999999978,"correct":false,"confidence":-1},{"trial_n":72,"min":41,"max":214,"target":"present","response":"present","rt":633.79999999702,"correct":true,"confidence":-1},{"trial_n":73,"min":41,"max":214,"target":"absent","response":"absent","rt":574.5,"correct":true,"confidence":-1},{"trial_n":74,"min":57,"max":198,"target":"absent","response":"absent","rt":544,"correct":true,"confidence":-1},{"trial_n":75,"min":57,"max":198,"target":"present","response":"absent","rt":516.10000000149,"correct":false,"confidence":-1},{"trial_n":76,"min":41,"max":214,"target":"absent","response":"absent","rt":414.80000000075,"correct":true,"confidence":-1},{"trial_n":77,"min":41,"max":214,"target":"present","response":"present","rt":333.69999999925,"correct":true,"confidence":-1},{"trial_n":78,"min":57,"max":198,"target":"absent","response":"absent","rt":443.19999999925,"correct":true,"confidence":-1},{"trial_n":79,"min":57,"max":198,"target":"absent","response":"present","rt":684.80000000075,"correct":false,"confidence":-1},{"trial_n":80,"min":41,"max":214,"target":"present","response":"present","rt":354.89999999851,"correct":true,"confidence":-1},{"trial_n":81,"min":41,"max":214,"target":"absent","response":"absent","rt":336,"correct":true,"confidence":-1},{"trial_n":82,"min":49,"max":206,"target":"absent","response":"present","rt":773.19999999925,"correct":false,"confidence":-1},{"trial_n":83,"min":41,"max":214,"target":"absent","response":"absent","rt":618.30000000075,"correct":true,"confidence":-1},{"trial_n":84,"min":41,"max":214,"target":"present","response":"present","rt":343.90000000224,"correct":true,"confidence":-1},{"trial_n":85,"min":49,"max":206,"target":"absent","response":"absent","rt":352.30000000075,"correct":true,"confidence":-1},{"trial_n":86,"min":49,"max":206,"target":"present","response":"present","rt":555.90000000224,"correct":true,"confidence":-1},{"trial_n":87,"min":57,"max":198,"target":"present","response":"present","rt":424.40000000224,"correct":true,"confidence":-1},{"trial_n":88,"min":57,"max":198,"target":"absent","response":"absent","rt":441.39999999851,"correct":true,"confidence":-1},{"trial_n":89,"min":65,"max":190,"target":"absent","response":"absent","rt":996,"correct":true,"confidence":-1},{"trial_n":90,"min":65,"max":190,"target":"present","response":"present","rt":269.39999999851,"correct":true,"confidence":-1},{"trial_n":91,"min":69,"max":186,"target":"present","response":"present","rt":718.10000000149,"correct":true,"confidence":5},{"trial_n":92,"min":69,"max":186,"target":"absent","response":"absent","rt":512.69999999925,"correct":true,"confidence":5},{"trial_n":93,"min":73,"max":182,"target":"present","response":"present","rt":502.5,"correct":true,"confidence":5},{"trial_n":94,"min":73,"max":182,"target":"present","response":"present","rt":404.59999999776,"correct":true,"confidence":5},{"trial_n":95,"min":77,"max":178,"target":"present","response":"present","rt":569.89999999851,"correct":true,"confidence":5},{"trial_n":96,"min":77,"max":178,"target":"present","response":"present","rt":376,"correct":true,"confidence":5},{"trial_n":97,"min":81,"max":174,"target":"present","response":"present","rt":353.59999999776,"correct":true,"confidence":5},{"trial_n":98,"min":81,"max":174,"target":"absent","response":"absent","rt":624.59999999776,"correct":true,"confidence":5},{"trial_n":99,"min":85,"max":170,"target":"absent","response":"absent","rt":1433.3000000007,"correct":true,"confidence":5},{"trial_n":100,"min":85,"max":170,"target":"present","response":"present","rt":566.89999999851,"correct":true,"confidence":5},{"trial_n":101,"min":87,"max":168,"target":"present","response":"present","rt":796.19999999925,"correct":true,"confidence":5},{"trial_n":102,"min":87,"max":168,"target":"absent","response":"present","rt":1915.0999999978,"correct":false,"confidence":2},{"trial_n":103,"min":85,"max":170,"target":"absent","response":"absent","rt":715.09999999776,"correct":true,"confidence":5},{"trial_n":104,"min":85,"max":170,"target":"absent","response":"present","rt":1401.3000000007,"correct":false,"confidence":2},{"trial_n":105,"min":83,"max":172,"target":"absent","response":"absent","rt":1255.5,"correct":true,"confidence":2},{"trial_n":106,"min":83,"max":172,"target":"absent","response":"absent","rt":710.89999999851,"correct":true,"confidence":5},{"trial_n":107,"min":85,"max":170,"target":"absent","response":"absent","rt":1146.5,"correct":true,"confidence":5},{"trial_n":108,"min":85,"max":170,"target":"absent","response":"absent","rt":810.39999999851,"correct":true,"confidence":5},{"trial_n":109,"min":87,"max":168,"target":"present","response":"present","rt":1056.6999999993,"correct":true,"confidence":5},{"trial_n":110,"min":87,"max":168,"target":"present","response":"absent","rt":1632,"correct":false,"confidence":2},{"trial_n":111,"min":86,"max":169,"target":"absent","response":"present","rt":1845.1999999993,"correct":false,"confidence":1},{"trial_n":112,"min":85,"max":170,"target":"present","response":"present","rt":2294,"correct":true,"confidence":1},{"trial_n":113,"min":85,"max":170,"target":"present","response":"present","rt":1468,"correct":true,"confidence":5},{"trial_n":114,"min":86,"max":169,"target":"present","response":"absent","rt":2516.3000000007,"correct":false,"confidence":1},{"trial_n":115,"min":85,"max":170,"target":"absent","response":"absent","rt":935.59999999776,"correct":true,"confidence":5},{"trial_n":116,"min":85,"max":170,"target":"present","response":"present","rt":744,"correct":true,"confidence":5},{"trial_n":117,"min":86,"max":169,"target":"present","response":"present","rt":1042,"correct":true,"confidence":5},{"trial_n":118,"min":86,"max":169,"target":"present","response":"present","rt":1077.8999999985,"correct":true,"confidence":5},{"trial_n":119,"min":87,"max":168,"target":"present","response":"present","rt":466.09999999776,"correct":true,"confidence":5},{"trial_n":120,"min":87,"max":168,"target":"absent","response":"absent","rt":636.09999999776,"correct":true,"confidence":5},{"trial_n":121,"min":88,"max":167,"target":"present","response":"present","rt":568.40000000224,"correct":true,"confidence":5},{"trial_n":122,"min":88,"max":167,"target":"absent","response":"absent","rt":1956.1000000015,"correct":true,"confidence":1},{"trial_n":123,"min":89,"max":166,"target":"present","response":"present","rt":529.19999999925,"correct":true,"confidence":5},{"trial_n":124,"min":89,"max":166,"target":"absent","response":"present","rt":929.89999999851,"correct":false,"confidence":1},{"trial_n":125,"min":88,"max":167,"target":"absent","response":"present","rt":1350.3000000007,"correct":false,"confidence":1},{"trial_n":126,"min":87,"max":168,"target":"present","response":"present","rt":936.59999999776,"correct":true,"confidence":5},{"trial_n":127,"min":87,"max":168,"target":"present","response":"present","rt":1295.3999999985,"correct":true,"confidence":1},{"trial_n":128,"min":88,"max":167,"target":"absent","response":"absent","rt":1621,"correct":true,"confidence":5},{"trial_n":129,"min":88,"max":167,"target":"absent","response":"absent","rt":1102.6999999993,"correct":true,"confidence":1},{"trial_n":130,"min":89,"max":166,"target":"present","response":"present","rt":2656.5,"correct":true,"confidence":1},{"trial_n":131,"min":89,"max":166,"target":"present","response":"present","rt":1643.1999999993,"correct":true,"confidence":5},{"trial_n":132,"min":90,"max":165,"target":"absent","response":"absent","rt":985.80000000075,"correct":true,"confidence":5},{"trial_n":133,"min":90,"max":165,"target":"absent","response":"present","rt":1469.4000000022,"correct":false,"confidence":1},{"trial_n":134,"min":89,"max":166,"target":"present","response":"present","rt":772.59999999776,"correct":true,"confidence":5},{"trial_n":135,"min":89,"max":166,"target":"absent","response":"present","rt":1228.5,"correct":false,"confidence":1},{"trial_n":136,"min":88,"max":167,"target":"present","response":"present","rt":331.10000000149,"correct":true,"confidence":5},{"trial_n":137,"min":88,"max":167,"target":"absent","response":"absent","rt":872.09999999776,"correct":true,"confidence":5},{"trial_n":138,"min":89,"max":166,"target":"present","response":"present","rt":471.79999999702,"correct":true,"confidence":5},{"trial_n":139,"min":89,"max":166,"target":"present","response":"present","rt":633.69999999925,"correct":true,"confidence":5},{"trial_n":140,"min":90,"max":165,"target":"absent","response":"present","rt":1210.0999999978,"correct":false,"confidence":1}]