[{"trial_n":1,"n_dots":4.25,"target":"right","response":"left","rt":6094,"correct":false,"confidence":-1},{"trial_n":2,"n_dots":4.25,"target":"right","response":"right","rt":1983,"correct":true,"confidence":-1},{"trial_n":3,"n_dots":4.25,"target":"right","response":"right","rt":461,"correct":true,"confidence":-1},{"trial_n":4,"n_dots":3.85,"target":"right","response":"left","rt":1580,"correct":false,"confidence":-1},{"trial_n":5,"n_dots":4.25,"target":"left","response":"left","rt":827,"correct":true,"confidence":-1},{"trial_n":6,"n_dots":4.25,"target":"left","response":"left","rt":552.00000000001,"correct":true,"confidence":-1},{"trial_n":7,"n_dots":3.85,"target":"right","response":"right","rt":512,"correct":true,"confidence":-1},{"trial_n":8,"n_dots":3.85,"target":"right","response":"left","rt":453.99999999997,"correct":false,"confidence":-1},{"trial_n":9,"n_dots":4.05,"target":"left","response":"right","rt":613,"correct":false,"confidence":-1},{"trial_n":10,"n_dots":4.25,"target":"left","response":"left","rt":664,"correct":true,"confidence":-1},{"trial_n":11,"n_dots":4.25,"target":"right","response":"right","rt":545,"correct":true,"confidence":-1},{"trial_n":12,"n_dots":4.05,"target":"left","response":"left","rt":445.99999999997,"correct":true,"confidence":-1},{"trial_n":13,"n_dots":4.05,"target":"right","response":"right","rt":195,"correct":true,"confidence":-1},{"trial_n":14,"n_dots":3.95,"target":"right","response":"right","rt":297,"correct":true,"confidence":-1},{"trial_n":15,"n_dots":3.95,"target":"left","response":"left","rt":516,"correct":true,"confidence":-1},{"trial_n":16,"n_dots":3.85,"target":"right","response":"left","rt":637,"correct":false,"confidence":-1},{"trial_n":17,"n_dots":3.95,"target":"right","response":"right","rt":719.00000000003,"correct":true,"confidence":-1},{"trial_n":18,"n_dots":3.95,"target":"left","response":"left","rt":902,"correct":true,"confidence":-1},{"trial_n":19,"n_dots":3.85,"target":"right","response":"left","rt":204,"correct":false,"confidence":-1},{"trial_n":20,"n_dots":3.95,"target":"left","response":"left","rt":121,"correct":true,"confidence":-1},{"trial_n":21,"n_dots":3.95,"target":"right","response":"right","rt":2581.9999999999,"correct":true,"confidence":3},{"trial_n":22,"n_dots":3.85,"target":"right","response":"left","rt":3373.0000000001,"correct":false,"confidence":2},{"trial_n":23,"n_dots":3.95,"target":"right","response":"right","rt":6559,"correct":true,"confidence":1},{"trial_n":24,"n_dots":3.95,"target":"right","response":"left","rt":1523.0000000001,"correct":false,"confidence":2},{"trial_n":25,"n_dots":4.05,"target":"left","response":"left","rt":926.00000000006,"correct":true,"confidence":1},{"trial_n":26,"n_dots":4.05,"target":"right","response":"left","rt":1841,"correct":false,"confidence":2},{"trial_n":27,"n_dots":4.15,"target":"left","response":"right","rt":5257,"correct":false,"confidence":1},{"trial_n":28,"n_dots":4.25,"target":"left","response":"left","rt":628,"correct":true,"confidence":3},{"trial_n":29,"n_dots":4.25,"target":"right","response":"right","rt":1309,"correct":true,"confidence":3},{"trial_n":30,"n_dots":4.15,"target":"left","response":"right","rt":5515,"correct":false,"confidence":3},{"trial_n":31,"n_dots":4.25,"target":"left","response":"left","rt":2534,"correct":true,"confidence":3},{"trial_n":32,"n_dots":4.25,"target":"right","response":"right","rt":10050,"correct":true,"confidence":1},{"trial_n":33,"n_dots":4.15,"target":"left","response":"left","rt":2971,"correct":true,"confidence":4},{"trial_n":34,"n_dots":4.15,"target":"left","response":"left","rt":1992,"correct":true,"confidence":4},{"trial_n":35,"n_dots":4.05,"target":"left","response":"left","rt":906.99999999988,"correct":true,"confidence":3},{"trial_n":36,"n_dots":4.05,"target":"left","response":"left","rt":951.00000000012,"correct":true,"confidence":3},{"trial_n":37,"n_dots":3.95,"target":"right","response":"right","rt":1060,"correct":true,"confidence":4},{"trial_n":38,"n_dots":3.95,"target":"right","response":"right","rt":852,"correct":true,"confidence":3},{"trial_n":39,"n_dots":3.85,"target":"right","response":"right","rt":739,"correct":true,"confidence":3},{"trial_n":40,"n_dots":3.85,"target":"left","response":"left","rt":1086,"correct":true,"confidence":3},{"trial_n":41,"n_dots":3.75,"target":"right","response":"right","rt":2106,"correct":true,"confidence":4},{"trial_n":42,"n_dots":3.75,"target":"right","response":"right","rt":832,"correct":true,"confidence":4},{"trial_n":43,"n_dots":3.65,"target":"right","response":"right","rt":520.99999999988,"correct":true,"confidence":4},{"trial_n":44,"n_dots":3.65,"target":"left","response":"left","rt":822,"correct":true,"confidence":4},{"trial_n":45,"n_dots":3.55,"target":"right","response":"right","rt":709,"correct":true,"confidence":4},{"trial_n":46,"n_dots":3.55,"target":"right","response":"right","rt":439,"correct":true,"confidence":1},{"trial_n":47,"n_dots":3.45,"target":"right","response":"right","rt":1401,"correct":true,"confidence":4},{"trial_n":48,"n_dots":3.45,"target":"right","response":"right","rt":824.99999999977,"correct":true,"confidence":4},{"trial_n":49,"n_dots":3.35,"target":"right","response":"left","rt":3711,"correct":false,"confidence":3},{"trial_n":50,"n_dots":3.45,"target":"right","response":"right","rt":1151,"correct":true,"confidence":4},{"trial_n":51,"n_dots":3.45,"target":"right","response":"right","rt":3734.0000000001,"correct":true,"confidence":4},{"trial_n":52,"n_dots":3.35,"target":"right","response":"right","rt":7428,"correct":true,"confidence":3},{"trial_n":53,"n_dots":3.35,"target":"right","response":"right","rt":805,"correct":true,"confidence":3},{"trial_n":54,"n_dots":3.25,"target":"left","response":"left","rt":4103,"correct":true,"confidence":2},{"trial_n":55,"n_dots":3.25,"target":"left","response":"left","rt":1338,"correct":true,"confidence":3},{"trial_n":56,"n_dots":3.15,"target":"left","response":"right","rt":1490,"correct":false,"confidence":3},{"trial_n":57,"n_dots":3.25,"target":"right","response":"right","rt":1042,"correct":true,"confidence":3},{"trial_n":58,"n_dots":3.25,"target":"right","response":"right","rt":701,"correct":true,"confidence":3},{"trial_n":59,"n_dots":3.15,"target":"right","response":"right","rt":853.00000000023,"correct":true,"confidence":3},{"trial_n":60,"n_dots":3.15,"target":"left","response":"left","rt":1583,"correct":true,"confidence":3},{"trial_n":61,"n_dots":3.05,"target":"left","response":"right","rt":593,"correct":false,"confidence":3},{"trial_n":62,"n_dots":3.15,"target":"left","response":"left","rt":528,"correct":true,"confidence":2},{"trial_n":63,"n_dots":3.15,"target":"left","response":"left","rt":597,"correct":true,"confidence":2},{"trial_n":64,"n_dots":3.05,"target":"left","response":"left","rt":514,"correct":true,"confidence":2},{"trial_n":65,"n_dots":3.05,"target":"left","response":"left","rt":890,"correct":true,"confidence":3},{"trial_n":66,"n_dots":2.95,"target":"right","response":"right","rt":829,"correct":true,"confidence":2},{"trial_n":67,"n_dots":2.95,"target":"right","response":"left","rt":1689.9999999998,"correct":false,"confidence":1},{"trial_n":68,"n_dots":3.05,"target":"right","response":"right","rt":877,"correct":true,"confidence":3},{"trial_n":69,"n_dots":3.05,"target":"right","response":"left","rt":385.99999999977,"correct":false,"confidence":2},{"trial_n":70,"n_dots":3.15,"target":"left","response":"left","rt":587,"correct":true,"confidence":3},{"trial_n":71,"n_dots":3.15,"target":"left","response":"left","rt":979,"correct":true,"confidence":3},{"trial_n":72,"n_dots":3.05,"target":"right","response":"left","rt":10166,"correct":false,"confidence":3},{"trial_n":73,"n_dots":3.15,"target":"right","response":"right","rt":803,"correct":true,"confidence":3},{"trial_n":74,"n_dots":3.15,"target":"right","response":"left","rt":288,"correct":false,"confidence":1},{"trial_n":75,"n_dots":3.25,"target":"left","response":"left","rt":204,"correct":true,"confidence":4},{"trial_n":76,"n_dots":3.25,"target":"left","response":"left","rt":1020,"correct":true,"confidence":4},{"trial_n":77,"n_dots":3.15,"target":"left","response":"left","rt":665,"correct":true,"confidence":4},{"trial_n":78,"n_dots":3.15,"target":"left","response":"right","rt":629,"correct":false,"confidence":2},{"trial_n":79,"n_dots":3.25,"target":"left","response":"right","rt":717,"correct":false,"confidence":4},{"trial_n":80,"n_dots":3.35,"target":"right","response":"left","rt":788,"correct":false,"confidence":3},{"trial_n":81,"n_dots":3.45,"target":"left","response":"left","rt":1271,"correct":true,"confidence":2},{"trial_n":82,"n_dots":3.45,"target":"left","response":"left","rt":232,"correct":true,"confidence":2},{"trial_n":83,"n_dots":3.35,"target":"left","response":"left","rt":349,"correct":true,"confidence":3},{"trial_n":84,"n_dots":3.35,"target":"left","response":"left","rt":165,"correct":true,"confidence":4},{"trial_n":85,"n_dots":3.25,"target":"left","response":"left","rt":629.00000000023,"correct":true,"confidence":4},{"trial_n":86,"n_dots":3.25,"target":"right","response":"right","rt":500,"correct":true,"confidence":4},{"trial_n":87,"n_dots":3.15,"target":"right","response":"left","rt":397,"correct":false,"confidence":3},{"trial_n":88,"n_dots":3.25,"target":"left","response":"left","rt":19538,"correct":true,"confidence":1},{"trial_n":89,"n_dots":3.25,"target":"left","response":"left","rt":104,"correct":true,"confidence":5},{"trial_n":90,"n_dots":3.15,"target":"left","response":"left","rt":895.99999999977,"correct":true,"confidence":3},{"trial_n":91,"n_dots":3.15,"target":"left","response":"left","rt":122,"correct":true,"confidence":4},{"trial_n":92,"n_dots":3.05,"target":"right","response":"right","rt":284,"correct":true,"confidence":4},{"trial_n":93,"n_dots":3.05,"target":"left","response":"left","rt":200,"correct":true,"confidence":4},{"trial_n":94,"n_dots":2.95,"target":"right","response":"left","rt":14196,"correct":false,"confidence":3},{"trial_n":95,"n_dots":3.05,"target":"left","response":"left","rt":203,"correct":true,"confidence":5},{"trial_n":96,"n_dots":3.05,"target":"left","response":"left","rt":113806,"correct":true,"confidence":3},{"trial_n":97,"n_dots":2.95,"target":"right","response":"left","rt":604.99999999977,"correct":false,"confidence":3},{"trial_n":98,"n_dots":3.05,"target":"left","response":"left","rt":345,"correct":true,"confidence":3},{"trial_n":99,"n_dots":3.05,"target":"right","response":"right","rt":497,"correct":true,"confidence":5},{"trial_n":100,"n_dots":2.95,"target":"right","response":"right","rt":671,"correct":true,"confidence":5},{"trial_n":101,"n_dots":2.95,"target":"right","response":"right","rt":392,"correct":true,"confidence":4},{"trial_n":102,"n_dots":2.85,"target":"right","response":"right","rt":945.99999999977,"correct":true,"confidence":3},{"trial_n":103,"n_dots":2.85,"target":"right","response":"left","rt":19984,"correct":false,"confidence":2},{"trial_n":104,"n_dots":2.95,"target":"left","response":"left","rt":31186,"correct":true,"confidence":1},{"trial_n":105,"n_dots":2.95,"target":"left","response":"left","rt":155.00000000023,"correct":true,"confidence":5},{"trial_n":106,"n_dots":2.85,"target":"right","response":"left","rt":1389.9999999998,"correct":false,"confidence":5},{"trial_n":107,"n_dots":2.95,"target":"right","response":"right","rt":2299,"correct":true,"confidence":2},{"trial_n":108,"n_dots":2.95,"target":"left","response":"left","rt":1025.9999999998,"correct":true,"confidence":4},{"trial_n":109,"n_dots":2.85,"target":"left","response":"left","rt":1644,"correct":true,"confidence":3},{"trial_n":110,"n_dots":2.85,"target":"left","response":"left","rt":291,"correct":true,"confidence":4},{"trial_n":111,"n_dots":2.75,"target":"right","response":"left","rt":190,"correct":false,"confidence":3},{"trial_n":112,"n_dots":2.85,"target":"left","response":"right","rt":600,"correct":false,"confidence":4},{"trial_n":113,"n_dots":2.95,"target":"left","response":"left","rt":257,"correct":true,"confidence":4},{"trial_n":114,"n_dots":2.95,"target":"left","response":"left","rt":290,"correct":true,"confidence":4},{"trial_n":115,"n_dots":2.85,"target":"left","response":"left","rt":883,"correct":true,"confidence":3},{"trial_n":116,"n_dots":2.85,"target":"right","response":"left","rt":212,"correct":false,"confidence":3},{"trial_n":117,"n_dots":2.95,"target":"left","response":"left","rt":126,"correct":true,"confidence":4},{"trial_n":118,"n_dots":2.95,"target":"left","response":"left","rt":1147.0000000002,"correct":true,"confidence":4},{"trial_n":119,"n_dots":2.85,"target":"right","response":"left","rt":775.99999999977,"correct":false,"confidence":3},{"trial_n":120,"n_dots":2.95,"target":"left","response":"left","rt":746,"correct":true,"confidence":3}]