[{"trial_n":1,"min":25,"max":230,"target":"present","response":"present","rt":4014.400000006,"correct":true,"confidence":-1},{"trial_n":2,"min":25,"max":230,"target":"present","response":"present","rt":1116.3999999762,"correct":true,"confidence":-1},{"trial_n":3,"min":41,"max":214,"target":"absent","response":"absent","rt":1539.3999999762,"correct":true,"confidence":-1},{"trial_n":4,"min":41,"max":214,"target":"absent","response":"absent","rt":649.59999999404,"correct":true,"confidence":-1},{"trial_n":5,"min":57,"max":198,"target":"present","response":"present","rt":751.80000001192,"correct":true,"confidence":-1},{"trial_n":6,"min":57,"max":198,"target":"absent","response":"absent","rt":613,"correct":true,"confidence":-1},{"trial_n":7,"min":73,"max":182,"target":"absent","response":"absent","rt":473.89999997616,"correct":true,"confidence":-1},{"trial_n":8,"min":73,"max":182,"target":"present","response":"present","rt":592.69999998808,"correct":true,"confidence":-1},{"trial_n":9,"min":89,"max":166,"target":"present","response":"absent","rt":621.30000001192,"correct":false,"confidence":-1},{"trial_n":10,"min":73,"max":182,"target":"present","response":"absent","rt":1934.5,"correct":false,"confidence":-1},{"trial_n":11,"min":65,"max":190,"target":"absent","response":"absent","rt":1460.599999994,"correct":true,"confidence":-1},{"trial_n":12,"min":65,"max":190,"target":"present","response":"present","rt":955.09999999404,"correct":true,"confidence":-1},{"trial_n":13,"min":73,"max":182,"target":"absent","response":"absent","rt":1071.5,"correct":true,"confidence":-1},{"trial_n":14,"min":73,"max":182,"target":"present","response":"present","rt":647.20000001788,"correct":true,"confidence":-1},{"trial_n":15,"min":81,"max":174,"target":"absent","response":"absent","rt":691.79999998212,"correct":true,"confidence":-1},{"trial_n":16,"min":81,"max":174,"target":"absent","response":"absent","rt":639.5,"correct":true,"confidence":-1},{"trial_n":17,"min":89,"max":166,"target":"present","response":"present","rt":760.89999997616,"correct":true,"confidence":-1},{"trial_n":18,"min":89,"max":166,"target":"absent","response":"absent","rt":802.30000001192,"correct":true,"confidence":-1},{"trial_n":19,"min":97,"max":158,"target":"present","response":"absent","rt":605.5,"correct":false,"confidence":-1},{"trial_n":20,"min":89,"max":166,"target":"present","response":"absent","rt":905.20000001788,"correct":false,"confidence":-1},{"trial_n":21,"min":85,"max":170,"target":"absent","response":"absent","rt":793.10000002384,"correct":true,"confidence":3},{"trial_n":22,"min":85,"max":170,"target":"present","response":"present","rt":1185.2000000179,"correct":true,"confidence":4},{"trial_n":23,"min":89,"max":166,"target":"present","response":"absent","rt":875.40000000596,"correct":false,"confidence":2},{"trial_n":24,"min":85,"max":170,"target":"present","response":"absent","rt":1498.1999999881,"correct":false,"confidence":3},{"trial_n":25,"min":81,"max":174,"target":"absent","response":"present","rt":1314,"correct":false,"confidence":3},{"trial_n":26,"min":77,"max":178,"target":"present","response":"present","rt":782.39999997616,"correct":true,"confidence":4},{"trial_n":27,"min":77,"max":178,"target":"absent","response":"present","rt":2342.400000006,"correct":false,"confidence":3},{"trial_n":28,"min":73,"max":182,"target":"present","response":"present","rt":908.80000001192,"correct":true,"confidence":4},{"trial_n":29,"min":73,"max":182,"target":"absent","response":"absent","rt":917.59999999404,"correct":true,"confidence":3},{"trial_n":30,"min":77,"max":178,"target":"absent","response":"absent","rt":1084,"correct":true,"confidence":2},{"trial_n":31,"min":77,"max":178,"target":"present","response":"present","rt":729.5,"correct":true,"confidence":4},{"trial_n":32,"min":79,"max":176,"target":"present","response":"present","rt":2338,"correct":true,"confidence":3},{"trial_n":33,"min":79,"max":176,"target":"absent","response":"absent","rt":774.5,"correct":true,"confidence":3},{"trial_n":34,"min":81,"max":174,"target":"absent","response":"absent","rt":2119.400000006,"correct":true,"confidence":1},{"trial_n":35,"min":81,"max":174,"target":"absent","response":"present","rt":2061.5,"correct":false,"confidence":2},{"trial_n":36,"min":79,"max":176,"target":"present","response":"present","rt":731.80000001192,"correct":true,"confidence":4},{"trial_n":37,"min":79,"max":176,"target":"absent","response":"absent","rt":1507.8999999762,"correct":true,"confidence":2},{"trial_n":38,"min":81,"max":174,"target":"present","response":"present","rt":696.89999997616,"correct":true,"confidence":4},{"trial_n":39,"min":81,"max":174,"target":"absent","response":"absent","rt":1188.099999994,"correct":true,"confidence":2},{"trial_n":40,"min":83,"max":172,"target":"absent","response":"absent","rt":899.40000000596,"correct":true,"confidence":2},{"trial_n":41,"min":83,"max":172,"target":"present","response":"present","rt":698.60000002384,"correct":true,"confidence":4},{"trial_n":42,"min":84,"max":171,"target":"present","response":"present","rt":764.70000001788,"correct":true,"confidence":4},{"trial_n":43,"min":84,"max":171,"target":"absent","response":"absent","rt":1046.5,"correct":true,"confidence":4},{"trial_n":44,"min":85,"max":170,"target":"present","response":"present","rt":816.70000001788,"correct":true,"confidence":3},{"trial_n":45,"min":85,"max":170,"target":"present","response":"absent","rt":1369.599999994,"correct":false,"confidence":2},{"trial_n":46,"min":84,"max":171,"target":"present","response":"present","rt":848.5,"correct":true,"confidence":3},{"trial_n":47,"min":84,"max":171,"target":"absent","response":"absent","rt":814.30000001192,"correct":true,"confidence":3},{"trial_n":48,"min":85,"max":170,"target":"absent","response":"absent","rt":1042.400000006,"correct":true,"confidence":2},{"trial_n":49,"min":85,"max":170,"target":"absent","response":"absent","rt":1520,"correct":true,"confidence":2},{"trial_n":50,"min":86,"max":169,"target":"absent","response":"present","rt":655.29999998212,"correct":false,"confidence":3},{"trial_n":51,"min":85,"max":170,"target":"present","response":"present","rt":1223.400000006,"correct":true,"confidence":3},{"trial_n":52,"min":85,"max":170,"target":"present","response":"absent","rt":717.89999997616,"correct":false,"confidence":3},{"trial_n":53,"min":84,"max":171,"target":"absent","response":"absent","rt":711.79999998212,"correct":true,"confidence":3},{"trial_n":54,"min":84,"max":171,"target":"present","response":"absent","rt":716.89999997616,"correct":false,"confidence":2},{"trial_n":55,"min":83,"max":172,"target":"absent","response":"absent","rt":1484.8000000119,"correct":true,"confidence":1},{"trial_n":56,"min":83,"max":172,"target":"present","response":"present","rt":1030.7999999821,"correct":true,"confidence":3},{"trial_n":57,"min":84,"max":171,"target":"present","response":"absent","rt":1018.6999999881,"correct":false,"confidence":2},{"trial_n":58,"min":83,"max":172,"target":"present","response":"present","rt":1513.1000000238,"correct":true,"confidence":3},{"trial_n":59,"min":83,"max":172,"target":"present","response":"absent","rt":2057.8000000119,"correct":false,"confidence":2},{"trial_n":60,"min":82,"max":173,"target":"absent","response":"absent","rt":844.59999999404,"correct":true,"confidence":1},{"trial_n":61,"min":82,"max":173,"target":"absent","response":"absent","rt":746.60000002384,"correct":true,"confidence":1},{"trial_n":62,"min":83,"max":172,"target":"present","response":"absent","rt":969.19999998808,"correct":false,"confidence":3},{"trial_n":63,"min":82,"max":173,"target":"present","response":"present","rt":854.80000001192,"correct":true,"confidence":4},{"trial_n":64,"min":82,"max":173,"target":"absent","response":"absent","rt":1030.8000000119,"correct":true,"confidence":3},{"trial_n":65,"min":83,"max":172,"target":"absent","response":"absent","rt":1126.8999999762,"correct":true,"confidence":2},{"trial_n":66,"min":83,"max":172,"target":"present","response":"present","rt":1244.5,"correct":true,"confidence":2},{"trial_n":67,"min":84,"max":171,"target":"absent","response":"absent","rt":1451.7999999821,"correct":true,"confidence":2},{"trial_n":68,"min":84,"max":171,"target":"absent","response":"absent","rt":1195.2999999821,"correct":true,"confidence":1},{"trial_n":69,"min":85,"max":170,"target":"absent","response":"absent","rt":1274.3000000119,"correct":true,"confidence":1},{"trial_n":70,"min":85,"max":170,"target":"present","response":"present","rt":1635.400000006,"correct":true,"confidence":4},{"trial_n":71,"min":41,"max":214,"target":"present","response":"present","rt":1489.599999994,"correct":true,"confidence":-1},{"trial_n":72,"min":41,"max":214,"target":"present","response":"present","rt":985.69999998808,"correct":true,"confidence":-1},{"trial_n":73,"min":57,"max":198,"target":"absent","response":"absent","rt":2571.7999999821,"correct":true,"confidence":-1},{"trial_n":74,"min":57,"max":198,"target":"absent","response":"present","rt":1591.900000006,"correct":false,"confidence":-1},{"trial_n":75,"min":41,"max":214,"target":"present","response":"present","rt":863.09999999404,"correct":true,"confidence":-1},{"trial_n":76,"min":41,"max":214,"target":"present","response":"present","rt":1069.2999999821,"correct":true,"confidence":-1},{"trial_n":77,"min":57,"max":198,"target":"present","response":"present","rt":652.90000000596,"correct":true,"confidence":-1},{"trial_n":78,"min":57,"max":198,"target":"present","response":"present","rt":691.5,"correct":true,"confidence":-1},{"trial_n":79,"min":73,"max":182,"target":"absent","response":"absent","rt":1122.6999999881,"correct":true,"confidence":-1},{"trial_n":80,"min":73,"max":182,"target":"absent","response":"present","rt":1579.599999994,"correct":false,"confidence":-1},{"trial_n":81,"min":65,"max":190,"target":"absent","response":"absent","rt":1628.1999999881,"correct":true,"confidence":-1},{"trial_n":82,"min":65,"max":190,"target":"present","response":"present","rt":1033.099999994,"correct":true,"confidence":-1},{"trial_n":83,"min":73,"max":182,"target":"present","response":"present","rt":3596.400000006,"correct":true,"confidence":-1},{"trial_n":84,"min":73,"max":182,"target":"absent","response":"present","rt":826.59999999404,"correct":false,"confidence":-1},{"trial_n":85,"min":65,"max":190,"target":"present","response":"present","rt":1816.400000006,"correct":true,"confidence":-1},{"trial_n":86,"min":65,"max":190,"target":"absent","response":"absent","rt":312.30000001192,"correct":true,"confidence":-1},{"trial_n":87,"min":73,"max":182,"target":"present","response":"present","rt":521.59999999404,"correct":true,"confidence":-1},{"trial_n":88,"min":73,"max":182,"target":"absent","response":"absent","rt":223.30000001192,"correct":true,"confidence":-1},{"trial_n":89,"min":81,"max":174,"target":"absent","response":"absent","rt":590.70000001788,"correct":true,"confidence":-1},{"trial_n":90,"min":81,"max":174,"target":"absent","response":"absent","rt":1470.5,"correct":true,"confidence":-1},{"trial_n":91,"min":85,"max":170,"target":"present","response":"present","rt":426.69999998808,"correct":true,"confidence":2},{"trial_n":92,"min":85,"max":170,"target":"absent","response":"present","rt":1038.1999999881,"correct":false,"confidence":1},{"trial_n":93,"min":81,"max":174,"target":"absent","response":"present","rt":936.59999999404,"correct":false,"confidence":3},{"trial_n":94,"min":77,"max":178,"target":"present","response":"present","rt":582.09999999404,"correct":true,"confidence":4},{"trial_n":95,"min":77,"max":178,"target":"absent","response":"absent","rt":1453.6000000238,"correct":true,"confidence":1},{"trial_n":96,"min":81,"max":174,"target":"present","response":"present","rt":1577.099999994,"correct":true,"confidence":1},{"trial_n":97,"min":81,"max":174,"target":"absent","response":"absent","rt":1018.2999999821,"correct":true,"confidence":2},{"trial_n":98,"min":85,"max":170,"target":"present","response":"present","rt":655.19999998808,"correct":true,"confidence":4},{"trial_n":99,"min":85,"max":170,"target":"present","response":"present","rt":583,"correct":true,"confidence":3},{"trial_n":100,"min":89,"max":166,"target":"absent","response":"present","rt":431.20000001788,"correct":false,"confidence":3},{"trial_n":101,"min":87,"max":168,"target":"present","response":"present","rt":594.80000001192,"correct":true,"confidence":3},{"trial_n":102,"min":87,"max":168,"target":"present","response":"present","rt":596.10000002384,"correct":true,"confidence":3},{"trial_n":103,"min":89,"max":166,"target":"absent","response":"absent","rt":1005.599999994,"correct":true,"confidence":2},{"trial_n":104,"min":89,"max":166,"target":"absent","response":"present","rt":1327.099999994,"correct":false,"confidence":1},{"trial_n":105,"min":87,"max":168,"target":"absent","response":"absent","rt":1539.3999999762,"correct":true,"confidence":3},{"trial_n":106,"min":87,"max":168,"target":"present","response":"present","rt":1596.5,"correct":true,"confidence":3},{"trial_n":107,"min":89,"max":166,"target":"present","response":"present","rt":488.19999998808,"correct":true,"confidence":3},{"trial_n":108,"min":89,"max":166,"target":"present","response":"present","rt":329.30000001192,"correct":true,"confidence":3},{"trial_n":109,"min":91,"max":164,"target":"present","response":"absent","rt":568.89999997616,"correct":false,"confidence":2},{"trial_n":110,"min":89,"max":166,"target":"absent","response":"absent","rt":1461.599999994,"correct":true,"confidence":1},{"trial_n":111,"min":89,"max":166,"target":"absent","response":"absent","rt":851.19999998808,"correct":true,"confidence":3},{"trial_n":112,"min":90,"max":165,"target":"present","response":"absent","rt":286,"correct":false,"confidence":1},{"trial_n":113,"min":89,"max":166,"target":"absent","response":"absent","rt":1081.6999999881,"correct":true,"confidence":3},{"trial_n":114,"min":89,"max":166,"target":"absent","response":"present","rt":452.19999998808,"correct":false,"confidence":2},{"trial_n":115,"min":88,"max":167,"target":"absent","response":"absent","rt":1196.7000000179,"correct":true,"confidence":2},{"trial_n":116,"min":88,"max":167,"target":"absent","response":"present","rt":1140.6999999881,"correct":false,"confidence":2},{"trial_n":117,"min":87,"max":168,"target":"absent","response":"absent","rt":2623.900000006,"correct":true,"confidence":1},{"trial_n":118,"min":87,"max":168,"target":"absent","response":"present","rt":562.09999999404,"correct":false,"confidence":2},{"trial_n":119,"min":86,"max":169,"target":"present","response":"present","rt":575.19999998808,"correct":true,"confidence":2},{"trial_n":120,"min":86,"max":169,"target":"present","response":"present","rt":514.70000001788,"correct":true,"confidence":3},{"trial_n":121,"min":87,"max":168,"target":"present","response":"present","rt":345.19999998808,"correct":true,"confidence":4},{"trial_n":122,"min":87,"max":168,"target":"present","response":"present","rt":339.80000001192,"correct":true,"confidence":4},{"trial_n":123,"min":88,"max":167,"target":"present","response":"present","rt":268.90000000596,"correct":true,"confidence":4},{"trial_n":124,"min":88,"max":167,"target":"present","response":"present","rt":1199.1999999881,"correct":true,"confidence":3},{"trial_n":125,"min":89,"max":166,"target":"absent","response":"absent","rt":797.40000000596,"correct":true,"confidence":2},{"trial_n":126,"min":89,"max":166,"target":"present","response":"present","rt":679.10000002384,"correct":true,"confidence":3},{"trial_n":127,"min":90,"max":165,"target":"absent","response":"absent","rt":716.20000001788,"correct":true,"confidence":3},{"trial_n":128,"min":90,"max":165,"target":"absent","response":"absent","rt":579.20000001788,"correct":true,"confidence":2},{"trial_n":129,"min":91,"max":164,"target":"present","response":"present","rt":395.5,"correct":true,"confidence":3},{"trial_n":130,"min":91,"max":164,"target":"absent","response":"absent","rt":802.40000000596,"correct":true,"confidence":3},{"trial_n":131,"min":92,"max":163,"target":"absent","response":"absent","rt":1142.1999999881,"correct":true,"confidence":2},{"trial_n":132,"min":92,"max":163,"target":"present","response":"absent","rt":1260,"correct":false,"confidence":1},{"trial_n":133,"min":91,"max":164,"target":"present","response":"present","rt":283.59999999404,"correct":true,"confidence":4},{"trial_n":134,"min":91,"max":164,"target":"absent","response":"present","rt":479.40000000596,"correct":false,"confidence":3},{"trial_n":135,"min":90,"max":165,"target":"present","response":"present","rt":362.90000000596,"correct":true,"confidence":3},{"trial_n":136,"min":90,"max":165,"target":"present","response":"present","rt":677.29999998212,"correct":true,"confidence":3},{"trial_n":137,"min":91,"max":164,"target":"absent","response":"present","rt":1602.5,"correct":false,"confidence":2},{"trial_n":138,"min":90,"max":165,"target":"present","response":"present","rt":365.09999999404,"correct":true,"confidence":3},{"trial_n":139,"min":90,"max":165,"target":"absent","response":"absent","rt":482.60000002384,"correct":true,"confidence":2},{"trial_n":140,"min":91,"max":164,"target":"present","response":"present","rt":1743.7999999821,"correct":true,"confidence":2}]