[{"trial_n":1,"min":25,"max":230,"target":"present","response":"present","rt":9618.6000000238,"correct":true,"confidence":-1},{"trial_n":2,"min":25,"max":230,"target":"present","response":"present","rt":2609.4000000358,"correct":true,"confidence":-1},{"trial_n":3,"min":41,"max":214,"target":"absent","response":"present","rt":1053,"correct":false,"confidence":-1},{"trial_n":4,"min":25,"max":230,"target":"absent","response":"present","rt":1999.9000000358,"correct":false,"confidence":-1},{"trial_n":5,"min":9,"max":246,"target":"present","response":"present","rt":3392.4000000358,"correct":true,"confidence":-1},{"trial_n":6,"min":9,"max":246,"target":"absent","response":"present","rt":5716.5,"correct":false,"confidence":-1},{"trial_n":7,"min":0,"max":255,"target":"absent","response":"present","rt":33054,"correct":false,"confidence":-1},{"trial_n":8,"min":0,"max":255,"target":"absent","response":"present","rt":5392,"correct":false,"confidence":-1},{"trial_n":9,"min":0,"max":255,"target":"absent","response":"absent","rt":1669.9000000358,"correct":true,"confidence":-1},{"trial_n":10,"min":0,"max":255,"target":"absent","response":"present","rt":2296.8999999762,"correct":false,"confidence":-1},{"trial_n":11,"min":0,"max":255,"target":"absent","response":"absent","rt":2955.1999999881,"correct":true,"confidence":-1},{"trial_n":12,"min":0,"max":255,"target":"present","response":"present","rt":1026.8999999762,"correct":true,"confidence":-1},{"trial_n":13,"min":8,"max":247,"target":"present","response":"present","rt":961.19999998808,"correct":true,"confidence":-1},{"trial_n":14,"min":8,"max":247,"target":"present","response":"present","rt":478.39999997616,"correct":true,"confidence":-1},{"trial_n":15,"min":16,"max":239,"target":"present","response":"present","rt":640.69999998808,"correct":true,"confidence":-1},{"trial_n":16,"min":16,"max":239,"target":"absent","response":"absent","rt":432.60000002384,"correct":true,"confidence":-1},{"trial_n":17,"min":24,"max":231,"target":"present","response":"absent","rt":543.19999998808,"correct":false,"confidence":-1},{"trial_n":18,"min":16,"max":239,"target":"absent","response":"absent","rt":2306,"correct":true,"confidence":-1},{"trial_n":19,"min":16,"max":239,"target":"absent","response":"absent","rt":7728.2999999523,"correct":true,"confidence":-1},{"trial_n":20,"min":24,"max":231,"target":"absent","response":"absent","rt":829.80000001192,"correct":true,"confidence":-1},{"trial_n":21,"min":24,"max":231,"target":"absent","response":"absent","rt":1466.9000000358,"correct":true,"confidence":2},{"trial_n":22,"min":28,"max":227,"target":"present","response":"present","rt":1944.6000000238,"correct":true,"confidence":5},{"trial_n":23,"min":28,"max":227,"target":"present","response":"present","rt":854.69999998808,"correct":true,"confidence":5},{"trial_n":24,"min":32,"max":223,"target":"absent","response":"absent","rt":1164.3000000119,"correct":true,"confidence":4},{"trial_n":25,"min":32,"max":223,"target":"absent","response":"present","rt":2952.5,"correct":false,"confidence":2},{"trial_n":26,"min":28,"max":227,"target":"present","response":"present","rt":679.39999997616,"correct":true,"confidence":5},{"trial_n":27,"min":28,"max":227,"target":"absent","response":"absent","rt":1205.3000000119,"correct":true,"confidence":3},{"trial_n":28,"min":32,"max":223,"target":"present","response":"absent","rt":1137.4000000358,"correct":false,"confidence":3},{"trial_n":29,"min":28,"max":227,"target":"present","response":"present","rt":797.19999998808,"correct":true,"confidence":3},{"trial_n":30,"min":28,"max":227,"target":"absent","response":"absent","rt":2244.2999999523,"correct":true,"confidence":3},{"trial_n":31,"min":30,"max":225,"target":"present","response":"present","rt":5037.7000000477,"correct":true,"confidence":2},{"trial_n":32,"min":30,"max":225,"target":"present","response":"present","rt":10351,"correct":true,"confidence":1},{"trial_n":33,"min":32,"max":223,"target":"absent","response":"absent","rt":5190.9000000358,"correct":true,"confidence":2},{"trial_n":34,"min":32,"max":223,"target":"absent","response":"present","rt":1142.6000000238,"correct":false,"confidence":3},{"trial_n":35,"min":30,"max":225,"target":"present","response":"present","rt":931.69999998808,"correct":true,"confidence":5},{"trial_n":36,"min":30,"max":225,"target":"present","response":"present","rt":931.89999997616,"correct":true,"confidence":5},{"trial_n":37,"min":32,"max":223,"target":"absent","response":"absent","rt":1777.8999999762,"correct":true,"confidence":3},{"trial_n":38,"min":32,"max":223,"target":"absent","response":"absent","rt":1272.5999999642,"correct":true,"confidence":3},{"trial_n":39,"min":34,"max":221,"target":"present","response":"present","rt":996.69999998808,"correct":true,"confidence":4},{"trial_n":40,"min":34,"max":221,"target":"absent","response":"absent","rt":1938.9000000358,"correct":true,"confidence":1},{"trial_n":41,"min":35,"max":220,"target":"present","response":"present","rt":1449.8999999762,"correct":true,"confidence":5},{"trial_n":42,"min":35,"max":220,"target":"absent","response":"absent","rt":1419.2000000477,"correct":true,"confidence":3},{"trial_n":43,"min":36,"max":219,"target":"present","response":"present","rt":1261.1999999881,"correct":true,"confidence":3},{"trial_n":44,"min":36,"max":219,"target":"present","response":"present","rt":935.09999996424,"correct":true,"confidence":4},{"trial_n":45,"min":37,"max":218,"target":"present","response":"present","rt":847.70000004768,"correct":true,"confidence":5},{"trial_n":46,"min":37,"max":218,"target":"present","response":"present","rt":830.59999996424,"correct":true,"confidence":5},{"trial_n":47,"min":38,"max":217,"target":"absent","response":"present","rt":2587.3999999762,"correct":false,"confidence":3},{"trial_n":48,"min":37,"max":218,"target":"absent","response":"absent","rt":968.89999997616,"correct":true,"confidence":4},{"trial_n":49,"min":37,"max":218,"target":"absent","response":"absent","rt":840.69999998808,"correct":true,"confidence":4},{"trial_n":50,"min":38,"max":217,"target":"present","response":"present","rt":912.30000001192,"correct":true,"confidence":4},{"trial_n":51,"min":38,"max":217,"target":"absent","response":"absent","rt":1990.6000000238,"correct":true,"confidence":5},{"trial_n":52,"min":39,"max":216,"target":"present","response":"present","rt":850.10000002384,"correct":true,"confidence":5},{"trial_n":53,"min":39,"max":216,"target":"present","response":"absent","rt":1112.1000000238,"correct":false,"confidence":3},{"trial_n":54,"min":38,"max":217,"target":"absent","response":"absent","rt":916.19999998808,"correct":true,"confidence":5},{"trial_n":55,"min":38,"max":217,"target":"absent","response":"absent","rt":838.5,"correct":true,"confidence":5},{"trial_n":56,"min":39,"max":216,"target":"absent","response":"absent","rt":1670.8999999762,"correct":true,"confidence":4},{"trial_n":57,"min":39,"max":216,"target":"present","response":"present","rt":1279,"correct":true,"confidence":5},{"trial_n":58,"min":40,"max":215,"target":"present","response":"present","rt":963.30000001192,"correct":true,"confidence":4},{"trial_n":59,"min":40,"max":215,"target":"present","response":"absent","rt":5748.5,"correct":false,"confidence":3},{"trial_n":60,"min":39,"max":216,"target":"absent","response":"present","rt":1288.5,"correct":false,"confidence":4},{"trial_n":61,"min":38,"max":217,"target":"absent","response":"absent","rt":1217.3999999762,"correct":true,"confidence":4},{"trial_n":62,"min":38,"max":217,"target":"present","response":"present","rt":981.5,"correct":true,"confidence":5},{"trial_n":63,"min":39,"max":216,"target":"present","response":"absent","rt":1929.3000000119,"correct":false,"confidence":3},{"trial_n":64,"min":38,"max":217,"target":"present","response":"absent","rt":4447.4000000358,"correct":false,"confidence":2},{"trial_n":65,"min":37,"max":218,"target":"present","response":"present","rt":951,"correct":true,"confidence":5},{"trial_n":66,"min":37,"max":218,"target":"present","response":"absent","rt":1013.1999999881,"correct":false,"confidence":3},{"trial_n":67,"min":36,"max":219,"target":"present","response":"present","rt":1029.6999999881,"correct":true,"confidence":5},{"trial_n":68,"min":36,"max":219,"target":"absent","response":"absent","rt":1520.6999999881,"correct":true,"confidence":3},{"trial_n":69,"min":37,"max":218,"target":"absent","response":"absent","rt":1438,"correct":true,"confidence":4},{"trial_n":70,"min":37,"max":218,"target":"present","response":"absent","rt":1060.3000000119,"correct":false,"confidence":5},{"trial_n":71,"min":41,"max":214,"target":"present","response":"present","rt":7843.5,"correct":true,"confidence":-1},{"trial_n":72,"min":41,"max":214,"target":"present","response":"present","rt":902.20000004768,"correct":true,"confidence":-1},{"trial_n":73,"min":57,"max":198,"target":"absent","response":"absent","rt":1136.7999999523,"correct":true,"confidence":-1},{"trial_n":74,"min":57,"max":198,"target":"absent","response":"absent","rt":1743.8000000119,"correct":true,"confidence":-1},{"trial_n":75,"min":73,"max":182,"target":"present","response":"present","rt":1572,"correct":true,"confidence":-1},{"trial_n":76,"min":73,"max":182,"target":"present","response":"present","rt":1011.5999999642,"correct":true,"confidence":-1},{"trial_n":77,"min":89,"max":166,"target":"absent","response":"present","rt":1240.0999999642,"correct":false,"confidence":-1},{"trial_n":78,"min":73,"max":182,"target":"present","response":"present","rt":645.5,"correct":true,"confidence":-1},{"trial_n":79,"min":73,"max":182,"target":"absent","response":"absent","rt":2236,"correct":true,"confidence":-1},{"trial_n":80,"min":89,"max":166,"target":"present","response":"present","rt":1088.1999999881,"correct":true,"confidence":-1},{"trial_n":81,"min":89,"max":166,"target":"absent","response":"present","rt":1305.5,"correct":false,"confidence":-1},{"trial_n":82,"min":81,"max":174,"target":"present","response":"present","rt":786.60000002384,"correct":true,"confidence":-1},{"trial_n":83,"min":81,"max":174,"target":"present","response":"present","rt":1387.8999999762,"correct":true,"confidence":-1},{"trial_n":84,"min":89,"max":166,"target":"absent","response":"present","rt":1096.2999999523,"correct":false,"confidence":-1},{"trial_n":85,"min":81,"max":174,"target":"present","response":"present","rt":937.10000002384,"correct":true,"confidence":-1},{"trial_n":86,"min":81,"max":174,"target":"absent","response":"absent","rt":2028.5999999642,"correct":true,"confidence":-1},{"trial_n":87,"min":89,"max":166,"target":"absent","response":"absent","rt":1210.8000000119,"correct":true,"confidence":-1},{"trial_n":88,"min":89,"max":166,"target":"absent","response":"present","rt":1440,"correct":false,"confidence":-1},{"trial_n":89,"min":81,"max":174,"target":"absent","response":"present","rt":1832.4000000358,"correct":false,"confidence":-1},{"trial_n":90,"min":73,"max":182,"target":"present","response":"absent","rt":1469.3000000119,"correct":false,"confidence":-1},{"trial_n":91,"min":69,"max":186,"target":"absent","response":"present","rt":1607.8000000119,"correct":false,"confidence":1},{"trial_n":92,"min":65,"max":190,"target":"absent","response":"present","rt":1388.3000000119,"correct":false,"confidence":1},{"trial_n":93,"min":61,"max":194,"target":"present","response":"present","rt":1032,"correct":true,"confidence":5},{"trial_n":94,"min":61,"max":194,"target":"present","response":"present","rt":656.19999998808,"correct":true,"confidence":5},{"trial_n":95,"min":65,"max":190,"target":"absent","response":"absent","rt":1268.8000000119,"correct":true,"confidence":5},{"trial_n":96,"min":65,"max":190,"target":"present","response":"absent","rt":2610.0999999642,"correct":false,"confidence":1},{"trial_n":97,"min":61,"max":194,"target":"absent","response":"absent","rt":821.69999998808,"correct":true,"confidence":5},{"trial_n":98,"min":61,"max":194,"target":"present","response":"present","rt":773.70000004768,"correct":true,"confidence":5},{"trial_n":99,"min":65,"max":190,"target":"present","response":"present","rt":2146.8000000119,"correct":true,"confidence":5},{"trial_n":100,"min":65,"max":190,"target":"absent","response":"absent","rt":965.60000002384,"correct":true,"confidence":5},{"trial_n":101,"min":67,"max":188,"target":"absent","response":"present","rt":1215.6000000238,"correct":false,"confidence":1},{"trial_n":102,"min":65,"max":190,"target":"present","response":"present","rt":802.30000001192,"correct":true,"confidence":5},{"trial_n":103,"min":65,"max":190,"target":"absent","response":"present","rt":1639.3999999762,"correct":false,"confidence":1},{"trial_n":104,"min":63,"max":192,"target":"absent","response":"absent","rt":1023.3000000119,"correct":true,"confidence":5},{"trial_n":105,"min":63,"max":192,"target":"absent","response":"absent","rt":1709.6000000238,"correct":true,"confidence":5},{"trial_n":106,"min":65,"max":190,"target":"present","response":"present","rt":823.60000002384,"correct":true,"confidence":5},{"trial_n":107,"min":65,"max":190,"target":"absent","response":"absent","rt":1460.3000000119,"correct":true,"confidence":5},{"trial_n":108,"min":67,"max":188,"target":"present","response":"present","rt":1257.1999999881,"correct":true,"confidence":2},{"trial_n":109,"min":67,"max":188,"target":"present","response":"present","rt":1594,"correct":true,"confidence":1},{"trial_n":110,"min":69,"max":186,"target":"absent","response":"present","rt":1485.6000000238,"correct":false,"confidence":1},{"trial_n":111,"min":68,"max":187,"target":"absent","response":"absent","rt":1037.5999999642,"correct":true,"confidence":1},{"trial_n":112,"min":68,"max":187,"target":"present","response":"absent","rt":1423.9000000358,"correct":false,"confidence":2},{"trial_n":113,"min":67,"max":188,"target":"absent","response":"present","rt":1640.9000000358,"correct":false,"confidence":1},{"trial_n":114,"min":66,"max":189,"target":"present","response":"present","rt":670.5,"correct":true,"confidence":5},{"trial_n":115,"min":66,"max":189,"target":"present","response":"present","rt":1341.0999999642,"correct":true,"confidence":5},{"trial_n":116,"min":67,"max":188,"target":"absent","response":"absent","rt":1621.6999999881,"correct":true,"confidence":2},{"trial_n":117,"min":67,"max":188,"target":"present","response":"present","rt":1404.9000000358,"correct":true,"confidence":1},{"trial_n":118,"min":68,"max":187,"target":"absent","response":"present","rt":1468.0999999642,"correct":false,"confidence":1},{"trial_n":119,"min":67,"max":188,"target":"present","response":"absent","rt":4053.1000000238,"correct":false,"confidence":1},{"trial_n":120,"min":66,"max":189,"target":"present","response":"present","rt":901.19999998808,"correct":true,"confidence":5},{"trial_n":121,"min":66,"max":189,"target":"absent","response":"present","rt":1164.0999999642,"correct":false,"confidence":1},{"trial_n":122,"min":65,"max":190,"target":"present","response":"present","rt":2484.8000000119,"correct":true,"confidence":1},{"trial_n":123,"min":65,"max":190,"target":"absent","response":"absent","rt":1773.8000000119,"correct":true,"confidence":1},{"trial_n":124,"min":66,"max":189,"target":"absent","response":"present","rt":2101.8999999762,"correct":false,"confidence":3},{"trial_n":125,"min":65,"max":190,"target":"present","response":"present","rt":1303.7999999523,"correct":true,"confidence":1},{"trial_n":126,"min":65,"max":190,"target":"absent","response":"present","rt":3136.2999999523,"correct":false,"confidence":3},{"trial_n":127,"min":64,"max":191,"target":"absent","response":"absent","rt":954.69999998808,"correct":true,"confidence":2},{"trial_n":128,"min":64,"max":191,"target":"present","response":"present","rt":992.80000001192,"correct":true,"confidence":2},{"trial_n":129,"min":65,"max":190,"target":"present","response":"present","rt":742.29999995232,"correct":true,"confidence":5},{"trial_n":130,"min":65,"max":190,"target":"present","response":"absent","rt":1734.8999999762,"correct":false,"confidence":3},{"trial_n":131,"min":64,"max":191,"target":"absent","response":"present","rt":1212.5999999642,"correct":false,"confidence":3},{"trial_n":132,"min":63,"max":192,"target":"present","response":"present","rt":1974.6999999881,"correct":true,"confidence":2},{"trial_n":133,"min":63,"max":192,"target":"absent","response":"absent","rt":1800.3000000119,"correct":true,"confidence":3},{"trial_n":134,"min":64,"max":191,"target":"present","response":"present","rt":3335,"correct":true,"confidence":5},{"trial_n":135,"min":64,"max":191,"target":"present","response":"present","rt":1596.7999999523,"correct":true,"confidence":5},{"trial_n":136,"min":65,"max":190,"target":"absent","response":"absent","rt":1034.6999999881,"correct":true,"confidence":5},{"trial_n":137,"min":65,"max":190,"target":"present","response":"absent","rt":959.5,"correct":false,"confidence":5},{"trial_n":138,"min":64,"max":191,"target":"present","response":"present","rt":2129.6999999881,"correct":true,"confidence":5},{"trial_n":139,"min":64,"max":191,"target":"absent","response":"absent","rt":1822,"correct":true,"confidence":3},{"trial_n":140,"min":65,"max":190,"target":"present","response":"present","rt":1599.5,"correct":true,"confidence":3}]