[{"trial_n":1,"span":8,"encoder":"49594107","distractor":"49595107","target":"present","response":"present","rt":"3428","correct":true,"confidence":-1},{"trial_n":2,"span":8,"encoder":"57053494","distractor":"57053404","target":"present","response":"present","rt":"2355.5999999642","correct":true,"confidence":-1},{"trial_n":3,"span":10,"encoder":"7884205178","distractor":"7883205178","target":"absent","response":"absent","rt":"1814.3000000119","correct":true,"confidence":-1},{"trial_n":4,"span":10,"encoder":"1218732509","distractor":"1718732509","target":"absent","response":"present","rt":"3378.6999999881","correct":false,"confidence":-1},{"trial_n":5,"span":8,"encoder":"77459632","distractor":"77455632","target":"present","response":"present","rt":"2591.1999999881","correct":true,"confidence":-1},{"trial_n":6,"span":8,"encoder":"59368384","distractor":"59368389","target":"present","response":"absent","rt":"2721.5","correct":false,"confidence":-1},{"trial_n":7,"span":6,"encoder":"642967","distractor":"442967","target":"present","response":"present","rt":"1850.3000000119","correct":true,"confidence":-1},{"trial_n":8,"span":6,"encoder":"187747","distractor":"187777","target":"present","response":"present","rt":"1892.5","correct":true,"confidence":-1},{"trial_n":9,"span":8,"encoder":"72619220","distractor":"72619230","target":"absent","response":"present","rt":"271692.5","correct":false,"confidence":-1},{"trial_n":10,"span":6,"encoder":"775177","distractor":"771177","target":"present","response":"present","rt":"1203.1000000238","correct":true,"confidence":-1},{"trial_n":11,"span":6,"encoder":"187927","distractor":"187827","target":"absent","response":"absent","rt":"2742.8000000119","correct":true,"confidence":-1},{"trial_n":12,"span":7,"encoder":"9778896","distractor":"9778796","target":"present","response":"present","rt":"1901.9000000358","correct":true,"confidence":-1},{"trial_n":13,"span":7,"encoder":"6295156","distractor":"6293156","target":"absent","response":"absent","rt":"2504.5999999642","correct":true,"confidence":-1},{"trial_n":14,"span":8,"encoder":"23415895","distractor":"23015895","target":"absent","response":"absent","rt":"2092.6999999881","correct":true,"confidence":-1},{"trial_n":15,"span":8,"encoder":"24340074","distractor":"24440074","target":"absent","response":"present","rt":"1925.6999999881","correct":false,"confidence":-1},{"trial_n":16,"span":7,"encoder":"4868586","distractor":"4868686","target":"present","response":"present","rt":"1449.6000000238","correct":true,"confidence":-1},{"trial_n":17,"span":7,"encoder":"6029048","distractor":"6629048","target":"absent","response":"present","rt":"935.60000002384","correct":false,"confidence":-1},{"trial_n":18,"span":6,"encoder":"607737","distractor":"600737","target":"present","response":"present","rt":"1114.3999999762","correct":true,"confidence":-1},{"trial_n":19,"span":6,"encoder":"648523","distractor":"608523","target":"present","response":"present","rt":"2314.4000000358","correct":true,"confidence":-1},{"trial_n":20,"span":7,"encoder":"3642782","distractor":"3642982","target":"absent","response":"absent","rt":"3267.5","correct":true,"confidence":-1},{"trial_n":21,"span":7,"encoder":"0705780","distractor":"0725780","target":"absent","response":"absent","rt":"2174.8000000119","correct":true,"confidence":5},{"trial_n":22,"span":8,"encoder":"45165915","distractor":"40165915","target":"present","response":"present","rt":"3394","correct":true,"confidence":3},{"trial_n":23,"span":8,"encoder":"49689480","distractor":"49609480","target":"present","response":"absent","rt":"2748.6999999881","correct":false,"confidence":4},{"trial_n":24,"span":7,"encoder":"3970774","distractor":"3970974","target":"absent","response":"absent","rt":"2681","correct":true,"confidence":5},{"trial_n":25,"span":7,"encoder":"9744677","distractor":"9744617","target":"present","response":"present","rt":"2221.4000000358","correct":true,"confidence":5},{"trial_n":26,"span":8,"encoder":"88950227","distractor":"88950287","target":"present","response":"absent","rt":"4023.5","correct":false,"confidence":3},{"trial_n":27,"span":7,"encoder":"2003364","distractor":"2006364","target":"present","response":"present","rt":"2041","correct":true,"confidence":4},{"trial_n":28,"span":7,"encoder":"2639120","distractor":"2635120","target":"absent","response":"present","rt":"3236","correct":false,"confidence":4},{"trial_n":29,"span":6,"encoder":"545590","distractor":"546590","target":"absent","response":"absent","rt":"2041.3000000119","correct":true,"confidence":5},{"trial_n":30,"span":6,"encoder":"709009","distractor":"709005","target":"absent","response":"absent","rt":"2575.2999999523","correct":true,"confidence":5},{"trial_n":31,"span":7,"encoder":"6268937","distractor":"6278937","target":"present","response":"present","rt":"3444.8000000119","correct":true,"confidence":4},{"trial_n":32,"span":7,"encoder":"4517132","distractor":"4717132","target":"absent","response":"absent","rt":"1690.8000000119","correct":true,"confidence":5},{"trial_n":33,"span":8,"encoder":"61186355","distractor":"61182355","target":"present","response":"absent","rt":"3765.8000000119","correct":false,"confidence":3},{"trial_n":34,"span":7,"encoder":"7713005","distractor":"7713095","target":"present","response":"present","rt":"2456.6999999881","correct":true,"confidence":5},{"trial_n":35,"span":7,"encoder":"0694843","distractor":"1694843","target":"present","response":"present","rt":"1948","correct":true,"confidence":5},{"trial_n":36,"span":8,"encoder":"97560731","distractor":"47560731","target":"present","response":"present","rt":"5207.5","correct":true,"confidence":3},{"trial_n":37,"span":8,"encoder":"37204400","distractor":"37206400","target":"present","response":"absent","rt":"4498","correct":false,"confidence":3},{"trial_n":38,"span":7,"encoder":"9705831","distractor":"9785831","target":"absent","response":"absent","rt":"4360.6000000238","correct":true,"confidence":4},{"trial_n":39,"span":7,"encoder":"3078062","distractor":"3778062","target":"absent","response":"absent","rt":"2475.3000000119","correct":true,"confidence":5},{"trial_n":40,"span":8,"encoder":"48529513","distractor":"42529513","target":"absent","response":"absent","rt":"2650.6999999881","correct":true,"confidence":5},{"trial_n":41,"span":8,"encoder":"25101633","distractor":"25201633","target":"absent","response":"present","rt":"2729.8000000119","correct":false,"confidence":5},{"trial_n":42,"span":7,"encoder":"7930018","distractor":"7930318","target":"present","response":"present","rt":"1943.3999999762","correct":true,"confidence":4},{"trial_n":43,"span":7,"encoder":"0259018","distractor":"0289018","target":"absent","response":"present","rt":"2964","correct":false,"confidence":3},{"trial_n":44,"span":6,"encoder":"602494","distractor":"602594","target":"present","response":"present","rt":"2707.0999999642","correct":true,"confidence":3},{"trial_n":45,"span":6,"encoder":"242734","distractor":"242334","target":"present","response":"present","rt":"3335.8000000119","correct":true,"confidence":5},{"trial_n":46,"span":7,"encoder":"9596165","distractor":"1596165","target":"present","response":"present","rt":"2660.0999999642","correct":true,"confidence":5},{"trial_n":47,"span":7,"encoder":"7697581","distractor":"7497581","target":"present","response":"present","rt":"3463.5999999642","correct":true,"confidence":4},{"trial_n":48,"span":8,"encoder":"47136873","distractor":"97136873","target":"present","response":"present","rt":"1960.1999999881","correct":true,"confidence":4},{"trial_n":49,"span":8,"encoder":"70481622","distractor":"73481622","target":"present","response":"absent","rt":"6079.5999999642","correct":false,"confidence":3},{"trial_n":50,"span":7,"encoder":"9885816","distractor":"9885886","target":"present","response":"present","rt":"3109.8999999762","correct":true,"confidence":5},{"trial_n":51,"span":7,"encoder":"3928707","distractor":"3928747","target":"absent","response":"present","rt":"3712","correct":false,"confidence":4},{"trial_n":52,"span":6,"encoder":"211761","distractor":"211751","target":"absent","response":"absent","rt":"3268.1000000238","correct":true,"confidence":3},{"trial_n":53,"span":6,"encoder":"147856","distractor":"147456","target":"absent","response":"present","rt":"4719.3000000119","correct":false,"confidence":3},{"trial_n":54,"span":5,"encoder":"33516","distractor":"33536","target":"absent","response":"absent","rt":"2872.5","correct":true,"confidence":4},{"trial_n":55,"span":5,"encoder":"95002","distractor":"95072","target":"present","response":"present","rt":"1985.5","correct":true,"confidence":5},{"trial_n":56,"span":6,"encoder":"650670","distractor":"650678","target":"absent","response":"absent","rt":"2823.7000000477","correct":true,"confidence":4},{"trial_n":57,"span":6,"encoder":"943603","distractor":"343603","target":"absent","response":"present","rt":"4384.9000000358","correct":false,"confidence":3},{"trial_n":58,"span":5,"encoder":"16955","distractor":"26955","target":"present","response":"present","rt":"1405.5","correct":true,"confidence":5},{"trial_n":59,"span":5,"encoder":"63051","distractor":"62051","target":"absent","response":"absent","rt":"1814.3999999762","correct":true,"confidence":4},{"trial_n":60,"span":6,"encoder":"765780","distractor":"766780","target":"present","response":"present","rt":"2889.1000000238","correct":true,"confidence":4},{"trial_n":61,"span":6,"encoder":"752348","distractor":"752308","target":"present","response":"present","rt":"2002.5","correct":true,"confidence":4},{"trial_n":62,"span":7,"encoder":"3310166","distractor":"3310066","target":"absent","response":"present","rt":"1841.8000000119","correct":false,"confidence":5},{"trial_n":63,"span":6,"encoder":"331133","distractor":"331131","target":"absent","response":"absent","rt":"4003.3999999762","correct":true,"confidence":4},{"trial_n":64,"span":6,"encoder":"034716","distractor":"044716","target":"present","response":"present","rt":"2839.7000000477","correct":true,"confidence":5},{"trial_n":65,"span":7,"encoder":"4060524","distractor":"4000524","target":"absent","response":"present","rt":"3880.6999999881","correct":false,"confidence":3},{"trial_n":66,"span":6,"encoder":"305960","distractor":"305964","target":"absent","response":"absent","rt":"2151.3000000119","correct":true,"confidence":4},{"trial_n":67,"span":6,"encoder":"733727","distractor":"733787","target":"absent","response":"absent","rt":"2061.7999999523","correct":true,"confidence":4},{"trial_n":68,"span":7,"encoder":"5776088","distractor":"5776688","target":"present","response":"present","rt":"9210.5999999642","correct":true,"confidence":3},{"trial_n":69,"span":7,"encoder":"2174059","distractor":"2174359","target":"absent","response":"absent","rt":"2527.8000000119","correct":true,"confidence":5},{"trial_n":70,"span":8,"encoder":"72729352","distractor":"72729342","target":"absent","response":"absent","rt":"5628.1999999881","correct":true,"confidence":3},{"trial_n":71,"span":8,"encoder":"42661674","distractor":"42661672","target":"present","response":"present","rt":"5608.7000000477","correct":true,"confidence":-1},{"trial_n":72,"span":8,"encoder":"63137205","distractor":"63138205","target":"present","response":"present","rt":"2687.7999999523","correct":true,"confidence":-1},{"trial_n":73,"span":9,"encoder":"790141058","distractor":"790141052","target":"absent","response":"absent","rt":"3614.5","correct":true,"confidence":-1},{"trial_n":74,"span":9,"encoder":"507924344","distractor":"307924344","target":"absent","response":"present","rt":"4218.8999999762","correct":false,"confidence":-1},{"trial_n":75,"span":8,"encoder":"31139688","distractor":"30139688","target":"present","response":"present","rt":"5154.7000000477","correct":true,"confidence":-1},{"trial_n":76,"span":8,"encoder":"78601886","distractor":"79601886","target":"absent","response":"absent","rt":"2794.5","correct":true,"confidence":-1},{"trial_n":77,"span":9,"encoder":"539240973","distractor":"559240973","target":"absent","response":"absent","rt":"1899","correct":true,"confidence":-1},{"trial_n":78,"span":9,"encoder":"807347153","distractor":"207347153","target":"absent","response":"absent","rt":"2554.5","correct":true,"confidence":-1},{"trial_n":79,"span":10,"encoder":"9042700401","distractor":"9042710401","target":"present","response":"present","rt":"3626.7000000477","correct":true,"confidence":-1},{"trial_n":80,"span":10,"encoder":"8066752594","distractor":"8066752597","target":"present","response":"present","rt":"4078.3999999762","correct":true,"confidence":-1},{"trial_n":81,"span":11,"encoder":"30533721041","distractor":"00533721041","target":"absent","response":"absent","rt":"3691.3999999762","correct":true,"confidence":-1},{"trial_n":82,"span":11,"encoder":"65529196859","distractor":"65529196259","target":"absent","response":"present","rt":"6208.3999999762","correct":false,"confidence":-1},{"trial_n":83,"span":10,"encoder":"6323254442","distractor":"6321254442","target":"absent","response":"absent","rt":"3972.7000000477","correct":true,"confidence":-1},{"trial_n":84,"span":10,"encoder":"1828731910","distractor":"1868731910","target":"present","response":"absent","rt":"3224.5999999642","correct":false,"confidence":-1},{"trial_n":85,"span":9,"encoder":"071532569","distractor":"071522569","target":"present","response":"present","rt":"4891.6000000238","correct":true,"confidence":-1},{"trial_n":86,"span":9,"encoder":"778653209","distractor":"778673209","target":"absent","response":"absent","rt":"3130.4000000358","correct":true,"confidence":-1},{"trial_n":87,"span":10,"encoder":"2008385727","distractor":"2008385527","target":"present","response":"present","rt":"2953.5","correct":true,"confidence":-1},{"trial_n":88,"span":10,"encoder":"3325278309","distractor":"3325208309","target":"absent","response":"absent","rt":"1696.3000000119","correct":true,"confidence":-1},{"trial_n":89,"span":11,"encoder":"66799726878","distractor":"66799826878","target":"absent","response":"absent","rt":"3646.1000000238","correct":true,"confidence":-1},{"trial_n":90,"span":11,"encoder":"88375442375","distractor":"88375462375","target":"absent","response":"absent","rt":"1798.1999999881","correct":true,"confidence":-1},{"trial_n":91,"span":12,"encoder":"908626507006","distractor":"908656507006","target":"absent","response":"absent","rt":"4602.3000000119","correct":true,"confidence":5},{"trial_n":92,"span":12,"encoder":"946578498618","distractor":"946578498616","target":"absent","response":"present","rt":"7880.9000000358","correct":false,"confidence":4},{"trial_n":93,"span":11,"encoder":"66951043173","distractor":"66051043173","target":"absent","response":"present","rt":"7611.8000000119","correct":false,"confidence":3},{"trial_n":94,"span":10,"encoder":"0971528267","distractor":"0974528267","target":"absent","response":"absent","rt":"6993.3000000119","correct":true,"confidence":3},{"trial_n":95,"span":10,"encoder":"0713788639","distractor":"0713788339","target":"absent","response":"absent","rt":"11827","correct":true,"confidence":2},{"trial_n":96,"span":11,"encoder":"47107972898","distractor":"47107972818","target":"present","response":"present","rt":"8310.3999999762","correct":true,"confidence":4},{"trial_n":97,"span":11,"encoder":"93866287579","distractor":"93166287579","target":"present","response":"present","rt":"11013.100000024","correct":true,"confidence":2},{"trial_n":98,"span":12,"encoder":"906099983450","distractor":"906099983490","target":"absent","response":"present","rt":"7350.4000000358","correct":false,"confidence":4},{"trial_n":99,"span":11,"encoder":"55482926706","distractor":"55472926706","target":"present","response":"present","rt":"4986.4000000358","correct":true,"confidence":4},{"trial_n":100,"span":11,"encoder":"55395913021","distractor":"55595913021","target":"present","response":"present","rt":"2218.6999999881","correct":true,"confidence":4},{"trial_n":101,"span":12,"encoder":"768418500963","distractor":"768418500953","target":"absent","response":"absent","rt":"7168.6999999881","correct":true,"confidence":2},{"trial_n":102,"span":12,"encoder":"952824463356","distractor":"952824463306","target":"present","response":"present","rt":"4286.9000000358","correct":true,"confidence":5},{"trial_n":103,"span":13,"encoder":"3527206264113","distractor":"3527206264153","target":"present","response":"present","rt":"2280.3999999762","correct":true,"confidence":5},{"trial_n":104,"span":13,"encoder":"2307496370230","distractor":"2307490370230","target":"absent","response":"present","rt":"4799.2999999523","correct":false,"confidence":2},{"trial_n":105,"span":12,"encoder":"179224182072","distractor":"179024182072","target":"absent","response":"absent","rt":"3695.6000000238","correct":true,"confidence":2},{"trial_n":106,"span":12,"encoder":"779595297066","distractor":"779595291066","target":"present","response":"present","rt":"9411.8000000119","correct":true,"confidence":3},{"trial_n":107,"span":13,"encoder":"8369633967354","distractor":"8369633967344","target":"absent","response":"absent","rt":"1948.3000000119","correct":true,"confidence":5},{"trial_n":108,"span":13,"encoder":"2577162652927","distractor":"2577162252927","target":"present","response":"present","rt":"5327.1999999881","correct":true,"confidence":3},{"trial_n":109,"span":14,"encoder":"70150716966734","distractor":"70150716946734","target":"present","response":"present","rt":"6186.5","correct":true,"confidence":4},{"trial_n":110,"span":14,"encoder":"93683164814177","distractor":"93683164824177","target":"present","response":"present","rt":"2979.7000000477","correct":true,"confidence":5},{"trial_n":111,"span":15,"encoder":"834732347520095","distractor":"834732342520095","target":"present","response":"present","rt":"7373.6999999881","correct":true,"confidence":3},{"trial_n":112,"span":15,"encoder":"431093844462625","distractor":"431093844462525","target":"absent","response":"absent","rt":"3910.1000000238","correct":true,"confidence":3},{"trial_n":113,"span":16,"encoder":"0731089488015783","distractor":"0731089988015783","target":"present","response":"present","rt":"7934.6999999881","correct":true,"confidence":3},{"trial_n":114,"span":16,"encoder":"1816153646822997","distractor":"1816153647822997","target":"present","response":"present","rt":"11222.599999964","correct":true,"confidence":3},{"trial_n":115,"span":17,"encoder":"07621866062048474","distractor":"07621866062048274","target":"present","response":"absent","rt":"16419.199999988","correct":false,"confidence":4},{"trial_n":116,"span":16,"encoder":"1422614014226391","distractor":"1422614014226392","target":"present","response":"present","rt":"4299.6000000238","correct":true,"confidence":5},{"trial_n":117,"span":16,"encoder":"3562482777139862","distractor":"3562482777129862","target":"present","response":"absent","rt":"4085","correct":false,"confidence":4},{"trial_n":118,"span":15,"encoder":"488946178258741","distractor":"488946778258741","target":"present","response":"absent","rt":"9192.3000000119","correct":false,"confidence":3},{"trial_n":119,"span":14,"encoder":"95398022735073","distractor":"95398022734073","target":"present","response":"absent","rt":"8044.6999999881","correct":false,"confidence":3},{"trial_n":120,"span":13,"encoder":"0751108413280","distractor":"0751108418280","target":"absent","response":"present","rt":"2394.3999999762","correct":false,"confidence":4},{"trial_n":121,"span":12,"encoder":"570899725116","distractor":"570899722116","target":"present","response":"present","rt":"9768.2999999523","correct":true,"confidence":4},{"trial_n":122,"span":12,"encoder":"529920700166","distractor":"529920700116","target":"present","response":"present","rt":"8369.5","correct":true,"confidence":4},{"trial_n":123,"span":13,"encoder":"0728670069524","distractor":"0728370069524","target":"absent","response":"absent","rt":"5171.5","correct":true,"confidence":4},{"trial_n":124,"span":13,"encoder":"9634422455941","distractor":"9631422455941","target":"absent","response":"present","rt":"5990.3999999762","correct":false,"confidence":3},{"trial_n":125,"span":12,"encoder":"567718439295","distractor":"557718439295","target":"present","response":"present","rt":"5962","correct":true,"confidence":3},{"trial_n":126,"span":12,"encoder":"929600161541","distractor":"929600151541","target":"absent","response":"present","rt":"6495.1000000238","correct":false,"confidence":4},{"trial_n":127,"span":11,"encoder":"86692346845","distractor":"86692336845","target":"absent","response":"absent","rt":"8082.5999999642","correct":true,"confidence":3},{"trial_n":128,"span":11,"encoder":"09450732398","distractor":"09450532398","target":"present","response":"present","rt":"7539.1999999881","correct":true,"confidence":2},{"trial_n":129,"span":12,"encoder":"396554883442","distractor":"396554883402","target":"absent","response":"absent","rt":"6884.6999999881","correct":true,"confidence":5},{"trial_n":130,"span":12,"encoder":"975591012809","distractor":"475591012809","target":"absent","response":"absent","rt":"3199.3999999762","correct":true,"confidence":4},{"trial_n":131,"span":13,"encoder":"8099330474030","distractor":"8099330474060","target":"absent","response":"absent","rt":"5689.8999999762","correct":true,"confidence":2},{"trial_n":132,"span":13,"encoder":"9784866542842","distractor":"9784826542842","target":"present","response":"present","rt":"5248.8999999762","correct":true,"confidence":4},{"trial_n":133,"span":14,"encoder":"60653008678028","distractor":"60653008678025","target":"absent","response":"absent","rt":"2310.7999999523","correct":true,"confidence":5},{"trial_n":134,"span":14,"encoder":"66631964730336","distractor":"66601964730336","target":"absent","response":"present","rt":"7145.8000000119","correct":false,"confidence":4},{"trial_n":135,"span":13,"encoder":"0857883732151","distractor":"0857883731151","target":"present","response":"present","rt":"3312.7000000477","correct":true,"confidence":5},{"trial_n":136,"span":13,"encoder":"1328380312726","distractor":"1328780312726","target":"present","response":"present","rt":"6645.6000000238","correct":true,"confidence":4},{"trial_n":137,"span":14,"encoder":"92346736716332","distractor":"95346736716332","target":"present","response":"present","rt":"5055.1999999881","correct":true,"confidence":3},{"trial_n":138,"span":14,"encoder":"82310108558928","distractor":"82310108558948","target":"present","response":"present","rt":"4762.6999999881","correct":true,"confidence":4},{"trial_n":139,"span":15,"encoder":"263437280554731","distractor":"063437280554731","target":"absent","response":"present","rt":"3696.6999999881","correct":false,"confidence":4},{"trial_n":140,"span":14,"encoder":"63767611536510","distractor":"63767611536511","target":"present","response":"present","rt":"2425.1999999881","correct":true,"confidence":5}]