[{"trial_n":1,"span":8,"encoder":"69802435","distractor":"69872435","target":"present","response":"present","rt":"5071.8000000119","correct":true,"confidence":-1},{"trial_n":2,"span":8,"encoder":"58698310","distractor":"58698312","target":"present","response":"present","rt":"2576.1000000238","correct":true,"confidence":-1},{"trial_n":3,"span":10,"encoder":"2438877879","distractor":"2439877879","target":"absent","response":"present","rt":"1302","correct":false,"confidence":-1},{"trial_n":4,"span":8,"encoder":"06363846","distractor":"06163846","target":"absent","response":"present","rt":"2612.400000006","correct":false,"confidence":-1},{"trial_n":5,"span":6,"encoder":"384214","distractor":"584214","target":"present","response":"present","rt":"1565.2000000179","correct":true,"confidence":-1},{"trial_n":6,"span":6,"encoder":"191434","distractor":"191134","target":"present","response":"absent","rt":"2535.1999999881","correct":false,"confidence":-1},{"trial_n":7,"span":4,"encoder":"2090","distractor":"2020","target":"absent","response":"present","rt":"2591.400000006","correct":false,"confidence":-1},{"trial_n":8,"span":2,"encoder":"22","distractor":"28","target":"absent","response":"absent","rt":"2534.6999999881","correct":true,"confidence":-1},{"trial_n":9,"span":2,"encoder":"73","distractor":"13","target":"absent","response":"absent","rt":"1618.099999994","correct":true,"confidence":-1},{"trial_n":10,"span":4,"encoder":"9783","distractor":"9583","target":"absent","response":"absent","rt":"1263.099999994","correct":true,"confidence":-1},{"trial_n":11,"span":4,"encoder":"0085","distractor":"0185","target":"absent","response":"absent","rt":"2537.1999999881","correct":true,"confidence":-1},{"trial_n":12,"span":5,"encoder":"59607","distractor":"59608","target":"absent","response":"absent","rt":"2277.3999999762","correct":true,"confidence":-1},{"trial_n":13,"span":5,"encoder":"68745","distractor":"66745","target":"absent","response":"absent","rt":"1565.099999994","correct":true,"confidence":-1},{"trial_n":14,"span":6,"encoder":"781807","distractor":"781817","target":"present","response":"present","rt":"1671.2000000179","correct":true,"confidence":-1},{"trial_n":15,"span":6,"encoder":"338904","distractor":"138904","target":"present","response":"present","rt":"1750.5","correct":true,"confidence":-1},{"trial_n":16,"span":7,"encoder":"0540924","distractor":"0549924","target":"absent","response":"absent","rt":"3704.599999994","correct":true,"confidence":-1},{"trial_n":17,"span":7,"encoder":"9330163","distractor":"9230163","target":"present","response":"absent","rt":"3176.099999994","correct":false,"confidence":-1},{"trial_n":18,"span":6,"encoder":"416867","distractor":"416267","target":"absent","response":"present","rt":"2386.400000006","correct":false,"confidence":-1},{"trial_n":19,"span":5,"encoder":"40055","distractor":"00055","target":"absent","response":"absent","rt":"1702.8000000119","correct":true,"confidence":-1},{"trial_n":20,"span":5,"encoder":"23979","distractor":"23079","target":"present","response":"present","rt":"2248.400000006","correct":true,"confidence":-1},{"trial_n":21,"span":6,"encoder":"595293","distractor":"595297","target":"absent","response":"absent","rt":"3915.3000000119","correct":true,"confidence":3},{"trial_n":22,"span":6,"encoder":"696465","distractor":"616465","target":"absent","response":"present","rt":"3328.6000000238","correct":false,"confidence":2},{"trial_n":23,"span":5,"encoder":"82350","distractor":"82356","target":"present","response":"present","rt":"2713.900000006","correct":true,"confidence":4},{"trial_n":24,"span":5,"encoder":"80038","distractor":"50038","target":"present","response":"present","rt":"2670.2000000179","correct":true,"confidence":4},{"trial_n":25,"span":6,"encoder":"875702","distractor":"877702","target":"present","response":"present","rt":"2376.7000000179","correct":true,"confidence":4},{"trial_n":26,"span":6,"encoder":"036356","distractor":"026356","target":"present","response":"absent","rt":"6736.8000000119","correct":false,"confidence":3},{"trial_n":27,"span":5,"encoder":"74418","distractor":"74468","target":"absent","response":"absent","rt":"2715.400000006","correct":true,"confidence":3},{"trial_n":28,"span":5,"encoder":"36268","distractor":"39268","target":"present","response":"present","rt":"2383.8000000119","correct":true,"confidence":4},{"trial_n":29,"span":6,"encoder":"915207","distractor":"918207","target":"present","response":"present","rt":"2310.599999994","correct":true,"confidence":4},{"trial_n":30,"span":6,"encoder":"591514","distractor":"591518","target":"present","response":"present","rt":"2217","correct":true,"confidence":3},{"trial_n":31,"span":7,"encoder":"5509389","distractor":"5509349","target":"absent","response":"present","rt":"2672.900000006","correct":false,"confidence":3},{"trial_n":32,"span":6,"encoder":"348011","distractor":"308011","target":"absent","response":"absent","rt":"3801.5","correct":true,"confidence":2},{"trial_n":33,"span":6,"encoder":"744854","distractor":"744754","target":"present","response":"present","rt":"1831.6999999881","correct":true,"confidence":3},{"trial_n":34,"span":7,"encoder":"5732958","distractor":"5732952","target":"absent","response":"present","rt":"4343.1999999881","correct":false,"confidence":2},{"trial_n":35,"span":6,"encoder":"943444","distractor":"943440","target":"present","response":"present","rt":"2728.400000006","correct":true,"confidence":4},{"trial_n":36,"span":6,"encoder":"339817","distractor":"339857","target":"absent","response":"absent","rt":"3035.900000006","correct":true,"confidence":3},{"trial_n":37,"span":7,"encoder":"0496376","distractor":"0496379","target":"absent","response":"absent","rt":"3912.6999999881","correct":true,"confidence":2},{"trial_n":38,"span":7,"encoder":"5899360","distractor":"5899390","target":"present","response":"present","rt":"2925.400000006","correct":true,"confidence":4},{"trial_n":39,"span":8,"encoder":"23248415","distractor":"23208415","target":"present","response":"present","rt":"3372.2999999821","correct":true,"confidence":4},{"trial_n":40,"span":8,"encoder":"98349610","distractor":"96349610","target":"absent","response":"absent","rt":"4544.099999994","correct":true,"confidence":3},{"trial_n":41,"span":9,"encoder":"730658704","distractor":"730658004","target":"present","response":"absent","rt":"3803.599999994","correct":false,"confidence":3},{"trial_n":42,"span":8,"encoder":"69822471","distractor":"69822461","target":"present","response":"present","rt":"3262","correct":true,"confidence":2},{"trial_n":43,"span":8,"encoder":"86879299","distractor":"86879289","target":"present","response":"present","rt":"7393.5","correct":true,"confidence":2},{"trial_n":44,"span":9,"encoder":"345502299","distractor":"945502299","target":"present","response":"present","rt":"3178.599999994","correct":true,"confidence":3},{"trial_n":45,"span":9,"encoder":"183867920","distractor":"583867920","target":"present","response":"absent","rt":"4423.900000006","correct":false,"confidence":2},{"trial_n":46,"span":8,"encoder":"65187562","distractor":"65187862","target":"present","response":"present","rt":"3678.7000000179","correct":true,"confidence":3},{"trial_n":47,"span":8,"encoder":"95020605","distractor":"95030605","target":"absent","response":"absent","rt":"5093.5","correct":true,"confidence":2},{"trial_n":48,"span":9,"encoder":"669258424","distractor":"664258424","target":"absent","response":"present","rt":"3977.8000000119","correct":false,"confidence":2},{"trial_n":49,"span":8,"encoder":"09430882","distractor":"00430882","target":"present","response":"present","rt":"2760.900000006","correct":true,"confidence":4},{"trial_n":50,"span":8,"encoder":"97783459","distractor":"97783409","target":"absent","response":"present","rt":"3208.400000006","correct":false,"confidence":2},{"trial_n":51,"span":7,"encoder":"4525195","distractor":"4527195","target":"absent","response":"absent","rt":"2252","correct":true,"confidence":3},{"trial_n":52,"span":7,"encoder":"1268786","distractor":"1268586","target":"absent","response":"absent","rt":"3867.8000000119","correct":true,"confidence":3},{"trial_n":53,"span":8,"encoder":"03908727","distractor":"03908722","target":"present","response":"present","rt":"4372.3000000119","correct":true,"confidence":2},{"trial_n":54,"span":8,"encoder":"54498217","distractor":"54498417","target":"present","response":"present","rt":"3233.3000000119","correct":true,"confidence":2},{"trial_n":55,"span":9,"encoder":"865675106","distractor":"865675116","target":"present","response":"absent","rt":"6564.099999994","correct":false,"confidence":2},{"trial_n":56,"span":8,"encoder":"92850832","distractor":"92853832","target":"present","response":"present","rt":"2417.1999999881","correct":true,"confidence":1},{"trial_n":57,"span":8,"encoder":"76225381","distractor":"46225381","target":"absent","response":"absent","rt":"10385.599999994","correct":true,"confidence":1},{"trial_n":58,"span":9,"encoder":"543291449","distractor":"543291649","target":"present","response":"absent","rt":"5055.900000006","correct":false,"confidence":2},{"trial_n":59,"span":8,"encoder":"35337597","distractor":"35337797","target":"present","response":"present","rt":"3318.599999994","correct":true,"confidence":4},{"trial_n":60,"span":8,"encoder":"47836098","distractor":"47836698","target":"present","response":"present","rt":"4509.900000006","correct":true,"confidence":1},{"trial_n":61,"span":9,"encoder":"336652176","distractor":"336662176","target":"absent","response":"absent","rt":"2762.099999994","correct":true,"confidence":3},{"trial_n":62,"span":9,"encoder":"862120262","distractor":"862190262","target":"absent","response":"absent","rt":"3055.3000000119","correct":true,"confidence":3},{"trial_n":63,"span":10,"encoder":"2003807856","distractor":"2003897856","target":"absent","response":"absent","rt":"2820.2999999821","correct":true,"confidence":3},{"trial_n":64,"span":10,"encoder":"3512118294","distractor":"3512158294","target":"present","response":"present","rt":"5088.900000006","correct":true,"confidence":2},{"trial_n":65,"span":11,"encoder":"81706061251","distractor":"81706061231","target":"present","response":"present","rt":"4098.7000000179","correct":true,"confidence":3},{"trial_n":66,"span":11,"encoder":"62884998100","distractor":"12884998100","target":"absent","response":"absent","rt":"4990.3999999762","correct":true,"confidence":2},{"trial_n":67,"span":12,"encoder":"313869977290","distractor":"313469977290","target":"absent","response":"absent","rt":"4264.1999999881","correct":true,"confidence":2},{"trial_n":68,"span":12,"encoder":"977645751611","distractor":"977545751611","target":"absent","response":"absent","rt":"3559.1000000238","correct":true,"confidence":4},{"trial_n":69,"span":13,"encoder":"5285439108345","distractor":"5285439108845","target":"present","response":"present","rt":"3073.5","correct":true,"confidence":2},{"trial_n":70,"span":13,"encoder":"9422249137427","distractor":"9022249137427","target":"absent","response":"present","rt":"7496.1999999881","correct":false,"confidence":2},{"trial_n":71,"span":8,"encoder":"91257782","distractor":"11257782","target":"present","response":"present","rt":"5204.2999999821","correct":true,"confidence":-1},{"trial_n":72,"span":8,"encoder":"95443172","distractor":"95443672","target":"present","response":"present","rt":"2972.6999999881","correct":true,"confidence":-1},{"trial_n":73,"span":9,"encoder":"175572678","distractor":"175578678","target":"absent","response":"absent","rt":"2348.1000000238","correct":true,"confidence":-1},{"trial_n":74,"span":9,"encoder":"076706815","distractor":"076706715","target":"absent","response":"absent","rt":"2193.3000000119","correct":true,"confidence":-1},{"trial_n":75,"span":10,"encoder":"7766897721","distractor":"7768897721","target":"present","response":"present","rt":"7404.400000006","correct":true,"confidence":-1},{"trial_n":76,"span":10,"encoder":"8881316148","distractor":"8881314148","target":"present","response":"present","rt":"3984.7000000179","correct":true,"confidence":-1},{"trial_n":77,"span":11,"encoder":"77295634935","distractor":"77295634955","target":"absent","response":"absent","rt":"2148.7999999821","correct":true,"confidence":-1},{"trial_n":78,"span":11,"encoder":"50492940581","distractor":"50492940381","target":"absent","response":"absent","rt":"2365.2999999821","correct":true,"confidence":-1},{"trial_n":79,"span":12,"encoder":"259463683616","distractor":"259463643616","target":"absent","response":"present","rt":"4256.2999999821","correct":false,"confidence":-1},{"trial_n":80,"span":11,"encoder":"68207821056","distractor":"68207821066","target":"present","response":"present","rt":"2764.900000006","correct":true,"confidence":-1},{"trial_n":81,"span":11,"encoder":"99365746280","distractor":"99368746280","target":"present","response":"present","rt":"47772.100000024","correct":true,"confidence":-1},{"trial_n":82,"span":12,"encoder":"205522162792","distractor":"205522122792","target":"present","response":"absent","rt":"6081.2000000179","correct":false,"confidence":-1},{"trial_n":83,"span":11,"encoder":"64793498827","distractor":"64593498827","target":"absent","response":"present","rt":"6066.599999994","correct":false,"confidence":-1},{"trial_n":84,"span":10,"encoder":"3811571328","distractor":"3811573328","target":"present","response":"present","rt":"4340.099999994","correct":true,"confidence":-1},{"trial_n":85,"span":10,"encoder":"1720778567","distractor":"4720778567","target":"absent","response":"absent","rt":"7146.8999999762","correct":true,"confidence":-1},{"trial_n":86,"span":11,"encoder":"50860145609","distractor":"50660145609","target":"absent","response":"present","rt":"5819.5","correct":false,"confidence":-1},{"trial_n":87,"span":10,"encoder":"3243875518","distractor":"3043875518","target":"absent","response":"absent","rt":"3491.599999994","correct":true,"confidence":-1},{"trial_n":88,"span":10,"encoder":"5951364767","distractor":"5951164767","target":"absent","response":"absent","rt":"3949.900000006","correct":true,"confidence":-1},{"trial_n":89,"span":11,"encoder":"49698384355","distractor":"49698334355","target":"present","response":"present","rt":"5639.8000000119","correct":true,"confidence":-1},{"trial_n":90,"span":11,"encoder":"10646843058","distractor":"10646813058","target":"present","response":"present","rt":"39119.699999988","correct":true,"confidence":-1},{"trial_n":91,"span":12,"encoder":"653291060290","distractor":"653291067290","target":"absent","response":"present","rt":"20905.800000012","correct":false,"confidence":2},{"trial_n":92,"span":11,"encoder":"25394944900","distractor":"25394944907","target":"absent","response":"absent","rt":"2201.7000000179","correct":true,"confidence":4},{"trial_n":93,"span":11,"encoder":"32848119793","distractor":"32848919793","target":"present","response":"absent","rt":"2988.2000000179","correct":false,"confidence":3},{"trial_n":94,"span":10,"encoder":"0070112556","distractor":"0070912556","target":"absent","response":"absent","rt":"3897.1999999881","correct":true,"confidence":3},{"trial_n":95,"span":10,"encoder":"7534325730","distractor":"2534325730","target":"absent","response":"absent","rt":"7310.3000000119","correct":true,"confidence":2},{"trial_n":96,"span":11,"encoder":"49400677793","distractor":"69400677793","target":"present","response":"present","rt":"5521.599999994","correct":true,"confidence":3},{"trial_n":97,"span":11,"encoder":"97220057011","distractor":"97220057111","target":"absent","response":"absent","rt":"4184.6999999881","correct":true,"confidence":4},{"trial_n":98,"span":12,"encoder":"039841995985","distractor":"039841935985","target":"present","response":"present","rt":"4060.2000000179","correct":true,"confidence":4},{"trial_n":99,"span":12,"encoder":"770070767982","distractor":"770070717982","target":"absent","response":"absent","rt":"8400.2999999821","correct":true,"confidence":2},{"trial_n":100,"span":13,"encoder":"5946591122014","distractor":"5946591122004","target":"absent","response":"absent","rt":"3430.599999994","correct":true,"confidence":3},{"trial_n":101,"span":13,"encoder":"0831904769747","distractor":"0931904769747","target":"present","response":"absent","rt":"6006.5","correct":false,"confidence":2},{"trial_n":102,"span":12,"encoder":"856827615285","distractor":"856827615280","target":"absent","response":"absent","rt":"5525","correct":true,"confidence":4},{"trial_n":103,"span":12,"encoder":"172847586098","distractor":"172847584098","target":"absent","response":"absent","rt":"5843.900000006","correct":true,"confidence":3},{"trial_n":104,"span":13,"encoder":"5926007242135","distractor":"5926007242335","target":"absent","response":"absent","rt":"4284.400000006","correct":true,"confidence":3},{"trial_n":105,"span":13,"encoder":"0352951109632","distractor":"0352951109432","target":"present","response":"present","rt":"4706.900000006","correct":true,"confidence":3},{"trial_n":106,"span":14,"encoder":"12238388569748","distractor":"12228388569748","target":"present","response":"present","rt":"6697.2000000179","correct":true,"confidence":2},{"trial_n":107,"span":14,"encoder":"18875912109038","distractor":"12875912109038","target":"present","response":"absent","rt":"6184","correct":false,"confidence":2},{"trial_n":108,"span":13,"encoder":"1385543219170","distractor":"1385543214170","target":"absent","response":"absent","rt":"8002.1999999881","correct":true,"confidence":2},{"trial_n":109,"span":13,"encoder":"8328698360092","distractor":"3328698360092","target":"present","response":"present","rt":"10762.5","correct":true,"confidence":2},{"trial_n":110,"span":14,"encoder":"00346614198755","distractor":"00346614198757","target":"present","response":"present","rt":"9534","correct":true,"confidence":3},{"trial_n":111,"span":14,"encoder":"63087003778623","distractor":"63087003778023","target":"absent","response":"absent","rt":"17924.900000006","correct":true,"confidence":1},{"trial_n":112,"span":15,"encoder":"054241295707571","distractor":"054741295707571","target":"present","response":"absent","rt":"4591.6999999881","correct":false,"confidence":2},{"trial_n":113,"span":14,"encoder":"59622404242169","distractor":"59622404242129","target":"present","response":"present","rt":"3054.599999994","correct":true,"confidence":5},{"trial_n":114,"span":14,"encoder":"10366448143419","distractor":"10366448173419","target":"absent","response":"absent","rt":"9024","correct":true,"confidence":3},{"trial_n":115,"span":15,"encoder":"037830078201845","distractor":"007830078201845","target":"absent","response":"absent","rt":"5003.6000000238","correct":true,"confidence":2},{"trial_n":116,"span":15,"encoder":"614986828565347","distractor":"614984828565347","target":"present","response":"present","rt":"7453.5","correct":true,"confidence":2},{"trial_n":117,"span":16,"encoder":"6037622345100405","distractor":"6037622345000405","target":"present","response":"present","rt":"4325.1999999881","correct":true,"confidence":3},{"trial_n":118,"span":16,"encoder":"0655929417732323","distractor":"0655929417732523","target":"present","response":"present","rt":"3218.599999994","correct":true,"confidence":4},{"trial_n":119,"span":17,"encoder":"54196722926708665","distractor":"14196722926708665","target":"absent","response":"present","rt":"6476.5","correct":false,"confidence":2},{"trial_n":120,"span":16,"encoder":"2757716365046688","distractor":"2757716363046688","target":"absent","response":"absent","rt":"9608.099999994","correct":true,"confidence":4},{"trial_n":121,"span":16,"encoder":"2596492163485258","distractor":"2596490163485258","target":"absent","response":"absent","rt":"5347.7000000179","correct":true,"confidence":1},{"trial_n":122,"span":17,"encoder":"82372452671217658","distractor":"82672452671217658","target":"present","response":"absent","rt":"6668.3000000119","correct":false,"confidence":2},{"trial_n":123,"span":16,"encoder":"5104951590034174","distractor":"5104951590033174","target":"present","response":"present","rt":"4458.1999999881","correct":true,"confidence":1},{"trial_n":124,"span":16,"encoder":"5885134888174620","distractor":"5885134888134620","target":"present","response":"present","rt":"5051.6999999881","correct":true,"confidence":2},{"trial_n":125,"span":17,"encoder":"13531333217619635","distractor":"10531333217619635","target":"absent","response":"absent","rt":"7006.099999994","correct":true,"confidence":2},{"trial_n":126,"span":17,"encoder":"76066495501198249","distractor":"76066496501198249","target":"absent","response":"present","rt":"9818.6999999881","correct":false,"confidence":3},{"trial_n":127,"span":16,"encoder":"1212237734888632","distractor":"1912237734888632","target":"present","response":"present","rt":"3017.2000000179","correct":true,"confidence":3},{"trial_n":128,"span":16,"encoder":"7289947608597781","distractor":"7989947608597781","target":"present","response":"absent","rt":"6953.8999999762","correct":false,"confidence":2},{"trial_n":129,"span":15,"encoder":"097202967888332","distractor":"097202967888132","target":"absent","response":"absent","rt":"2817.599999994","correct":true,"confidence":5},{"trial_n":130,"span":15,"encoder":"719018321001992","distractor":"719010321001992","target":"present","response":"present","rt":"5596.6999999881","correct":true,"confidence":2},{"trial_n":131,"span":16,"encoder":"9033989150357130","distractor":"9033889150357130","target":"absent","response":"absent","rt":"5801","correct":true,"confidence":3},{"trial_n":132,"span":16,"encoder":"5146432445295305","distractor":"5146432445495305","target":"present","response":"present","rt":"5869.1999999881","correct":true,"confidence":4},{"trial_n":133,"span":17,"encoder":"89967355098912382","distractor":"89967355098912392","target":"present","response":"absent","rt":"11742","correct":false,"confidence":3},{"trial_n":134,"span":16,"encoder":"4251951291615487","distractor":"7251951291615487","target":"absent","response":"absent","rt":"11962.399999976","correct":true,"confidence":1},{"trial_n":135,"span":16,"encoder":"9922644989957192","distractor":"1922644989957192","target":"present","response":"present","rt":"7105","correct":true,"confidence":2},{"trial_n":136,"span":17,"encoder":"84636454447287753","distractor":"84636454447217753","target":"present","response":"present","rt":"3929.3999999762","correct":true,"confidence":3},{"trial_n":137,"span":17,"encoder":"66556619351277835","distractor":"66556619351277875","target":"absent","response":"absent","rt":"2107.400000006","correct":true,"confidence":5},{"trial_n":138,"span":18,"encoder":"792618731038932721","distractor":"792618731038932121","target":"present","response":"present","rt":"2377.3000000119","correct":true,"confidence":4},{"trial_n":139,"span":18,"encoder":"481725787433666348","distractor":"481725287433666348","target":"absent","response":"absent","rt":"2318","correct":true,"confidence":2},{"trial_n":140,"span":19,"encoder":"7829477995364957930","distractor":"7829470995364957930","target":"present","response":"absent","rt":"9925","correct":false,"confidence":4}]