[{"trial_n":1,"n_dots":4.25,"target":"left","response":"right","rt":4098.5,"correct":false,"confidence":-1},{"trial_n":2,"n_dots":4.25,"target":"left","response":"left","rt":914,"correct":true,"confidence":-1},{"trial_n":3,"n_dots":4.25,"target":"right","response":"left","rt":765,"correct":false,"confidence":-1},{"trial_n":4,"n_dots":4.65,"target":"right","response":"left","rt":537,"correct":false,"confidence":-1},{"trial_n":5,"n_dots":5.05,"target":"right","response":"right","rt":442.5,"correct":true,"confidence":-1},{"trial_n":6,"n_dots":5.05,"target":"right","response":"right","rt":488.40000000224,"correct":true,"confidence":-1},{"trial_n":7,"n_dots":4.65,"target":"left","response":"left","rt":447.60000000149,"correct":true,"confidence":-1},{"trial_n":8,"n_dots":4.65,"target":"left","response":"left","rt":254.5,"correct":true,"confidence":-1},{"trial_n":9,"n_dots":4.45,"target":"left","response":"left","rt":192.39999999851,"correct":true,"confidence":-1},{"trial_n":10,"n_dots":4.45,"target":"left","response":"left","rt":645.30000000075,"correct":true,"confidence":-1},{"trial_n":11,"n_dots":4.25,"target":"left","response":"left","rt":505.69999999925,"correct":true,"confidence":-1},{"trial_n":12,"n_dots":4.25,"target":"left","response":"left","rt":392.39999999851,"correct":true,"confidence":-1},{"trial_n":13,"n_dots":4.15,"target":"left","response":"left","rt":480.69999999925,"correct":true,"confidence":-1},{"trial_n":14,"n_dots":4.15,"target":"left","response":"left","rt":551.89999999851,"correct":true,"confidence":-1},{"trial_n":15,"n_dots":4.05,"target":"left","response":"left","rt":500.60000000149,"correct":true,"confidence":-1},{"trial_n":16,"n_dots":4.05,"target":"right","response":"left","rt":483.10000000149,"correct":false,"confidence":-1},{"trial_n":17,"n_dots":4.15,"target":"right","response":"left","rt":821.30000000075,"correct":false,"confidence":-1},{"trial_n":18,"n_dots":4.25,"target":"left","response":"left","rt":471.60000000149,"correct":true,"confidence":-1},{"trial_n":19,"n_dots":4.25,"target":"right","response":"right","rt":756.29999999702,"correct":true,"confidence":-1},{"trial_n":20,"n_dots":4.15,"target":"right","response":"right","rt":821.69999999925,"correct":true,"confidence":-1},{"trial_n":21,"n_dots":4.15,"target":"left","response":"left","rt":318.10000000149,"correct":true,"confidence":4},{"trial_n":22,"n_dots":4.05,"target":"right","response":"right","rt":196.30000000075,"correct":true,"confidence":4},{"trial_n":23,"n_dots":4.05,"target":"right","response":"right","rt":874,"correct":true,"confidence":3},{"trial_n":24,"n_dots":3.95,"target":"right","response":"right","rt":438.60000000149,"correct":true,"confidence":5},{"trial_n":25,"n_dots":3.95,"target":"right","response":"right","rt":272.60000000149,"correct":true,"confidence":5},{"trial_n":26,"n_dots":3.85,"target":"left","response":"right","rt":1505.4000000022,"correct":false,"confidence":5},{"trial_n":27,"n_dots":3.95,"target":"left","response":"right","rt":1142.1000000015,"correct":false,"confidence":4},{"trial_n":28,"n_dots":4.05,"target":"right","response":"right","rt":388.5,"correct":true,"confidence":4},{"trial_n":29,"n_dots":4.05,"target":"left","response":"right","rt":2182,"correct":false,"confidence":2},{"trial_n":30,"n_dots":4.15,"target":"left","response":"left","rt":1060.8999999985,"correct":true,"confidence":4},{"trial_n":31,"n_dots":4.15,"target":"right","response":"right","rt":1971.700000003,"correct":true,"confidence":4},{"trial_n":32,"n_dots":4.05,"target":"right","response":"right","rt":1923,"correct":true,"confidence":5},{"trial_n":33,"n_dots":4.05,"target":"right","response":"right","rt":1121.3999999985,"correct":true,"confidence":3},{"trial_n":34,"n_dots":3.95,"target":"right","response":"right","rt":685.29999999702,"correct":true,"confidence":4},{"trial_n":35,"n_dots":3.95,"target":"right","response":"left","rt":1122.5999999978,"correct":false,"confidence":1},{"trial_n":36,"n_dots":4.05,"target":"left","response":"left","rt":924.69999999925,"correct":true,"confidence":1},{"trial_n":37,"n_dots":4.05,"target":"right","response":"left","rt":636,"correct":false,"confidence":1},{"trial_n":38,"n_dots":4.15,"target":"right","response":"right","rt":528.30000000075,"correct":true,"confidence":4},{"trial_n":39,"n_dots":4.15,"target":"right","response":"right","rt":432.5,"correct":true,"confidence":4},{"trial_n":40,"n_dots":4.05,"target":"left","response":"right","rt":1220.8999999985,"correct":false,"confidence":3},{"trial_n":41,"n_dots":4.15,"target":"left","response":"left","rt":429.30000000075,"correct":true,"confidence":5},{"trial_n":42,"n_dots":4.15,"target":"left","response":"left","rt":357.10000000149,"correct":true,"confidence":5},{"trial_n":43,"n_dots":4.05,"target":"left","response":"left","rt":307.19999999925,"correct":true,"confidence":5},{"trial_n":44,"n_dots":4.05,"target":"left","response":"left","rt":847.89999999851,"correct":true,"confidence":3},{"trial_n":45,"n_dots":3.95,"target":"right","response":"right","rt":475,"correct":true,"confidence":3},{"trial_n":46,"n_dots":3.95,"target":"right","response":"right","rt":1243.299999997,"correct":true,"confidence":3},{"trial_n":47,"n_dots":3.85,"target":"right","response":"right","rt":1599.8000000045,"correct":true,"confidence":2},{"trial_n":48,"n_dots":3.85,"target":"right","response":"right","rt":585,"correct":true,"confidence":4},{"trial_n":49,"n_dots":3.75,"target":"right","response":"right","rt":431.60000000149,"correct":true,"confidence":3},{"trial_n":50,"n_dots":3.75,"target":"right","response":"right","rt":483,"correct":true,"confidence":1},{"trial_n":51,"n_dots":3.65,"target":"left","response":"left","rt":486.30000000447,"correct":true,"confidence":4},{"trial_n":52,"n_dots":3.65,"target":"left","response":"left","rt":395.89999999851,"correct":true,"confidence":1},{"trial_n":53,"n_dots":3.55,"target":"left","response":"left","rt":399.70000000298,"correct":true,"confidence":3},{"trial_n":54,"n_dots":3.55,"target":"left","response":"right","rt":2668.1000000015,"correct":false,"confidence":3},{"trial_n":55,"n_dots":3.65,"target":"right","response":"left","rt":201.79999999702,"correct":false,"confidence":3},{"trial_n":56,"n_dots":3.75,"target":"left","response":"left","rt":427.70000000298,"correct":true,"confidence":3},{"trial_n":57,"n_dots":3.75,"target":"left","response":"left","rt":142.19999999553,"correct":true,"confidence":4},{"trial_n":58,"n_dots":3.65,"target":"left","response":"left","rt":74.70000000298,"correct":true,"confidence":5},{"trial_n":59,"n_dots":3.65,"target":"right","response":"right","rt":938,"correct":true,"confidence":4},{"trial_n":60,"n_dots":3.55,"target":"left","response":"left","rt":392.30000000447,"correct":true,"confidence":4},{"trial_n":61,"n_dots":3.55,"target":"left","response":"left","rt":218.29999999702,"correct":true,"confidence":5},{"trial_n":62,"n_dots":3.45,"target":"left","response":"left","rt":159.5,"correct":true,"confidence":5},{"trial_n":63,"n_dots":3.45,"target":"left","response":"left","rt":157.69999999553,"correct":true,"confidence":5},{"trial_n":64,"n_dots":3.35,"target":"right","response":"right","rt":611.19999999553,"correct":true,"confidence":3},{"trial_n":65,"n_dots":3.35,"target":"right","response":"left","rt":405,"correct":false,"confidence":1},{"trial_n":66,"n_dots":3.45,"target":"left","response":"left","rt":327.29999999702,"correct":true,"confidence":4},{"trial_n":67,"n_dots":3.45,"target":"left","response":"left","rt":229.30000000447,"correct":true,"confidence":4},{"trial_n":68,"n_dots":3.35,"target":"left","response":"left","rt":357.30000000447,"correct":true,"confidence":3},{"trial_n":69,"n_dots":3.35,"target":"right","response":"left","rt":217.70000000298,"correct":false,"confidence":5},{"trial_n":70,"n_dots":3.45,"target":"right","response":"left","rt":470.69999999553,"correct":false,"confidence":4},{"trial_n":71,"n_dots":3.55,"target":"right","response":"right","rt":1161,"correct":true,"confidence":1},{"trial_n":72,"n_dots":3.55,"target":"left","response":"left","rt":398.60000000149,"correct":true,"confidence":4},{"trial_n":73,"n_dots":3.45,"target":"left","response":"left","rt":405.60000000149,"correct":true,"confidence":4},{"trial_n":74,"n_dots":3.45,"target":"left","response":"left","rt":391.30000000447,"correct":true,"confidence":4},{"trial_n":75,"n_dots":3.35,"target":"left","response":"left","rt":556.19999999553,"correct":true,"confidence":4},{"trial_n":76,"n_dots":3.35,"target":"left","response":"left","rt":400.5,"correct":true,"confidence":4},{"trial_n":77,"n_dots":3.25,"target":"left","response":"left","rt":490.10000000149,"correct":true,"confidence":5},{"trial_n":78,"n_dots":3.25,"target":"left","response":"left","rt":907.70000000298,"correct":true,"confidence":3},{"trial_n":79,"n_dots":3.15,"target":"left","response":"left","rt":740.39999999851,"correct":true,"confidence":3},{"trial_n":80,"n_dots":3.15,"target":"left","response":"left","rt":388.60000000149,"correct":true,"confidence":3},{"trial_n":81,"n_dots":3.05,"target":"left","response":"left","rt":670.69999999553,"correct":true,"confidence":1},{"trial_n":82,"n_dots":3.05,"target":"right","response":"left","rt":1438.6000000015,"correct":false,"confidence":1},{"trial_n":83,"n_dots":3.15,"target":"right","response":"right","rt":526.10000000149,"correct":true,"confidence":4},{"trial_n":84,"n_dots":3.15,"target":"left","response":"left","rt":312.10000000149,"correct":true,"confidence":4},{"trial_n":85,"n_dots":3.05,"target":"left","response":"right","rt":677.39999999851,"correct":false,"confidence":4},{"trial_n":86,"n_dots":3.15,"target":"right","response":"right","rt":560.59999999404,"correct":true,"confidence":4},{"trial_n":87,"n_dots":3.15,"target":"right","response":"right","rt":357.10000000149,"correct":true,"confidence":4},{"trial_n":88,"n_dots":3.05,"target":"right","response":"right","rt":639.60000000149,"correct":true,"confidence":4},{"trial_n":89,"n_dots":3.05,"target":"right","response":"right","rt":395.89999999851,"correct":true,"confidence":4},{"trial_n":90,"n_dots":2.95,"target":"left","response":"right","rt":2027.8999999985,"correct":false,"confidence":4},{"trial_n":91,"n_dots":3.05,"target":"right","response":"right","rt":660,"correct":true,"confidence":4},{"trial_n":92,"n_dots":3.05,"target":"right","response":"right","rt":334.89999999851,"correct":true,"confidence":2},{"trial_n":93,"n_dots":2.95,"target":"left","response":"left","rt":617,"correct":true,"confidence":4},{"trial_n":94,"n_dots":2.95,"target":"right","response":"left","rt":1332.3999999985,"correct":false,"confidence":1},{"trial_n":95,"n_dots":3.05,"target":"right","response":"right","rt":645.10000000149,"correct":true,"confidence":1},{"trial_n":96,"n_dots":3.05,"target":"left","response":"right","rt":699.30000000447,"correct":false,"confidence":4},{"trial_n":97,"n_dots":3.15,"target":"left","response":"left","rt":1367.5,"correct":true,"confidence":1},{"trial_n":98,"n_dots":3.15,"target":"left","response":"left","rt":430.80000000447,"correct":true,"confidence":1},{"trial_n":99,"n_dots":3.05,"target":"right","response":"right","rt":390,"correct":true,"confidence":5},{"trial_n":100,"n_dots":3.05,"target":"left","response":"right","rt":741.39999999851,"correct":false,"confidence":3},{"trial_n":101,"n_dots":3.15,"target":"left","response":"left","rt":664.89999999851,"correct":true,"confidence":1},{"trial_n":102,"n_dots":3.15,"target":"right","response":"right","rt":351.10000000149,"correct":true,"confidence":5},{"trial_n":103,"n_dots":3.05,"target":"right","response":"left","rt":702.10000000149,"correct":false,"confidence":5},{"trial_n":104,"n_dots":3.15,"target":"right","response":"left","rt":1022.6999999955,"correct":false,"confidence":1},{"trial_n":105,"n_dots":3.25,"target":"left","response":"right","rt":3139.099999994,"correct":false,"confidence":1},{"trial_n":106,"n_dots":3.35,"target":"right","response":"left","rt":859.30000000447,"correct":false,"confidence":1},{"trial_n":107,"n_dots":3.45,"target":"left","response":"left","rt":525.89999999851,"correct":true,"confidence":1},{"trial_n":108,"n_dots":3.45,"target":"right","response":"right","rt":663.70000000298,"correct":true,"confidence":1},{"trial_n":109,"n_dots":3.35,"target":"right","response":"right","rt":409.30000000447,"correct":true,"confidence":1},{"trial_n":110,"n_dots":3.35,"target":"right","response":"right","rt":540.90000000596,"correct":true,"confidence":1},{"trial_n":111,"n_dots":3.25,"target":"right","response":"right","rt":610.39999999851,"correct":true,"confidence":1},{"trial_n":112,"n_dots":3.25,"target":"left","response":"left","rt":482.39999999851,"correct":true,"confidence":1},{"trial_n":113,"n_dots":3.15,"target":"left","response":"left","rt":456.80000000447,"correct":true,"confidence":1},{"trial_n":114,"n_dots":3.15,"target":"right","response":"left","rt":598.29999999702,"correct":false,"confidence":1},{"trial_n":115,"n_dots":3.25,"target":"right","response":"right","rt":748.20000000298,"correct":true,"confidence":1},{"trial_n":116,"n_dots":3.25,"target":"right","response":"left","rt":2364.8000000045,"correct":false,"confidence":1},{"trial_n":117,"n_dots":3.35,"target":"right","response":"right","rt":1705.1000000015,"correct":true,"confidence":1},{"trial_n":118,"n_dots":3.35,"target":"right","response":"left","rt":1278.8000000045,"correct":false,"confidence":1},{"trial_n":119,"n_dots":3.45,"target":"right","response":"right","rt":358.80000000447,"correct":true,"confidence":3},{"trial_n":120,"n_dots":3.45,"target":"right","response":"right","rt":117.5,"correct":true,"confidence":3}]