[{"trial_n":1,"span":8,"encoder":"21065742","distractor":"21065772","target":"present","response":"present","rt":"3929.6000000015","correct":true,"confidence":-1},{"trial_n":2,"span":8,"encoder":"03289548","distractor":"06289548","target":"present","response":"present","rt":"4273.200000003","correct":true,"confidence":-1},{"trial_n":3,"span":10,"encoder":"8439127206","distractor":"8439127203","target":"absent","response":"absent","rt":"5223.8999999985","correct":true,"confidence":-1},{"trial_n":4,"span":10,"encoder":"7288299669","distractor":"7288299665","target":"absent","response":"absent","rt":"3091.6999999993","correct":true,"confidence":-1},{"trial_n":5,"span":12,"encoder":"588936199953","distractor":"588936199973","target":"present","response":"present","rt":"1600.6000000015","correct":true,"confidence":-1},{"trial_n":6,"span":12,"encoder":"519957812141","distractor":"519957812171","target":"present","response":"absent","rt":"5704.3000000007","correct":false,"confidence":-1},{"trial_n":7,"span":10,"encoder":"3343743114","distractor":"3343743116","target":"present","response":"present","rt":"1501.1000000015","correct":true,"confidence":-1},{"trial_n":8,"span":10,"encoder":"7416887423","distractor":"7416847423","target":"absent","response":"absent","rt":"3984.6000000015","correct":true,"confidence":-1},{"trial_n":9,"span":12,"encoder":"878780521895","distractor":"878780521865","target":"absent","response":"absent","rt":"10230.300000001","correct":true,"confidence":-1},{"trial_n":10,"span":12,"encoder":"962064503999","distractor":"962064503099","target":"absent","response":"absent","rt":"2785.5","correct":true,"confidence":-1},{"trial_n":11,"span":14,"encoder":"02087906489062","distractor":"05087906489062","target":"present","response":"present","rt":"5925.6999999993","correct":true,"confidence":-1},{"trial_n":12,"span":14,"encoder":"15212054625770","distractor":"15262054625770","target":"absent","response":"present","rt":"1867.5","correct":false,"confidence":-1},{"trial_n":13,"span":13,"encoder":"5677100582327","distractor":"5677100582329","target":"present","response":"present","rt":"4082.3000000007","correct":true,"confidence":-1},{"trial_n":14,"span":13,"encoder":"0712532656005","distractor":"0712534656005","target":"present","response":"present","rt":"2981.6000000015","correct":true,"confidence":-1},{"trial_n":15,"span":14,"encoder":"51485193584767","distractor":"51485193584747","target":"absent","response":"present","rt":"4201.3999999985","correct":false,"confidence":-1},{"trial_n":16,"span":13,"encoder":"2394499823657","distractor":"2394492823657","target":"absent","response":"absent","rt":"5546.3000000007","correct":true,"confidence":-1},{"trial_n":17,"span":13,"encoder":"8177181594572","distractor":"8277181594572","target":"absent","response":"present","rt":"6084.4000000022","correct":false,"confidence":-1},{"trial_n":18,"span":12,"encoder":"879946469576","distractor":"879936469576","target":"absent","response":"present","rt":"1461.0999999978","correct":false,"confidence":-1},{"trial_n":19,"span":11,"encoder":"40146790898","distractor":"48146790898","target":"present","response":"present","rt":"1501.8999999985","correct":true,"confidence":-1},{"trial_n":20,"span":11,"encoder":"41278424001","distractor":"41278424051","target":"absent","response":"absent","rt":"1847.1999999993","correct":true,"confidence":-1},{"trial_n":21,"span":12,"encoder":"852486308688","distractor":"652486308688","target":"present","response":"present","rt":"2039","correct":true,"confidence":5},{"trial_n":22,"span":12,"encoder":"747367304412","distractor":"727367304412","target":"present","response":"present","rt":"7048.3999999985","correct":true,"confidence":5},{"trial_n":23,"span":13,"encoder":"0669491410375","distractor":"6669491410375","target":"present","response":"absent","rt":"6074.6000000015","correct":false,"confidence":5},{"trial_n":24,"span":12,"encoder":"796385290586","distractor":"796385290580","target":"present","response":"present","rt":"4345.1999999993","correct":true,"confidence":5},{"trial_n":25,"span":12,"encoder":"158757779030","distractor":"158757773030","target":"present","response":"present","rt":"1559.9000000022","correct":true,"confidence":5},{"trial_n":26,"span":13,"encoder":"6397988012949","distractor":"6397988002949","target":"absent","response":"present","rt":"3651.0999999978","correct":false,"confidence":5},{"trial_n":27,"span":12,"encoder":"044293959249","distractor":"044693959249","target":"present","response":"present","rt":"3131.4000000022","correct":true,"confidence":5},{"trial_n":28,"span":12,"encoder":"400067186048","distractor":"400067986048","target":"present","response":"present","rt":"1683.9000000022","correct":true,"confidence":5},{"trial_n":29,"span":13,"encoder":"4274890751850","distractor":"4274890751050","target":"absent","response":"present","rt":"4214","correct":false,"confidence":4},{"trial_n":30,"span":12,"encoder":"763138681385","distractor":"763138685385","target":"present","response":"present","rt":"6792","correct":true,"confidence":5},{"trial_n":31,"span":12,"encoder":"306978656815","distractor":"306978651815","target":"present","response":"absent","rt":"5333.3000000007","correct":false,"confidence":4},{"trial_n":32,"span":11,"encoder":"34324842634","distractor":"34322842634","target":"present","response":"present","rt":"4326.6999999993","correct":true,"confidence":4},{"trial_n":33,"span":11,"encoder":"64472155416","distractor":"64472155016","target":"absent","response":"absent","rt":"7300.1999999993","correct":true,"confidence":3},{"trial_n":34,"span":12,"encoder":"511761796916","distractor":"511761726916","target":"absent","response":"absent","rt":"2637.8999999985","correct":true,"confidence":2},{"trial_n":35,"span":12,"encoder":"042490791093","distractor":"062490791093","target":"present","response":"absent","rt":"5130","correct":false,"confidence":4},{"trial_n":36,"span":11,"encoder":"16436177956","distractor":"16236177956","target":"absent","response":"present","rt":"4350.8999999985","correct":false,"confidence":3},{"trial_n":37,"span":10,"encoder":"0621561420","distractor":"0621861420","target":"absent","response":"present","rt":"2064.9000000022","correct":false,"confidence":4},{"trial_n":38,"span":9,"encoder":"769606332","distractor":"769606342","target":"absent","response":"absent","rt":"5122.3000000007","correct":true,"confidence":3},{"trial_n":39,"span":9,"encoder":"283209679","distractor":"283209676","target":"present","response":"absent","rt":"4383.9000000022","correct":false,"confidence":4},{"trial_n":40,"span":8,"encoder":"04013261","distractor":"04016261","target":"absent","response":"absent","rt":"4678.8000000007","correct":true,"confidence":3},{"trial_n":41,"span":8,"encoder":"63317644","distractor":"63311644","target":"absent","response":"absent","rt":"2998.6000000015","correct":true,"confidence":4},{"trial_n":42,"span":9,"encoder":"469059352","distractor":"469055352","target":"present","response":"absent","rt":"4205.3000000007","correct":false,"confidence":3},{"trial_n":43,"span":8,"encoder":"48979103","distractor":"48975103","target":"present","response":"absent","rt":"5687","correct":false,"confidence":4},{"trial_n":44,"span":7,"encoder":"6821762","distractor":"6801762","target":"absent","response":"present","rt":"4515","correct":false,"confidence":4},{"trial_n":45,"span":6,"encoder":"163692","distractor":"163696","target":"present","response":"present","rt":"1496.200000003","correct":true,"confidence":4},{"trial_n":46,"span":6,"encoder":"949671","distractor":"949661","target":"absent","response":"absent","rt":"2740.6000000015","correct":true,"confidence":5},{"trial_n":47,"span":7,"encoder":"5637122","distractor":"3637122","target":"present","response":"absent","rt":"3545.9000000022","correct":false,"confidence":4},{"trial_n":48,"span":6,"encoder":"557522","distractor":"558522","target":"present","response":"present","rt":"2583.799999997","correct":true,"confidence":4},{"trial_n":49,"span":6,"encoder":"228438","distractor":"228428","target":"absent","response":"present","rt":"2435.3000000007","correct":false,"confidence":4},{"trial_n":50,"span":5,"encoder":"60613","distractor":"60313","target":"absent","response":"absent","rt":"2396.1999999993","correct":true,"confidence":4},{"trial_n":51,"span":5,"encoder":"00509","distractor":"00209","target":"absent","response":"absent","rt":"1621.6999999993","correct":true,"confidence":4},{"trial_n":52,"span":6,"encoder":"584622","distractor":"584629","target":"absent","response":"absent","rt":"3449","correct":true,"confidence":5},{"trial_n":53,"span":6,"encoder":"774603","distractor":"374603","target":"absent","response":"absent","rt":"2314.6999999993","correct":true,"confidence":5},{"trial_n":54,"span":7,"encoder":"2536189","distractor":"2536185","target":"absent","response":"absent","rt":"2950.6999999993","correct":true,"confidence":5},{"trial_n":55,"span":7,"encoder":"4022708","distractor":"2022708","target":"present","response":"present","rt":"1616.8000000007","correct":true,"confidence":5},{"trial_n":56,"span":8,"encoder":"25868063","distractor":"22868063","target":"absent","response":"present","rt":"2972.3999999985","correct":false,"confidence":5},{"trial_n":57,"span":7,"encoder":"0807002","distractor":"0807092","target":"present","response":"absent","rt":"4183.3999999985","correct":false,"confidence":5},{"trial_n":58,"span":6,"encoder":"572347","distractor":"572947","target":"absent","response":"absent","rt":"2471.1000000015","correct":true,"confidence":4},{"trial_n":59,"span":6,"encoder":"597744","distractor":"557744","target":"present","response":"present","rt":"2124.8999999985","correct":true,"confidence":4},{"trial_n":60,"span":7,"encoder":"1820103","distractor":"1920103","target":"present","response":"present","rt":"2332","correct":true,"confidence":5},{"trial_n":61,"span":7,"encoder":"6566234","distractor":"6566134","target":"present","response":"absent","rt":"3383.799999997","correct":false,"confidence":3},{"trial_n":62,"span":6,"encoder":"569093","distractor":"669093","target":"present","response":"present","rt":"1794.6999999993","correct":true,"confidence":5},{"trial_n":63,"span":6,"encoder":"654246","distractor":"154246","target":"present","response":"present","rt":"2612.9000000022","correct":true,"confidence":5},{"trial_n":64,"span":7,"encoder":"6985216","distractor":"6985217","target":"absent","response":"absent","rt":"1415.6999999993","correct":true,"confidence":5},{"trial_n":65,"span":7,"encoder":"4417048","distractor":"4417046","target":"present","response":"present","rt":"2065","correct":true,"confidence":5},{"trial_n":66,"span":8,"encoder":"80928473","distractor":"80920473","target":"present","response":"absent","rt":"2749.700000003","correct":false,"confidence":4},{"trial_n":67,"span":7,"encoder":"7432862","distractor":"7452862","target":"absent","response":"present","rt":"3008.1999999993","correct":false,"confidence":5},{"trial_n":68,"span":6,"encoder":"387126","distractor":"287126","target":"present","response":"present","rt":"1394.4000000022","correct":true,"confidence":5},{"trial_n":69,"span":6,"encoder":"552517","distractor":"652517","target":"absent","response":"absent","rt":"2247.8000000007","correct":true,"confidence":5},{"trial_n":70,"span":7,"encoder":"3193089","distractor":"3183089","target":"absent","response":"absent","rt":"1861.3000000007","correct":true,"confidence":5},{"trial_n":71,"span":8,"encoder":"97794160","distractor":"67794160","target":"present","response":"present","rt":"8281.5","correct":true,"confidence":-1},{"trial_n":72,"span":8,"encoder":"50565646","distractor":"30565646","target":"present","response":"present","rt":"1954.8999999985","correct":true,"confidence":-1},{"trial_n":73,"span":9,"encoder":"271338647","distractor":"273338647","target":"absent","response":"present","rt":"6590.3999999985","correct":false,"confidence":-1},{"trial_n":74,"span":8,"encoder":"41233603","distractor":"61233603","target":"absent","response":"absent","rt":"1755.6000000015","correct":true,"confidence":-1},{"trial_n":75,"span":8,"encoder":"16459531","distractor":"16759531","target":"present","response":"present","rt":"2722.6999999993","correct":true,"confidence":-1},{"trial_n":76,"span":9,"encoder":"834123306","distractor":"834123706","target":"present","response":"present","rt":"3644.8999999985","correct":true,"confidence":-1},{"trial_n":77,"span":9,"encoder":"105048172","distractor":"100048172","target":"absent","response":"absent","rt":"3493.1999999993","correct":true,"confidence":-1},{"trial_n":78,"span":10,"encoder":"6271921622","distractor":"6201921622","target":"present","response":"absent","rt":"3100.8999999985","correct":false,"confidence":-1},{"trial_n":79,"span":9,"encoder":"888297868","distractor":"888497868","target":"present","response":"present","rt":"2235.3000000007","correct":true,"confidence":-1},{"trial_n":80,"span":9,"encoder":"016671635","distractor":"016671637","target":"present","response":"present","rt":"4029.8000000007","correct":true,"confidence":-1},{"trial_n":81,"span":10,"encoder":"6711195431","distractor":"6711192431","target":"absent","response":"present","rt":"4581.200000003","correct":false,"confidence":-1},{"trial_n":82,"span":9,"encoder":"310661320","distractor":"910661320","target":"present","response":"present","rt":"3533.8000000007","correct":true,"confidence":-1},{"trial_n":83,"span":9,"encoder":"801172556","distractor":"601172556","target":"present","response":"present","rt":"1630.3999999985","correct":true,"confidence":-1},{"trial_n":84,"span":10,"encoder":"8706943390","distractor":"8506943390","target":"present","response":"present","rt":"1728.1999999993","correct":true,"confidence":-1},{"trial_n":85,"span":10,"encoder":"5914255146","distractor":"5984255146","target":"present","response":"present","rt":"4355.8999999985","correct":true,"confidence":-1},{"trial_n":86,"span":11,"encoder":"47416631330","distractor":"47416631340","target":"present","response":"present","rt":"3267.5","correct":true,"confidence":-1},{"trial_n":87,"span":11,"encoder":"18280009603","distractor":"18280209603","target":"absent","response":"present","rt":"3495.200000003","correct":false,"confidence":-1},{"trial_n":88,"span":10,"encoder":"0397243327","distractor":"0997243327","target":"absent","response":"present","rt":"2063.8000000007","correct":false,"confidence":-1},{"trial_n":89,"span":9,"encoder":"936403435","distractor":"936503435","target":"present","response":"absent","rt":"2835.9000000022","correct":false,"confidence":-1},{"trial_n":90,"span":8,"encoder":"94562130","distractor":"14562130","target":"absent","response":"present","rt":"1177.9000000022","correct":false,"confidence":-1},{"trial_n":91,"span":7,"encoder":"3688451","distractor":"9688451","target":"absent","response":"absent","rt":"2295.8999999985","correct":true,"confidence":4},{"trial_n":92,"span":7,"encoder":"4975328","distractor":"4975329","target":"absent","response":"absent","rt":"2735.6999999993","correct":true,"confidence":5},{"trial_n":93,"span":8,"encoder":"04254007","distractor":"04224007","target":"present","response":"present","rt":"1952.3999999985","correct":true,"confidence":5},{"trial_n":94,"span":8,"encoder":"69651309","distractor":"69654309","target":"present","response":"present","rt":"3485.5999999978","correct":true,"confidence":5},{"trial_n":95,"span":9,"encoder":"833329196","distractor":"833329186","target":"absent","response":"absent","rt":"3089.1000000015","correct":true,"confidence":5},{"trial_n":96,"span":9,"encoder":"134444730","distractor":"134454730","target":"absent","response":"absent","rt":"1604","correct":true,"confidence":5},{"trial_n":97,"span":10,"encoder":"3336509248","distractor":"3336504248","target":"present","response":"present","rt":"4361.8999999985","correct":true,"confidence":5},{"trial_n":98,"span":10,"encoder":"7224207693","distractor":"7224207093","target":"present","response":"present","rt":"6722.9000000022","correct":true,"confidence":3},{"trial_n":99,"span":11,"encoder":"06420488893","distractor":"06420488493","target":"present","response":"present","rt":"4936","correct":true,"confidence":4},{"trial_n":100,"span":11,"encoder":"09804667489","distractor":"09804867489","target":"absent","response":"absent","rt":"5444","correct":true,"confidence":2},{"trial_n":101,"span":12,"encoder":"431603080908","distractor":"431603085908","target":"present","response":"present","rt":"5203.0999999978","correct":true,"confidence":2},{"trial_n":102,"span":12,"encoder":"741263235997","distractor":"741263535997","target":"absent","response":"present","rt":"6769.5","correct":false,"confidence":2},{"trial_n":103,"span":11,"encoder":"43888010689","distractor":"43880010689","target":"absent","response":"present","rt":"3601.5","correct":false,"confidence":2},{"trial_n":104,"span":10,"encoder":"9478155325","distractor":"9470155325","target":"present","response":"present","rt":"4577.5","correct":true,"confidence":2},{"trial_n":105,"span":10,"encoder":"3300342467","distractor":"3300332467","target":"present","response":"present","rt":"3061","correct":true,"confidence":5},{"trial_n":106,"span":11,"encoder":"67976364847","distractor":"67976364867","target":"absent","response":"present","rt":"6761.8999999985","correct":false,"confidence":3},{"trial_n":107,"span":10,"encoder":"1363800024","distractor":"9363800024","target":"present","response":"absent","rt":"4274.6999999993","correct":false,"confidence":5},{"trial_n":108,"span":9,"encoder":"137253672","distractor":"134253672","target":"present","response":"present","rt":"3518.3999999985","correct":true,"confidence":3},{"trial_n":109,"span":9,"encoder":"076162216","distractor":"076162516","target":"absent","response":"absent","rt":"1767.8999999985","correct":true,"confidence":5},{"trial_n":110,"span":10,"encoder":"0148627876","distractor":"0148627976","target":"absent","response":"present","rt":"8556.5","correct":false,"confidence":4},{"trial_n":111,"span":9,"encoder":"623285757","distractor":"623685757","target":"absent","response":"absent","rt":"8697","correct":true,"confidence":5},{"trial_n":112,"span":9,"encoder":"501258471","distractor":"561258471","target":"present","response":"present","rt":"3562.3000000007","correct":true,"confidence":3},{"trial_n":113,"span":10,"encoder":"0275637760","distractor":"0275637960","target":"absent","response":"absent","rt":"7467.3000000007","correct":true,"confidence":2},{"trial_n":114,"span":10,"encoder":"3961789252","distractor":"3261789252","target":"absent","response":"absent","rt":"5980.3000000007","correct":true,"confidence":3},{"trial_n":115,"span":11,"encoder":"32794662759","distractor":"32794669759","target":"present","response":"present","rt":"4739.8000000007","correct":true,"confidence":4},{"trial_n":116,"span":11,"encoder":"41727266965","distractor":"41727264965","target":"absent","response":"absent","rt":"2817.5","correct":true,"confidence":5},{"trial_n":117,"span":12,"encoder":"979509530868","distractor":"977509530868","target":"absent","response":"absent","rt":"8448.4000000022","correct":true,"confidence":5},{"trial_n":118,"span":12,"encoder":"776974304756","distractor":"786974304756","target":"present","response":"present","rt":"1554.6999999993","correct":true,"confidence":4},{"trial_n":119,"span":13,"encoder":"3666736154055","distractor":"3666736154057","target":"absent","response":"absent","rt":"3044.1000000015","correct":true,"confidence":5},{"trial_n":120,"span":13,"encoder":"4556617992984","distractor":"4556617992989","target":"absent","response":"present","rt":"8489.8999999985","correct":false,"confidence":2},{"trial_n":121,"span":12,"encoder":"333526382467","distractor":"333026382467","target":"absent","response":"absent","rt":"3901.799999997","correct":true,"confidence":4},{"trial_n":122,"span":12,"encoder":"987182499838","distractor":"987182499138","target":"present","response":"absent","rt":"12044.599999998","correct":false,"confidence":2},{"trial_n":123,"span":11,"encoder":"68358485886","distractor":"68358484886","target":"present","response":"present","rt":"2941.3999999985","correct":true,"confidence":5},{"trial_n":124,"span":11,"encoder":"14597876787","distractor":"14597376787","target":"present","response":"present","rt":"5386.299999997","correct":true,"confidence":4},{"trial_n":125,"span":12,"encoder":"091957711903","distractor":"041957711903","target":"absent","response":"absent","rt":"7207.8999999985","correct":true,"confidence":3},{"trial_n":126,"span":12,"encoder":"634571043562","distractor":"634571743562","target":"present","response":"absent","rt":"7312.6999999993","correct":false,"confidence":3},{"trial_n":127,"span":11,"encoder":"32077572505","distractor":"32077572585","target":"absent","response":"absent","rt":"2209.8999999985","correct":true,"confidence":5},{"trial_n":128,"span":11,"encoder":"19194781766","distractor":"19192781766","target":"absent","response":"present","rt":"2511.5","correct":false,"confidence":5},{"trial_n":129,"span":10,"encoder":"1049341204","distractor":"1049348204","target":"absent","response":"absent","rt":"3771.9000000022","correct":true,"confidence":5},{"trial_n":130,"span":10,"encoder":"9346919044","distractor":"9346969044","target":"present","response":"present","rt":"4236.3000000007","correct":true,"confidence":5},{"trial_n":131,"span":11,"encoder":"98128278129","distractor":"98328278129","target":"absent","response":"present","rt":"9017.5999999978","correct":false,"confidence":2},{"trial_n":132,"span":10,"encoder":"9793276397","distractor":"5793276397","target":"present","response":"present","rt":"4326.9000000022","correct":true,"confidence":5},{"trial_n":133,"span":10,"encoder":"1506050615","distractor":"1503050615","target":"present","response":"present","rt":"5588.6999999993","correct":true,"confidence":5},{"trial_n":134,"span":11,"encoder":"71299817535","distractor":"71293817535","target":"present","response":"present","rt":"3651.5","correct":true,"confidence":4},{"trial_n":135,"span":11,"encoder":"68147134784","distractor":"68137134784","target":"absent","response":"present","rt":"5518.4000000022","correct":false,"confidence":4},{"trial_n":136,"span":10,"encoder":"4514657856","distractor":"4519657856","target":"present","response":"present","rt":"5196.5999999978","correct":true,"confidence":5},{"trial_n":137,"span":10,"encoder":"0759332435","distractor":"8759332435","target":"absent","response":"absent","rt":"3634.8000000007","correct":true,"confidence":4},{"trial_n":138,"span":11,"encoder":"87804906531","distractor":"87804906533","target":"absent","response":"absent","rt":"1290.299999997","correct":true,"confidence":5},{"trial_n":139,"span":11,"encoder":"99538931511","distractor":"99539931511","target":"present","response":"present","rt":"4824.5","correct":true,"confidence":4},{"trial_n":140,"span":12,"encoder":"816794038831","distractor":"816794033831","target":"absent","response":"absent","rt":"2773.6999999993","correct":true,"confidence":4}]