[{"trial_n":1,"min":25,"max":230,"target":"present","response":"absent","rt":6997,"correct":false,"confidence":-1},{"trial_n":2,"min":25,"max":230,"target":"present","response":"absent","rt":2001,"correct":false,"confidence":-1},{"trial_n":3,"min":9,"max":246,"target":"absent","response":"present","rt":3398,"correct":false,"confidence":-1},{"trial_n":4,"min":0,"max":255,"target":"absent","response":"present","rt":4643,"correct":false,"confidence":-1},{"trial_n":5,"min":0,"max":255,"target":"present","response":"present","rt":3711,"correct":true,"confidence":-1},{"trial_n":6,"min":0,"max":255,"target":"present","response":"present","rt":1105,"correct":true,"confidence":-1},{"trial_n":7,"min":16,"max":239,"target":"absent","response":"absent","rt":798,"correct":true,"confidence":-1},{"trial_n":8,"min":16,"max":239,"target":"absent","response":"absent","rt":479.99999999999,"correct":true,"confidence":-1},{"trial_n":9,"min":32,"max":223,"target":"present","response":"present","rt":636,"correct":true,"confidence":-1},{"trial_n":10,"min":32,"max":223,"target":"present","response":"present","rt":564,"correct":true,"confidence":-1},{"trial_n":11,"min":40,"max":215,"target":"present","response":"present","rt":304,"correct":true,"confidence":-1},{"trial_n":12,"min":40,"max":215,"target":"absent","response":"absent","rt":619.99999999999,"correct":true,"confidence":-1},{"trial_n":13,"min":48,"max":207,"target":"present","response":"absent","rt":371,"correct":false,"confidence":-1},{"trial_n":14,"min":40,"max":215,"target":"absent","response":"absent","rt":819.99999999999,"correct":true,"confidence":-1},{"trial_n":15,"min":40,"max":215,"target":"present","response":"absent","rt":233.99999999999,"correct":false,"confidence":-1},{"trial_n":16,"min":32,"max":223,"target":"absent","response":"absent","rt":637.99999999999,"correct":true,"confidence":-1},{"trial_n":17,"min":32,"max":223,"target":"present","response":"absent","rt":28626,"correct":false,"confidence":-1},{"trial_n":18,"min":24,"max":231,"target":"present","response":"present","rt":651,"correct":true,"confidence":-1},{"trial_n":19,"min":24,"max":231,"target":"present","response":"present","rt":225,"correct":true,"confidence":-1},{"trial_n":20,"min":32,"max":223,"target":"absent","response":"absent","rt":478,"correct":true,"confidence":-1},{"trial_n":21,"min":32,"max":223,"target":"absent","response":"absent","rt":447,"correct":true,"confidence":3},{"trial_n":22,"min":36,"max":219,"target":"absent","response":"absent","rt":862,"correct":true,"confidence":3},{"trial_n":23,"min":36,"max":219,"target":"absent","response":"absent","rt":726,"correct":true,"confidence":3},{"trial_n":24,"min":40,"max":215,"target":"absent","response":"absent","rt":538.99999999999,"correct":true,"confidence":3},{"trial_n":25,"min":40,"max":215,"target":"absent","response":"absent","rt":1104,"correct":true,"confidence":3},{"trial_n":26,"min":44,"max":211,"target":"absent","response":"absent","rt":1163,"correct":true,"confidence":3},{"trial_n":27,"min":44,"max":211,"target":"present","response":"present","rt":717,"correct":true,"confidence":4},{"trial_n":28,"min":48,"max":207,"target":"absent","response":"absent","rt":557.99999999999,"correct":true,"confidence":3},{"trial_n":29,"min":48,"max":207,"target":"present","response":"present","rt":893,"correct":true,"confidence":3},{"trial_n":30,"min":52,"max":203,"target":"absent","response":"absent","rt":782,"correct":true,"confidence":3},{"trial_n":31,"min":52,"max":203,"target":"absent","response":"absent","rt":633,"correct":true,"confidence":2},{"trial_n":32,"min":54,"max":201,"target":"present","response":"present","rt":913,"correct":true,"confidence":3},{"trial_n":33,"min":54,"max":201,"target":"absent","response":"absent","rt":366,"correct":true,"confidence":3},{"trial_n":34,"min":56,"max":199,"target":"present","response":"present","rt":586,"correct":true,"confidence":3},{"trial_n":35,"min":56,"max":199,"target":"absent","response":"absent","rt":997.99999999997,"correct":true,"confidence":3},{"trial_n":36,"min":58,"max":197,"target":"present","response":"present","rt":832,"correct":true,"confidence":2},{"trial_n":37,"min":58,"max":197,"target":"absent","response":"absent","rt":941,"correct":true,"confidence":3},{"trial_n":38,"min":60,"max":195,"target":"present","response":"present","rt":677,"correct":true,"confidence":2},{"trial_n":39,"min":60,"max":195,"target":"present","response":"present","rt":900,"correct":true,"confidence":3},{"trial_n":40,"min":62,"max":193,"target":"present","response":"present","rt":623,"correct":true,"confidence":3},{"trial_n":41,"min":62,"max":193,"target":"present","response":"present","rt":1234,"correct":true,"confidence":2},{"trial_n":42,"min":63,"max":192,"target":"present","response":"present","rt":492,"correct":true,"confidence":3},{"trial_n":43,"min":63,"max":192,"target":"absent","response":"absent","rt":722.99999999997,"correct":true,"confidence":4},{"trial_n":44,"min":64,"max":191,"target":"present","response":"present","rt":640,"correct":true,"confidence":2},{"trial_n":45,"min":64,"max":191,"target":"absent","response":"absent","rt":825,"correct":true,"confidence":3},{"trial_n":46,"min":65,"max":190,"target":"absent","response":"absent","rt":583,"correct":true,"confidence":3},{"trial_n":47,"min":65,"max":190,"target":"absent","response":"absent","rt":581,"correct":true,"confidence":3},{"trial_n":48,"min":66,"max":189,"target":"present","response":"present","rt":780,"correct":true,"confidence":2},{"trial_n":49,"min":66,"max":189,"target":"present","response":"present","rt":724,"correct":true,"confidence":3},{"trial_n":50,"min":67,"max":188,"target":"absent","response":"absent","rt":435,"correct":true,"confidence":3},{"trial_n":51,"min":67,"max":188,"target":"absent","response":"absent","rt":609,"correct":true,"confidence":3},{"trial_n":52,"min":68,"max":187,"target":"present","response":"present","rt":563,"correct":true,"confidence":3},{"trial_n":53,"min":68,"max":187,"target":"absent","response":"absent","rt":514,"correct":true,"confidence":2},{"trial_n":54,"min":69,"max":186,"target":"present","response":"absent","rt":1040,"correct":false,"confidence":2},{"trial_n":55,"min":68,"max":187,"target":"present","response":"absent","rt":1513,"correct":false,"confidence":2},{"trial_n":56,"min":67,"max":188,"target":"present","response":"present","rt":745,"correct":true,"confidence":2},{"trial_n":57,"min":67,"max":188,"target":"present","response":"present","rt":748,"correct":true,"confidence":3},{"trial_n":58,"min":68,"max":187,"target":"absent","response":"absent","rt":1061,"correct":true,"confidence":3},{"trial_n":59,"min":68,"max":187,"target":"absent","response":"absent","rt":547,"correct":true,"confidence":3},{"trial_n":60,"min":69,"max":186,"target":"present","response":"absent","rt":871,"correct":false,"confidence":3},{"trial_n":61,"min":68,"max":187,"target":"absent","response":"absent","rt":683.00000000003,"correct":true,"confidence":3},{"trial_n":62,"min":68,"max":187,"target":"present","response":"present","rt":464,"correct":true,"confidence":4},{"trial_n":63,"min":69,"max":186,"target":"present","response":"absent","rt":938,"correct":false,"confidence":3},{"trial_n":64,"min":68,"max":187,"target":"absent","response":"absent","rt":433,"correct":true,"confidence":3},{"trial_n":65,"min":68,"max":187,"target":"present","response":"present","rt":677.00000000003,"correct":true,"confidence":3},{"trial_n":66,"min":69,"max":186,"target":"present","response":"absent","rt":918,"correct":false,"confidence":3},{"trial_n":67,"min":68,"max":187,"target":"absent","response":"absent","rt":1799,"correct":true,"confidence":4},{"trial_n":68,"min":68,"max":187,"target":"absent","response":"absent","rt":727.99999999994,"correct":true,"confidence":4},{"trial_n":69,"min":69,"max":186,"target":"present","response":"present","rt":797.00000000003,"correct":true,"confidence":4},{"trial_n":70,"min":69,"max":186,"target":"absent","response":"absent","rt":528.00000000006,"correct":true,"confidence":3},{"trial_n":71,"min":41,"max":214,"target":"present","response":"present","rt":9164.9999999998,"correct":true,"confidence":-1},{"trial_n":72,"min":41,"max":214,"target":"present","response":"present","rt":220,"correct":true,"confidence":-1},{"trial_n":73,"min":57,"max":198,"target":"absent","response":"absent","rt":1235,"correct":true,"confidence":-1},{"trial_n":74,"min":57,"max":198,"target":"absent","response":"absent","rt":213,"correct":true,"confidence":-1},{"trial_n":75,"min":73,"max":182,"target":"present","response":"absent","rt":627,"correct":false,"confidence":-1},{"trial_n":76,"min":57,"max":198,"target":"present","response":"present","rt":200,"correct":true,"confidence":-1},{"trial_n":77,"min":57,"max":198,"target":"present","response":"present","rt":774,"correct":true,"confidence":-1},{"trial_n":78,"min":73,"max":182,"target":"absent","response":"absent","rt":858,"correct":true,"confidence":-1},{"trial_n":79,"min":73,"max":182,"target":"absent","response":"absent","rt":557,"correct":true,"confidence":-1},{"trial_n":80,"min":89,"max":166,"target":"absent","response":"absent","rt":100,"correct":true,"confidence":-1},{"trial_n":81,"min":89,"max":166,"target":"present","response":"absent","rt":48,"correct":false,"confidence":-1},{"trial_n":82,"min":81,"max":174,"target":"absent","response":"absent","rt":224,"correct":true,"confidence":-1},{"trial_n":83,"min":81,"max":174,"target":"absent","response":"absent","rt":168,"correct":true,"confidence":-1},{"trial_n":84,"min":89,"max":166,"target":"present","response":"absent","rt":151,"correct":false,"confidence":-1},{"trial_n":85,"min":81,"max":174,"target":"absent","response":"absent","rt":175,"correct":true,"confidence":-1},{"trial_n":86,"min":81,"max":174,"target":"present","response":"present","rt":65.999999999767,"correct":true,"confidence":-1},{"trial_n":87,"min":89,"max":166,"target":"absent","response":"present","rt":401,"correct":false,"confidence":-1},{"trial_n":88,"min":81,"max":174,"target":"present","response":"absent","rt":594,"correct":false,"confidence":-1},{"trial_n":89,"min":73,"max":182,"target":"present","response":"present","rt":402,"correct":true,"confidence":-1},{"trial_n":90,"min":73,"max":182,"target":"absent","response":"present","rt":409,"correct":false,"confidence":-1},{"trial_n":91,"min":69,"max":186,"target":"present","response":"present","rt":359,"correct":true,"confidence":3},{"trial_n":92,"min":69,"max":186,"target":"present","response":"present","rt":1234,"correct":true,"confidence":3},{"trial_n":93,"min":73,"max":182,"target":"present","response":"present","rt":202,"correct":true,"confidence":3},{"trial_n":94,"min":73,"max":182,"target":"present","response":"present","rt":2145,"correct":true,"confidence":2},{"trial_n":95,"min":77,"max":178,"target":"present","response":"present","rt":184.00000000023,"correct":true,"confidence":3},{"trial_n":96,"min":77,"max":178,"target":"absent","response":"absent","rt":647,"correct":true,"confidence":3},{"trial_n":97,"min":81,"max":174,"target":"present","response":"absent","rt":421,"correct":false,"confidence":3},{"trial_n":98,"min":77,"max":178,"target":"absent","response":"absent","rt":859,"correct":true,"confidence":3},{"trial_n":99,"min":77,"max":178,"target":"absent","response":"absent","rt":58,"correct":true,"confidence":3},{"trial_n":100,"min":81,"max":174,"target":"present","response":"present","rt":394,"correct":true,"confidence":2},{"trial_n":101,"min":81,"max":174,"target":"absent","response":"present","rt":486,"correct":false,"confidence":3},{"trial_n":102,"min":79,"max":176,"target":"absent","response":"present","rt":282,"correct":false,"confidence":3},{"trial_n":103,"min":77,"max":178,"target":"absent","response":"absent","rt":572,"correct":true,"confidence":2},{"trial_n":104,"min":77,"max":178,"target":"present","response":"absent","rt":294,"correct":false,"confidence":3},{"trial_n":105,"min":75,"max":180,"target":"absent","response":"absent","rt":238.00000000023,"correct":true,"confidence":3},{"trial_n":106,"min":75,"max":180,"target":"present","response":"present","rt":191,"correct":true,"confidence":3},{"trial_n":107,"min":77,"max":178,"target":"present","response":"present","rt":166,"correct":true,"confidence":3},{"trial_n":108,"min":77,"max":178,"target":"present","response":"present","rt":499,"correct":true,"confidence":3},{"trial_n":109,"min":79,"max":176,"target":"absent","response":"absent","rt":76,"correct":true,"confidence":3},{"trial_n":110,"min":79,"max":176,"target":"present","response":"present","rt":592,"correct":true,"confidence":2},{"trial_n":111,"min":80,"max":175,"target":"absent","response":"absent","rt":358.99999999977,"correct":true,"confidence":3},{"trial_n":112,"min":80,"max":175,"target":"absent","response":"absent","rt":369,"correct":true,"confidence":3},{"trial_n":113,"min":81,"max":174,"target":"present","response":"present","rt":155,"correct":true,"confidence":3},{"trial_n":114,"min":81,"max":174,"target":"absent","response":"present","rt":314,"correct":false,"confidence":2},{"trial_n":115,"min":80,"max":175,"target":"absent","response":"absent","rt":411.99999999977,"correct":true,"confidence":3},{"trial_n":116,"min":80,"max":175,"target":"absent","response":"absent","rt":69,"correct":true,"confidence":3},{"trial_n":117,"min":81,"max":174,"target":"absent","response":"absent","rt":352,"correct":true,"confidence":3},{"trial_n":118,"min":81,"max":174,"target":"absent","response":"absent","rt":322.00000000023,"correct":true,"confidence":1},{"trial_n":119,"min":82,"max":173,"target":"present","response":"absent","rt":705,"correct":false,"confidence":3},{"trial_n":120,"min":81,"max":174,"target":"present","response":"absent","rt":334,"correct":false,"confidence":3},{"trial_n":121,"min":80,"max":175,"target":"present","response":"present","rt":397,"correct":true,"confidence":2},{"trial_n":122,"min":80,"max":175,"target":"present","response":"present","rt":500,"correct":true,"confidence":2},{"trial_n":123,"min":81,"max":174,"target":"present","response":"present","rt":406.99999999977,"correct":true,"confidence":2},{"trial_n":124,"min":81,"max":174,"target":"absent","response":"absent","rt":48,"correct":true,"confidence":3},{"trial_n":125,"min":82,"max":173,"target":"absent","response":"absent","rt":275,"correct":true,"confidence":3},{"trial_n":126,"min":82,"max":173,"target":"present","response":"present","rt":440,"correct":true,"confidence":3},{"trial_n":127,"min":83,"max":172,"target":"absent","response":"present","rt":96,"correct":false,"confidence":3},{"trial_n":128,"min":82,"max":173,"target":"present","response":"absent","rt":498,"correct":false,"confidence":3},{"trial_n":129,"min":81,"max":174,"target":"present","response":"present","rt":140.00000000023,"correct":true,"confidence":3},{"trial_n":130,"min":81,"max":174,"target":"present","response":"absent","rt":553,"correct":false,"confidence":3},{"trial_n":131,"min":80,"max":175,"target":"present","response":"present","rt":368,"correct":true,"confidence":3},{"trial_n":132,"min":80,"max":175,"target":"absent","response":"present","rt":154,"correct":false,"confidence":2},{"trial_n":133,"min":79,"max":176,"target":"absent","response":"absent","rt":114,"correct":true,"confidence":3},{"trial_n":134,"min":79,"max":176,"target":"absent","response":"absent","rt":137,"correct":true,"confidence":3},{"trial_n":135,"min":80,"max":175,"target":"present","response":"absent","rt":153,"correct":false,"confidence":3},{"trial_n":136,"min":79,"max":176,"target":"present","response":"absent","rt":230.00000000023,"correct":false,"confidence":3},{"trial_n":137,"min":78,"max":177,"target":"absent","response":"absent","rt":376,"correct":true,"confidence":3},{"trial_n":138,"min":78,"max":177,"target":"absent","response":"absent","rt":302.00000000023,"correct":true,"confidence":1},{"trial_n":139,"min":79,"max":176,"target":"absent","response":"absent","rt":626,"correct":true,"confidence":3},{"trial_n":140,"min":79,"max":176,"target":"present","response":"absent","rt":571,"correct":false,"confidence":3}]