[{"trial_n":1,"span":8,"encoder":"86828169","distractor":"86828166","target":"present","response":"present","rt":"4579","correct":true,"confidence":-1},{"trial_n":2,"span":8,"encoder":"13111682","distractor":"13110682","target":"present","response":"present","rt":"1237","correct":true,"confidence":-1},{"trial_n":3,"span":10,"encoder":"0641628538","distractor":"0651628538","target":"absent","response":"present","rt":"1496","correct":false,"confidence":-1},{"trial_n":4,"span":8,"encoder":"05215639","distractor":"05210639","target":"absent","response":"present","rt":"1600","correct":false,"confidence":-1},{"trial_n":5,"span":6,"encoder":"619870","distractor":"618870","target":"present","response":"present","rt":"3385","correct":true,"confidence":-1},{"trial_n":6,"span":6,"encoder":"271002","distractor":"271502","target":"present","response":"present","rt":"1131","correct":true,"confidence":-1},{"trial_n":7,"span":8,"encoder":"58239351","distractor":"55239351","target":"present","response":"present","rt":"2824","correct":true,"confidence":-1},{"trial_n":8,"span":8,"encoder":"07401317","distractor":"07401347","target":"present","response":"present","rt":"1291","correct":true,"confidence":-1},{"trial_n":9,"span":10,"encoder":"1147280218","distractor":"1142280218","target":"absent","response":"absent","rt":"2663","correct":true,"confidence":-1},{"trial_n":10,"span":10,"encoder":"4758997622","distractor":"4758997662","target":"present","response":"absent","rt":"10120","correct":false,"confidence":-1},{"trial_n":11,"span":8,"encoder":"45414612","distractor":"45414682","target":"present","response":"absent","rt":"569.00000000006","correct":false,"confidence":-1},{"trial_n":12,"span":7,"encoder":"3164700","distractor":"3114700","target":"present","response":"present","rt":"1504","correct":true,"confidence":-1},{"trial_n":13,"span":7,"encoder":"5264464","distractor":"5263464","target":"present","response":"present","rt":"941.00000000006","correct":true,"confidence":-1},{"trial_n":14,"span":8,"encoder":"70466224","distractor":"70466024","target":"present","response":"present","rt":"1579","correct":true,"confidence":-1},{"trial_n":15,"span":8,"encoder":"71848871","distractor":"71848875","target":"absent","response":"absent","rt":"3071","correct":true,"confidence":-1},{"trial_n":16,"span":9,"encoder":"030543805","distractor":"034543805","target":"present","response":"present","rt":"1577","correct":true,"confidence":-1},{"trial_n":17,"span":9,"encoder":"484609155","distractor":"484639155","target":"absent","response":"present","rt":"2657","correct":false,"confidence":-1},{"trial_n":18,"span":8,"encoder":"91865109","distractor":"91665109","target":"absent","response":"absent","rt":"3647","correct":true,"confidence":-1},{"trial_n":19,"span":8,"encoder":"40675903","distractor":"40075903","target":"absent","response":"present","rt":"4440","correct":false,"confidence":-1},{"trial_n":20,"span":7,"encoder":"9299741","distractor":"7299741","target":"absent","response":"absent","rt":"2494","correct":true,"confidence":-1},{"trial_n":21,"span":7,"encoder":"9942355","distractor":"9949355","target":"absent","response":"absent","rt":"5191.9999999999","correct":true,"confidence":3},{"trial_n":22,"span":8,"encoder":"43003493","distractor":"43006493","target":"absent","response":"present","rt":"2505","correct":false,"confidence":3},{"trial_n":23,"span":7,"encoder":"8473742","distractor":"8073742","target":"present","response":"absent","rt":"54158","correct":false,"confidence":1},{"trial_n":24,"span":6,"encoder":"843596","distractor":"843598","target":"present","response":"present","rt":"3003","correct":true,"confidence":4},{"trial_n":25,"span":6,"encoder":"642629","distractor":"642669","target":"absent","response":"absent","rt":"2139","correct":true,"confidence":4},{"trial_n":26,"span":7,"encoder":"0425736","distractor":"3425736","target":"absent","response":"absent","rt":"3903.0000000001","correct":true,"confidence":4},{"trial_n":27,"span":7,"encoder":"6968509","distractor":"6968809","target":"present","response":"present","rt":"4070.9999999999","correct":true,"confidence":5},{"trial_n":28,"span":8,"encoder":"57027874","distractor":"50027874","target":"absent","response":"absent","rt":"2561","correct":true,"confidence":5},{"trial_n":29,"span":8,"encoder":"67027731","distractor":"67027231","target":"present","response":"present","rt":"2366","correct":true,"confidence":5},{"trial_n":30,"span":9,"encoder":"719310897","distractor":"719310597","target":"present","response":"present","rt":"3117","correct":true,"confidence":4},{"trial_n":31,"span":9,"encoder":"034075190","distractor":"034075199","target":"absent","response":"absent","rt":"8184.9999999999","correct":true,"confidence":1},{"trial_n":32,"span":10,"encoder":"8824411733","distractor":"8824411734","target":"present","response":"present","rt":"1323.0000000001","correct":true,"confidence":4},{"trial_n":33,"span":10,"encoder":"0744883122","distractor":"0744853122","target":"present","response":"present","rt":"2674","correct":true,"confidence":3},{"trial_n":34,"span":11,"encoder":"15708002244","distractor":"15708092244","target":"present","response":"present","rt":"1500","correct":true,"confidence":4},{"trial_n":35,"span":11,"encoder":"70443312093","distractor":"70442312093","target":"present","response":"present","rt":"2960","correct":true,"confidence":4},{"trial_n":36,"span":12,"encoder":"620858056312","distractor":"620858756312","target":"present","response":"present","rt":"11054","correct":true,"confidence":3},{"trial_n":37,"span":12,"encoder":"948781669961","distractor":"248781669961","target":"absent","response":"present","rt":"2977","correct":false,"confidence":4},{"trial_n":38,"span":11,"encoder":"28166904887","distractor":"28166404887","target":"absent","response":"absent","rt":"2193","correct":true,"confidence":1},{"trial_n":39,"span":11,"encoder":"69504645460","distractor":"69504644460","target":"absent","response":"absent","rt":"4211","correct":true,"confidence":1},{"trial_n":40,"span":12,"encoder":"432575835367","distractor":"032575835367","target":"absent","response":"present","rt":"2361","correct":false,"confidence":4},{"trial_n":41,"span":11,"encoder":"49139642409","distractor":"49639642409","target":"present","response":"present","rt":"2051.9999999999","correct":true,"confidence":4},{"trial_n":42,"span":11,"encoder":"86726749176","distractor":"86726709176","target":"absent","response":"absent","rt":"3001","correct":true,"confidence":4},{"trial_n":43,"span":12,"encoder":"757614268445","distractor":"757614262445","target":"absent","response":"present","rt":"2332.9999999999","correct":false,"confidence":4},{"trial_n":44,"span":11,"encoder":"64375207249","distractor":"64375207241","target":"present","response":"present","rt":"2408","correct":true,"confidence":4},{"trial_n":45,"span":11,"encoder":"17408643598","distractor":"17408643599","target":"present","response":"present","rt":"3160.0000000001","correct":true,"confidence":5},{"trial_n":46,"span":12,"encoder":"547146892384","distractor":"547144892384","target":"present","response":"present","rt":"4087","correct":true,"confidence":4},{"trial_n":47,"span":12,"encoder":"283121770293","distractor":"283121770283","target":"absent","response":"absent","rt":"4667","correct":true,"confidence":4},{"trial_n":48,"span":13,"encoder":"3660209496099","distractor":"3669209496099","target":"absent","response":"absent","rt":"2256","correct":true,"confidence":4},{"trial_n":49,"span":13,"encoder":"6992891455380","distractor":"6992891455310","target":"present","response":"present","rt":"2560","correct":true,"confidence":4},{"trial_n":50,"span":14,"encoder":"99708989903835","distractor":"95708989903835","target":"present","response":"present","rt":"8550","correct":true,"confidence":4},{"trial_n":51,"span":14,"encoder":"03268130476196","distractor":"03262130476196","target":"absent","response":"absent","rt":"2506.9999999999","correct":true,"confidence":4},{"trial_n":52,"span":15,"encoder":"531933360413235","distractor":"536933360413235","target":"absent","response":"present","rt":"2694.9999999999","correct":false,"confidence":4},{"trial_n":53,"span":14,"encoder":"17420358218706","distractor":"17420358214706","target":"present","response":"present","rt":"1819","correct":true,"confidence":4},{"trial_n":54,"span":14,"encoder":"40969469547061","distractor":"41969469547061","target":"absent","response":"present","rt":"5459","correct":false,"confidence":4},{"trial_n":55,"span":13,"encoder":"4638528481149","distractor":"4438528481149","target":"absent","response":"absent","rt":"9942.9999999999","correct":true,"confidence":3},{"trial_n":56,"span":13,"encoder":"2109871253145","distractor":"2109871253245","target":"present","response":"present","rt":"4131","correct":true,"confidence":3},{"trial_n":57,"span":14,"encoder":"88593159765702","distractor":"68593159765702","target":"absent","response":"present","rt":"1820.9999999999","correct":false,"confidence":3},{"trial_n":58,"span":13,"encoder":"2854469205994","distractor":"8854469205994","target":"absent","response":"present","rt":"1883","correct":false,"confidence":4},{"trial_n":59,"span":12,"encoder":"325701400981","distractor":"325701408981","target":"absent","response":"present","rt":"4293","correct":false,"confidence":4},{"trial_n":60,"span":11,"encoder":"66058846160","distractor":"67058846160","target":"absent","response":"present","rt":"2139.0000000001","correct":false,"confidence":4},{"trial_n":61,"span":10,"encoder":"5232111789","distractor":"5232111784","target":"present","response":"present","rt":"1514.0000000001","correct":true,"confidence":4},{"trial_n":62,"span":10,"encoder":"2120301452","distractor":"2129301452","target":"absent","response":"present","rt":"3117.9999999999","correct":false,"confidence":4},{"trial_n":63,"span":9,"encoder":"179807343","distractor":"175807343","target":"present","response":"present","rt":"2815.0000000001","correct":true,"confidence":4},{"trial_n":64,"span":9,"encoder":"193572442","distractor":"193572742","target":"absent","response":"absent","rt":"1905","correct":true,"confidence":5},{"trial_n":65,"span":10,"encoder":"2294769634","distractor":"2294769624","target":"absent","response":"absent","rt":"3630.0000000001","correct":true,"confidence":5},{"trial_n":66,"span":10,"encoder":"9353057870","distractor":"9353057878","target":"present","response":"present","rt":"2184.9999999999","correct":true,"confidence":4},{"trial_n":67,"span":11,"encoder":"90425639365","distractor":"90425639366","target":"present","response":"absent","rt":"3919.0000000001","correct":false,"confidence":2},{"trial_n":68,"span":10,"encoder":"1910776405","distractor":"1910778405","target":"absent","response":"absent","rt":"2148.0000000001","correct":true,"confidence":4},{"trial_n":69,"span":10,"encoder":"5364686110","distractor":"5064686110","target":"present","response":"present","rt":"2889","correct":true,"confidence":4},{"trial_n":70,"span":11,"encoder":"56422542019","distractor":"56422547019","target":"present","response":"present","rt":"1601.9999999998","correct":true,"confidence":4},{"trial_n":71,"span":8,"encoder":"27569053","distractor":"77569053","target":"present","response":"present","rt":"2524.0000000002","correct":true,"confidence":-1},{"trial_n":72,"span":8,"encoder":"26892592","distractor":"16892592","target":"present","response":"present","rt":"5420","correct":true,"confidence":-1},{"trial_n":73,"span":9,"encoder":"397557441","distractor":"397557443","target":"absent","response":"absent","rt":"5135","correct":true,"confidence":-1},{"trial_n":74,"span":9,"encoder":"414007402","distractor":"414007432","target":"absent","response":"absent","rt":"3213","correct":true,"confidence":-1},{"trial_n":75,"span":10,"encoder":"5952194956","distractor":"5952794956","target":"present","response":"present","rt":"8197","correct":true,"confidence":-1},{"trial_n":76,"span":10,"encoder":"0147679101","distractor":"0147179101","target":"present","response":"present","rt":"6095","correct":true,"confidence":-1},{"trial_n":77,"span":11,"encoder":"03261468437","distractor":"03261428437","target":"absent","response":"absent","rt":"4139","correct":true,"confidence":-1},{"trial_n":78,"span":11,"encoder":"95313986162","distractor":"95313986562","target":"absent","response":"absent","rt":"14304","correct":true,"confidence":-1},{"trial_n":79,"span":12,"encoder":"882877578041","distractor":"882877518041","target":"present","response":"present","rt":"12248","correct":true,"confidence":-1},{"trial_n":80,"span":12,"encoder":"573142774459","distractor":"573152774459","target":"present","response":"absent","rt":"5825.0000000002","correct":false,"confidence":-1},{"trial_n":81,"span":11,"encoder":"91668211240","distractor":"61668211240","target":"absent","response":"absent","rt":"4535","correct":true,"confidence":-1},{"trial_n":82,"span":11,"encoder":"09397097361","distractor":"09397094361","target":"absent","response":"present","rt":"4280.0000000002","correct":false,"confidence":-1},{"trial_n":83,"span":10,"encoder":"6412159855","distractor":"6412158855","target":"present","response":"present","rt":"3445.9999999998","correct":true,"confidence":-1},{"trial_n":84,"span":10,"encoder":"3878730386","distractor":"3875730386","target":"absent","response":"absent","rt":"6771.9999999998","correct":true,"confidence":-1},{"trial_n":85,"span":11,"encoder":"87449195721","distractor":"87459195721","target":"absent","response":"absent","rt":"2891.0000000002","correct":true,"confidence":-1},{"trial_n":86,"span":11,"encoder":"29250445658","distractor":"25250445658","target":"present","response":"present","rt":"6467","correct":true,"confidence":-1},{"trial_n":87,"span":12,"encoder":"386008918314","distractor":"386108918314","target":"present","response":"present","rt":"3811","correct":true,"confidence":-1},{"trial_n":88,"span":12,"encoder":"390136770069","distractor":"320136770069","target":"present","response":"absent","rt":"4469","correct":false,"confidence":-1},{"trial_n":89,"span":11,"encoder":"86922897941","distractor":"86922997941","target":"absent","response":"absent","rt":"7717","correct":true,"confidence":-1},{"trial_n":90,"span":11,"encoder":"01106564309","distractor":"01100564309","target":"present","response":"present","rt":"4070.9999999998","correct":true,"confidence":-1},{"trial_n":91,"span":12,"encoder":"694620008074","distractor":"694620009074","target":"absent","response":"present","rt":"6798","correct":false,"confidence":2},{"trial_n":92,"span":11,"encoder":"09294326224","distractor":"09294326222","target":"present","response":"present","rt":"3634","correct":true,"confidence":2},{"trial_n":93,"span":11,"encoder":"37812369454","distractor":"37812360454","target":"absent","response":"absent","rt":"14075","correct":true,"confidence":3},{"trial_n":94,"span":12,"encoder":"151315234513","distractor":"151315284513","target":"absent","response":"present","rt":"227160","correct":false,"confidence":1},{"trial_n":95,"span":11,"encoder":"10100928082","distractor":"40100928082","target":"absent","response":"absent","rt":"1406","correct":true,"confidence":5},{"trial_n":96,"span":11,"encoder":"66331583374","distractor":"66331588374","target":"present","response":"present","rt":"4204.0000000005","correct":true,"confidence":2},{"trial_n":97,"span":12,"encoder":"115639919155","distractor":"115639919158","target":"absent","response":"absent","rt":"152530","correct":true,"confidence":1},{"trial_n":98,"span":12,"encoder":"233671925318","distractor":"233671925315","target":"present","response":"absent","rt":"3474","correct":false,"confidence":2},{"trial_n":99,"span":11,"encoder":"51225484334","distractor":"71225484334","target":"present","response":"present","rt":"2345","correct":true,"confidence":2},{"trial_n":100,"span":11,"encoder":"31529918121","distractor":"31029918121","target":"absent","response":"present","rt":"75741","correct":false,"confidence":1},{"trial_n":101,"span":10,"encoder":"2189454843","distractor":"2189444843","target":"absent","response":"absent","rt":"5459","correct":true,"confidence":1},{"trial_n":102,"span":10,"encoder":"5241594264","distractor":"5241594864","target":"present","response":"present","rt":"1456","correct":true,"confidence":2},{"trial_n":103,"span":11,"encoder":"21537901419","distractor":"71537901419","target":"present","response":"present","rt":"3294","correct":true,"confidence":3},{"trial_n":104,"span":11,"encoder":"44302513797","distractor":"44332513797","target":"absent","response":"present","rt":"33854","correct":false,"confidence":1},{"trial_n":105,"span":10,"encoder":"2651431739","distractor":"2051431739","target":"present","response":"absent","rt":"4349.9999999995","correct":false,"confidence":2},{"trial_n":106,"span":9,"encoder":"052288337","distractor":"052388337","target":"absent","response":"absent","rt":"5856","correct":true,"confidence":1},{"trial_n":107,"span":9,"encoder":"878179076","distractor":"878179006","target":"absent","response":"absent","rt":"4029","correct":true,"confidence":3},{"trial_n":108,"span":10,"encoder":"1899984819","distractor":"1999984819","target":"present","response":"present","rt":"5645","correct":true,"confidence":1},{"trial_n":109,"span":10,"encoder":"0351450880","distractor":"0351420880","target":"present","response":"present","rt":"5721","correct":true,"confidence":2},{"trial_n":110,"span":11,"encoder":"61952660223","distractor":"62952660223","target":"present","response":"present","rt":"7170","correct":true,"confidence":1},{"trial_n":111,"span":11,"encoder":"75841541687","distractor":"73841541687","target":"absent","response":"absent","rt":"3985.0000000009","correct":true,"confidence":4},{"trial_n":112,"span":12,"encoder":"681537290037","distractor":"601537290037","target":"absent","response":"absent","rt":"2315.0000000005","correct":true,"confidence":2},{"trial_n":113,"span":12,"encoder":"012784889677","distractor":"012784889177","target":"present","response":"present","rt":"28730","correct":true,"confidence":1},{"trial_n":114,"span":13,"encoder":"1738165152039","distractor":"1738165156039","target":"absent","response":"present","rt":"8411.0000000005","correct":false,"confidence":1},{"trial_n":115,"span":12,"encoder":"111065485795","distractor":"111065485791","target":"absent","response":"absent","rt":"4991","correct":true,"confidence":1},{"trial_n":116,"span":12,"encoder":"578298366425","distractor":"578298366423","target":"present","response":"present","rt":"2825","correct":true,"confidence":5},{"trial_n":117,"span":13,"encoder":"6543274052231","distractor":"6543274052235","target":"present","response":"absent","rt":"6323","correct":false,"confidence":3},{"trial_n":118,"span":12,"encoder":"318272008382","distractor":"318272008386","target":"absent","response":"absent","rt":"3155.9999999991","correct":true,"confidence":5},{"trial_n":119,"span":12,"encoder":"564260620334","distractor":"564260620337","target":"present","response":"present","rt":"6251","correct":true,"confidence":1},{"trial_n":120,"span":13,"encoder":"7063955736794","distractor":"7063905736794","target":"absent","response":"absent","rt":"4577","correct":true,"confidence":1},{"trial_n":121,"span":13,"encoder":"5772268460159","distractor":"5772568460159","target":"absent","response":"present","rt":"5070","correct":false,"confidence":3},{"trial_n":122,"span":12,"encoder":"193878176399","distractor":"198878176399","target":"absent","response":"absent","rt":"2290","correct":true,"confidence":5},{"trial_n":123,"span":12,"encoder":"793179754847","distractor":"733179754847","target":"present","response":"present","rt":"3800","correct":true,"confidence":1},{"trial_n":124,"span":13,"encoder":"7968598585052","distractor":"7968598595052","target":"absent","response":"absent","rt":"8428","correct":true,"confidence":1},{"trial_n":125,"span":13,"encoder":"7813773114794","distractor":"7823773114794","target":"absent","response":"present","rt":"4688","correct":false,"confidence":1},{"trial_n":126,"span":12,"encoder":"227897273569","distractor":"225897273569","target":"present","response":"present","rt":"3258","correct":true,"confidence":4},{"trial_n":127,"span":12,"encoder":"512312097032","distractor":"012312097032","target":"absent","response":"absent","rt":"19251.999999999","correct":true,"confidence":1},{"trial_n":128,"span":13,"encoder":"4506729682134","distractor":"4506729602134","target":"present","response":"present","rt":"6144","correct":true,"confidence":1},{"trial_n":129,"span":13,"encoder":"8064107551382","distractor":"8064107551386","target":"absent","response":"absent","rt":"6080","correct":true,"confidence":2},{"trial_n":130,"span":14,"encoder":"85530313299678","distractor":"85530313299978","target":"absent","response":"absent","rt":"4051","correct":true,"confidence":3},{"trial_n":131,"span":14,"encoder":"43169451236435","distractor":"43169451237435","target":"absent","response":"absent","rt":"1425","correct":true,"confidence":4},{"trial_n":132,"span":15,"encoder":"775307100326410","distractor":"775307100306410","target":"present","response":"present","rt":"4348","correct":true,"confidence":5},{"trial_n":133,"span":15,"encoder":"181836216479566","distractor":"181886216479566","target":"present","response":"present","rt":"16851","correct":true,"confidence":1},{"trial_n":134,"span":16,"encoder":"8101335985774078","distractor":"8101337985774078","target":"present","response":"absent","rt":"3279","correct":false,"confidence":3},{"trial_n":135,"span":15,"encoder":"506732617414692","distractor":"506732617614692","target":"present","response":"absent","rt":"2081","correct":false,"confidence":3},{"trial_n":136,"span":14,"encoder":"74300883859108","distractor":"74300583859108","target":"present","response":"absent","rt":"2910","correct":false,"confidence":2},{"trial_n":137,"span":13,"encoder":"3110325740878","distractor":"3110325540878","target":"absent","response":"absent","rt":"3009","correct":true,"confidence":3},{"trial_n":138,"span":13,"encoder":"3229764714340","distractor":"3229764774340","target":"present","response":"present","rt":"757","correct":true,"confidence":2},{"trial_n":139,"span":14,"encoder":"95772072922194","distractor":"95772772922194","target":"present","response":"absent","rt":"2614","correct":false,"confidence":2},{"trial_n":140,"span":13,"encoder":"8506258284688","distractor":"8506254284688","target":"present","response":"present","rt":"3534","correct":true,"confidence":3}]