[{"trial_n":1,"min":25,"max":230,"target":"present","response":"present","rt":9208,"correct":true,"confidence":-1},{"trial_n":2,"min":25,"max":230,"target":"present","response":"present","rt":5776,"correct":true,"confidence":-1},{"trial_n":3,"min":41,"max":214,"target":"absent","response":"absent","rt":1716.099999994,"correct":true,"confidence":-1},{"trial_n":4,"min":41,"max":214,"target":"absent","response":"absent","rt":1031.3000000119,"correct":true,"confidence":-1},{"trial_n":5,"min":57,"max":198,"target":"present","response":"present","rt":1581.1000000238,"correct":true,"confidence":-1},{"trial_n":6,"min":57,"max":198,"target":"absent","response":"absent","rt":1100.2999999821,"correct":true,"confidence":-1},{"trial_n":7,"min":73,"max":182,"target":"absent","response":"absent","rt":877.70000001788,"correct":true,"confidence":-1},{"trial_n":8,"min":73,"max":182,"target":"absent","response":"absent","rt":610.79999998212,"correct":true,"confidence":-1},{"trial_n":9,"min":89,"max":166,"target":"absent","response":"absent","rt":506.59999999404,"correct":true,"confidence":-1},{"trial_n":10,"min":89,"max":166,"target":"present","response":"absent","rt":772.59999999404,"correct":false,"confidence":-1},{"trial_n":11,"min":81,"max":174,"target":"present","response":"absent","rt":835.80000001192,"correct":false,"confidence":-1},{"trial_n":12,"min":73,"max":182,"target":"absent","response":"absent","rt":585.59999999404,"correct":true,"confidence":-1},{"trial_n":13,"min":73,"max":182,"target":"present","response":"present","rt":1152.6000000238,"correct":true,"confidence":-1},{"trial_n":14,"min":81,"max":174,"target":"present","response":"present","rt":1166.8999999762,"correct":true,"confidence":-1},{"trial_n":15,"min":81,"max":174,"target":"absent","response":"absent","rt":1261.1999999881,"correct":true,"confidence":-1},{"trial_n":16,"min":89,"max":166,"target":"absent","response":"absent","rt":581.5,"correct":true,"confidence":-1},{"trial_n":17,"min":89,"max":166,"target":"present","response":"absent","rt":870.79999998212,"correct":false,"confidence":-1},{"trial_n":18,"min":81,"max":174,"target":"absent","response":"absent","rt":659.40000000596,"correct":true,"confidence":-1},{"trial_n":19,"min":81,"max":174,"target":"present","response":"present","rt":1237.6999999881,"correct":true,"confidence":-1},{"trial_n":20,"min":89,"max":166,"target":"present","response":"absent","rt":1322.099999994,"correct":false,"confidence":-1},{"trial_n":21,"min":85,"max":170,"target":"absent","response":"absent","rt":2218.7000000179,"correct":true,"confidence":3},{"trial_n":22,"min":85,"max":170,"target":"present","response":"absent","rt":3267.599999994,"correct":false,"confidence":3},{"trial_n":23,"min":81,"max":174,"target":"present","response":"present","rt":999.69999998808,"correct":true,"confidence":4},{"trial_n":24,"min":81,"max":174,"target":"absent","response":"absent","rt":1939.400000006,"correct":true,"confidence":2},{"trial_n":25,"min":85,"max":170,"target":"absent","response":"absent","rt":1468.1999999881,"correct":true,"confidence":3},{"trial_n":26,"min":85,"max":170,"target":"present","response":"absent","rt":2723.599999994,"correct":false,"confidence":3},{"trial_n":27,"min":81,"max":174,"target":"absent","response":"absent","rt":1131.400000006,"correct":true,"confidence":5},{"trial_n":28,"min":81,"max":174,"target":"absent","response":"absent","rt":2196.6000000238,"correct":true,"confidence":5},{"trial_n":29,"min":85,"max":170,"target":"present","response":"present","rt":1401.6999999881,"correct":true,"confidence":5},{"trial_n":30,"min":85,"max":170,"target":"present","response":"absent","rt":2301.099999994,"correct":false,"confidence":1},{"trial_n":31,"min":83,"max":172,"target":"present","response":"absent","rt":4460.099999994,"correct":false,"confidence":1},{"trial_n":32,"min":81,"max":174,"target":"present","response":"present","rt":1511.599999994,"correct":true,"confidence":4},{"trial_n":33,"min":81,"max":174,"target":"present","response":"present","rt":1262.599999994,"correct":true,"confidence":4},{"trial_n":34,"min":83,"max":172,"target":"absent","response":"absent","rt":1285.8999999762,"correct":true,"confidence":2},{"trial_n":35,"min":83,"max":172,"target":"present","response":"absent","rt":1036.599999994,"correct":false,"confidence":2},{"trial_n":36,"min":81,"max":174,"target":"present","response":"absent","rt":2028.099999994,"correct":false,"confidence":1},{"trial_n":37,"min":79,"max":176,"target":"absent","response":"absent","rt":993.30000001192,"correct":true,"confidence":5},{"trial_n":38,"min":79,"max":176,"target":"absent","response":"absent","rt":930.19999998808,"correct":true,"confidence":5},{"trial_n":39,"min":81,"max":174,"target":"present","response":"present","rt":1934.599999994,"correct":true,"confidence":4},{"trial_n":40,"min":81,"max":174,"target":"absent","response":"absent","rt":1621.1000000238,"correct":true,"confidence":1},{"trial_n":41,"min":82,"max":173,"target":"present","response":"present","rt":1166.6999999881,"correct":true,"confidence":5},{"trial_n":42,"min":82,"max":173,"target":"present","response":"absent","rt":1132.099999994,"correct":false,"confidence":3},{"trial_n":43,"min":81,"max":174,"target":"present","response":"present","rt":1138.7999999821,"correct":true,"confidence":5},{"trial_n":44,"min":81,"max":174,"target":"absent","response":"absent","rt":1591.2000000179,"correct":true,"confidence":4},{"trial_n":45,"min":82,"max":173,"target":"present","response":"present","rt":1191.7999999821,"correct":true,"confidence":5},{"trial_n":46,"min":82,"max":173,"target":"present","response":"present","rt":901,"correct":true,"confidence":5},{"trial_n":47,"min":83,"max":172,"target":"present","response":"present","rt":1066.400000006,"correct":true,"confidence":5},{"trial_n":48,"min":83,"max":172,"target":"absent","response":"absent","rt":1170.1999999881,"correct":true,"confidence":5},{"trial_n":49,"min":84,"max":171,"target":"present","response":"present","rt":1540,"correct":true,"confidence":4},{"trial_n":50,"min":84,"max":171,"target":"absent","response":"absent","rt":1340.5,"correct":true,"confidence":3},{"trial_n":51,"min":85,"max":170,"target":"absent","response":"absent","rt":1621.2999999821,"correct":true,"confidence":2},{"trial_n":52,"min":85,"max":170,"target":"absent","response":"absent","rt":841.79999998212,"correct":true,"confidence":4},{"trial_n":53,"min":86,"max":169,"target":"present","response":"present","rt":1231,"correct":true,"confidence":5},{"trial_n":54,"min":86,"max":169,"target":"absent","response":"absent","rt":1340.3000000119,"correct":true,"confidence":3},{"trial_n":55,"min":87,"max":168,"target":"absent","response":"absent","rt":840.70000001788,"correct":true,"confidence":5},{"trial_n":56,"min":87,"max":168,"target":"present","response":"present","rt":1581.599999994,"correct":true,"confidence":5},{"trial_n":57,"min":88,"max":167,"target":"absent","response":"absent","rt":951,"correct":true,"confidence":4},{"trial_n":58,"min":88,"max":167,"target":"absent","response":"absent","rt":881.40000000596,"correct":true,"confidence":5},{"trial_n":59,"min":89,"max":166,"target":"present","response":"absent","rt":950.90000000596,"correct":false,"confidence":4},{"trial_n":60,"min":88,"max":167,"target":"present","response":"absent","rt":2099.5,"correct":false,"confidence":2},{"trial_n":61,"min":87,"max":168,"target":"absent","response":"absent","rt":1458.599999994,"correct":true,"confidence":2},{"trial_n":62,"min":87,"max":168,"target":"present","response":"absent","rt":1225.3999999762,"correct":false,"confidence":2},{"trial_n":63,"min":86,"max":169,"target":"absent","response":"absent","rt":1061.8000000119,"correct":true,"confidence":4},{"trial_n":64,"min":86,"max":169,"target":"absent","response":"absent","rt":1237.599999994,"correct":true,"confidence":4},{"trial_n":65,"min":87,"max":168,"target":"absent","response":"absent","rt":909.70000001788,"correct":true,"confidence":4},{"trial_n":66,"min":87,"max":168,"target":"present","response":"absent","rt":3690.1000000238,"correct":false,"confidence":1},{"trial_n":67,"min":86,"max":169,"target":"present","response":"absent","rt":1232.6999999881,"correct":false,"confidence":2},{"trial_n":68,"min":85,"max":170,"target":"absent","response":"absent","rt":863.80000001192,"correct":true,"confidence":4},{"trial_n":69,"min":85,"max":170,"target":"absent","response":"absent","rt":973.80000001192,"correct":true,"confidence":5},{"trial_n":70,"min":86,"max":169,"target":"present","response":"present","rt":1766.8999999762,"correct":true,"confidence":5},{"trial_n":71,"min":41,"max":214,"target":"present","response":"present","rt":1513,"correct":true,"confidence":-1},{"trial_n":72,"min":41,"max":214,"target":"present","response":"present","rt":711.80000001192,"correct":true,"confidence":-1},{"trial_n":73,"min":57,"max":198,"target":"absent","response":"absent","rt":1031.6000000238,"correct":true,"confidence":-1},{"trial_n":74,"min":57,"max":198,"target":"absent","response":"absent","rt":565.69999998808,"correct":true,"confidence":-1},{"trial_n":75,"min":73,"max":182,"target":"present","response":"present","rt":428.70000001788,"correct":true,"confidence":-1},{"trial_n":76,"min":73,"max":182,"target":"present","response":"present","rt":331.20000001788,"correct":true,"confidence":-1},{"trial_n":77,"min":89,"max":166,"target":"absent","response":"absent","rt":287.5,"correct":true,"confidence":-1},{"trial_n":78,"min":89,"max":166,"target":"absent","response":"absent","rt":2295.5,"correct":true,"confidence":-1},{"trial_n":79,"min":105,"max":150,"target":"absent","response":"absent","rt":855.09999999404,"correct":true,"confidence":-1},{"trial_n":80,"min":105,"max":150,"target":"absent","response":"absent","rt":443.79999998212,"correct":true,"confidence":-1},{"trial_n":81,"min":113,"max":142,"target":"present","response":"absent","rt":370.79999998212,"correct":false,"confidence":-1},{"trial_n":82,"min":105,"max":150,"target":"present","response":"present","rt":652.09999999404,"correct":true,"confidence":-1},{"trial_n":83,"min":105,"max":150,"target":"absent","response":"present","rt":432.90000000596,"correct":false,"confidence":-1},{"trial_n":84,"min":97,"max":158,"target":"present","response":"absent","rt":401.10000002384,"correct":false,"confidence":-1},{"trial_n":85,"min":89,"max":166,"target":"absent","response":"present","rt":477.39999997616,"correct":false,"confidence":-1},{"trial_n":86,"min":81,"max":174,"target":"absent","response":"absent","rt":356.69999998808,"correct":true,"confidence":-1},{"trial_n":87,"min":81,"max":174,"target":"absent","response":"absent","rt":613.60000002384,"correct":true,"confidence":-1},{"trial_n":88,"min":89,"max":166,"target":"absent","response":"present","rt":508.90000000596,"correct":false,"confidence":-1},{"trial_n":89,"min":81,"max":174,"target":"present","response":"present","rt":388.09999999404,"correct":true,"confidence":-1},{"trial_n":90,"min":81,"max":174,"target":"present","response":"present","rt":240.5,"correct":true,"confidence":-1},{"trial_n":91,"min":85,"max":170,"target":"absent","response":"present","rt":819.80000001192,"correct":false,"confidence":4},{"trial_n":92,"min":81,"max":174,"target":"absent","response":"absent","rt":544.10000002384,"correct":true,"confidence":5},{"trial_n":93,"min":81,"max":174,"target":"present","response":"present","rt":310,"correct":true,"confidence":5},{"trial_n":94,"min":85,"max":170,"target":"present","response":"present","rt":183.80000001192,"correct":true,"confidence":5},{"trial_n":95,"min":85,"max":170,"target":"present","response":"present","rt":231,"correct":true,"confidence":5},{"trial_n":96,"min":89,"max":166,"target":"present","response":"present","rt":1347.7000000179,"correct":true,"confidence":4},{"trial_n":97,"min":89,"max":166,"target":"absent","response":"absent","rt":1242.599999994,"correct":true,"confidence":2},{"trial_n":98,"min":93,"max":162,"target":"absent","response":"present","rt":1393,"correct":false,"confidence":1},{"trial_n":99,"min":89,"max":166,"target":"absent","response":"absent","rt":967.90000000596,"correct":true,"confidence":3},{"trial_n":100,"min":89,"max":166,"target":"absent","response":"absent","rt":1358.400000006,"correct":true,"confidence":1},{"trial_n":101,"min":91,"max":164,"target":"present","response":"present","rt":818.09999999404,"correct":true,"confidence":3},{"trial_n":102,"min":91,"max":164,"target":"present","response":"present","rt":561.40000000596,"correct":true,"confidence":4},{"trial_n":103,"min":93,"max":162,"target":"present","response":"present","rt":601.59999999404,"correct":true,"confidence":4},{"trial_n":104,"min":93,"max":162,"target":"absent","response":"absent","rt":1910.6000000238,"correct":true,"confidence":1},{"trial_n":105,"min":95,"max":160,"target":"absent","response":"absent","rt":1109.1000000238,"correct":true,"confidence":1},{"trial_n":106,"min":95,"max":160,"target":"present","response":"present","rt":581.69999998808,"correct":true,"confidence":3},{"trial_n":107,"min":97,"max":158,"target":"present","response":"present","rt":852.69999998808,"correct":true,"confidence":2},{"trial_n":108,"min":97,"max":158,"target":"absent","response":"absent","rt":977,"correct":true,"confidence":2},{"trial_n":109,"min":99,"max":156,"target":"absent","response":"absent","rt":1859.900000006,"correct":true,"confidence":1},{"trial_n":110,"min":99,"max":156,"target":"present","response":"present","rt":640.19999998808,"correct":true,"confidence":1},{"trial_n":111,"min":100,"max":155,"target":"present","response":"present","rt":772.19999998808,"correct":true,"confidence":1},{"trial_n":112,"min":100,"max":155,"target":"absent","response":"present","rt":1544.900000006,"correct":false,"confidence":1},{"trial_n":113,"min":99,"max":156,"target":"present","response":"present","rt":1447.099999994,"correct":true,"confidence":1},{"trial_n":114,"min":99,"max":156,"target":"present","response":"absent","rt":562.39999997616,"correct":false,"confidence":1},{"trial_n":115,"min":98,"max":157,"target":"absent","response":"absent","rt":1572.3000000119,"correct":true,"confidence":1},{"trial_n":116,"min":98,"max":157,"target":"present","response":"absent","rt":1264.7999999821,"correct":false,"confidence":1},{"trial_n":117,"min":97,"max":158,"target":"present","response":"absent","rt":1006,"correct":false,"confidence":1},{"trial_n":118,"min":96,"max":159,"target":"present","response":"absent","rt":569.19999998808,"correct":false,"confidence":1},{"trial_n":119,"min":95,"max":160,"target":"absent","response":"absent","rt":749.79999998212,"correct":true,"confidence":1},{"trial_n":120,"min":95,"max":160,"target":"absent","response":"absent","rt":525,"correct":true,"confidence":1},{"trial_n":121,"min":96,"max":159,"target":"absent","response":"present","rt":1061.6999999881,"correct":false,"confidence":1},{"trial_n":122,"min":95,"max":160,"target":"present","response":"present","rt":452.69999998808,"correct":true,"confidence":1},{"trial_n":123,"min":95,"max":160,"target":"absent","response":"present","rt":3131.599999994,"correct":false,"confidence":1},{"trial_n":124,"min":94,"max":161,"target":"present","response":"present","rt":958.40000000596,"correct":true,"confidence":1},{"trial_n":125,"min":94,"max":161,"target":"absent","response":"present","rt":771.40000000596,"correct":false,"confidence":1},{"trial_n":126,"min":93,"max":162,"target":"present","response":"present","rt":572.90000000596,"correct":true,"confidence":3},{"trial_n":127,"min":93,"max":162,"target":"absent","response":"absent","rt":854.29999998212,"correct":true,"confidence":3},{"trial_n":128,"min":94,"max":161,"target":"absent","response":"present","rt":637.20000001788,"correct":false,"confidence":1},{"trial_n":129,"min":93,"max":162,"target":"present","response":"absent","rt":538.40000000596,"correct":false,"confidence":1},{"trial_n":130,"min":92,"max":163,"target":"present","response":"present","rt":422.40000000596,"correct":true,"confidence":1},{"trial_n":131,"min":92,"max":163,"target":"present","response":"present","rt":777.40000000596,"correct":true,"confidence":1},{"trial_n":132,"min":93,"max":162,"target":"absent","response":"absent","rt":635.70000001788,"correct":true,"confidence":3},{"trial_n":133,"min":93,"max":162,"target":"present","response":"present","rt":849.19999998808,"correct":true,"confidence":3},{"trial_n":134,"min":94,"max":161,"target":"absent","response":"absent","rt":661.70000001788,"correct":true,"confidence":3},{"trial_n":135,"min":94,"max":161,"target":"present","response":"present","rt":913,"correct":true,"confidence":1},{"trial_n":136,"min":95,"max":160,"target":"absent","response":"absent","rt":668.90000000596,"correct":true,"confidence":1},{"trial_n":137,"min":95,"max":160,"target":"present","response":"absent","rt":797.5,"correct":false,"confidence":1},{"trial_n":138,"min":94,"max":161,"target":"present","response":"absent","rt":783,"correct":false,"confidence":1},{"trial_n":139,"min":93,"max":162,"target":"present","response":"present","rt":500.09999999404,"correct":true,"confidence":5},{"trial_n":140,"min":93,"max":162,"target":"absent","response":"present","rt":992.69999998808,"correct":false,"confidence":1}]