[{"trial_n":1,"span":8,"encoder":"42731428","distractor":"32731428","target":"present","response":"present","rt":"3019","correct":true,"confidence":-1},{"trial_n":2,"span":8,"encoder":"34192114","distractor":"34192814","target":"present","response":"absent","rt":"1966.599999994","correct":false,"confidence":-1},{"trial_n":3,"span":6,"encoder":"751009","distractor":"721009","target":"absent","response":"present","rt":"1539","correct":false,"confidence":-1},{"trial_n":4,"span":4,"encoder":"2345","distractor":"2340","target":"absent","response":"present","rt":"708.69999998808","correct":false,"confidence":-1},{"trial_n":5,"span":2,"encoder":"82","distractor":"42","target":"present","response":"present","rt":"1396.2000000179","correct":true,"confidence":-1},{"trial_n":6,"span":2,"encoder":"30","distractor":"90","target":"present","response":"present","rt":"1283.400000006","correct":true,"confidence":-1},{"trial_n":7,"span":4,"encoder":"3120","distractor":"3520","target":"present","response":"present","rt":"896.79999998212","correct":true,"confidence":-1},{"trial_n":8,"span":4,"encoder":"1757","distractor":"1777","target":"present","response":"present","rt":"1197.5","correct":true,"confidence":-1},{"trial_n":9,"span":6,"encoder":"994065","distractor":"794065","target":"absent","response":"present","rt":"1210.8000000119","correct":false,"confidence":-1},{"trial_n":10,"span":4,"encoder":"3994","distractor":"3964","target":"absent","response":"absent","rt":"1788.1999999881","correct":true,"confidence":-1},{"trial_n":11,"span":4,"encoder":"3499","distractor":"3199","target":"absent","response":"absent","rt":"1203.599999994","correct":true,"confidence":-1},{"trial_n":12,"span":5,"encoder":"78223","distractor":"78226","target":"absent","response":"absent","rt":"1659.1999999881","correct":true,"confidence":-1},{"trial_n":13,"span":5,"encoder":"00582","distractor":"00562","target":"present","response":"present","rt":"1667.599999994","correct":true,"confidence":-1},{"trial_n":14,"span":6,"encoder":"373276","distractor":"373176","target":"present","response":"present","rt":"2315.5","correct":true,"confidence":-1},{"trial_n":15,"span":6,"encoder":"483450","distractor":"483452","target":"present","response":"present","rt":"825.70000001788","correct":true,"confidence":-1},{"trial_n":16,"span":7,"encoder":"2116401","distractor":"2716401","target":"absent","response":"present","rt":"1451.900000006","correct":false,"confidence":-1},{"trial_n":17,"span":6,"encoder":"421887","distractor":"429887","target":"absent","response":"present","rt":"896.79999998212","correct":false,"confidence":-1},{"trial_n":18,"span":5,"encoder":"16406","distractor":"11406","target":"present","response":"present","rt":"1245.6000000238","correct":true,"confidence":-1},{"trial_n":19,"span":5,"encoder":"06180","distractor":"06185","target":"absent","response":"absent","rt":"1968.7000000179","correct":true,"confidence":-1},{"trial_n":20,"span":6,"encoder":"941258","distractor":"945258","target":"absent","response":"present","rt":"1931.7000000179","correct":false,"confidence":-1},{"trial_n":21,"span":5,"encoder":"88371","distractor":"80371","target":"absent","response":"present","rt":"1607","correct":false,"confidence":1},{"trial_n":22,"span":4,"encoder":"8283","distractor":"8183","target":"present","response":"present","rt":"2151.8000000119","correct":true,"confidence":5},{"trial_n":23,"span":4,"encoder":"0530","distractor":"0580","target":"present","response":"present","rt":"1277.599999994","correct":true,"confidence":5},{"trial_n":24,"span":5,"encoder":"77311","distractor":"77111","target":"absent","response":"absent","rt":"1689.8000000119","correct":true,"confidence":5},{"trial_n":25,"span":5,"encoder":"77078","distractor":"77074","target":"present","response":"present","rt":"1651.400000006","correct":true,"confidence":5},{"trial_n":26,"span":6,"encoder":"946452","distractor":"942452","target":"present","response":"present","rt":"3890.7999999821","correct":true,"confidence":3},{"trial_n":27,"span":6,"encoder":"900508","distractor":"900708","target":"absent","response":"absent","rt":"2338.2000000179","correct":true,"confidence":5},{"trial_n":28,"span":7,"encoder":"3674426","distractor":"3674026","target":"absent","response":"present","rt":"3750.7000000179","correct":false,"confidence":2},{"trial_n":29,"span":6,"encoder":"281035","distractor":"281095","target":"present","response":"present","rt":"2915.400000006","correct":true,"confidence":2},{"trial_n":30,"span":6,"encoder":"200579","distractor":"240579","target":"absent","response":"absent","rt":"1861.1999999881","correct":true,"confidence":1},{"trial_n":31,"span":7,"encoder":"2046833","distractor":"2046633","target":"present","response":"absent","rt":"2422.6999999881","correct":false,"confidence":4},{"trial_n":32,"span":6,"encoder":"672434","distractor":"602434","target":"present","response":"present","rt":"2143","correct":true,"confidence":5},{"trial_n":33,"span":6,"encoder":"787423","distractor":"387423","target":"present","response":"present","rt":"1850.7000000179","correct":true,"confidence":4},{"trial_n":34,"span":7,"encoder":"5844575","distractor":"5044575","target":"present","response":"present","rt":"2683.2999999821","correct":true,"confidence":3},{"trial_n":35,"span":7,"encoder":"4077079","distractor":"4077479","target":"absent","response":"absent","rt":"1694.400000006","correct":true,"confidence":5},{"trial_n":36,"span":8,"encoder":"31470574","distractor":"31450574","target":"present","response":"present","rt":"3295.7999999821","correct":true,"confidence":3},{"trial_n":37,"span":8,"encoder":"89241064","distractor":"85241064","target":"present","response":"present","rt":"2426.5","correct":true,"confidence":3},{"trial_n":38,"span":9,"encoder":"225050272","distractor":"225550272","target":"present","response":"absent","rt":"2581","correct":false,"confidence":4},{"trial_n":39,"span":8,"encoder":"52567451","distractor":"52567457","target":"absent","response":"absent","rt":"1674.400000006","correct":true,"confidence":5},{"trial_n":40,"span":8,"encoder":"06269040","distractor":"76269040","target":"present","response":"absent","rt":"1963.599999994","correct":false,"confidence":4},{"trial_n":41,"span":7,"encoder":"4422938","distractor":"4422338","target":"present","response":"present","rt":"1820.2999999821","correct":true,"confidence":4},{"trial_n":42,"span":7,"encoder":"9465200","distractor":"9463200","target":"absent","response":"absent","rt":"2322.7000000179","correct":true,"confidence":3},{"trial_n":43,"span":8,"encoder":"17441090","distractor":"87441090","target":"absent","response":"present","rt":"2484.6999999881","correct":false,"confidence":3},{"trial_n":44,"span":7,"encoder":"5710261","distractor":"5710761","target":"absent","response":"absent","rt":"1906.2000000179","correct":true,"confidence":3},{"trial_n":45,"span":7,"encoder":"5994922","distractor":"5294922","target":"absent","response":"absent","rt":"2534","correct":true,"confidence":5},{"trial_n":46,"span":8,"encoder":"24058036","distractor":"24058026","target":"present","response":"absent","rt":"2579.5","correct":false,"confidence":2},{"trial_n":47,"span":7,"encoder":"0524387","distractor":"0024387","target":"present","response":"absent","rt":"1743.6000000238","correct":false,"confidence":1},{"trial_n":48,"span":6,"encoder":"224254","distractor":"229254","target":"absent","response":"absent","rt":"2131.6999999881","correct":true,"confidence":5},{"trial_n":49,"span":6,"encoder":"061861","distractor":"041861","target":"present","response":"absent","rt":"2729.1999999881","correct":false,"confidence":2},{"trial_n":50,"span":5,"encoder":"78544","distractor":"78584","target":"present","response":"present","rt":"1810.400000006","correct":true,"confidence":5},{"trial_n":51,"span":5,"encoder":"11874","distractor":"11870","target":"present","response":"present","rt":"1649.2000000179","correct":true,"confidence":5},{"trial_n":52,"span":6,"encoder":"625030","distractor":"635030","target":"absent","response":"absent","rt":"2293.6999999881","correct":true,"confidence":2},{"trial_n":53,"span":6,"encoder":"932355","distractor":"932155","target":"absent","response":"absent","rt":"2177","correct":true,"confidence":2},{"trial_n":54,"span":7,"encoder":"8707684","distractor":"8706684","target":"present","response":"absent","rt":"2522","correct":false,"confidence":3},{"trial_n":55,"span":6,"encoder":"797205","distractor":"797235","target":"present","response":"present","rt":"1953.1999999881","correct":true,"confidence":5},{"trial_n":56,"span":6,"encoder":"603212","distractor":"600212","target":"absent","response":"absent","rt":"1991.5","correct":true,"confidence":5},{"trial_n":57,"span":7,"encoder":"4827097","distractor":"4827092","target":"present","response":"present","rt":"3507.2000000179","correct":true,"confidence":4},{"trial_n":58,"span":7,"encoder":"3374317","distractor":"3374347","target":"present","response":"present","rt":"3097.599999994","correct":true,"confidence":3},{"trial_n":59,"span":8,"encoder":"60570330","distractor":"60570339","target":"present","response":"absent","rt":"3175","correct":false,"confidence":2},{"trial_n":60,"span":7,"encoder":"9624551","distractor":"9624451","target":"absent","response":"absent","rt":"2777","correct":true,"confidence":4},{"trial_n":61,"span":7,"encoder":"5963645","distractor":"5963642","target":"absent","response":"absent","rt":"2572.3000000119","correct":true,"confidence":1},{"trial_n":62,"span":8,"encoder":"49051430","distractor":"49051530","target":"absent","response":"absent","rt":"3791.6000000238","correct":true,"confidence":1},{"trial_n":63,"span":8,"encoder":"53651998","distractor":"55651998","target":"present","response":"present","rt":"2414","correct":true,"confidence":5},{"trial_n":64,"span":9,"encoder":"890710883","distractor":"890710881","target":"absent","response":"present","rt":"4161.900000006","correct":false,"confidence":3},{"trial_n":65,"span":8,"encoder":"93774962","distractor":"93784962","target":"absent","response":"absent","rt":"1851.900000006","correct":true,"confidence":5},{"trial_n":66,"span":8,"encoder":"28261917","distractor":"28261912","target":"absent","response":"absent","rt":"1724.3000000119","correct":true,"confidence":5},{"trial_n":67,"span":9,"encoder":"159618875","distractor":"159018875","target":"absent","response":"present","rt":"2930.099999994","correct":false,"confidence":2},{"trial_n":68,"span":8,"encoder":"49702281","distractor":"49732281","target":"absent","response":"present","rt":"2205.5","correct":false,"confidence":2},{"trial_n":69,"span":7,"encoder":"4349618","distractor":"4049618","target":"absent","response":"absent","rt":"2214.1999999881","correct":true,"confidence":5},{"trial_n":70,"span":7,"encoder":"9761427","distractor":"9761428","target":"present","response":"absent","rt":"2643.099999994","correct":false,"confidence":3},{"trial_n":71,"span":8,"encoder":"48886760","distractor":"48886260","target":"present","response":"present","rt":"5061.1999999881","correct":true,"confidence":-1},{"trial_n":72,"span":8,"encoder":"66611393","distractor":"66611383","target":"present","response":"present","rt":"1907.6999999881","correct":true,"confidence":-1},{"trial_n":73,"span":9,"encoder":"407471559","distractor":"407479559","target":"absent","response":"absent","rt":"1891","correct":true,"confidence":-1},{"trial_n":74,"span":9,"encoder":"352351985","distractor":"392351985","target":"absent","response":"absent","rt":"2022.7000000179","correct":true,"confidence":-1},{"trial_n":75,"span":10,"encoder":"1492144248","distractor":"1492144240","target":"present","response":"present","rt":"870.69999998808","correct":true,"confidence":-1},{"trial_n":76,"span":10,"encoder":"8209377847","distractor":"8209374847","target":"absent","response":"absent","rt":"2731.900000006","correct":true,"confidence":-1},{"trial_n":77,"span":11,"encoder":"46743621780","distractor":"41743621780","target":"absent","response":"present","rt":"4708.1999999881","correct":false,"confidence":-1},{"trial_n":78,"span":10,"encoder":"3906690669","distractor":"3906690664","target":"present","response":"present","rt":"636.69999998808","correct":true,"confidence":-1},{"trial_n":79,"span":10,"encoder":"2932395373","distractor":"2935395373","target":"absent","response":"absent","rt":"1046.1999999881","correct":true,"confidence":-1},{"trial_n":80,"span":11,"encoder":"34625468460","distractor":"34625468560","target":"present","response":"present","rt":"2133.900000006","correct":true,"confidence":-1},{"trial_n":81,"span":11,"encoder":"92170492749","distractor":"92170422749","target":"present","response":"present","rt":"2211.8999999762","correct":true,"confidence":-1},{"trial_n":82,"span":12,"encoder":"263419609939","distractor":"263419609839","target":"present","response":"present","rt":"1772.599999994","correct":true,"confidence":-1},{"trial_n":83,"span":12,"encoder":"178042167323","distractor":"178045167323","target":"present","response":"present","rt":"1590.599999994","correct":true,"confidence":-1},{"trial_n":84,"span":13,"encoder":"4310882640313","distractor":"4350882640313","target":"present","response":"present","rt":"4350.099999994","correct":true,"confidence":-1},{"trial_n":85,"span":13,"encoder":"9465787040208","distractor":"9465787040218","target":"present","response":"present","rt":"948.89999997616","correct":true,"confidence":-1},{"trial_n":86,"span":14,"encoder":"53269677157657","distractor":"53269677155657","target":"present","response":"present","rt":"1335.900000006","correct":true,"confidence":-1},{"trial_n":87,"span":14,"encoder":"32780407452026","distractor":"32780407452096","target":"present","response":"absent","rt":"1065.7000000179","correct":false,"confidence":-1},{"trial_n":88,"span":13,"encoder":"3105779603553","distractor":"3105779623553","target":"present","response":"absent","rt":"785.20000001788","correct":false,"confidence":-1},{"trial_n":89,"span":12,"encoder":"964938234374","distractor":"914938234374","target":"present","response":"absent","rt":"949.30000001192","correct":false,"confidence":-1},{"trial_n":90,"span":11,"encoder":"57353470583","distractor":"57353470581","target":"present","response":"present","rt":"2068.1999999881","correct":true,"confidence":-1},{"trial_n":91,"span":11,"encoder":"11329237323","distractor":"11329237328","target":"present","response":"present","rt":"5535","correct":true,"confidence":1},{"trial_n":92,"span":12,"encoder":"421452190010","distractor":"420452190010","target":"absent","response":"present","rt":"5529.6999999881","correct":false,"confidence":1},{"trial_n":93,"span":11,"encoder":"13856923079","distractor":"13856903079","target":"absent","response":"absent","rt":"2644.400000006","correct":true,"confidence":2},{"trial_n":94,"span":11,"encoder":"66238321969","distractor":"66238322969","target":"present","response":"absent","rt":"3059.8000000119","correct":false,"confidence":2},{"trial_n":95,"span":10,"encoder":"5553275169","distractor":"5553225169","target":"absent","response":"absent","rt":"13499.799999982","correct":true,"confidence":2},{"trial_n":96,"span":10,"encoder":"5068012574","distractor":"5268012574","target":"absent","response":"present","rt":"4447.7999999821","correct":false,"confidence":2},{"trial_n":97,"span":9,"encoder":"634312211","distractor":"694312211","target":"absent","response":"absent","rt":"4499.5","correct":true,"confidence":3},{"trial_n":98,"span":9,"encoder":"545742682","distractor":"545782682","target":"absent","response":"present","rt":"6368.7999999821","correct":false,"confidence":2},{"trial_n":99,"span":8,"encoder":"84426898","distractor":"14426898","target":"present","response":"present","rt":"6245.1999999881","correct":true,"confidence":2},{"trial_n":100,"span":8,"encoder":"82609064","distractor":"82609084","target":"absent","response":"present","rt":"4763.1000000238","correct":false,"confidence":2},{"trial_n":101,"span":7,"encoder":"1357328","distractor":"1357324","target":"present","response":"present","rt":"2147.6999999881","correct":true,"confidence":5},{"trial_n":102,"span":7,"encoder":"2470189","distractor":"2470179","target":"present","response":"present","rt":"5844.599999994","correct":true,"confidence":3},{"trial_n":103,"span":8,"encoder":"73878068","distractor":"03878068","target":"present","response":"present","rt":"1932.8000000119","correct":true,"confidence":5},{"trial_n":104,"span":8,"encoder":"54213828","distractor":"44213828","target":"absent","response":"absent","rt":"3146.5","correct":true,"confidence":4},{"trial_n":105,"span":9,"encoder":"791543166","distractor":"798543166","target":"present","response":"present","rt":"4771.3000000119","correct":true,"confidence":3},{"trial_n":106,"span":9,"encoder":"366981433","distractor":"366980433","target":"absent","response":"absent","rt":"3025.7000000179","correct":true,"confidence":5},{"trial_n":107,"span":10,"encoder":"2225362211","distractor":"6225362211","target":"absent","response":"absent","rt":"2681.2000000179","correct":true,"confidence":5},{"trial_n":108,"span":10,"encoder":"5815110593","distractor":"5815115593","target":"present","response":"present","rt":"3363.099999994","correct":true,"confidence":2},{"trial_n":109,"span":11,"encoder":"76704449508","distractor":"76704449008","target":"absent","response":"absent","rt":"3130.8999999762","correct":true,"confidence":4},{"trial_n":110,"span":11,"encoder":"43385854578","distractor":"43385854538","target":"absent","response":"absent","rt":"2236.5","correct":true,"confidence":5},{"trial_n":111,"span":12,"encoder":"800959725238","distractor":"800954725238","target":"present","response":"present","rt":"14634.400000006","correct":true,"confidence":1},{"trial_n":112,"span":12,"encoder":"020120413665","distractor":"020120413865","target":"present","response":"present","rt":"1877","correct":true,"confidence":5},{"trial_n":113,"span":13,"encoder":"9018655035773","distractor":"9018655032773","target":"present","response":"present","rt":"2524.099999994","correct":true,"confidence":3},{"trial_n":114,"span":13,"encoder":"4861137063918","distractor":"4861137069918","target":"present","response":"absent","rt":"4044.099999994","correct":false,"confidence":2},{"trial_n":115,"span":12,"encoder":"954216154998","distractor":"954216150998","target":"absent","response":"absent","rt":"7150.7999999821","correct":true,"confidence":2},{"trial_n":116,"span":12,"encoder":"660126977644","distractor":"660126972644","target":"absent","response":"absent","rt":"3127","correct":true,"confidence":2},{"trial_n":117,"span":13,"encoder":"8721721060316","distractor":"8701721060316","target":"present","response":"present","rt":"6204.1999999881","correct":true,"confidence":1},{"trial_n":118,"span":13,"encoder":"3957095719608","distractor":"3957095719688","target":"absent","response":"absent","rt":"1481.5","correct":true,"confidence":5},{"trial_n":119,"span":14,"encoder":"31942653163304","distractor":"34942653163304","target":"present","response":"present","rt":"4500.1999999881","correct":true,"confidence":2},{"trial_n":120,"span":14,"encoder":"45610780281319","distractor":"45610780181319","target":"present","response":"absent","rt":"13789.099999994","correct":false,"confidence":1},{"trial_n":121,"span":13,"encoder":"7520506220986","distractor":"7520506220966","target":"absent","response":"absent","rt":"2135.7000000179","correct":true,"confidence":3},{"trial_n":122,"span":13,"encoder":"7257048174140","distractor":"7257044174140","target":"absent","response":"absent","rt":"5950.2000000179","correct":true,"confidence":2},{"trial_n":123,"span":14,"encoder":"13114065586511","distractor":"17114065586511","target":"present","response":"absent","rt":"4978.6999999881","correct":false,"confidence":2},{"trial_n":124,"span":13,"encoder":"9416880168772","distractor":"9416880167772","target":"present","response":"present","rt":"2674.099999994","correct":true,"confidence":5},{"trial_n":125,"span":13,"encoder":"3366473718853","distractor":"3366473718813","target":"present","response":"present","rt":"7477.099999994","correct":true,"confidence":1},{"trial_n":126,"span":14,"encoder":"01822404333868","distractor":"01822404383868","target":"absent","response":"absent","rt":"2945.2999999821","correct":true,"confidence":4},{"trial_n":127,"span":14,"encoder":"27356896432703","distractor":"27356896442703","target":"present","response":"absent","rt":"5319.400000006","correct":false,"confidence":1},{"trial_n":128,"span":13,"encoder":"3103008291651","distractor":"3103008299651","target":"absent","response":"present","rt":"2894.5","correct":false,"confidence":1},{"trial_n":129,"span":12,"encoder":"184263873135","distractor":"184263073135","target":"absent","response":"absent","rt":"5541.400000006","correct":true,"confidence":1},{"trial_n":130,"span":12,"encoder":"874183352510","distractor":"854183352510","target":"present","response":"present","rt":"3012.5","correct":true,"confidence":5},{"trial_n":131,"span":13,"encoder":"4554671850755","distractor":"4544671850755","target":"absent","response":"present","rt":"6639.3000000119","correct":false,"confidence":2},{"trial_n":132,"span":12,"encoder":"508884873165","distractor":"508884873065","target":"absent","response":"absent","rt":"1729.900000006","correct":true,"confidence":5},{"trial_n":133,"span":12,"encoder":"584759086961","distractor":"684759086961","target":"absent","response":"absent","rt":"3021.099999994","correct":true,"confidence":5},{"trial_n":134,"span":13,"encoder":"5097833710888","distractor":"5097833310888","target":"present","response":"absent","rt":"5775.900000006","correct":false,"confidence":2},{"trial_n":135,"span":12,"encoder":"542504817513","distractor":"542594817513","target":"absent","response":"absent","rt":"5701","correct":true,"confidence":1},{"trial_n":136,"span":12,"encoder":"860301506148","distractor":"860301509148","target":"absent","response":"absent","rt":"2329.2000000179","correct":true,"confidence":5},{"trial_n":137,"span":13,"encoder":"1342137208347","distractor":"1342137308347","target":"absent","response":"present","rt":"6380.6999999881","correct":false,"confidence":1},{"trial_n":138,"span":12,"encoder":"004931705845","distractor":"004938705845","target":"absent","response":"absent","rt":"2262.5","correct":true,"confidence":5},{"trial_n":139,"span":12,"encoder":"325636573044","distractor":"325636513044","target":"absent","response":"present","rt":"3292.1999999881","correct":false,"confidence":1},{"trial_n":140,"span":11,"encoder":"52708807495","distractor":"52708807494","target":"absent","response":"absent","rt":"1506.3000000119","correct":true,"confidence":5}]