[{"trial_n":1,"n_dots":4.25,"target":"right","response":"right","rt":6306,"correct":true,"confidence":-1},{"trial_n":2,"n_dots":4.25,"target":"right","response":"right","rt":1330,"correct":true,"confidence":-1},{"trial_n":3,"n_dots":3.85,"target":"right","response":"left","rt":917.00000000001,"correct":false,"confidence":-1},{"trial_n":4,"n_dots":4.25,"target":"left","response":"left","rt":390.99999999999,"correct":true,"confidence":-1},{"trial_n":5,"n_dots":4.25,"target":"left","response":"left","rt":462.99999999999,"correct":true,"confidence":-1},{"trial_n":6,"n_dots":3.85,"target":"left","response":"left","rt":1936,"correct":true,"confidence":-1},{"trial_n":7,"n_dots":3.85,"target":"left","response":"right","rt":780.00000000001,"correct":false,"confidence":-1},{"trial_n":8,"n_dots":4.05,"target":"left","response":"left","rt":556,"correct":true,"confidence":-1},{"trial_n":9,"n_dots":4.05,"target":"right","response":"right","rt":485,"correct":true,"confidence":-1},{"trial_n":10,"n_dots":3.85,"target":"right","response":"right","rt":452,"correct":true,"confidence":-1},{"trial_n":11,"n_dots":3.85,"target":"left","response":"left","rt":624,"correct":true,"confidence":-1},{"trial_n":12,"n_dots":3.65,"target":"right","response":"right","rt":408,"correct":true,"confidence":-1},{"trial_n":13,"n_dots":3.65,"target":"left","response":"left","rt":375,"correct":true,"confidence":-1},{"trial_n":14,"n_dots":3.55,"target":"right","response":"right","rt":480,"correct":true,"confidence":-1},{"trial_n":15,"n_dots":3.55,"target":"right","response":"right","rt":408,"correct":true,"confidence":-1},{"trial_n":16,"n_dots":3.45,"target":"right","response":"left","rt":421,"correct":false,"confidence":-1},{"trial_n":17,"n_dots":3.55,"target":"right","response":"right","rt":505,"correct":true,"confidence":-1},{"trial_n":18,"n_dots":3.55,"target":"left","response":"left","rt":416,"correct":true,"confidence":-1},{"trial_n":19,"n_dots":3.45,"target":"right","response":"right","rt":397.99999999999,"correct":true,"confidence":-1},{"trial_n":20,"n_dots":3.45,"target":"right","response":"right","rt":530,"correct":true,"confidence":-1},{"trial_n":21,"n_dots":3.35,"target":"left","response":"left","rt":1437,"correct":true,"confidence":2},{"trial_n":22,"n_dots":3.35,"target":"right","response":"right","rt":948,"correct":true,"confidence":3},{"trial_n":23,"n_dots":3.25,"target":"right","response":"right","rt":827,"correct":true,"confidence":4},{"trial_n":24,"n_dots":3.25,"target":"left","response":"left","rt":1115,"correct":true,"confidence":4},{"trial_n":25,"n_dots":3.15,"target":"left","response":"left","rt":836,"correct":true,"confidence":3},{"trial_n":26,"n_dots":3.15,"target":"left","response":"left","rt":1050,"correct":true,"confidence":3},{"trial_n":27,"n_dots":3.05,"target":"right","response":"right","rt":1292,"correct":true,"confidence":3},{"trial_n":28,"n_dots":3.05,"target":"left","response":"left","rt":708,"correct":true,"confidence":3},{"trial_n":29,"n_dots":2.95,"target":"right","response":"right","rt":1244,"correct":true,"confidence":2},{"trial_n":30,"n_dots":2.95,"target":"right","response":"right","rt":748,"correct":true,"confidence":2},{"trial_n":31,"n_dots":2.85,"target":"left","response":"left","rt":543,"correct":true,"confidence":3},{"trial_n":32,"n_dots":2.85,"target":"left","response":"left","rt":1155,"correct":true,"confidence":2},{"trial_n":33,"n_dots":2.75,"target":"right","response":"left","rt":356,"correct":false,"confidence":2},{"trial_n":34,"n_dots":2.85,"target":"left","response":"left","rt":374.00000000003,"correct":true,"confidence":3},{"trial_n":35,"n_dots":2.85,"target":"left","response":"left","rt":1499,"correct":true,"confidence":1},{"trial_n":36,"n_dots":2.75,"target":"left","response":"left","rt":340.00000000003,"correct":true,"confidence":2},{"trial_n":37,"n_dots":2.75,"target":"right","response":"right","rt":959.99999999997,"correct":true,"confidence":2},{"trial_n":38,"n_dots":2.65,"target":"right","response":"left","rt":708,"correct":false,"confidence":2},{"trial_n":39,"n_dots":2.75,"target":"right","response":"left","rt":1447,"correct":false,"confidence":2},{"trial_n":40,"n_dots":2.85,"target":"left","response":"left","rt":943,"correct":true,"confidence":2},{"trial_n":41,"n_dots":2.85,"target":"right","response":"right","rt":3035,"correct":true,"confidence":2},{"trial_n":42,"n_dots":2.75,"target":"left","response":"left","rt":967,"correct":true,"confidence":3},{"trial_n":43,"n_dots":2.75,"target":"left","response":"left","rt":1039,"correct":true,"confidence":2},{"trial_n":44,"n_dots":2.65,"target":"left","response":"right","rt":2212,"correct":false,"confidence":1},{"trial_n":45,"n_dots":2.75,"target":"right","response":"right","rt":1153,"correct":true,"confidence":3},{"trial_n":46,"n_dots":2.75,"target":"left","response":"left","rt":863,"correct":true,"confidence":2},{"trial_n":47,"n_dots":2.65,"target":"right","response":"right","rt":1628,"correct":true,"confidence":2},{"trial_n":48,"n_dots":2.65,"target":"right","response":"right","rt":865,"correct":true,"confidence":3},{"trial_n":49,"n_dots":2.55,"target":"left","response":"left","rt":1132.0000000001,"correct":true,"confidence":3},{"trial_n":50,"n_dots":2.55,"target":"right","response":"right","rt":1111,"correct":true,"confidence":2},{"trial_n":51,"n_dots":2.45,"target":"left","response":"left","rt":994,"correct":true,"confidence":1},{"trial_n":52,"n_dots":2.45,"target":"left","response":"right","rt":956,"correct":false,"confidence":3},{"trial_n":53,"n_dots":2.55,"target":"left","response":"right","rt":1022.0000000001,"correct":false,"confidence":1},{"trial_n":54,"n_dots":2.65,"target":"right","response":"right","rt":1460.0000000001,"correct":true,"confidence":1},{"trial_n":55,"n_dots":2.65,"target":"left","response":"left","rt":1102.0000000001,"correct":true,"confidence":2},{"trial_n":56,"n_dots":2.55,"target":"left","response":"right","rt":830,"correct":false,"confidence":2},{"trial_n":57,"n_dots":2.65,"target":"right","response":"left","rt":16302,"correct":false,"confidence":1},{"trial_n":58,"n_dots":2.75,"target":"left","response":"right","rt":1044.9999999999,"correct":false,"confidence":3},{"trial_n":59,"n_dots":2.85,"target":"right","response":"right","rt":1289.9999999999,"correct":true,"confidence":2},{"trial_n":60,"n_dots":2.85,"target":"left","response":"left","rt":877,"correct":true,"confidence":1},{"trial_n":61,"n_dots":2.75,"target":"right","response":"left","rt":1326,"correct":false,"confidence":1},{"trial_n":62,"n_dots":2.85,"target":"left","response":"left","rt":911,"correct":true,"confidence":2},{"trial_n":63,"n_dots":2.85,"target":"right","response":"right","rt":679,"correct":true,"confidence":3},{"trial_n":64,"n_dots":2.75,"target":"left","response":"right","rt":1433,"correct":false,"confidence":2},{"trial_n":65,"n_dots":2.85,"target":"left","response":"left","rt":605,"correct":true,"confidence":3},{"trial_n":66,"n_dots":2.85,"target":"left","response":"left","rt":766,"correct":true,"confidence":4},{"trial_n":67,"n_dots":2.75,"target":"right","response":"left","rt":626,"correct":false,"confidence":2},{"trial_n":68,"n_dots":2.85,"target":"right","response":"right","rt":710,"correct":true,"confidence":2},{"trial_n":69,"n_dots":2.85,"target":"left","response":"right","rt":729,"correct":false,"confidence":1},{"trial_n":70,"n_dots":2.95,"target":"left","response":"right","rt":625.99999999977,"correct":false,"confidence":2},{"trial_n":71,"n_dots":3.05,"target":"left","response":"right","rt":590,"correct":false,"confidence":2},{"trial_n":72,"n_dots":3.15,"target":"left","response":"left","rt":381,"correct":true,"confidence":3},{"trial_n":73,"n_dots":3.15,"target":"left","response":"left","rt":483.99999999977,"correct":true,"confidence":3},{"trial_n":74,"n_dots":3.05,"target":"left","response":"left","rt":708,"correct":true,"confidence":2},{"trial_n":75,"n_dots":3.05,"target":"right","response":"right","rt":1257.0000000002,"correct":true,"confidence":2},{"trial_n":76,"n_dots":2.95,"target":"right","response":"left","rt":615,"correct":false,"confidence":2},{"trial_n":77,"n_dots":3.05,"target":"left","response":"right","rt":645,"correct":false,"confidence":2},{"trial_n":78,"n_dots":3.15,"target":"right","response":"right","rt":349,"correct":true,"confidence":2},{"trial_n":79,"n_dots":3.15,"target":"right","response":"left","rt":633,"correct":false,"confidence":1},{"trial_n":80,"n_dots":3.25,"target":"right","response":"right","rt":555,"correct":true,"confidence":2},{"trial_n":81,"n_dots":3.25,"target":"left","response":"left","rt":502.99999999977,"correct":true,"confidence":3},{"trial_n":82,"n_dots":3.15,"target":"right","response":"right","rt":631,"correct":true,"confidence":3},{"trial_n":83,"n_dots":3.15,"target":"left","response":"left","rt":356.99999999977,"correct":true,"confidence":4},{"trial_n":84,"n_dots":3.05,"target":"right","response":"right","rt":509.00000000023,"correct":true,"confidence":3},{"trial_n":85,"n_dots":3.05,"target":"right","response":"right","rt":799.00000000023,"correct":true,"confidence":2},{"trial_n":86,"n_dots":2.95,"target":"right","response":"right","rt":516,"correct":true,"confidence":2},{"trial_n":87,"n_dots":2.95,"target":"left","response":"left","rt":775,"correct":true,"confidence":2},{"trial_n":88,"n_dots":2.85,"target":"left","response":"left","rt":436,"correct":true,"confidence":2},{"trial_n":89,"n_dots":2.85,"target":"right","response":"right","rt":384,"correct":true,"confidence":2},{"trial_n":90,"n_dots":2.75,"target":"left","response":"left","rt":783,"correct":true,"confidence":1},{"trial_n":91,"n_dots":2.75,"target":"right","response":"right","rt":607,"correct":true,"confidence":1},{"trial_n":92,"n_dots":2.65,"target":"right","response":"right","rt":652.99999999977,"correct":true,"confidence":2},{"trial_n":93,"n_dots":2.65,"target":"left","response":"right","rt":593,"correct":false,"confidence":1},{"trial_n":94,"n_dots":2.75,"target":"left","response":"left","rt":713,"correct":true,"confidence":2},{"trial_n":95,"n_dots":2.75,"target":"left","response":"right","rt":584,"correct":false,"confidence":2},{"trial_n":96,"n_dots":2.85,"target":"right","response":"right","rt":446,"correct":true,"confidence":2},{"trial_n":97,"n_dots":2.85,"target":"left","response":"left","rt":502,"correct":true,"confidence":3},{"trial_n":98,"n_dots":2.75,"target":"left","response":"right","rt":567,"correct":false,"confidence":2},{"trial_n":99,"n_dots":2.85,"target":"right","response":"left","rt":520,"correct":false,"confidence":2},{"trial_n":100,"n_dots":2.95,"target":"right","response":"right","rt":387,"correct":true,"confidence":2},{"trial_n":101,"n_dots":2.95,"target":"right","response":"left","rt":907,"correct":false,"confidence":1},{"trial_n":102,"n_dots":3.05,"target":"left","response":"left","rt":878,"correct":true,"confidence":1},{"trial_n":103,"n_dots":3.05,"target":"left","response":"left","rt":1337,"correct":true,"confidence":1},{"trial_n":104,"n_dots":2.95,"target":"right","response":"right","rt":615,"correct":true,"confidence":1},{"trial_n":105,"n_dots":2.95,"target":"left","response":"left","rt":775,"correct":true,"confidence":1},{"trial_n":106,"n_dots":2.85,"target":"right","response":"right","rt":495.99999999977,"correct":true,"confidence":2},{"trial_n":107,"n_dots":2.85,"target":"right","response":"left","rt":782,"correct":false,"confidence":1},{"trial_n":108,"n_dots":2.95,"target":"left","response":"left","rt":972.99999999977,"correct":true,"confidence":1},{"trial_n":109,"n_dots":2.95,"target":"right","response":"right","rt":1207,"correct":true,"confidence":2},{"trial_n":110,"n_dots":2.85,"target":"left","response":"right","rt":659,"correct":false,"confidence":1},{"trial_n":111,"n_dots":2.95,"target":"right","response":"left","rt":481,"correct":false,"confidence":1},{"trial_n":112,"n_dots":3.05,"target":"right","response":"right","rt":592,"correct":true,"confidence":2},{"trial_n":113,"n_dots":3.05,"target":"right","response":"right","rt":545,"correct":true,"confidence":3},{"trial_n":114,"n_dots":2.95,"target":"right","response":"right","rt":560,"correct":true,"confidence":2},{"trial_n":115,"n_dots":2.95,"target":"left","response":"left","rt":603.00000000023,"correct":true,"confidence":2},{"trial_n":116,"n_dots":2.85,"target":"right","response":"left","rt":464,"correct":false,"confidence":1},{"trial_n":117,"n_dots":2.95,"target":"right","response":"right","rt":681,"correct":true,"confidence":2},{"trial_n":118,"n_dots":2.95,"target":"right","response":"left","rt":624,"correct":false,"confidence":1},{"trial_n":119,"n_dots":3.05,"target":"left","response":"left","rt":608,"correct":true,"confidence":1},{"trial_n":120,"n_dots":3.05,"target":"left","response":"left","rt":1052.0000000002,"correct":true,"confidence":1}]