[{"trial_n":1,"n_dots":4.25,"target":"right","response":"left","rt":2073.9000000358,"correct":false,"confidence":-1},{"trial_n":2,"n_dots":4.25,"target":"right","response":"right","rt":946.29999995232,"correct":true,"confidence":-1},{"trial_n":3,"n_dots":4.25,"target":"left","response":"left","rt":3077.1000000238,"correct":true,"confidence":-1},{"trial_n":4,"n_dots":3.85,"target":"right","response":"left","rt":1202.1000000238,"correct":false,"confidence":-1},{"trial_n":5,"n_dots":4.25,"target":"left","response":"left","rt":1118.1000000238,"correct":true,"confidence":-1},{"trial_n":6,"n_dots":4.25,"target":"left","response":"left","rt":696.19999998808,"correct":true,"confidence":-1},{"trial_n":7,"n_dots":3.85,"target":"left","response":"left","rt":740.5,"correct":true,"confidence":-1},{"trial_n":8,"n_dots":3.85,"target":"right","response":"right","rt":918.89999997616,"correct":true,"confidence":-1},{"trial_n":9,"n_dots":3.65,"target":"left","response":"left","rt":1082.1999999881,"correct":true,"confidence":-1},{"trial_n":10,"n_dots":3.65,"target":"left","response":"left","rt":1161.8000000119,"correct":true,"confidence":-1},{"trial_n":11,"n_dots":3.45,"target":"right","response":"right","rt":748.19999998808,"correct":true,"confidence":-1},{"trial_n":12,"n_dots":3.45,"target":"right","response":"right","rt":763.10000002384,"correct":true,"confidence":-1},{"trial_n":13,"n_dots":3.35,"target":"left","response":"left","rt":1035.1999999881,"correct":true,"confidence":-1},{"trial_n":14,"n_dots":3.35,"target":"right","response":"left","rt":601,"correct":false,"confidence":-1},{"trial_n":15,"n_dots":3.45,"target":"right","response":"right","rt":1201.1999999881,"correct":true,"confidence":-1},{"trial_n":16,"n_dots":3.45,"target":"left","response":"left","rt":986.40000003576,"correct":true,"confidence":-1},{"trial_n":17,"n_dots":3.35,"target":"left","response":"left","rt":854.70000004768,"correct":true,"confidence":-1},{"trial_n":18,"n_dots":3.35,"target":"right","response":"right","rt":846.59999996424,"correct":true,"confidence":-1},{"trial_n":19,"n_dots":3.25,"target":"left","response":"right","rt":720.5,"correct":false,"confidence":-1},{"trial_n":20,"n_dots":3.35,"target":"left","response":"left","rt":699,"correct":true,"confidence":-1},{"trial_n":21,"n_dots":3.35,"target":"left","response":"right","rt":798.69999998808,"correct":false,"confidence":2},{"trial_n":22,"n_dots":3.45,"target":"right","response":"right","rt":779,"correct":true,"confidence":4},{"trial_n":23,"n_dots":3.45,"target":"right","response":"right","rt":658.60000002384,"correct":true,"confidence":5},{"trial_n":24,"n_dots":3.35,"target":"right","response":"right","rt":635.59999996424,"correct":true,"confidence":5},{"trial_n":25,"n_dots":3.35,"target":"left","response":"left","rt":2762.8000000119,"correct":true,"confidence":2},{"trial_n":26,"n_dots":3.25,"target":"right","response":"right","rt":521.90000003576,"correct":true,"confidence":4},{"trial_n":27,"n_dots":3.25,"target":"left","response":"left","rt":2111.3999999762,"correct":true,"confidence":3},{"trial_n":28,"n_dots":3.15,"target":"right","response":"left","rt":1275.5,"correct":false,"confidence":4},{"trial_n":29,"n_dots":3.25,"target":"right","response":"right","rt":3336.4000000358,"correct":true,"confidence":4},{"trial_n":30,"n_dots":3.25,"target":"right","response":"left","rt":1568.8000000119,"correct":false,"confidence":4},{"trial_n":31,"n_dots":3.35,"target":"left","response":"left","rt":1172.6000000238,"correct":true,"confidence":4},{"trial_n":32,"n_dots":3.35,"target":"left","response":"right","rt":2134.8999999762,"correct":false,"confidence":4},{"trial_n":33,"n_dots":3.45,"target":"right","response":"left","rt":762.40000003576,"correct":false,"confidence":3},{"trial_n":34,"n_dots":3.55,"target":"right","response":"right","rt":704.09999996424,"correct":true,"confidence":4},{"trial_n":35,"n_dots":3.55,"target":"right","response":"right","rt":579.60000002384,"correct":true,"confidence":4},{"trial_n":36,"n_dots":3.45,"target":"right","response":"right","rt":770.69999998808,"correct":true,"confidence":3},{"trial_n":37,"n_dots":3.45,"target":"left","response":"left","rt":688.40000003576,"correct":true,"confidence":4},{"trial_n":38,"n_dots":3.35,"target":"left","response":"right","rt":661.69999998808,"correct":false,"confidence":4},{"trial_n":39,"n_dots":3.45,"target":"left","response":"left","rt":636.20000004768,"correct":true,"confidence":3},{"trial_n":40,"n_dots":3.45,"target":"left","response":"left","rt":1445.8999999762,"correct":true,"confidence":4},{"trial_n":41,"n_dots":3.35,"target":"right","response":"right","rt":618.60000002384,"correct":true,"confidence":3},{"trial_n":42,"n_dots":3.35,"target":"left","response":"left","rt":560.60000002384,"correct":true,"confidence":3},{"trial_n":43,"n_dots":3.25,"target":"left","response":"left","rt":778.60000002384,"correct":true,"confidence":3},{"trial_n":44,"n_dots":3.25,"target":"right","response":"right","rt":454.80000001192,"correct":true,"confidence":5},{"trial_n":45,"n_dots":3.15,"target":"left","response":"right","rt":474.39999997616,"correct":false,"confidence":5},{"trial_n":46,"n_dots":3.25,"target":"right","response":"right","rt":687.40000003576,"correct":true,"confidence":5},{"trial_n":47,"n_dots":3.25,"target":"right","response":"left","rt":575.39999997616,"correct":false,"confidence":5},{"trial_n":48,"n_dots":3.35,"target":"right","response":"left","rt":971.40000003576,"correct":false,"confidence":4},{"trial_n":49,"n_dots":3.45,"target":"right","response":"right","rt":410.90000003576,"correct":true,"confidence":4},{"trial_n":50,"n_dots":3.45,"target":"right","response":"right","rt":1070.9000000358,"correct":true,"confidence":4},{"trial_n":51,"n_dots":3.35,"target":"right","response":"right","rt":333.19999998808,"correct":true,"confidence":4},{"trial_n":52,"n_dots":3.35,"target":"left","response":"left","rt":524.19999998808,"correct":true,"confidence":5},{"trial_n":53,"n_dots":3.25,"target":"left","response":"right","rt":676.89999997616,"correct":false,"confidence":4},{"trial_n":54,"n_dots":3.35,"target":"right","response":"right","rt":370.69999998808,"correct":true,"confidence":5},{"trial_n":55,"n_dots":3.35,"target":"right","response":"right","rt":438.29999995232,"correct":true,"confidence":5},{"trial_n":56,"n_dots":3.25,"target":"left","response":"left","rt":710.90000003576,"correct":true,"confidence":4},{"trial_n":57,"n_dots":3.25,"target":"left","response":"left","rt":754.10000002384,"correct":true,"confidence":4},{"trial_n":58,"n_dots":3.15,"target":"right","response":"left","rt":889.30000001192,"correct":false,"confidence":4},{"trial_n":59,"n_dots":3.25,"target":"right","response":"right","rt":1601.5,"correct":true,"confidence":5},{"trial_n":60,"n_dots":3.25,"target":"left","response":"left","rt":636.10000002384,"correct":true,"confidence":3},{"trial_n":61,"n_dots":3.15,"target":"left","response":"left","rt":751,"correct":true,"confidence":3},{"trial_n":62,"n_dots":3.15,"target":"left","response":"left","rt":642.20000004768,"correct":true,"confidence":4},{"trial_n":63,"n_dots":3.05,"target":"left","response":"left","rt":1075.0999999642,"correct":true,"confidence":4},{"trial_n":64,"n_dots":3.05,"target":"right","response":"right","rt":452,"correct":true,"confidence":4},{"trial_n":65,"n_dots":2.95,"target":"right","response":"left","rt":1080.1000000238,"correct":false,"confidence":1},{"trial_n":66,"n_dots":3.05,"target":"right","response":"right","rt":1307.9000000358,"correct":true,"confidence":2},{"trial_n":67,"n_dots":3.05,"target":"right","response":"right","rt":670.39999997616,"correct":true,"confidence":4},{"trial_n":68,"n_dots":2.95,"target":"left","response":"right","rt":2551.8999999762,"correct":false,"confidence":2},{"trial_n":69,"n_dots":3.05,"target":"left","response":"left","rt":1430.6000000238,"correct":true,"confidence":3},{"trial_n":70,"n_dots":3.05,"target":"left","response":"right","rt":819.10000002384,"correct":false,"confidence":4},{"trial_n":71,"n_dots":3.15,"target":"right","response":"right","rt":408.79999995232,"correct":true,"confidence":3},{"trial_n":72,"n_dots":3.15,"target":"left","response":"right","rt":871.60000002384,"correct":false,"confidence":4},{"trial_n":73,"n_dots":3.25,"target":"left","response":"left","rt":518.5,"correct":true,"confidence":5},{"trial_n":74,"n_dots":3.25,"target":"right","response":"right","rt":375.60000002384,"correct":true,"confidence":4},{"trial_n":75,"n_dots":3.15,"target":"left","response":"right","rt":379.5,"correct":false,"confidence":4},{"trial_n":76,"n_dots":3.25,"target":"right","response":"right","rt":383.40000003576,"correct":true,"confidence":4},{"trial_n":77,"n_dots":3.25,"target":"left","response":"right","rt":384.30000001192,"correct":false,"confidence":4},{"trial_n":78,"n_dots":3.35,"target":"right","response":"right","rt":472.59999996424,"correct":true,"confidence":4},{"trial_n":79,"n_dots":3.35,"target":"left","response":"left","rt":922.5,"correct":true,"confidence":4},{"trial_n":80,"n_dots":3.25,"target":"left","response":"right","rt":1022,"correct":false,"confidence":4},{"trial_n":81,"n_dots":3.35,"target":"right","response":"left","rt":1429.6000000238,"correct":false,"confidence":2},{"trial_n":82,"n_dots":3.45,"target":"right","response":"right","rt":941.90000003576,"correct":true,"confidence":3},{"trial_n":83,"n_dots":3.45,"target":"right","response":"right","rt":674.19999998808,"correct":true,"confidence":4},{"trial_n":84,"n_dots":3.35,"target":"left","response":"left","rt":389.89999997616,"correct":true,"confidence":4},{"trial_n":85,"n_dots":3.35,"target":"left","response":"left","rt":760.5,"correct":true,"confidence":4},{"trial_n":86,"n_dots":3.25,"target":"left","response":"left","rt":1407.9000000358,"correct":true,"confidence":1},{"trial_n":87,"n_dots":3.25,"target":"right","response":"right","rt":921.60000002384,"correct":true,"confidence":4},{"trial_n":88,"n_dots":3.15,"target":"left","response":"left","rt":884.10000002384,"correct":true,"confidence":3},{"trial_n":89,"n_dots":3.15,"target":"left","response":"right","rt":542.10000002384,"correct":false,"confidence":4},{"trial_n":90,"n_dots":3.25,"target":"right","response":"left","rt":659.80000001192,"correct":false,"confidence":4},{"trial_n":91,"n_dots":3.35,"target":"left","response":"left","rt":1355.3999999762,"correct":true,"confidence":4},{"trial_n":92,"n_dots":3.35,"target":"left","response":"left","rt":763.30000001192,"correct":true,"confidence":4},{"trial_n":93,"n_dots":3.25,"target":"left","response":"left","rt":507.40000003576,"correct":true,"confidence":4},{"trial_n":94,"n_dots":3.25,"target":"left","response":"right","rt":823.30000001192,"correct":false,"confidence":4},{"trial_n":95,"n_dots":3.35,"target":"right","response":"right","rt":515.5,"correct":true,"confidence":4},{"trial_n":96,"n_dots":3.35,"target":"left","response":"left","rt":624.69999998808,"correct":true,"confidence":4},{"trial_n":97,"n_dots":3.25,"target":"left","response":"right","rt":10842.200000048,"correct":false,"confidence":4},{"trial_n":98,"n_dots":3.35,"target":"right","response":"right","rt":1371.8000000119,"correct":true,"confidence":4},{"trial_n":99,"n_dots":3.35,"target":"right","response":"left","rt":1074.8999999762,"correct":false,"confidence":3},{"trial_n":100,"n_dots":3.45,"target":"left","response":"left","rt":418.80000001192,"correct":true,"confidence":3},{"trial_n":101,"n_dots":3.45,"target":"left","response":"left","rt":2197.4000000358,"correct":true,"confidence":1},{"trial_n":102,"n_dots":3.35,"target":"right","response":"right","rt":396,"correct":true,"confidence":1},{"trial_n":103,"n_dots":3.35,"target":"left","response":"left","rt":470.29999995232,"correct":true,"confidence":4},{"trial_n":104,"n_dots":3.25,"target":"right","response":"right","rt":1105.5999999642,"correct":true,"confidence":4},{"trial_n":105,"n_dots":3.25,"target":"right","response":"right","rt":444.60000002384,"correct":true,"confidence":4},{"trial_n":106,"n_dots":3.15,"target":"left","response":"left","rt":644.30000001192,"correct":true,"confidence":4},{"trial_n":107,"n_dots":3.15,"target":"left","response":"left","rt":502.69999998808,"correct":true,"confidence":4},{"trial_n":108,"n_dots":3.05,"target":"left","response":"left","rt":623.19999998808,"correct":true,"confidence":4},{"trial_n":109,"n_dots":3.05,"target":"right","response":"right","rt":741.69999998808,"correct":true,"confidence":4},{"trial_n":110,"n_dots":2.95,"target":"right","response":"right","rt":726.10000002384,"correct":true,"confidence":4},{"trial_n":111,"n_dots":2.95,"target":"right","response":"right","rt":436.09999996424,"correct":true,"confidence":4},{"trial_n":112,"n_dots":2.85,"target":"left","response":"right","rt":596.60000002384,"correct":false,"confidence":4},{"trial_n":113,"n_dots":2.95,"target":"left","response":"right","rt":635.20000004768,"correct":false,"confidence":4},{"trial_n":114,"n_dots":3.05,"target":"right","response":"right","rt":417.59999996424,"correct":true,"confidence":4},{"trial_n":115,"n_dots":3.05,"target":"left","response":"left","rt":635.60000002384,"correct":true,"confidence":3},{"trial_n":116,"n_dots":2.95,"target":"right","response":"right","rt":357.59999996424,"correct":true,"confidence":4},{"trial_n":117,"n_dots":2.95,"target":"right","response":"right","rt":821.89999997616,"correct":true,"confidence":4},{"trial_n":118,"n_dots":2.85,"target":"right","response":"right","rt":585.09999996424,"correct":true,"confidence":4},{"trial_n":119,"n_dots":2.85,"target":"right","response":"left","rt":761.30000001192,"correct":false,"confidence":4},{"trial_n":120,"n_dots":2.95,"target":"right","response":"right","rt":576.79999995232,"correct":true,"confidence":4}]