[{"trial_n":1,"n_dots":4.25,"target":"right","response":"left","rt":4766.7999999523,"correct":false,"confidence":-1},{"trial_n":2,"n_dots":4.25,"target":"right","response":"left","rt":1182.3000000715,"correct":false,"confidence":-1},{"trial_n":3,"n_dots":4.65,"target":"right","response":"right","rt":945,"correct":true,"confidence":-1},{"trial_n":4,"n_dots":4.65,"target":"right","response":"right","rt":524.39999997616,"correct":true,"confidence":-1},{"trial_n":5,"n_dots":4.25,"target":"left","response":"left","rt":663.89999997616,"correct":true,"confidence":-1},{"trial_n":6,"n_dots":4.25,"target":"right","response":"right","rt":750.80000007153,"correct":true,"confidence":-1},{"trial_n":7,"n_dots":3.85,"target":"left","response":"left","rt":748.30000007153,"correct":true,"confidence":-1},{"trial_n":8,"n_dots":3.85,"target":"right","response":"right","rt":599.5,"correct":true,"confidence":-1},{"trial_n":9,"n_dots":3.65,"target":"right","response":"left","rt":791.59999990463,"correct":false,"confidence":-1},{"trial_n":10,"n_dots":3.85,"target":"right","response":"left","rt":968.10000002384,"correct":false,"confidence":-1},{"trial_n":11,"n_dots":4.05,"target":"right","response":"right","rt":497.10000002384,"correct":true,"confidence":-1},{"trial_n":12,"n_dots":4.05,"target":"right","response":"right","rt":351.39999997616,"correct":true,"confidence":-1},{"trial_n":13,"n_dots":3.95,"target":"left","response":"left","rt":845.30000007153,"correct":true,"confidence":-1},{"trial_n":14,"n_dots":3.95,"target":"right","response":"right","rt":536.29999995232,"correct":true,"confidence":-1},{"trial_n":15,"n_dots":3.85,"target":"left","response":"left","rt":508.30000007153,"correct":true,"confidence":-1},{"trial_n":16,"n_dots":3.85,"target":"right","response":"right","rt":418.39999997616,"correct":true,"confidence":-1},{"trial_n":17,"n_dots":3.75,"target":"right","response":"right","rt":606.89999997616,"correct":true,"confidence":-1},{"trial_n":18,"n_dots":3.75,"target":"left","response":"left","rt":468.80000007153,"correct":true,"confidence":-1},{"trial_n":19,"n_dots":3.65,"target":"right","response":"right","rt":448,"correct":true,"confidence":-1},{"trial_n":20,"n_dots":3.65,"target":"left","response":"left","rt":494.29999995232,"correct":true,"confidence":-1},{"trial_n":21,"n_dots":3.55,"target":"right","response":"left","rt":979.70000004768,"correct":false,"confidence":2},{"trial_n":22,"n_dots":3.65,"target":"right","response":"left","rt":761.89999997616,"correct":false,"confidence":2},{"trial_n":23,"n_dots":3.75,"target":"left","response":"left","rt":350.5,"correct":true,"confidence":3},{"trial_n":24,"n_dots":3.75,"target":"left","response":"left","rt":462.20000004768,"correct":true,"confidence":3},{"trial_n":25,"n_dots":3.65,"target":"left","response":"left","rt":381.39999997616,"correct":true,"confidence":4},{"trial_n":26,"n_dots":3.65,"target":"right","response":"left","rt":812.90000009537,"correct":false,"confidence":2},{"trial_n":27,"n_dots":3.75,"target":"left","response":"left","rt":295.39999997616,"correct":true,"confidence":4},{"trial_n":28,"n_dots":3.75,"target":"left","response":"left","rt":576.89999997616,"correct":true,"confidence":5},{"trial_n":29,"n_dots":3.65,"target":"left","response":"left","rt":341.5,"correct":true,"confidence":2},{"trial_n":30,"n_dots":3.65,"target":"left","response":"left","rt":428.29999995232,"correct":true,"confidence":3},{"trial_n":31,"n_dots":3.55,"target":"right","response":"right","rt":604,"correct":true,"confidence":3},{"trial_n":32,"n_dots":3.55,"target":"left","response":"left","rt":392.19999992847,"correct":true,"confidence":5},{"trial_n":33,"n_dots":3.45,"target":"left","response":"left","rt":657.59999990463,"correct":true,"confidence":5},{"trial_n":34,"n_dots":3.45,"target":"left","response":"left","rt":590.89999997616,"correct":true,"confidence":2},{"trial_n":35,"n_dots":3.35,"target":"right","response":"right","rt":625.79999995232,"correct":true,"confidence":2},{"trial_n":36,"n_dots":3.35,"target":"left","response":"left","rt":348.69999992847,"correct":true,"confidence":2},{"trial_n":37,"n_dots":3.25,"target":"left","response":"left","rt":498.10000002384,"correct":true,"confidence":2},{"trial_n":38,"n_dots":3.25,"target":"left","response":"left","rt":711.29999995232,"correct":true,"confidence":2},{"trial_n":39,"n_dots":3.15,"target":"right","response":"right","rt":636.30000007153,"correct":true,"confidence":2},{"trial_n":40,"n_dots":3.15,"target":"left","response":"left","rt":541.70000004768,"correct":true,"confidence":1},{"trial_n":41,"n_dots":3.05,"target":"right","response":"right","rt":1977.1999999285,"correct":true,"confidence":2},{"trial_n":42,"n_dots":3.05,"target":"right","response":"left","rt":554.20000004768,"correct":false,"confidence":2},{"trial_n":43,"n_dots":3.15,"target":"left","response":"left","rt":531.5,"correct":true,"confidence":2},{"trial_n":44,"n_dots":3.15,"target":"left","response":"left","rt":611.20000004768,"correct":true,"confidence":1},{"trial_n":45,"n_dots":3.05,"target":"left","response":"left","rt":357.20000004768,"correct":true,"confidence":1},{"trial_n":46,"n_dots":3.05,"target":"left","response":"left","rt":544.5,"correct":true,"confidence":1},{"trial_n":47,"n_dots":2.95,"target":"left","response":"left","rt":597.60000002384,"correct":true,"confidence":1},{"trial_n":48,"n_dots":2.95,"target":"left","response":"right","rt":1150.1000000238,"correct":false,"confidence":1},{"trial_n":49,"n_dots":3.05,"target":"left","response":"left","rt":802.39999997616,"correct":true,"confidence":1},{"trial_n":50,"n_dots":3.05,"target":"right","response":"left","rt":789.29999995232,"correct":false,"confidence":2},{"trial_n":51,"n_dots":3.15,"target":"right","response":"left","rt":736.79999995232,"correct":false,"confidence":2},{"trial_n":52,"n_dots":3.25,"target":"right","response":"left","rt":651.89999997616,"correct":false,"confidence":2},{"trial_n":53,"n_dots":3.35,"target":"left","response":"left","rt":526,"correct":true,"confidence":3},{"trial_n":54,"n_dots":3.35,"target":"right","response":"right","rt":389.79999995232,"correct":true,"confidence":3},{"trial_n":55,"n_dots":3.25,"target":"left","response":"left","rt":530.20000004768,"correct":true,"confidence":3},{"trial_n":56,"n_dots":3.25,"target":"right","response":"left","rt":798.20000004768,"correct":false,"confidence":2},{"trial_n":57,"n_dots":3.35,"target":"left","response":"left","rt":816.30000007153,"correct":true,"confidence":2},{"trial_n":58,"n_dots":3.35,"target":"left","response":"left","rt":1605.6000000238,"correct":true,"confidence":1},{"trial_n":59,"n_dots":3.25,"target":"left","response":"left","rt":705.10000002384,"correct":true,"confidence":1},{"trial_n":60,"n_dots":3.25,"target":"left","response":"left","rt":552.60000002384,"correct":true,"confidence":1},{"trial_n":61,"n_dots":3.15,"target":"right","response":"left","rt":2146.8000000715,"correct":false,"confidence":1},{"trial_n":62,"n_dots":3.25,"target":"right","response":"left","rt":923.80000007153,"correct":false,"confidence":2},{"trial_n":63,"n_dots":3.35,"target":"left","response":"left","rt":530.60000002384,"correct":true,"confidence":3},{"trial_n":64,"n_dots":3.35,"target":"left","response":"left","rt":564.30000007153,"correct":true,"confidence":3},{"trial_n":65,"n_dots":3.25,"target":"left","response":"left","rt":597.5,"correct":true,"confidence":1},{"trial_n":66,"n_dots":3.25,"target":"right","response":"left","rt":669.80000007153,"correct":false,"confidence":1},{"trial_n":67,"n_dots":3.35,"target":"right","response":"right","rt":1092.8999999762,"correct":true,"confidence":1},{"trial_n":68,"n_dots":3.35,"target":"right","response":"left","rt":577.79999995232,"correct":false,"confidence":1},{"trial_n":69,"n_dots":3.45,"target":"left","response":"left","rt":590.29999995232,"correct":true,"confidence":2},{"trial_n":70,"n_dots":3.45,"target":"right","response":"right","rt":761.29999995232,"correct":true,"confidence":1},{"trial_n":71,"n_dots":3.35,"target":"right","response":"right","rt":462.59999990463,"correct":true,"confidence":3},{"trial_n":72,"n_dots":3.35,"target":"right","response":"left","rt":698.90000009537,"correct":false,"confidence":3},{"trial_n":73,"n_dots":3.45,"target":"right","response":"left","rt":752.90000009537,"correct":false,"confidence":1},{"trial_n":74,"n_dots":3.55,"target":"right","response":"right","rt":660.30000007153,"correct":true,"confidence":1},{"trial_n":75,"n_dots":3.55,"target":"left","response":"left","rt":806.59999990463,"correct":true,"confidence":1},{"trial_n":76,"n_dots":3.45,"target":"right","response":"left","rt":896.89999997616,"correct":false,"confidence":1},{"trial_n":77,"n_dots":3.55,"target":"left","response":"left","rt":470.70000004768,"correct":true,"confidence":4},{"trial_n":78,"n_dots":3.55,"target":"right","response":"right","rt":1123,"correct":true,"confidence":1},{"trial_n":79,"n_dots":3.45,"target":"right","response":"right","rt":859.89999997616,"correct":true,"confidence":1},{"trial_n":80,"n_dots":3.45,"target":"right","response":"right","rt":987.60000002384,"correct":true,"confidence":1},{"trial_n":81,"n_dots":3.35,"target":"left","response":"left","rt":1860.6999999285,"correct":true,"confidence":4},{"trial_n":82,"n_dots":3.35,"target":"right","response":"left","rt":603,"correct":false,"confidence":1},{"trial_n":83,"n_dots":3.45,"target":"left","response":"left","rt":615,"correct":true,"confidence":3},{"trial_n":84,"n_dots":3.45,"target":"left","response":"left","rt":609.29999995232,"correct":true,"confidence":2},{"trial_n":85,"n_dots":3.35,"target":"right","response":"right","rt":561.29999995232,"correct":true,"confidence":2},{"trial_n":86,"n_dots":3.35,"target":"left","response":"left","rt":735.70000004768,"correct":true,"confidence":4},{"trial_n":87,"n_dots":3.25,"target":"left","response":"left","rt":747.10000002384,"correct":true,"confidence":2},{"trial_n":88,"n_dots":3.25,"target":"left","response":"left","rt":605.30000007153,"correct":true,"confidence":2},{"trial_n":89,"n_dots":3.15,"target":"left","response":"left","rt":655.79999995232,"correct":true,"confidence":2},{"trial_n":90,"n_dots":3.15,"target":"right","response":"right","rt":583.59999990463,"correct":true,"confidence":3},{"trial_n":91,"n_dots":3.05,"target":"right","response":"right","rt":339.80000007153,"correct":true,"confidence":4},{"trial_n":92,"n_dots":3.05,"target":"left","response":"left","rt":588.40000009537,"correct":true,"confidence":4},{"trial_n":93,"n_dots":2.95,"target":"left","response":"left","rt":328.39999997616,"correct":true,"confidence":2},{"trial_n":94,"n_dots":2.95,"target":"right","response":"right","rt":499.10000002384,"correct":true,"confidence":2},{"trial_n":95,"n_dots":2.85,"target":"right","response":"left","rt":1817,"correct":false,"confidence":2},{"trial_n":96,"n_dots":2.95,"target":"right","response":"right","rt":755.40000009537,"correct":true,"confidence":3},{"trial_n":97,"n_dots":2.95,"target":"right","response":"left","rt":1373.6999999285,"correct":false,"confidence":3},{"trial_n":98,"n_dots":3.05,"target":"right","response":"left","rt":1060.6000000238,"correct":false,"confidence":2},{"trial_n":99,"n_dots":3.15,"target":"left","response":"left","rt":420.89999997616,"correct":true,"confidence":4},{"trial_n":100,"n_dots":3.15,"target":"right","response":"right","rt":945.89999997616,"correct":true,"confidence":4},{"trial_n":101,"n_dots":3.05,"target":"right","response":"right","rt":736.89999997616,"correct":true,"confidence":2},{"trial_n":102,"n_dots":3.05,"target":"right","response":"right","rt":429.69999992847,"correct":true,"confidence":2},{"trial_n":103,"n_dots":2.95,"target":"left","response":"right","rt":1005.2000000477,"correct":false,"confidence":2},{"trial_n":104,"n_dots":3.05,"target":"left","response":"left","rt":802.39999997616,"correct":true,"confidence":2},{"trial_n":105,"n_dots":3.05,"target":"right","response":"right","rt":536.29999995232,"correct":true,"confidence":2},{"trial_n":106,"n_dots":2.95,"target":"right","response":"right","rt":357.39999997616,"correct":true,"confidence":3},{"trial_n":107,"n_dots":2.95,"target":"left","response":"left","rt":509,"correct":true,"confidence":3},{"trial_n":108,"n_dots":2.85,"target":"left","response":"left","rt":366.59999990463,"correct":true,"confidence":2},{"trial_n":109,"n_dots":2.85,"target":"left","response":"left","rt":439.5,"correct":true,"confidence":3},{"trial_n":110,"n_dots":2.75,"target":"left","response":"left","rt":543.79999995232,"correct":true,"confidence":1},{"trial_n":111,"n_dots":2.75,"target":"right","response":"right","rt":935.60000002384,"correct":true,"confidence":2},{"trial_n":112,"n_dots":2.65,"target":"left","response":"left","rt":714.89999997616,"correct":true,"confidence":4},{"trial_n":113,"n_dots":2.65,"target":"left","response":"left","rt":542.40000009537,"correct":true,"confidence":4},{"trial_n":114,"n_dots":2.55,"target":"left","response":"left","rt":544.10000002384,"correct":true,"confidence":2},{"trial_n":115,"n_dots":2.55,"target":"right","response":"right","rt":731.39999997616,"correct":true,"confidence":3},{"trial_n":116,"n_dots":2.45,"target":"right","response":"left","rt":564.39999997616,"correct":false,"confidence":1},{"trial_n":117,"n_dots":2.55,"target":"right","response":"right","rt":621.89999997616,"correct":true,"confidence":1},{"trial_n":118,"n_dots":2.55,"target":"right","response":"right","rt":539.09999990463,"correct":true,"confidence":1},{"trial_n":119,"n_dots":2.45,"target":"left","response":"left","rt":725,"correct":true,"confidence":2},{"trial_n":120,"n_dots":2.45,"target":"left","response":"right","rt":674.60000002384,"correct":false,"confidence":1}]