[{"trial_n":1,"n_dots":4.25,"target":"right","response":"left","rt":14461.800000012,"correct":false,"confidence":-1},{"trial_n":2,"n_dots":4.25,"target":"left","response":"left","rt":3524.1999999881,"correct":true,"confidence":-1},{"trial_n":3,"n_dots":4.25,"target":"left","response":"right","rt":3205.2000000179,"correct":false,"confidence":-1},{"trial_n":4,"n_dots":4.65,"target":"right","response":"right","rt":564.59999999404,"correct":true,"confidence":-1},{"trial_n":5,"n_dots":4.65,"target":"right","response":"right","rt":452.80000001192,"correct":true,"confidence":-1},{"trial_n":6,"n_dots":4.25,"target":"left","response":"left","rt":795.90000000596,"correct":true,"confidence":-1},{"trial_n":7,"n_dots":4.25,"target":"left","response":"left","rt":821.30000001192,"correct":true,"confidence":-1},{"trial_n":8,"n_dots":4.05,"target":"right","response":"right","rt":680.40000000596,"correct":true,"confidence":-1},{"trial_n":9,"n_dots":4.05,"target":"right","response":"right","rt":516.5,"correct":true,"confidence":-1},{"trial_n":10,"n_dots":3.85,"target":"left","response":"left","rt":534,"correct":true,"confidence":-1},{"trial_n":11,"n_dots":3.85,"target":"left","response":"right","rt":636,"correct":false,"confidence":-1},{"trial_n":12,"n_dots":4.05,"target":"left","response":"left","rt":583.79999998212,"correct":true,"confidence":-1},{"trial_n":13,"n_dots":4.05,"target":"right","response":"right","rt":442.69999998808,"correct":true,"confidence":-1},{"trial_n":14,"n_dots":3.95,"target":"left","response":"left","rt":537.69999998808,"correct":true,"confidence":-1},{"trial_n":15,"n_dots":3.95,"target":"right","response":"right","rt":986.20000001788,"correct":true,"confidence":-1},{"trial_n":16,"n_dots":3.85,"target":"right","response":"left","rt":906.09999999404,"correct":false,"confidence":-1},{"trial_n":17,"n_dots":3.95,"target":"left","response":"left","rt":395.59999999404,"correct":true,"confidence":-1},{"trial_n":18,"n_dots":3.95,"target":"left","response":"left","rt":853.09999999404,"correct":true,"confidence":-1},{"trial_n":19,"n_dots":3.85,"target":"left","response":"left","rt":554,"correct":true,"confidence":-1},{"trial_n":20,"n_dots":3.85,"target":"right","response":"right","rt":389.40000000596,"correct":true,"confidence":-1},{"trial_n":21,"n_dots":3.75,"target":"right","response":"right","rt":653.19999998808,"correct":true,"confidence":3},{"trial_n":22,"n_dots":3.75,"target":"left","response":"left","rt":761.09999999404,"correct":true,"confidence":4},{"trial_n":23,"n_dots":3.65,"target":"left","response":"left","rt":1163.8000000119,"correct":true,"confidence":2},{"trial_n":24,"n_dots":3.65,"target":"right","response":"right","rt":913.70000001788,"correct":true,"confidence":3},{"trial_n":25,"n_dots":3.55,"target":"right","response":"right","rt":1454.1999999881,"correct":true,"confidence":3},{"trial_n":26,"n_dots":3.55,"target":"right","response":"left","rt":1103.1999999881,"correct":false,"confidence":2},{"trial_n":27,"n_dots":3.65,"target":"left","response":"left","rt":1623.2000000179,"correct":true,"confidence":2},{"trial_n":28,"n_dots":3.65,"target":"right","response":"right","rt":890.90000000596,"correct":true,"confidence":2},{"trial_n":29,"n_dots":3.55,"target":"left","response":"right","rt":1038.3999999762,"correct":false,"confidence":2},{"trial_n":30,"n_dots":3.65,"target":"left","response":"left","rt":2310.599999994,"correct":true,"confidence":3},{"trial_n":31,"n_dots":3.65,"target":"left","response":"left","rt":912.79999998212,"correct":true,"confidence":3},{"trial_n":32,"n_dots":3.55,"target":"right","response":"right","rt":818.80000001192,"correct":true,"confidence":3},{"trial_n":33,"n_dots":3.55,"target":"right","response":"right","rt":1222.3000000119,"correct":true,"confidence":3},{"trial_n":34,"n_dots":3.45,"target":"right","response":"right","rt":791.19999998808,"correct":true,"confidence":2},{"trial_n":35,"n_dots":3.45,"target":"left","response":"right","rt":1503.900000006,"correct":false,"confidence":2},{"trial_n":36,"n_dots":3.55,"target":"left","response":"left","rt":681,"correct":true,"confidence":3},{"trial_n":37,"n_dots":3.55,"target":"right","response":"right","rt":814.90000000596,"correct":true,"confidence":3},{"trial_n":38,"n_dots":3.45,"target":"left","response":"left","rt":652.40000000596,"correct":true,"confidence":2},{"trial_n":39,"n_dots":3.45,"target":"left","response":"left","rt":936.5,"correct":true,"confidence":2},{"trial_n":40,"n_dots":3.35,"target":"left","response":"right","rt":1199.5,"correct":false,"confidence":2},{"trial_n":41,"n_dots":3.45,"target":"left","response":"right","rt":994.5,"correct":false,"confidence":2},{"trial_n":42,"n_dots":3.55,"target":"left","response":"left","rt":1080.7000000179,"correct":true,"confidence":1},{"trial_n":43,"n_dots":3.55,"target":"right","response":"right","rt":509.59999999404,"correct":true,"confidence":3},{"trial_n":44,"n_dots":3.45,"target":"right","response":"right","rt":747.5,"correct":true,"confidence":3},{"trial_n":45,"n_dots":3.45,"target":"right","response":"left","rt":2318.2999999821,"correct":false,"confidence":1},{"trial_n":46,"n_dots":3.55,"target":"right","response":"right","rt":988.09999999404,"correct":true,"confidence":1},{"trial_n":47,"n_dots":3.55,"target":"left","response":"left","rt":581.5,"correct":true,"confidence":3},{"trial_n":48,"n_dots":3.45,"target":"right","response":"right","rt":1223.3000000119,"correct":true,"confidence":2},{"trial_n":49,"n_dots":3.45,"target":"right","response":"right","rt":1009.2000000179,"correct":true,"confidence":2},{"trial_n":50,"n_dots":3.35,"target":"right","response":"left","rt":965.09999999404,"correct":false,"confidence":1},{"trial_n":51,"n_dots":3.45,"target":"left","response":"left","rt":585.40000000596,"correct":true,"confidence":2},{"trial_n":52,"n_dots":3.45,"target":"right","response":"right","rt":739.39999997616,"correct":true,"confidence":2},{"trial_n":53,"n_dots":3.35,"target":"right","response":"right","rt":684.10000002384,"correct":true,"confidence":3},{"trial_n":54,"n_dots":3.35,"target":"left","response":"left","rt":557.79999998212,"correct":true,"confidence":3},{"trial_n":55,"n_dots":3.25,"target":"right","response":"right","rt":683.39999997616,"correct":true,"confidence":3},{"trial_n":56,"n_dots":3.25,"target":"left","response":"left","rt":797.40000000596,"correct":true,"confidence":1},{"trial_n":57,"n_dots":3.15,"target":"left","response":"left","rt":665,"correct":true,"confidence":2},{"trial_n":58,"n_dots":3.15,"target":"left","response":"left","rt":575.20000001788,"correct":true,"confidence":2},{"trial_n":59,"n_dots":3.05,"target":"left","response":"left","rt":780.60000002384,"correct":true,"confidence":2},{"trial_n":60,"n_dots":3.05,"target":"right","response":"right","rt":941.5,"correct":true,"confidence":1},{"trial_n":61,"n_dots":2.95,"target":"right","response":"left","rt":896.20000001788,"correct":false,"confidence":2},{"trial_n":62,"n_dots":3.05,"target":"left","response":"left","rt":629.60000002384,"correct":true,"confidence":3},{"trial_n":63,"n_dots":3.05,"target":"right","response":"left","rt":2748.099999994,"correct":false,"confidence":1},{"trial_n":64,"n_dots":3.15,"target":"left","response":"right","rt":1153.099999994,"correct":false,"confidence":1},{"trial_n":65,"n_dots":3.25,"target":"left","response":"right","rt":948.40000000596,"correct":false,"confidence":1},{"trial_n":66,"n_dots":3.35,"target":"right","response":"right","rt":2742.599999994,"correct":true,"confidence":2},{"trial_n":67,"n_dots":3.35,"target":"left","response":"left","rt":1798.1999999881,"correct":true,"confidence":2},{"trial_n":68,"n_dots":3.25,"target":"right","response":"right","rt":714.59999999404,"correct":true,"confidence":2},{"trial_n":69,"n_dots":3.25,"target":"left","response":"left","rt":3780.7999999821,"correct":true,"confidence":1},{"trial_n":70,"n_dots":3.15,"target":"right","response":"right","rt":1621.5,"correct":true,"confidence":1},{"trial_n":71,"n_dots":3.15,"target":"left","response":"left","rt":1658.599999994,"correct":true,"confidence":1},{"trial_n":72,"n_dots":3.05,"target":"left","response":"right","rt":785.40000000596,"correct":false,"confidence":1},{"trial_n":73,"n_dots":3.15,"target":"right","response":"right","rt":936.39999997616,"correct":true,"confidence":1},{"trial_n":74,"n_dots":3.15,"target":"right","response":"right","rt":821.90000000596,"correct":true,"confidence":2},{"trial_n":75,"n_dots":3.05,"target":"left","response":"left","rt":931.59999999404,"correct":true,"confidence":2},{"trial_n":76,"n_dots":3.05,"target":"right","response":"right","rt":1140.2000000179,"correct":true,"confidence":2},{"trial_n":77,"n_dots":2.95,"target":"left","response":"left","rt":1363.7000000179,"correct":true,"confidence":1},{"trial_n":78,"n_dots":2.95,"target":"right","response":"right","rt":3622.099999994,"correct":true,"confidence":1},{"trial_n":79,"n_dots":2.85,"target":"left","response":"left","rt":1616.900000006,"correct":true,"confidence":2},{"trial_n":80,"n_dots":2.85,"target":"right","response":"right","rt":684.20000001788,"correct":true,"confidence":2},{"trial_n":81,"n_dots":2.75,"target":"right","response":"right","rt":479.69999998808,"correct":true,"confidence":1},{"trial_n":82,"n_dots":2.75,"target":"right","response":"right","rt":813.69999998808,"correct":true,"confidence":2},{"trial_n":83,"n_dots":2.65,"target":"left","response":"left","rt":799.40000000596,"correct":true,"confidence":1},{"trial_n":84,"n_dots":2.65,"target":"left","response":"left","rt":763.89999997616,"correct":true,"confidence":2},{"trial_n":85,"n_dots":2.55,"target":"right","response":"right","rt":702.90000000596,"correct":true,"confidence":2},{"trial_n":86,"n_dots":2.55,"target":"left","response":"left","rt":794.09999999404,"correct":true,"confidence":1},{"trial_n":87,"n_dots":2.45,"target":"right","response":"left","rt":710.69999998808,"correct":false,"confidence":2},{"trial_n":88,"n_dots":2.55,"target":"right","response":"right","rt":705.40000000596,"correct":true,"confidence":2},{"trial_n":89,"n_dots":2.55,"target":"right","response":"right","rt":741.69999998808,"correct":true,"confidence":2},{"trial_n":90,"n_dots":2.45,"target":"left","response":"right","rt":1786.900000006,"correct":false,"confidence":1},{"trial_n":91,"n_dots":2.55,"target":"left","response":"left","rt":365.79999998212,"correct":true,"confidence":1},{"trial_n":92,"n_dots":2.55,"target":"right","response":"left","rt":890.20000001788,"correct":false,"confidence":1},{"trial_n":93,"n_dots":2.65,"target":"left","response":"right","rt":1578.400000006,"correct":false,"confidence":1},{"trial_n":94,"n_dots":2.75,"target":"left","response":"left","rt":1361.2999999821,"correct":true,"confidence":1},{"trial_n":95,"n_dots":2.75,"target":"left","response":"right","rt":1978,"correct":false,"confidence":1},{"trial_n":96,"n_dots":2.85,"target":"right","response":"left","rt":597.90000000596,"correct":false,"confidence":1},{"trial_n":97,"n_dots":2.95,"target":"right","response":"right","rt":772.5,"correct":true,"confidence":1},{"trial_n":98,"n_dots":2.95,"target":"right","response":"right","rt":1180.099999994,"correct":true,"confidence":1},{"trial_n":99,"n_dots":2.85,"target":"right","response":"right","rt":721.5,"correct":true,"confidence":1},{"trial_n":100,"n_dots":2.85,"target":"left","response":"left","rt":431.5,"correct":true,"confidence":1},{"trial_n":101,"n_dots":2.75,"target":"left","response":"left","rt":877.69999998808,"correct":true,"confidence":1},{"trial_n":102,"n_dots":2.75,"target":"left","response":"left","rt":1221,"correct":true,"confidence":1},{"trial_n":103,"n_dots":2.65,"target":"left","response":"right","rt":827.90000000596,"correct":false,"confidence":1},{"trial_n":104,"n_dots":2.75,"target":"right","response":"left","rt":1473.6999999881,"correct":false,"confidence":1},{"trial_n":105,"n_dots":2.85,"target":"right","response":"right","rt":995.5,"correct":true,"confidence":1},{"trial_n":106,"n_dots":2.85,"target":"left","response":"right","rt":936,"correct":false,"confidence":1},{"trial_n":107,"n_dots":2.95,"target":"left","response":"left","rt":442,"correct":true,"confidence":2},{"trial_n":108,"n_dots":2.95,"target":"left","response":"left","rt":1034.099999994,"correct":true,"confidence":1},{"trial_n":109,"n_dots":2.85,"target":"left","response":"left","rt":806.80000001192,"correct":true,"confidence":2},{"trial_n":110,"n_dots":2.85,"target":"right","response":"right","rt":692.90000000596,"correct":true,"confidence":2},{"trial_n":111,"n_dots":2.75,"target":"right","response":"right","rt":657.59999999404,"correct":true,"confidence":1},{"trial_n":112,"n_dots":2.75,"target":"left","response":"left","rt":1306.5,"correct":true,"confidence":2},{"trial_n":113,"n_dots":2.65,"target":"left","response":"right","rt":650.20000001788,"correct":false,"confidence":1},{"trial_n":114,"n_dots":2.75,"target":"left","response":"right","rt":1689.3000000119,"correct":false,"confidence":1},{"trial_n":115,"n_dots":2.85,"target":"right","response":"left","rt":1397.900000006,"correct":false,"confidence":1},{"trial_n":116,"n_dots":2.95,"target":"right","response":"right","rt":1127.6999999881,"correct":true,"confidence":1},{"trial_n":117,"n_dots":2.95,"target":"right","response":"left","rt":1698.5,"correct":false,"confidence":2},{"trial_n":118,"n_dots":3.05,"target":"right","response":"right","rt":1079.2000000179,"correct":true,"confidence":1},{"trial_n":119,"n_dots":3.05,"target":"right","response":"left","rt":918.89999997616,"correct":false,"confidence":1},{"trial_n":120,"n_dots":3.15,"target":"right","response":"right","rt":1107.2999999821,"correct":true,"confidence":1}]