[{"trial_n":1,"min":25,"max":230,"target":"present","response":"present","rt":12700.800000012,"correct":true,"confidence":-1},{"trial_n":2,"min":25,"max":230,"target":"present","response":"present","rt":2578.2000000179,"correct":true,"confidence":-1},{"trial_n":3,"min":41,"max":214,"target":"absent","response":"absent","rt":1658.1999999881,"correct":true,"confidence":-1},{"trial_n":4,"min":41,"max":214,"target":"absent","response":"absent","rt":642.89999997616,"correct":true,"confidence":-1},{"trial_n":5,"min":57,"max":198,"target":"present","response":"absent","rt":614.29999998212,"correct":false,"confidence":-1},{"trial_n":6,"min":41,"max":214,"target":"absent","response":"absent","rt":567.69999998808,"correct":true,"confidence":-1},{"trial_n":7,"min":41,"max":214,"target":"absent","response":"absent","rt":686.70000001788,"correct":true,"confidence":-1},{"trial_n":8,"min":57,"max":198,"target":"present","response":"present","rt":511.59999999404,"correct":true,"confidence":-1},{"trial_n":9,"min":57,"max":198,"target":"absent","response":"absent","rt":409.09999999404,"correct":true,"confidence":-1},{"trial_n":10,"min":73,"max":182,"target":"absent","response":"absent","rt":427.90000000596,"correct":true,"confidence":-1},{"trial_n":11,"min":73,"max":182,"target":"absent","response":"absent","rt":459.80000001192,"correct":true,"confidence":-1},{"trial_n":12,"min":81,"max":174,"target":"present","response":"present","rt":475.79999998212,"correct":true,"confidence":-1},{"trial_n":13,"min":81,"max":174,"target":"present","response":"absent","rt":462.89999997616,"correct":false,"confidence":-1},{"trial_n":14,"min":73,"max":182,"target":"absent","response":"absent","rt":636.89999997616,"correct":true,"confidence":-1},{"trial_n":15,"min":73,"max":182,"target":"present","response":"present","rt":536.5,"correct":true,"confidence":-1},{"trial_n":16,"min":81,"max":174,"target":"absent","response":"absent","rt":399.59999999404,"correct":true,"confidence":-1},{"trial_n":17,"min":81,"max":174,"target":"absent","response":"absent","rt":835.90000000596,"correct":true,"confidence":-1},{"trial_n":18,"min":89,"max":166,"target":"absent","response":"absent","rt":390.80000001192,"correct":true,"confidence":-1},{"trial_n":19,"min":89,"max":166,"target":"present","response":"present","rt":413.70000001788,"correct":true,"confidence":-1},{"trial_n":20,"min":97,"max":158,"target":"absent","response":"absent","rt":365,"correct":true,"confidence":-1},{"trial_n":21,"min":97,"max":158,"target":"present","response":"absent","rt":1467.3999999762,"correct":false,"confidence":5},{"trial_n":22,"min":93,"max":162,"target":"present","response":"absent","rt":1698.6999999881,"correct":false,"confidence":5},{"trial_n":23,"min":89,"max":166,"target":"absent","response":"present","rt":785.39999997616,"correct":false,"confidence":4},{"trial_n":24,"min":85,"max":170,"target":"present","response":"absent","rt":461.70000001788,"correct":false,"confidence":5},{"trial_n":25,"min":81,"max":174,"target":"absent","response":"absent","rt":865.90000000596,"correct":true,"confidence":5},{"trial_n":26,"min":81,"max":174,"target":"present","response":"present","rt":853.30000001192,"correct":true,"confidence":5},{"trial_n":27,"min":85,"max":170,"target":"absent","response":"absent","rt":532.5,"correct":true,"confidence":5},{"trial_n":28,"min":85,"max":170,"target":"absent","response":"absent","rt":478.59999999404,"correct":true,"confidence":5},{"trial_n":29,"min":89,"max":166,"target":"absent","response":"absent","rt":664.80000001192,"correct":true,"confidence":5},{"trial_n":30,"min":89,"max":166,"target":"present","response":"present","rt":574.19999998808,"correct":true,"confidence":5},{"trial_n":31,"min":91,"max":164,"target":"present","response":"present","rt":1261.400000006,"correct":true,"confidence":5},{"trial_n":32,"min":91,"max":164,"target":"absent","response":"absent","rt":493.59999999404,"correct":true,"confidence":5},{"trial_n":33,"min":93,"max":162,"target":"absent","response":"present","rt":490,"correct":false,"confidence":4},{"trial_n":34,"min":91,"max":164,"target":"present","response":"present","rt":581.10000002384,"correct":true,"confidence":5},{"trial_n":35,"min":91,"max":164,"target":"absent","response":"absent","rt":864.60000002384,"correct":true,"confidence":5},{"trial_n":36,"min":93,"max":162,"target":"present","response":"present","rt":448.40000000596,"correct":true,"confidence":5},{"trial_n":37,"min":93,"max":162,"target":"absent","response":"absent","rt":459,"correct":true,"confidence":5},{"trial_n":38,"min":95,"max":160,"target":"absent","response":"absent","rt":1603.5,"correct":true,"confidence":2},{"trial_n":39,"min":95,"max":160,"target":"present","response":"absent","rt":843.80000001192,"correct":false,"confidence":3},{"trial_n":40,"min":93,"max":162,"target":"present","response":"present","rt":709.09999999404,"correct":true,"confidence":4},{"trial_n":41,"min":93,"max":162,"target":"present","response":"present","rt":675.80000001192,"correct":true,"confidence":4},{"trial_n":42,"min":94,"max":161,"target":"present","response":"present","rt":447.19999998808,"correct":true,"confidence":4},{"trial_n":43,"min":94,"max":161,"target":"present","response":"absent","rt":456.39999997616,"correct":false,"confidence":5},{"trial_n":44,"min":93,"max":162,"target":"present","response":"present","rt":519.69999998808,"correct":true,"confidence":5},{"trial_n":45,"min":93,"max":162,"target":"absent","response":"present","rt":1305.400000006,"correct":false,"confidence":3},{"trial_n":46,"min":92,"max":163,"target":"absent","response":"absent","rt":647.90000000596,"correct":true,"confidence":4},{"trial_n":47,"min":92,"max":163,"target":"absent","response":"present","rt":550.90000000596,"correct":false,"confidence":4},{"trial_n":48,"min":91,"max":164,"target":"present","response":"present","rt":772.70000001788,"correct":true,"confidence":3},{"trial_n":49,"min":91,"max":164,"target":"absent","response":"absent","rt":374,"correct":true,"confidence":4},{"trial_n":50,"min":92,"max":163,"target":"absent","response":"absent","rt":568.09999999404,"correct":true,"confidence":5},{"trial_n":51,"min":92,"max":163,"target":"present","response":"present","rt":540.90000000596,"correct":true,"confidence":5},{"trial_n":52,"min":93,"max":162,"target":"absent","response":"absent","rt":1143.8000000119,"correct":true,"confidence":5},{"trial_n":53,"min":93,"max":162,"target":"present","response":"absent","rt":740.40000000596,"correct":false,"confidence":3},{"trial_n":54,"min":92,"max":163,"target":"present","response":"absent","rt":437.69999998808,"correct":false,"confidence":4},{"trial_n":55,"min":91,"max":164,"target":"absent","response":"absent","rt":472.30000001192,"correct":true,"confidence":4},{"trial_n":56,"min":91,"max":164,"target":"present","response":"present","rt":534.39999997616,"correct":true,"confidence":5},{"trial_n":57,"min":92,"max":163,"target":"present","response":"present","rt":1141.400000006,"correct":true,"confidence":5},{"trial_n":58,"min":92,"max":163,"target":"present","response":"present","rt":1033.900000006,"correct":true,"confidence":3},{"trial_n":59,"min":93,"max":162,"target":"present","response":"absent","rt":855.70000001788,"correct":false,"confidence":4},{"trial_n":60,"min":92,"max":163,"target":"absent","response":"absent","rt":588.90000000596,"correct":true,"confidence":5},{"trial_n":61,"min":92,"max":163,"target":"present","response":"present","rt":505.20000001788,"correct":true,"confidence":3},{"trial_n":62,"min":93,"max":162,"target":"absent","response":"absent","rt":470,"correct":true,"confidence":4},{"trial_n":63,"min":93,"max":162,"target":"present","response":"present","rt":779.09999999404,"correct":true,"confidence":5},{"trial_n":64,"min":94,"max":161,"target":"present","response":"absent","rt":511,"correct":false,"confidence":5},{"trial_n":65,"min":93,"max":162,"target":"present","response":"present","rt":553.5,"correct":true,"confidence":5},{"trial_n":66,"min":93,"max":162,"target":"present","response":"present","rt":573.09999999404,"correct":true,"confidence":3},{"trial_n":67,"min":94,"max":161,"target":"absent","response":"present","rt":628.5,"correct":false,"confidence":4},{"trial_n":68,"min":93,"max":162,"target":"absent","response":"absent","rt":435.30000001192,"correct":true,"confidence":5},{"trial_n":69,"min":93,"max":162,"target":"absent","response":"absent","rt":632.19999998808,"correct":true,"confidence":5},{"trial_n":70,"min":94,"max":161,"target":"present","response":"absent","rt":2778.900000006,"correct":false,"confidence":3},{"trial_n":71,"min":41,"max":214,"target":"present","response":"present","rt":4125.599999994,"correct":true,"confidence":-1},{"trial_n":72,"min":41,"max":214,"target":"present","response":"present","rt":836.90000000596,"correct":true,"confidence":-1},{"trial_n":73,"min":57,"max":198,"target":"absent","response":"absent","rt":542.29999998212,"correct":true,"confidence":-1},{"trial_n":74,"min":57,"max":198,"target":"absent","response":"absent","rt":431,"correct":true,"confidence":-1},{"trial_n":75,"min":73,"max":182,"target":"present","response":"present","rt":749.30000001192,"correct":true,"confidence":-1},{"trial_n":76,"min":73,"max":182,"target":"absent","response":"absent","rt":804.40000000596,"correct":true,"confidence":-1},{"trial_n":77,"min":89,"max":166,"target":"absent","response":"absent","rt":462.80000001192,"correct":true,"confidence":-1},{"trial_n":78,"min":89,"max":166,"target":"absent","response":"present","rt":1047,"correct":false,"confidence":-1},{"trial_n":79,"min":73,"max":182,"target":"absent","response":"absent","rt":590.80000001192,"correct":true,"confidence":-1},{"trial_n":80,"min":73,"max":182,"target":"absent","response":"absent","rt":508.5,"correct":true,"confidence":-1},{"trial_n":81,"min":81,"max":174,"target":"absent","response":"absent","rt":1060.900000006,"correct":true,"confidence":-1},{"trial_n":82,"min":81,"max":174,"target":"present","response":"present","rt":401.80000001192,"correct":true,"confidence":-1},{"trial_n":83,"min":89,"max":166,"target":"present","response":"absent","rt":370.5,"correct":false,"confidence":-1},{"trial_n":84,"min":81,"max":174,"target":"present","response":"present","rt":670.5,"correct":true,"confidence":-1},{"trial_n":85,"min":81,"max":174,"target":"present","response":"present","rt":392.09999999404,"correct":true,"confidence":-1},{"trial_n":86,"min":89,"max":166,"target":"absent","response":"present","rt":509.90000000596,"correct":false,"confidence":-1},{"trial_n":87,"min":81,"max":174,"target":"present","response":"present","rt":390.90000000596,"correct":true,"confidence":-1},{"trial_n":88,"min":81,"max":174,"target":"absent","response":"absent","rt":807.80000001192,"correct":true,"confidence":-1},{"trial_n":89,"min":89,"max":166,"target":"present","response":"present","rt":607.40000000596,"correct":true,"confidence":-1},{"trial_n":90,"min":89,"max":166,"target":"present","response":"present","rt":398.80000001192,"correct":true,"confidence":-1},{"trial_n":91,"min":93,"max":162,"target":"absent","response":"absent","rt":534.59999999404,"correct":true,"confidence":3},{"trial_n":92,"min":93,"max":162,"target":"absent","response":"absent","rt":1260.3999999762,"correct":true,"confidence":1},{"trial_n":93,"min":97,"max":158,"target":"absent","response":"present","rt":529.40000000596,"correct":false,"confidence":5},{"trial_n":94,"min":93,"max":162,"target":"absent","response":"present","rt":709.90000000596,"correct":false,"confidence":5},{"trial_n":95,"min":89,"max":166,"target":"present","response":"present","rt":542.69999998808,"correct":true,"confidence":5},{"trial_n":96,"min":89,"max":166,"target":"present","response":"present","rt":535.20000001788,"correct":true,"confidence":3},{"trial_n":97,"min":93,"max":162,"target":"absent","response":"present","rt":608.5,"correct":false,"confidence":4},{"trial_n":98,"min":89,"max":166,"target":"absent","response":"absent","rt":660.20000001788,"correct":true,"confidence":5},{"trial_n":99,"min":89,"max":166,"target":"absent","response":"present","rt":725.90000000596,"correct":false,"confidence":1},{"trial_n":100,"min":85,"max":170,"target":"absent","response":"present","rt":1013.599999994,"correct":false,"confidence":1},{"trial_n":101,"min":83,"max":172,"target":"present","response":"present","rt":470.20000001788,"correct":true,"confidence":5},{"trial_n":102,"min":83,"max":172,"target":"absent","response":"absent","rt":1092.3000000119,"correct":true,"confidence":5},{"trial_n":103,"min":85,"max":170,"target":"absent","response":"absent","rt":630.5,"correct":true,"confidence":5},{"trial_n":104,"min":85,"max":170,"target":"present","response":"present","rt":516.89999997616,"correct":true,"confidence":5},{"trial_n":105,"min":87,"max":168,"target":"present","response":"present","rt":517.20000001788,"correct":true,"confidence":5},{"trial_n":106,"min":87,"max":168,"target":"present","response":"present","rt":485.30000001192,"correct":true,"confidence":5},{"trial_n":107,"min":89,"max":166,"target":"present","response":"absent","rt":544.40000000596,"correct":false,"confidence":5},{"trial_n":108,"min":87,"max":168,"target":"present","response":"present","rt":565.5,"correct":true,"confidence":5},{"trial_n":109,"min":87,"max":168,"target":"present","response":"present","rt":787.80000001192,"correct":true,"confidence":5},{"trial_n":110,"min":89,"max":166,"target":"absent","response":"present","rt":686.70000001788,"correct":false,"confidence":4},{"trial_n":111,"min":88,"max":167,"target":"absent","response":"present","rt":592.69999998808,"correct":false,"confidence":3},{"trial_n":112,"min":87,"max":168,"target":"present","response":"present","rt":510,"correct":true,"confidence":5},{"trial_n":113,"min":87,"max":168,"target":"present","response":"present","rt":499.69999998808,"correct":true,"confidence":5},{"trial_n":114,"min":88,"max":167,"target":"absent","response":"absent","rt":516.09999999404,"correct":true,"confidence":5},{"trial_n":115,"min":88,"max":167,"target":"absent","response":"absent","rt":596.40000000596,"correct":true,"confidence":1},{"trial_n":116,"min":89,"max":166,"target":"absent","response":"present","rt":783.5,"correct":false,"confidence":1},{"trial_n":117,"min":88,"max":167,"target":"present","response":"present","rt":489.09999999404,"correct":true,"confidence":5},{"trial_n":118,"min":88,"max":167,"target":"present","response":"present","rt":509.59999999404,"correct":true,"confidence":5},{"trial_n":119,"min":89,"max":166,"target":"present","response":"present","rt":406.70000001788,"correct":true,"confidence":5},{"trial_n":120,"min":89,"max":166,"target":"present","response":"present","rt":542.80000001192,"correct":true,"confidence":5},{"trial_n":121,"min":90,"max":165,"target":"present","response":"present","rt":961,"correct":true,"confidence":5},{"trial_n":122,"min":90,"max":165,"target":"absent","response":"present","rt":827.30000001192,"correct":false,"confidence":1},{"trial_n":123,"min":89,"max":166,"target":"present","response":"present","rt":422.90000000596,"correct":true,"confidence":5},{"trial_n":124,"min":89,"max":166,"target":"absent","response":"present","rt":645,"correct":false,"confidence":3},{"trial_n":125,"min":88,"max":167,"target":"absent","response":"present","rt":1081,"correct":false,"confidence":1},{"trial_n":126,"min":87,"max":168,"target":"absent","response":"absent","rt":772.59999999404,"correct":true,"confidence":5},{"trial_n":127,"min":87,"max":168,"target":"present","response":"present","rt":447.19999998808,"correct":true,"confidence":5},{"trial_n":128,"min":88,"max":167,"target":"absent","response":"present","rt":635.70000001788,"correct":false,"confidence":5},{"trial_n":129,"min":87,"max":168,"target":"present","response":"present","rt":496.40000000596,"correct":true,"confidence":5},{"trial_n":130,"min":87,"max":168,"target":"absent","response":"absent","rt":513.29999998212,"correct":true,"confidence":5},{"trial_n":131,"min":88,"max":167,"target":"present","response":"present","rt":397.79999998212,"correct":true,"confidence":5},{"trial_n":132,"min":88,"max":167,"target":"absent","response":"present","rt":473.5,"correct":false,"confidence":5},{"trial_n":133,"min":87,"max":168,"target":"absent","response":"absent","rt":1080.900000006,"correct":true,"confidence":5},{"trial_n":134,"min":87,"max":168,"target":"present","response":"present","rt":462.09999999404,"correct":true,"confidence":5},{"trial_n":135,"min":88,"max":167,"target":"present","response":"present","rt":564.59999999404,"correct":true,"confidence":4},{"trial_n":136,"min":88,"max":167,"target":"absent","response":"present","rt":568.59999999404,"correct":false,"confidence":3},{"trial_n":137,"min":87,"max":168,"target":"present","response":"present","rt":567.59999999404,"correct":true,"confidence":5},{"trial_n":138,"min":87,"max":168,"target":"present","response":"present","rt":448,"correct":true,"confidence":5},{"trial_n":139,"min":88,"max":167,"target":"present","response":"present","rt":655.90000000596,"correct":true,"confidence":3},{"trial_n":140,"min":88,"max":167,"target":"present","response":"present","rt":704.19999998808,"correct":true,"confidence":2}]