[{"trial_n":1,"span":8,"encoder":"02976397","distractor":"02976396","target":"present","response":"present","rt":"4266.700000003","correct":true,"confidence":-1},{"trial_n":2,"span":8,"encoder":"37592267","distractor":"37593267","target":"present","response":"present","rt":"2260.3999999985","correct":true,"confidence":-1},{"trial_n":3,"span":10,"encoder":"9010149791","distractor":"9010749791","target":"absent","response":"absent","rt":"2959.5","correct":true,"confidence":-1},{"trial_n":4,"span":10,"encoder":"4532777841","distractor":"7532777841","target":"absent","response":"absent","rt":"1769.900000006","correct":true,"confidence":-1},{"trial_n":5,"span":12,"encoder":"581441783884","distractor":"381441783884","target":"present","response":"present","rt":"2537.900000006","correct":true,"confidence":-1},{"trial_n":6,"span":12,"encoder":"501429875734","distractor":"501429875534","target":"present","response":"present","rt":"1419.3999999985","correct":true,"confidence":-1},{"trial_n":7,"span":14,"encoder":"81506952630349","distractor":"81506952670349","target":"absent","response":"absent","rt":"1637.1000000015","correct":true,"confidence":-1},{"trial_n":8,"span":14,"encoder":"74572685202566","distractor":"74072685202566","target":"absent","response":"absent","rt":"1483.1000000015","correct":true,"confidence":-1},{"trial_n":9,"span":16,"encoder":"9887023686876131","distractor":"9887023682876131","target":"absent","response":"present","rt":"1527.799999997","correct":false,"confidence":-1},{"trial_n":10,"span":14,"encoder":"60199280197221","distractor":"60799280197221","target":"present","response":"absent","rt":"1339.799999997","correct":false,"confidence":-1},{"trial_n":11,"span":12,"encoder":"076330543964","distractor":"076330143964","target":"present","response":"present","rt":"932","correct":true,"confidence":-1},{"trial_n":12,"span":12,"encoder":"537318285585","distractor":"597318285585","target":"present","response":"present","rt":"1679.1999999955","correct":true,"confidence":-1},{"trial_n":13,"span":13,"encoder":"1243705116325","distractor":"1203705116325","target":"absent","response":"absent","rt":"1781.1999999955","correct":true,"confidence":-1},{"trial_n":14,"span":13,"encoder":"4872004980794","distractor":"4872004980194","target":"present","response":"present","rt":"982.69999999553","correct":true,"confidence":-1},{"trial_n":15,"span":14,"encoder":"82405441823740","distractor":"82405441823748","target":"absent","response":"present","rt":"949.80000000447","correct":false,"confidence":-1},{"trial_n":16,"span":13,"encoder":"6201061741533","distractor":"6201061740533","target":"absent","response":"present","rt":"968.80000000447","correct":false,"confidence":-1},{"trial_n":17,"span":12,"encoder":"674784074529","distractor":"604784074529","target":"present","response":"absent","rt":"1560.1000000015","correct":false,"confidence":-1},{"trial_n":18,"span":11,"encoder":"05199029344","distractor":"25199029344","target":"absent","response":"present","rt":"673.5","correct":false,"confidence":-1},{"trial_n":19,"span":10,"encoder":"6260176396","distractor":"6060176396","target":"absent","response":"present","rt":"810.30000000447","correct":false,"confidence":-1},{"trial_n":20,"span":9,"encoder":"150516923","distractor":"160516923","target":"present","response":"absent","rt":"1121.200000003","correct":false,"confidence":-1},{"trial_n":21,"span":8,"encoder":"73643910","distractor":"73641910","target":"absent","response":"absent","rt":"1734.299999997","correct":true,"confidence":3},{"trial_n":22,"span":8,"encoder":"45358845","distractor":"15358845","target":"absent","response":"present","rt":"2837.799999997","correct":false,"confidence":4},{"trial_n":23,"span":7,"encoder":"9523081","distractor":"9503081","target":"absent","response":"absent","rt":"2158.8999999985","correct":true,"confidence":4},{"trial_n":24,"span":7,"encoder":"6920709","distractor":"6940709","target":"absent","response":"absent","rt":"2468.5","correct":true,"confidence":5},{"trial_n":25,"span":8,"encoder":"30275421","distractor":"30276421","target":"present","response":"present","rt":"2119.1000000015","correct":true,"confidence":5},{"trial_n":26,"span":8,"encoder":"69172906","distractor":"69172946","target":"absent","response":"absent","rt":"2953.6000000015","correct":true,"confidence":5},{"trial_n":27,"span":9,"encoder":"622490425","distractor":"622290425","target":"present","response":"present","rt":"2497","correct":true,"confidence":5},{"trial_n":28,"span":9,"encoder":"088550133","distractor":"088350133","target":"present","response":"present","rt":"2399.400000006","correct":true,"confidence":5},{"trial_n":29,"span":10,"encoder":"2244216368","distractor":"2244266368","target":"present","response":"present","rt":"3111","correct":true,"confidence":4},{"trial_n":30,"span":10,"encoder":"9221062442","distractor":"0221062442","target":"present","response":"present","rt":"4089.799999997","correct":true,"confidence":3},{"trial_n":31,"span":11,"encoder":"97401573267","distractor":"97401553267","target":"absent","response":"absent","rt":"2596.5","correct":true,"confidence":2},{"trial_n":32,"span":11,"encoder":"57422158856","distractor":"57422158853","target":"absent","response":"absent","rt":"2336","correct":true,"confidence":3},{"trial_n":33,"span":12,"encoder":"175048067780","distractor":"175048066780","target":"present","response":"present","rt":"5996.799999997","correct":true,"confidence":2},{"trial_n":34,"span":12,"encoder":"802630636194","distractor":"802630633194","target":"present","response":"present","rt":"5861.799999997","correct":true,"confidence":2},{"trial_n":35,"span":13,"encoder":"1162606773904","distractor":"1162606771904","target":"absent","response":"present","rt":"4632.5","correct":false,"confidence":3},{"trial_n":36,"span":12,"encoder":"986503658910","distractor":"086503658910","target":"absent","response":"present","rt":"3316.299999997","correct":false,"confidence":3},{"trial_n":37,"span":11,"encoder":"31460011758","distractor":"51460011758","target":"present","response":"absent","rt":"2741.6000000015","correct":false,"confidence":5},{"trial_n":38,"span":10,"encoder":"6636205960","distractor":"6636204960","target":"present","response":"present","rt":"3048.1000000015","correct":true,"confidence":5},{"trial_n":39,"span":10,"encoder":"2358042396","distractor":"2358042796","target":"present","response":"present","rt":"1893.900000006","correct":true,"confidence":4},{"trial_n":40,"span":11,"encoder":"55369138505","distractor":"55369108505","target":"present","response":"absent","rt":"4947.6000000015","correct":false,"confidence":3},{"trial_n":41,"span":10,"encoder":"6954175779","distractor":"6954175379","target":"present","response":"present","rt":"2400.3000000045","correct":true,"confidence":4},{"trial_n":42,"span":10,"encoder":"5758445304","distractor":"5750445304","target":"present","response":"absent","rt":"2020.5","correct":false,"confidence":5},{"trial_n":43,"span":9,"encoder":"004208170","distractor":"004008170","target":"absent","response":"absent","rt":"1972.200000003","correct":true,"confidence":3},{"trial_n":44,"span":9,"encoder":"365142635","distractor":"365142637","target":"present","response":"absent","rt":"8909","correct":false,"confidence":3},{"trial_n":45,"span":8,"encoder":"36362890","distractor":"30362890","target":"absent","response":"absent","rt":"3093.200000003","correct":true,"confidence":5},{"trial_n":46,"span":8,"encoder":"39567675","distractor":"39565675","target":"present","response":"absent","rt":"2844","correct":false,"confidence":4},{"trial_n":47,"span":7,"encoder":"7732734","distractor":"7732735","target":"absent","response":"absent","rt":"2386.700000003","correct":true,"confidence":5},{"trial_n":48,"span":7,"encoder":"7884383","distractor":"3884383","target":"present","response":"present","rt":"1715.8000000045","correct":true,"confidence":5},{"trial_n":49,"span":8,"encoder":"67201593","distractor":"67201595","target":"present","response":"absent","rt":"1887.5","correct":false,"confidence":5},{"trial_n":50,"span":7,"encoder":"5334082","distractor":"5334882","target":"present","response":"present","rt":"2157.3999999985","correct":true,"confidence":5},{"trial_n":51,"span":7,"encoder":"7522324","distractor":"8522324","target":"absent","response":"present","rt":"1119.200000003","correct":false,"confidence":4},{"trial_n":52,"span":6,"encoder":"246607","distractor":"248607","target":"present","response":"present","rt":"1188.3999999985","correct":true,"confidence":5},{"trial_n":53,"span":6,"encoder":"760331","distractor":"760531","target":"absent","response":"absent","rt":"2144.8999999985","correct":true,"confidence":5},{"trial_n":54,"span":7,"encoder":"2899006","distractor":"2899096","target":"present","response":"present","rt":"1632.6000000015","correct":true,"confidence":5},{"trial_n":55,"span":7,"encoder":"0561144","distractor":"0561044","target":"absent","response":"absent","rt":"2228.700000003","correct":true,"confidence":4},{"trial_n":56,"span":8,"encoder":"47900161","distractor":"47900167","target":"present","response":"present","rt":"1519.200000003","correct":true,"confidence":4},{"trial_n":57,"span":8,"encoder":"43100053","distractor":"43107053","target":"absent","response":"absent","rt":"1582.299999997","correct":true,"confidence":5},{"trial_n":58,"span":9,"encoder":"917722599","distractor":"967722599","target":"present","response":"present","rt":"2494.6000000015","correct":true,"confidence":5},{"trial_n":59,"span":9,"encoder":"640120925","distractor":"640125925","target":"absent","response":"absent","rt":"5023.6000000015","correct":true,"confidence":3},{"trial_n":60,"span":10,"encoder":"6801344866","distractor":"6801344863","target":"present","response":"absent","rt":"14652.899999999","correct":false,"confidence":2},{"trial_n":61,"span":9,"encoder":"754684837","distractor":"754684867","target":"absent","response":"absent","rt":"2893","correct":true,"confidence":5},{"trial_n":62,"span":9,"encoder":"601476212","distractor":"601976212","target":"present","response":"present","rt":"1540.8000000045","correct":true,"confidence":4},{"trial_n":63,"span":10,"encoder":"5746974256","distractor":"5746974246","target":"absent","response":"absent","rt":"2488.700000003","correct":true,"confidence":3},{"trial_n":64,"span":10,"encoder":"3112027106","distractor":"3112025106","target":"absent","response":"present","rt":"1634.400000006","correct":false,"confidence":3},{"trial_n":65,"span":9,"encoder":"381683764","distractor":"981683764","target":"absent","response":"present","rt":"2549.799999997","correct":false,"confidence":2},{"trial_n":66,"span":8,"encoder":"07160783","distractor":"07100783","target":"present","response":"present","rt":"2006.8999999985","correct":true,"confidence":5},{"trial_n":67,"span":8,"encoder":"64282708","distractor":"64282748","target":"absent","response":"absent","rt":"1808.3999999985","correct":true,"confidence":5},{"trial_n":68,"span":9,"encoder":"600109667","distractor":"400109667","target":"absent","response":"absent","rt":"1497.5","correct":true,"confidence":5},{"trial_n":69,"span":9,"encoder":"185692457","distractor":"185695457","target":"absent","response":"absent","rt":"3125.1000000015","correct":true,"confidence":3},{"trial_n":70,"span":10,"encoder":"1874592389","distractor":"1774592389","target":"present","response":"absent","rt":"13192.100000001","correct":false,"confidence":1},{"trial_n":71,"span":8,"encoder":"90576227","distractor":"90576297","target":"present","response":"absent","rt":"4047","correct":false,"confidence":-1},{"trial_n":72,"span":7,"encoder":"2596319","distractor":"2596419","target":"present","response":"present","rt":"2187.5","correct":true,"confidence":-1},{"trial_n":73,"span":7,"encoder":"0719277","distractor":"0919277","target":"absent","response":"absent","rt":"4191.799999997","correct":true,"confidence":-1},{"trial_n":74,"span":8,"encoder":"27477573","distractor":"27477373","target":"absent","response":"absent","rt":"5389.6000000015","correct":true,"confidence":-1},{"trial_n":75,"span":8,"encoder":"40948307","distractor":"60948307","target":"present","response":"present","rt":"1355.700000003","correct":true,"confidence":-1},{"trial_n":76,"span":9,"encoder":"051692893","distractor":"051691893","target":"present","response":"present","rt":"4671.1000000015","correct":true,"confidence":-1},{"trial_n":77,"span":9,"encoder":"411499790","distractor":"401499790","target":"absent","response":"present","rt":"1805.3000000045","correct":false,"confidence":-1},{"trial_n":78,"span":8,"encoder":"27847630","distractor":"27347630","target":"absent","response":"present","rt":"1111.5","correct":false,"confidence":-1},{"trial_n":79,"span":7,"encoder":"0270130","distractor":"0260130","target":"absent","response":"present","rt":"5963","correct":false,"confidence":-1},{"trial_n":80,"span":6,"encoder":"741075","distractor":"741025","target":"absent","response":"present","rt":"623.39999999851","correct":false,"confidence":-1},{"trial_n":81,"span":5,"encoder":"80478","distractor":"80878","target":"absent","response":"present","rt":"410.5","correct":false,"confidence":-1},{"trial_n":82,"span":4,"encoder":"4871","distractor":"4671","target":"present","response":"present","rt":"375.70000000298","correct":true,"confidence":-1},{"trial_n":83,"span":4,"encoder":"9963","distractor":"9968","target":"present","response":"present","rt":"376.79999999702","correct":true,"confidence":-1},{"trial_n":84,"span":5,"encoder":"86710","distractor":"86719","target":"present","response":"present","rt":"216.29999999702","correct":true,"confidence":-1},{"trial_n":85,"span":5,"encoder":"48003","distractor":"48008","target":"present","response":"present","rt":"424","correct":true,"confidence":-1},{"trial_n":86,"span":6,"encoder":"654174","distractor":"054174","target":"present","response":"present","rt":"278.20000000298","correct":true,"confidence":-1},{"trial_n":87,"span":6,"encoder":"685263","distractor":"695263","target":"absent","response":"present","rt":"247.60000000149","correct":false,"confidence":-1},{"trial_n":88,"span":5,"encoder":"06817","distractor":"06717","target":"absent","response":"present","rt":"199.60000000149","correct":false,"confidence":-1},{"trial_n":89,"span":4,"encoder":"2246","distractor":"2276","target":"absent","response":"absent","rt":"342.89999999851","correct":true,"confidence":-1},{"trial_n":90,"span":4,"encoder":"6891","distractor":"6861","target":"present","response":"present","rt":"563.59999999404","correct":true,"confidence":-1},{"trial_n":91,"span":5,"encoder":"03742","distractor":"63742","target":"present","response":"present","rt":"1044","correct":true,"confidence":5},{"trial_n":92,"span":5,"encoder":"22335","distractor":"23335","target":"present","response":"present","rt":"1007.799999997","correct":true,"confidence":5},{"trial_n":93,"span":6,"encoder":"756158","distractor":"656158","target":"present","response":"present","rt":"1662.799999997","correct":true,"confidence":5},{"trial_n":94,"span":6,"encoder":"119892","distractor":"119899","target":"present","response":"present","rt":"1397.6000000015","correct":true,"confidence":5},{"trial_n":95,"span":7,"encoder":"3682467","distractor":"9682467","target":"present","response":"present","rt":"3816.6000000015","correct":true,"confidence":5},{"trial_n":96,"span":7,"encoder":"9238377","distractor":"9238379","target":"absent","response":"absent","rt":"2408.700000003","correct":true,"confidence":5},{"trial_n":97,"span":8,"encoder":"89216153","distractor":"89215153","target":"absent","response":"absent","rt":"3592.1000000015","correct":true,"confidence":5},{"trial_n":98,"span":8,"encoder":"49845735","distractor":"49805735","target":"present","response":"present","rt":"3735.200000003","correct":true,"confidence":5},{"trial_n":99,"span":9,"encoder":"877322392","distractor":"877382392","target":"absent","response":"present","rt":"1504.8000000045","correct":false,"confidence":1},{"trial_n":100,"span":8,"encoder":"56217506","distractor":"56247506","target":"absent","response":"absent","rt":"3755.5","correct":true,"confidence":5},{"trial_n":101,"span":8,"encoder":"08986604","distractor":"08986603","target":"present","response":"present","rt":"2698.299999997","correct":true,"confidence":5},{"trial_n":102,"span":9,"encoder":"372577813","distractor":"372677813","target":"absent","response":"present","rt":"1238","correct":false,"confidence":5},{"trial_n":103,"span":8,"encoder":"95083895","distractor":"95085895","target":"absent","response":"present","rt":"1675.3999999985","correct":false,"confidence":5},{"trial_n":104,"span":7,"encoder":"7967747","distractor":"7667747","target":"present","response":"present","rt":"2222.3000000045","correct":true,"confidence":5},{"trial_n":105,"span":7,"encoder":"1015279","distractor":"2015279","target":"absent","response":"absent","rt":"1265.5","correct":true,"confidence":5},{"trial_n":106,"span":8,"encoder":"36179715","distractor":"36179710","target":"absent","response":"absent","rt":"2360.8999999985","correct":true,"confidence":5},{"trial_n":107,"span":8,"encoder":"72165112","distractor":"72165612","target":"present","response":"present","rt":"2398","correct":true,"confidence":5},{"trial_n":108,"span":9,"encoder":"730784312","distractor":"630784312","target":"present","response":"present","rt":"2839.1000000015","correct":true,"confidence":5},{"trial_n":109,"span":9,"encoder":"649589529","distractor":"649579529","target":"absent","response":"present","rt":"1985","correct":false,"confidence":5},{"trial_n":110,"span":8,"encoder":"74259727","distractor":"74259527","target":"present","response":"present","rt":"3321.900000006","correct":true,"confidence":5},{"trial_n":111,"span":8,"encoder":"76816638","distractor":"76816658","target":"present","response":"present","rt":"1406.1000000015","correct":true,"confidence":5},{"trial_n":112,"span":9,"encoder":"728297939","distractor":"728267939","target":"present","response":"absent","rt":"4044.299999997","correct":false,"confidence":5},{"trial_n":113,"span":8,"encoder":"51649350","distractor":"51649330","target":"absent","response":"absent","rt":"1798","correct":true,"confidence":5},{"trial_n":114,"span":8,"encoder":"26194081","distractor":"26194181","target":"present","response":"present","rt":"1699.700000003","correct":true,"confidence":5},{"trial_n":115,"span":9,"encoder":"134433406","distractor":"130433406","target":"absent","response":"present","rt":"3408.8999999985","correct":false,"confidence":3},{"trial_n":116,"span":8,"encoder":"66855928","distractor":"63855928","target":"present","response":"present","rt":"1848.599999994","correct":true,"confidence":5},{"trial_n":117,"span":8,"encoder":"97942153","distractor":"99942153","target":"absent","response":"present","rt":"1510.5","correct":false,"confidence":5},{"trial_n":118,"span":7,"encoder":"9721454","distractor":"9421454","target":"present","response":"present","rt":"2574","correct":true,"confidence":5},{"trial_n":119,"span":7,"encoder":"7111312","distractor":"6111312","target":"absent","response":"absent","rt":"1036.5","correct":true,"confidence":5},{"trial_n":120,"span":8,"encoder":"18670136","distractor":"18370136","target":"present","response":"absent","rt":"3897.6000000015","correct":false,"confidence":1},{"trial_n":121,"span":7,"encoder":"6760195","distractor":"6762195","target":"present","response":"present","rt":"1324.3999999985","correct":true,"confidence":5},{"trial_n":122,"span":7,"encoder":"5070891","distractor":"5070861","target":"present","response":"present","rt":"3034","correct":true,"confidence":5},{"trial_n":123,"span":8,"encoder":"51226092","distractor":"51228092","target":"absent","response":"present","rt":"1585.799999997","correct":false,"confidence":5},{"trial_n":124,"span":7,"encoder":"1037474","distractor":"1030474","target":"absent","response":"absent","rt":"2788.200000003","correct":true,"confidence":5},{"trial_n":125,"span":7,"encoder":"3558726","distractor":"2558726","target":"absent","response":"absent","rt":"1188","correct":true,"confidence":5},{"trial_n":126,"span":8,"encoder":"94785354","distractor":"44785354","target":"absent","response":"absent","rt":"1476.3000000045","correct":true,"confidence":5},{"trial_n":127,"span":8,"encoder":"59938184","distractor":"59938104","target":"present","response":"present","rt":"6483.700000003","correct":true,"confidence":5},{"trial_n":128,"span":9,"encoder":"784410433","distractor":"788410433","target":"absent","response":"present","rt":"3341.200000003","correct":false,"confidence":1},{"trial_n":129,"span":8,"encoder":"79644246","distractor":"70644246","target":"present","response":"present","rt":"3237.3999999985","correct":true,"confidence":4},{"trial_n":130,"span":8,"encoder":"97439545","distractor":"97439505","target":"present","response":"present","rt":"1390.3000000045","correct":true,"confidence":5},{"trial_n":131,"span":9,"encoder":"073366566","distractor":"073866566","target":"absent","response":"absent","rt":"3112.6999999955","correct":true,"confidence":5},{"trial_n":132,"span":9,"encoder":"867887619","distractor":"863887619","target":"absent","response":"present","rt":"2418.6000000015","correct":false,"confidence":3},{"trial_n":133,"span":8,"encoder":"64201066","distractor":"64101066","target":"present","response":"present","rt":"2298.1000000015","correct":true,"confidence":5},{"trial_n":134,"span":8,"encoder":"84026576","distractor":"84026536","target":"absent","response":"absent","rt":"2353.6000000015","correct":true,"confidence":5},{"trial_n":135,"span":9,"encoder":"370449603","distractor":"370149603","target":"present","response":"present","rt":"2395.6999999955","correct":true,"confidence":5},{"trial_n":136,"span":9,"encoder":"606485768","distractor":"606485708","target":"absent","response":"absent","rt":"4645.8999999985","correct":true,"confidence":5},{"trial_n":137,"span":10,"encoder":"4064766308","distractor":"4064766305","target":"absent","response":"absent","rt":"1532.299999997","correct":true,"confidence":5},{"trial_n":138,"span":10,"encoder":"6041965221","distractor":"6041968221","target":"present","response":"absent","rt":"5856.6000000015","correct":false,"confidence":4},{"trial_n":139,"span":9,"encoder":"632903487","distractor":"632903417","target":"present","response":"absent","rt":"1780.3999999985","correct":false,"confidence":4},{"trial_n":140,"span":8,"encoder":"25645932","distractor":"25643932","target":"absent","response":"absent","rt":"2054.900000006","correct":true,"confidence":5}]