[{"trial_n":1,"span":8,"encoder":"40869747","distractor":"50869747","target":"present","response":"present","rt":"12257.4","correct":true,"confidence":-1},{"trial_n":2,"span":8,"encoder":"54821240","distractor":"54621240","target":"present","response":"absent","rt":"14141.699999999","correct":false,"confidence":-1},{"trial_n":3,"span":6,"encoder":"002359","distractor":"702359","target":"absent","response":"absent","rt":"2707.5","correct":true,"confidence":-1},{"trial_n":4,"span":6,"encoder":"731123","distractor":"731823","target":"absent","response":"absent","rt":"2389.7999999989","correct":true,"confidence":-1},{"trial_n":5,"span":8,"encoder":"23512425","distractor":"25512425","target":"present","response":"present","rt":"2962.4000000004","correct":true,"confidence":-1},{"trial_n":6,"span":8,"encoder":"23724299","distractor":"23727299","target":"present","response":"present","rt":"2414.2000000011","correct":true,"confidence":-1},{"trial_n":7,"span":10,"encoder":"8523020188","distractor":"8523020181","target":"present","response":"absent","rt":"14841.1","correct":false,"confidence":-1},{"trial_n":8,"span":8,"encoder":"31387513","distractor":"31387512","target":"absent","response":"absent","rt":"4119.1999999993","correct":true,"confidence":-1},{"trial_n":9,"span":8,"encoder":"59332851","distractor":"59333851","target":"absent","response":"absent","rt":"2666.5999999996","correct":true,"confidence":-1},{"trial_n":10,"span":10,"encoder":"3137316548","distractor":"3137312548","target":"present","response":"present","rt":"6153.2000000011","correct":true,"confidence":-1},{"trial_n":11,"span":10,"encoder":"4782619849","distractor":"4782219849","target":"present","response":"absent","rt":"3916.7000000011","correct":false,"confidence":-1},{"trial_n":12,"span":9,"encoder":"266741105","distractor":"266771105","target":"present","response":"present","rt":"1601.0999999996","correct":true,"confidence":-1},{"trial_n":13,"span":9,"encoder":"778038816","distractor":"778038819","target":"present","response":"present","rt":"2097.0999999996","correct":true,"confidence":-1},{"trial_n":14,"span":10,"encoder":"6102198041","distractor":"6102198741","target":"absent","response":"present","rt":"2668.4000000004","correct":false,"confidence":-1},{"trial_n":15,"span":9,"encoder":"737090726","distractor":"137090726","target":"absent","response":"present","rt":"8379.8000000007","correct":false,"confidence":-1},{"trial_n":16,"span":8,"encoder":"16284047","distractor":"16284067","target":"present","response":"present","rt":"1925.5999999996","correct":true,"confidence":-1},{"trial_n":17,"span":8,"encoder":"79483216","distractor":"79453216","target":"present","response":"present","rt":"5036","correct":true,"confidence":-1},{"trial_n":18,"span":9,"encoder":"055085859","distractor":"055085849","target":"present","response":"present","rt":"4560.5","correct":true,"confidence":-1},{"trial_n":19,"span":9,"encoder":"912116198","distractor":"312116198","target":"present","response":"absent","rt":"2893.7000000011","correct":false,"confidence":-1},{"trial_n":20,"span":8,"encoder":"71563776","distractor":"71568776","target":"present","response":"present","rt":"2807","correct":true,"confidence":-1},{"trial_n":21,"span":8,"encoder":"28272858","distractor":"08272858","target":"absent","response":"absent","rt":"1398.2000000011","correct":true,"confidence":5},{"trial_n":22,"span":9,"encoder":"702275548","distractor":"702275547","target":"absent","response":"absent","rt":"4513.3999999985","correct":true,"confidence":5},{"trial_n":23,"span":9,"encoder":"023192336","distractor":"023092336","target":"present","response":"present","rt":"4289.8000000007","correct":true,"confidence":4},{"trial_n":24,"span":10,"encoder":"5604220753","distractor":"5604220754","target":"present","response":"present","rt":"7281.5999999996","correct":true,"confidence":3},{"trial_n":25,"span":10,"encoder":"2840470283","distractor":"2840870283","target":"present","response":"present","rt":"3970.5999999996","correct":true,"confidence":4},{"trial_n":26,"span":11,"encoder":"67436785074","distractor":"67436785064","target":"absent","response":"absent","rt":"4528.8999999985","correct":true,"confidence":2},{"trial_n":27,"span":11,"encoder":"90714260892","distractor":"90714260802","target":"absent","response":"absent","rt":"3653.7999999989","correct":true,"confidence":5},{"trial_n":28,"span":12,"encoder":"412986914399","distractor":"112986914399","target":"absent","response":"absent","rt":"2801.200000003","correct":true,"confidence":5},{"trial_n":29,"span":12,"encoder":"336428069525","distractor":"336428069825","target":"present","response":"absent","rt":"4223.8999999985","correct":false,"confidence":5},{"trial_n":30,"span":11,"encoder":"09269711562","distractor":"09269711568","target":"absent","response":"absent","rt":"3408","correct":true,"confidence":5},{"trial_n":31,"span":11,"encoder":"21292203047","distractor":"21292203247","target":"absent","response":"absent","rt":"7107.299999997","correct":true,"confidence":4},{"trial_n":32,"span":12,"encoder":"509744362309","distractor":"502744362309","target":"absent","response":"absent","rt":"5433.4000000022","correct":true,"confidence":3},{"trial_n":33,"span":12,"encoder":"041495266702","distractor":"041595266702","target":"present","response":"present","rt":"2232.5","correct":true,"confidence":4},{"trial_n":34,"span":13,"encoder":"4539103349455","distractor":"6539103349455","target":"present","response":"present","rt":"2707.5","correct":true,"confidence":3},{"trial_n":35,"span":13,"encoder":"5697688806300","distractor":"5697688306300","target":"absent","response":"present","rt":"5815.1000000015","correct":false,"confidence":3},{"trial_n":36,"span":12,"encoder":"654602290056","distractor":"654602290356","target":"present","response":"absent","rt":"4778.8999999985","correct":false,"confidence":2},{"trial_n":37,"span":11,"encoder":"64537164422","distractor":"64517164422","target":"absent","response":"absent","rt":"2867.6999999993","correct":true,"confidence":5},{"trial_n":38,"span":11,"encoder":"28283458415","distractor":"28243458415","target":"present","response":"present","rt":"2893","correct":true,"confidence":3},{"trial_n":39,"span":12,"encoder":"845336778206","distractor":"845333778206","target":"absent","response":"absent","rt":"3842.3000000007","correct":true,"confidence":5},{"trial_n":40,"span":12,"encoder":"672661677893","distractor":"672661678893","target":"absent","response":"absent","rt":"4160.8000000007","correct":true,"confidence":5},{"trial_n":41,"span":13,"encoder":"6587385419734","distractor":"6587385418734","target":"present","response":"present","rt":"3104.6999999993","correct":true,"confidence":3},{"trial_n":42,"span":13,"encoder":"2474233615515","distractor":"2474263615515","target":"absent","response":"absent","rt":"3099.4000000022","correct":true,"confidence":5},{"trial_n":43,"span":14,"encoder":"03373489973091","distractor":"03373489873091","target":"present","response":"present","rt":"5120.5","correct":true,"confidence":2},{"trial_n":44,"span":14,"encoder":"98870655333142","distractor":"08870655333142","target":"absent","response":"absent","rt":"2301.1999999993","correct":true,"confidence":5},{"trial_n":45,"span":15,"encoder":"054995585757071","distractor":"054995587757071","target":"present","response":"absent","rt":"9462.9000000022","correct":false,"confidence":2},{"trial_n":46,"span":14,"encoder":"28377086920689","distractor":"29377086920689","target":"absent","response":"absent","rt":"2513.5","correct":true,"confidence":5},{"trial_n":47,"span":14,"encoder":"02487368916897","distractor":"02487368916890","target":"present","response":"present","rt":"4408.3000000007","correct":true,"confidence":3},{"trial_n":48,"span":15,"encoder":"205695592777624","distractor":"225695592777624","target":"absent","response":"present","rt":"3877.5","correct":false,"confidence":3},{"trial_n":49,"span":14,"encoder":"01451615751722","distractor":"01451615751727","target":"absent","response":"present","rt":"3698","correct":false,"confidence":2},{"trial_n":50,"span":13,"encoder":"0190596341743","distractor":"8190596341743","target":"absent","response":"absent","rt":"1343","correct":true,"confidence":5},{"trial_n":51,"span":13,"encoder":"6386686647661","distractor":"6786686647661","target":"absent","response":"absent","rt":"2141.5999999978","correct":true,"confidence":5},{"trial_n":52,"span":14,"encoder":"70243604096662","distractor":"70249604096662","target":"absent","response":"absent","rt":"3158.3000000007","correct":true,"confidence":5},{"trial_n":53,"span":14,"encoder":"89191098021363","distractor":"89191098020363","target":"present","response":"present","rt":"3944.5","correct":true,"confidence":4},{"trial_n":54,"span":15,"encoder":"209359997412418","distractor":"205359997412418","target":"absent","response":"present","rt":"4338.8999999985","correct":false,"confidence":3},{"trial_n":55,"span":14,"encoder":"44691827420922","distractor":"44691826420922","target":"absent","response":"present","rt":"15690.800000001","correct":false,"confidence":1},{"trial_n":56,"span":13,"encoder":"8102650038506","distractor":"8102950038506","target":"present","response":"present","rt":"3673.700000003","correct":true,"confidence":3},{"trial_n":57,"span":13,"encoder":"3084822060899","distractor":"3080822060899","target":"absent","response":"absent","rt":"3604.3999999985","correct":true,"confidence":5},{"trial_n":58,"span":14,"encoder":"64080918815083","distractor":"64080218815083","target":"present","response":"present","rt":"3668.3000000007","correct":true,"confidence":5},{"trial_n":59,"span":14,"encoder":"18334492923705","distractor":"18334492923707","target":"present","response":"present","rt":"7713.5","correct":true,"confidence":4},{"trial_n":60,"span":15,"encoder":"655676679236952","distractor":"655676679236932","target":"present","response":"present","rt":"4878.5","correct":true,"confidence":5},{"trial_n":61,"span":15,"encoder":"781934605487299","distractor":"781935605487299","target":"present","response":"present","rt":"4861.5","correct":true,"confidence":4},{"trial_n":62,"span":16,"encoder":"6047755551812742","distractor":"6048755551812742","target":"absent","response":"present","rt":"8582","correct":false,"confidence":2},{"trial_n":63,"span":15,"encoder":"962093093430153","distractor":"962093093490153","target":"present","response":"absent","rt":"10111.5","correct":false,"confidence":2},{"trial_n":64,"span":14,"encoder":"68254342729742","distractor":"68254342229742","target":"present","response":"present","rt":"2828.8999999985","correct":true,"confidence":3},{"trial_n":65,"span":14,"encoder":"24179694696334","distractor":"24179694696337","target":"present","response":"present","rt":"3426.200000003","correct":true,"confidence":5},{"trial_n":66,"span":15,"encoder":"600316541323922","distractor":"604316541323922","target":"absent","response":"absent","rt":"8739.8000000007","correct":true,"confidence":3},{"trial_n":67,"span":15,"encoder":"626693203642335","distractor":"626694203642335","target":"absent","response":"absent","rt":"3022.5","correct":true,"confidence":5},{"trial_n":68,"span":16,"encoder":"1870201427980580","distractor":"1830201427980580","target":"present","response":"present","rt":"3511.1000000015","correct":true,"confidence":4},{"trial_n":69,"span":16,"encoder":"8690180663420477","distractor":"8690187663420477","target":"absent","response":"absent","rt":"3345","correct":true,"confidence":4},{"trial_n":70,"span":17,"encoder":"95091731256358686","distractor":"95091731256368686","target":"absent","response":"present","rt":"3073.4000000022","correct":false,"confidence":4},{"trial_n":71,"span":8,"encoder":"06592946","distractor":"06592746","target":"present","response":"present","rt":"3615.3000000007","correct":true,"confidence":-1},{"trial_n":72,"span":8,"encoder":"93367939","distractor":"96367939","target":"present","response":"present","rt":"5943.4000000022","correct":true,"confidence":-1},{"trial_n":73,"span":9,"encoder":"267057910","distractor":"267037910","target":"absent","response":"absent","rt":"4750.1000000015","correct":true,"confidence":-1},{"trial_n":74,"span":9,"encoder":"908498083","distractor":"908598083","target":"absent","response":"absent","rt":"3064.5","correct":true,"confidence":-1},{"trial_n":75,"span":10,"encoder":"3296587474","distractor":"3296087474","target":"present","response":"absent","rt":"6482.1000000015","correct":false,"confidence":-1},{"trial_n":76,"span":9,"encoder":"390260755","distractor":"390260055","target":"present","response":"present","rt":"1535.200000003","correct":true,"confidence":-1},{"trial_n":77,"span":9,"encoder":"785529076","distractor":"185529076","target":"present","response":"present","rt":"2177.3999999985","correct":true,"confidence":-1},{"trial_n":78,"span":10,"encoder":"6559715611","distractor":"6559715641","target":"absent","response":"absent","rt":"1581.3000000007","correct":true,"confidence":-1},{"trial_n":79,"span":10,"encoder":"3782247709","distractor":"3382247709","target":"present","response":"absent","rt":"3120","correct":false,"confidence":-1},{"trial_n":80,"span":9,"encoder":"903747209","distractor":"903744209","target":"present","response":"present","rt":"2373.6999999993","correct":true,"confidence":-1},{"trial_n":81,"span":9,"encoder":"981105604","distractor":"921105604","target":"absent","response":"absent","rt":"5325.1999999993","correct":true,"confidence":-1},{"trial_n":82,"span":10,"encoder":"7100173673","distractor":"7100173873","target":"absent","response":"absent","rt":"1638","correct":true,"confidence":-1},{"trial_n":83,"span":10,"encoder":"8700030904","distractor":"8700050904","target":"absent","response":"absent","rt":"2696","correct":true,"confidence":-1},{"trial_n":84,"span":11,"encoder":"00358775088","distractor":"00358175088","target":"present","response":"present","rt":"2863.8999999985","correct":true,"confidence":-1},{"trial_n":85,"span":11,"encoder":"62952062054","distractor":"62952262054","target":"present","response":"present","rt":"3708.4000000022","correct":true,"confidence":-1},{"trial_n":86,"span":12,"encoder":"433444004695","distractor":"433444704695","target":"present","response":"present","rt":"2957.799999997","correct":true,"confidence":-1},{"trial_n":87,"span":12,"encoder":"555362037204","distractor":"555362037274","target":"absent","response":"absent","rt":"1860.8999999985","correct":true,"confidence":-1},{"trial_n":88,"span":13,"encoder":"7908220102384","distractor":"7008220102384","target":"present","response":"absent","rt":"3436.1000000015","correct":false,"confidence":-1},{"trial_n":89,"span":12,"encoder":"782746083660","distractor":"782748083660","target":"absent","response":"present","rt":"12835.5","correct":false,"confidence":-1},{"trial_n":90,"span":11,"encoder":"88017069293","distractor":"88017059293","target":"present","response":"present","rt":"2424.1999999993","correct":true,"confidence":-1},{"trial_n":91,"span":11,"encoder":"47675246830","distractor":"47675246834","target":"present","response":"present","rt":"1914.3999999985","correct":true,"confidence":5},{"trial_n":92,"span":12,"encoder":"718020779646","distractor":"718020779642","target":"present","response":"present","rt":"1778.8000000007","correct":true,"confidence":5},{"trial_n":93,"span":12,"encoder":"868586771127","distractor":"868581771127","target":"absent","response":"absent","rt":"5797","correct":true,"confidence":5},{"trial_n":94,"span":13,"encoder":"6896402817492","distractor":"6896402817792","target":"absent","response":"absent","rt":"2186.3000000007","correct":true,"confidence":4},{"trial_n":95,"span":13,"encoder":"1819398455357","distractor":"1819398475357","target":"present","response":"present","rt":"9355.0999999978","correct":true,"confidence":2},{"trial_n":96,"span":14,"encoder":"65787685026316","distractor":"65787685021316","target":"absent","response":"absent","rt":"3971.6999999993","correct":true,"confidence":5},{"trial_n":97,"span":14,"encoder":"65833463369770","distractor":"64833463369770","target":"absent","response":"absent","rt":"6269.8999999985","correct":true,"confidence":4},{"trial_n":98,"span":15,"encoder":"715518664841098","distractor":"755518664841098","target":"present","response":"present","rt":"4523.5","correct":true,"confidence":3},{"trial_n":99,"span":15,"encoder":"771417047887488","distractor":"771417057887488","target":"absent","response":"absent","rt":"4865.0999999978","correct":true,"confidence":4},{"trial_n":100,"span":16,"encoder":"0373427224860387","distractor":"0373427224866387","target":"absent","response":"absent","rt":"2076.3999999985","correct":true,"confidence":5},{"trial_n":101,"span":16,"encoder":"9293020154053193","distractor":"9193020154053193","target":"absent","response":"absent","rt":"5612.1000000015","correct":true,"confidence":5},{"trial_n":102,"span":17,"encoder":"57976489260661440","distractor":"57973489260661440","target":"present","response":"present","rt":"22573.299999997","correct":true,"confidence":2},{"trial_n":103,"span":17,"encoder":"81392997160086616","distractor":"81392947160086616","target":"present","response":"absent","rt":"9541.1000000015","correct":false,"confidence":3},{"trial_n":104,"span":16,"encoder":"1798290474129259","distractor":"1798290474120259","target":"absent","response":"absent","rt":"13782","correct":true,"confidence":2},{"trial_n":105,"span":16,"encoder":"7234102879397552","distractor":"5234102879397552","target":"absent","response":"absent","rt":"4409.6000000015","correct":true,"confidence":5},{"trial_n":106,"span":17,"encoder":"22698143339900529","distractor":"02698143339900529","target":"absent","response":"present","rt":"5582.5","correct":false,"confidence":5},{"trial_n":107,"span":16,"encoder":"8918878399089521","distractor":"8918868399089521","target":"absent","response":"absent","rt":"13638.199999999","correct":true,"confidence":4},{"trial_n":108,"span":16,"encoder":"4360396883797903","distractor":"4360396383797903","target":"absent","response":"absent","rt":"4993.3999999985","correct":true,"confidence":5},{"trial_n":109,"span":17,"encoder":"78037211812639950","distractor":"78037211812639958","target":"present","response":"present","rt":"2800.5","correct":true,"confidence":5},{"trial_n":110,"span":17,"encoder":"37620910207537689","distractor":"37720910207537689","target":"present","response":"absent","rt":"8099.6000000015","correct":false,"confidence":4},{"trial_n":111,"span":16,"encoder":"4669684927721157","distractor":"4619684927721157","target":"present","response":"absent","rt":"8934.8000000007","correct":false,"confidence":4},{"trial_n":112,"span":15,"encoder":"102768824048675","distractor":"102762824048675","target":"present","response":"present","rt":"3522.9000000022","correct":true,"confidence":3},{"trial_n":113,"span":15,"encoder":"910974071662433","distractor":"910974071662033","target":"present","response":"present","rt":"5200.6000000015","correct":true,"confidence":5},{"trial_n":114,"span":16,"encoder":"0498633959015315","distractor":"0498633959515315","target":"absent","response":"absent","rt":"3460.5","correct":true,"confidence":4},{"trial_n":115,"span":16,"encoder":"2827416328382097","distractor":"2827916328382097","target":"absent","response":"absent","rt":"8404.6999999993","correct":true,"confidence":2},{"trial_n":116,"span":17,"encoder":"87110035583781964","distractor":"84110035583781964","target":"present","response":"absent","rt":"11612.800000001","correct":false,"confidence":3},{"trial_n":117,"span":16,"encoder":"1066244239025730","distractor":"1966244239025730","target":"absent","response":"absent","rt":"7087","correct":true,"confidence":5},{"trial_n":118,"span":16,"encoder":"0090979482431740","distractor":"0090979488431740","target":"present","response":"present","rt":"9508.5999999978","correct":true,"confidence":2},{"trial_n":119,"span":17,"encoder":"28422712333237719","distractor":"28422712333239719","target":"absent","response":"absent","rt":"8053.0999999978","correct":true,"confidence":4},{"trial_n":120,"span":17,"encoder":"43528498873108843","distractor":"43528498873108743","target":"present","response":"present","rt":"1693.8999999985","correct":true,"confidence":5},{"trial_n":121,"span":18,"encoder":"830674806862172381","distractor":"830644806862172381","target":"absent","response":"absent","rt":"5479.3000000007","correct":true,"confidence":5},{"trial_n":122,"span":18,"encoder":"632562629549206168","distractor":"602562629549206168","target":"absent","response":"absent","rt":"5427.6999999993","correct":true,"confidence":4},{"trial_n":123,"span":19,"encoder":"3823442089350516271","distractor":"3843442089350516271","target":"absent","response":"absent","rt":"20683.100000001","correct":true,"confidence":4},{"trial_n":124,"span":19,"encoder":"7475576307550916880","distractor":"7475576307550916680","target":"absent","response":"absent","rt":"2209.4000000022","correct":true,"confidence":5},{"trial_n":125,"span":20,"encoder":"06597663142303391655","distractor":"06597662142303391655","target":"present","response":"present","rt":"8496.5999999978","correct":true,"confidence":3},{"trial_n":126,"span":20,"encoder":"02505416435206870189","distractor":"02505416430206870189","target":"present","response":"present","rt":"6420.799999997","correct":true,"confidence":3},{"trial_n":127,"span":21,"encoder":"674161745598588626472","distractor":"674161742598588626472","target":"present","response":"absent","rt":"22590.600000001","correct":false,"confidence":2},{"trial_n":128,"span":20,"encoder":"68937625063454860441","distractor":"08937625063454860441","target":"absent","response":"absent","rt":"4058.3000000007","correct":true,"confidence":4},{"trial_n":129,"span":20,"encoder":"35607266737923168232","distractor":"35608266737923168232","target":"absent","response":"absent","rt":"7129.6000000015","correct":true,"confidence":5},{"trial_n":130,"span":21,"encoder":"065155408079507085708","distractor":"065155408074507085708","target":"present","response":"present","rt":"12610.299999997","correct":true,"confidence":5},{"trial_n":131,"span":21,"encoder":"809928094067827644776","distractor":"809928094067827644775","target":"present","response":"present","rt":"2493.5","correct":true,"confidence":5},{"trial_n":132,"span":22,"encoder":"2871260742978150511207","distractor":"2871260742978150541207","target":"absent","response":"present","rt":"11437.199999999","correct":false,"confidence":3},{"trial_n":133,"span":21,"encoder":"125389411647952477993","distractor":"125389411447952477993","target":"present","response":"absent","rt":"7831","correct":false,"confidence":4},{"trial_n":134,"span":20,"encoder":"24334551226764804283","distractor":"24334551226864804283","target":"present","response":"present","rt":"10142.900000002","correct":true,"confidence":3},{"trial_n":135,"span":20,"encoder":"78800514118541028621","distractor":"78800514118541328621","target":"present","response":"present","rt":"4928.5","correct":true,"confidence":5},{"trial_n":136,"span":21,"encoder":"279083211480876510860","distractor":"271083211480876510860","target":"absent","response":"present","rt":"4539","correct":false,"confidence":4},{"trial_n":137,"span":20,"encoder":"52535354812222495815","distractor":"52535354812222495855","target":"present","response":"present","rt":"3336.3999999985","correct":true,"confidence":4},{"trial_n":138,"span":20,"encoder":"26568242323709417602","distractor":"26568442323709417602","target":"absent","response":"absent","rt":"10563.099999998","correct":true,"confidence":2},{"trial_n":139,"span":21,"encoder":"315630277588367430340","distractor":"315638277588367430340","target":"absent","response":"present","rt":"9926.8000000007","correct":false,"confidence":5},{"trial_n":140,"span":20,"encoder":"27278629971579501595","distractor":"27278829971579501595","target":"present","response":"present","rt":"6938.8999999985","correct":true,"confidence":5}]