[{"trial_n":1,"span":8,"encoder":"19005910","distractor":"19075910","target":"present","response":"present","rt":"3503.6999999955","correct":true,"confidence":-1},{"trial_n":2,"span":8,"encoder":"13311794","distractor":"13351794","target":"present","response":"present","rt":"2567.3000000045","correct":true,"confidence":-1},{"trial_n":3,"span":10,"encoder":"0275341941","distractor":"7275341941","target":"absent","response":"present","rt":"6438.8000000045","correct":false,"confidence":-1},{"trial_n":4,"span":8,"encoder":"44126885","distractor":"44126880","target":"absent","response":"absent","rt":"6560.1000000015","correct":true,"confidence":-1},{"trial_n":5,"span":8,"encoder":"47338675","distractor":"47338673","target":"present","response":"absent","rt":"5502.3999999985","correct":false,"confidence":-1},{"trial_n":6,"span":6,"encoder":"645415","distractor":"645515","target":"present","response":"present","rt":"2653.5","correct":true,"confidence":-1},{"trial_n":7,"span":6,"encoder":"673636","distractor":"663636","target":"present","response":"present","rt":"2552.6000000015","correct":true,"confidence":-1},{"trial_n":8,"span":8,"encoder":"24605416","distractor":"24615416","target":"present","response":"present","rt":"3019.700000003","correct":true,"confidence":-1},{"trial_n":9,"span":8,"encoder":"88601034","distractor":"88601094","target":"present","response":"present","rt":"3480","correct":true,"confidence":-1},{"trial_n":10,"span":10,"encoder":"7071978363","distractor":"9071978363","target":"present","response":"absent","rt":"7567.1999999955","correct":false,"confidence":-1},{"trial_n":11,"span":8,"encoder":"78369355","distractor":"78369155","target":"absent","response":"present","rt":"1875.6000000015","correct":false,"confidence":-1},{"trial_n":12,"span":7,"encoder":"4427220","distractor":"4427280","target":"present","response":"present","rt":"4063.3000000045","correct":true,"confidence":-1},{"trial_n":13,"span":7,"encoder":"8991957","distractor":"8921957","target":"absent","response":"absent","rt":"2341","correct":true,"confidence":-1},{"trial_n":14,"span":8,"encoder":"22989760","distractor":"22989767","target":"absent","response":"present","rt":"1165.3999999985","correct":false,"confidence":-1},{"trial_n":15,"span":7,"encoder":"0282420","distractor":"0282429","target":"present","response":"present","rt":"1809.8999999985","correct":true,"confidence":-1},{"trial_n":16,"span":7,"encoder":"3470402","distractor":"3400402","target":"present","response":"present","rt":"2010.799999997","correct":true,"confidence":-1},{"trial_n":17,"span":8,"encoder":"10245121","distractor":"10245221","target":"present","response":"present","rt":"8402.1000000015","correct":true,"confidence":-1},{"trial_n":18,"span":8,"encoder":"58392372","distractor":"58332372","target":"absent","response":"present","rt":"1164.3999999985","correct":false,"confidence":-1},{"trial_n":19,"span":7,"encoder":"6107450","distractor":"6107453","target":"absent","response":"present","rt":"935.09999999404","correct":false,"confidence":-1},{"trial_n":20,"span":6,"encoder":"928866","distractor":"928766","target":"absent","response":"absent","rt":"3978.200000003","correct":true,"confidence":-1},{"trial_n":21,"span":6,"encoder":"411923","distractor":"411123","target":"absent","response":"absent","rt":"3808.5","correct":true,"confidence":5},{"trial_n":22,"span":7,"encoder":"4821514","distractor":"4801514","target":"absent","response":"absent","rt":"6967.3000000045","correct":true,"confidence":4},{"trial_n":23,"span":7,"encoder":"9586278","distractor":"3586278","target":"present","response":"present","rt":"2697.700000003","correct":true,"confidence":5},{"trial_n":24,"span":8,"encoder":"79160297","distractor":"79960297","target":"absent","response":"absent","rt":"4145.8999999985","correct":true,"confidence":3},{"trial_n":25,"span":8,"encoder":"17812749","distractor":"17512749","target":"absent","response":"absent","rt":"5047.5","correct":true,"confidence":3},{"trial_n":26,"span":9,"encoder":"746610404","distractor":"746410404","target":"absent","response":"absent","rt":"2665.3999999985","correct":true,"confidence":5},{"trial_n":27,"span":9,"encoder":"402014445","distractor":"402024445","target":"present","response":"present","rt":"3629.3999999985","correct":true,"confidence":5},{"trial_n":28,"span":10,"encoder":"9844780643","distractor":"9844080643","target":"present","response":"present","rt":"3825.5","correct":true,"confidence":5},{"trial_n":29,"span":10,"encoder":"1691256294","distractor":"1691356294","target":"present","response":"absent","rt":"5302.5","correct":false,"confidence":2},{"trial_n":30,"span":9,"encoder":"595763742","distractor":"495763742","target":"absent","response":"present","rt":"6971","correct":false,"confidence":4},{"trial_n":31,"span":8,"encoder":"06817866","distractor":"06817806","target":"present","response":"present","rt":"3329.900000006","correct":true,"confidence":5},{"trial_n":32,"span":8,"encoder":"99426883","distractor":"99496883","target":"present","response":"present","rt":"3266.700000003","correct":true,"confidence":5},{"trial_n":33,"span":9,"encoder":"410467812","distractor":"410461812","target":"present","response":"present","rt":"3663.5","correct":true,"confidence":5},{"trial_n":34,"span":9,"encoder":"042239133","distractor":"042209133","target":"present","response":"present","rt":"6062.599999994","correct":true,"confidence":4},{"trial_n":35,"span":10,"encoder":"5584279141","distractor":"5584279142","target":"absent","response":"absent","rt":"10756.800000004","correct":true,"confidence":3},{"trial_n":36,"span":10,"encoder":"9199389471","distractor":"9199689471","target":"present","response":"present","rt":"11065.200000003","correct":true,"confidence":3},{"trial_n":37,"span":11,"encoder":"05675941543","distractor":"01675941543","target":"present","response":"present","rt":"11937.5","correct":true,"confidence":3},{"trial_n":38,"span":11,"encoder":"10601304407","distractor":"10601304406","target":"absent","response":"absent","rt":"4445.1000000015","correct":true,"confidence":2},{"trial_n":39,"span":12,"encoder":"904285887633","distractor":"904285887613","target":"absent","response":"absent","rt":"2322.6000000015","correct":true,"confidence":5},{"trial_n":40,"span":12,"encoder":"108137337969","distractor":"108187337969","target":"absent","response":"present","rt":"2569.1000000015","correct":false,"confidence":2},{"trial_n":41,"span":11,"encoder":"43833883563","distractor":"43830883563","target":"present","response":"present","rt":"9811","correct":true,"confidence":2},{"trial_n":42,"span":11,"encoder":"85340589502","distractor":"85347589502","target":"present","response":"absent","rt":"7682.8000000045","correct":false,"confidence":3},{"trial_n":43,"span":10,"encoder":"8532711853","distractor":"8532111853","target":"absent","response":"absent","rt":"5184.200000003","correct":true,"confidence":4},{"trial_n":44,"span":10,"encoder":"2578837590","distractor":"2578237590","target":"present","response":"present","rt":"6111.8999999985","correct":true,"confidence":4},{"trial_n":45,"span":11,"encoder":"65984592612","distractor":"65984592812","target":"absent","response":"present","rt":"7410.1000000015","correct":false,"confidence":3},{"trial_n":46,"span":10,"encoder":"2356511687","distractor":"2356511787","target":"absent","response":"absent","rt":"4119","correct":true,"confidence":5},{"trial_n":47,"span":10,"encoder":"7846924113","distractor":"7846974113","target":"present","response":"present","rt":"4962.8000000045","correct":true,"confidence":4},{"trial_n":48,"span":11,"encoder":"12273690839","distractor":"12273690889","target":"absent","response":"absent","rt":"4503","correct":true,"confidence":4},{"trial_n":49,"span":11,"encoder":"79484381425","distractor":"79484381420","target":"present","response":"present","rt":"8315.8999999985","correct":true,"confidence":3},{"trial_n":50,"span":12,"encoder":"469957895311","distractor":"469957895361","target":"present","response":"absent","rt":"7632.6999999955","correct":false,"confidence":3},{"trial_n":51,"span":11,"encoder":"02914946859","distractor":"02915946859","target":"absent","response":"present","rt":"4912.3000000045","correct":false,"confidence":3},{"trial_n":52,"span":10,"encoder":"6054380177","distractor":"6054380977","target":"present","response":"present","rt":"5075.5","correct":true,"confidence":3},{"trial_n":53,"span":10,"encoder":"6158306342","distractor":"6158306332","target":"absent","response":"absent","rt":"1796.3000000045","correct":true,"confidence":5},{"trial_n":54,"span":11,"encoder":"71862153969","distractor":"76862153969","target":"absent","response":"absent","rt":"6807.799999997","correct":true,"confidence":3},{"trial_n":55,"span":11,"encoder":"47363189391","distractor":"46363189391","target":"absent","response":"present","rt":"6352.8000000045","correct":false,"confidence":1},{"trial_n":56,"span":10,"encoder":"9794616000","distractor":"9798616000","target":"present","response":"present","rt":"3456.200000003","correct":true,"confidence":5},{"trial_n":57,"span":10,"encoder":"7039269244","distractor":"7039219244","target":"present","response":"present","rt":"7811.3999999985","correct":true,"confidence":3},{"trial_n":58,"span":11,"encoder":"29605823467","distractor":"29600823467","target":"present","response":"present","rt":"4379.8000000045","correct":true,"confidence":4},{"trial_n":59,"span":11,"encoder":"80760909181","distractor":"80760929181","target":"absent","response":"absent","rt":"7179.299999997","correct":true,"confidence":3},{"trial_n":60,"span":12,"encoder":"218396640867","distractor":"218296640867","target":"present","response":"absent","rt":"4765.900000006","correct":false,"confidence":3},{"trial_n":61,"span":11,"encoder":"47202215577","distractor":"47802215577","target":"absent","response":"present","rt":"6218","correct":false,"confidence":3},{"trial_n":62,"span":10,"encoder":"4739624433","distractor":"4339624433","target":"absent","response":"absent","rt":"2352.1999999955","correct":true,"confidence":4},{"trial_n":63,"span":10,"encoder":"4265154948","distractor":"4265150948","target":"absent","response":"absent","rt":"48990.200000003","correct":true,"confidence":1},{"trial_n":64,"span":11,"encoder":"36788516199","distractor":"36188516199","target":"absent","response":"present","rt":"3938.299999997","correct":false,"confidence":3},{"trial_n":65,"span":10,"encoder":"5727444217","distractor":"5527444217","target":"absent","response":"present","rt":"5159","correct":false,"confidence":2},{"trial_n":66,"span":9,"encoder":"209380598","distractor":"203380598","target":"absent","response":"absent","rt":"4595.5","correct":true,"confidence":2},{"trial_n":67,"span":9,"encoder":"561117705","distractor":"561116705","target":"present","response":"present","rt":"3371.5","correct":true,"confidence":5},{"trial_n":68,"span":10,"encoder":"1176668908","distractor":"3176668908","target":"present","response":"present","rt":"2589.3999999985","correct":true,"confidence":3},{"trial_n":69,"span":10,"encoder":"2203402586","distractor":"2203402516","target":"present","response":"present","rt":"3313.5","correct":true,"confidence":4},{"trial_n":70,"span":11,"encoder":"55185211538","distractor":"55185111538","target":"absent","response":"absent","rt":"1693.8000000045","correct":true,"confidence":4},{"trial_n":71,"span":8,"encoder":"21831704","distractor":"21830704","target":"present","response":"present","rt":"5931","correct":true,"confidence":-1},{"trial_n":72,"span":8,"encoder":"61909487","distractor":"66909487","target":"present","response":"present","rt":"5282","correct":true,"confidence":-1},{"trial_n":73,"span":9,"encoder":"762574800","distractor":"762474800","target":"absent","response":"present","rt":"11172.299999997","correct":false,"confidence":-1},{"trial_n":74,"span":8,"encoder":"76118835","distractor":"76118833","target":"absent","response":"absent","rt":"708.69999999553","correct":true,"confidence":-1},{"trial_n":75,"span":8,"encoder":"85968621","distractor":"85968691","target":"present","response":"present","rt":"5659.799999997","correct":true,"confidence":-1},{"trial_n":76,"span":9,"encoder":"297400436","distractor":"297400435","target":"absent","response":"absent","rt":"2020.6000000015","correct":true,"confidence":-1},{"trial_n":77,"span":9,"encoder":"401634731","distractor":"408634731","target":"present","response":"present","rt":"10657.199999996","correct":true,"confidence":-1},{"trial_n":78,"span":10,"encoder":"2081692028","distractor":"2081692025","target":"absent","response":"absent","rt":"1818.8999999985","correct":true,"confidence":-1},{"trial_n":79,"span":10,"encoder":"7683423304","distractor":"7686423304","target":"present","response":"absent","rt":"9507.8999999985","correct":false,"confidence":-1},{"trial_n":80,"span":9,"encoder":"750837467","distractor":"750857467","target":"present","response":"present","rt":"693.70000000298","correct":true,"confidence":-1},{"trial_n":81,"span":9,"encoder":"675207696","distractor":"575207696","target":"absent","response":"absent","rt":"428.69999999553","correct":true,"confidence":-1},{"trial_n":82,"span":10,"encoder":"1938310834","distractor":"1938310434","target":"present","response":"absent","rt":"617.5","correct":false,"confidence":-1},{"trial_n":83,"span":9,"encoder":"463189151","distractor":"463189161","target":"present","response":"present","rt":"710.39999999851","correct":true,"confidence":-1},{"trial_n":84,"span":9,"encoder":"500866781","distractor":"500816781","target":"present","response":"present","rt":"659.29999999702","correct":true,"confidence":-1},{"trial_n":85,"span":10,"encoder":"2237840352","distractor":"2237840353","target":"absent","response":"present","rt":"664.80000000447","correct":false,"confidence":-1},{"trial_n":86,"span":9,"encoder":"937860444","distractor":"937660444","target":"present","response":"present","rt":"659.5","correct":true,"confidence":-1},{"trial_n":87,"span":9,"encoder":"478815407","distractor":"478816407","target":"present","response":"present","rt":"798.5","correct":true,"confidence":-1},{"trial_n":88,"span":10,"encoder":"1520400677","distractor":"9520400677","target":"present","response":"absent","rt":"653.10000000149","correct":false,"confidence":-1},{"trial_n":89,"span":9,"encoder":"394788124","distractor":"394728124","target":"absent","response":"present","rt":"772.30000000447","correct":false,"confidence":-1},{"trial_n":90,"span":8,"encoder":"99641031","distractor":"99541031","target":"present","response":"present","rt":"3705.3000000045","correct":true,"confidence":-1},{"trial_n":91,"span":8,"encoder":"87163113","distractor":"87163153","target":"absent","response":"absent","rt":"5789.700000003","correct":true,"confidence":5},{"trial_n":92,"span":9,"encoder":"870186755","distractor":"874186755","target":"absent","response":"present","rt":"3090.799999997","correct":false,"confidence":3},{"trial_n":93,"span":8,"encoder":"53962159","distractor":"53968159","target":"absent","response":"absent","rt":"4400","correct":true,"confidence":5},{"trial_n":94,"span":8,"encoder":"76810759","distractor":"78810759","target":"present","response":"present","rt":"4955.8000000045","correct":true,"confidence":5},{"trial_n":95,"span":9,"encoder":"388396391","distractor":"378396391","target":"present","response":"present","rt":"5678.200000003","correct":true,"confidence":5},{"trial_n":96,"span":9,"encoder":"955850430","distractor":"955858430","target":"absent","response":"present","rt":"8154.6000000015","correct":false,"confidence":3},{"trial_n":97,"span":8,"encoder":"94997535","distractor":"14997535","target":"absent","response":"absent","rt":"1964.8999999985","correct":true,"confidence":5},{"trial_n":98,"span":8,"encoder":"77704661","distractor":"77706661","target":"present","response":"present","rt":"2536.299999997","correct":true,"confidence":5},{"trial_n":99,"span":9,"encoder":"494801536","distractor":"494801534","target":"present","response":"present","rt":"6222.6999999955","correct":true,"confidence":5},{"trial_n":100,"span":9,"encoder":"606367544","distractor":"606366544","target":"absent","response":"absent","rt":"3692.200000003","correct":true,"confidence":5},{"trial_n":101,"span":10,"encoder":"6660569753","distractor":"6690569753","target":"absent","response":"absent","rt":"7586.1000000015","correct":true,"confidence":5},{"trial_n":102,"span":10,"encoder":"0762435869","distractor":"0765435869","target":"present","response":"present","rt":"3624.099999994","correct":true,"confidence":4},{"trial_n":103,"span":11,"encoder":"18519291210","distractor":"18819291210","target":"absent","response":"absent","rt":"3311.8999999985","correct":true,"confidence":5},{"trial_n":104,"span":11,"encoder":"57560965291","distractor":"57561965291","target":"present","response":"absent","rt":"9848.200000003","correct":false,"confidence":2},{"trial_n":105,"span":10,"encoder":"1514592451","distractor":"1514592455","target":"absent","response":"absent","rt":"1431.200000003","correct":true,"confidence":5},{"trial_n":106,"span":10,"encoder":"9832549996","distractor":"9832529996","target":"present","response":"absent","rt":"1703","correct":false,"confidence":1},{"trial_n":107,"span":9,"encoder":"131100694","distractor":"131400694","target":"absent","response":"absent","rt":"4402.8999999985","correct":true,"confidence":5},{"trial_n":108,"span":9,"encoder":"711911989","distractor":"710911989","target":"present","response":"present","rt":"3041.5","correct":true,"confidence":4},{"trial_n":109,"span":10,"encoder":"7618036611","distractor":"7618036011","target":"present","response":"absent","rt":"3424.799999997","correct":false,"confidence":4},{"trial_n":110,"span":9,"encoder":"230641515","distractor":"230641615","target":"absent","response":"absent","rt":"1971.5","correct":true,"confidence":4},{"trial_n":111,"span":9,"encoder":"883495880","distractor":"883095880","target":"absent","response":"absent","rt":"4084.3999999985","correct":true,"confidence":5},{"trial_n":112,"span":10,"encoder":"8566825557","distractor":"8566025557","target":"present","response":"present","rt":"4387.799999997","correct":true,"confidence":4},{"trial_n":113,"span":10,"encoder":"0959942221","distractor":"2959942221","target":"absent","response":"absent","rt":"5641.599999994","correct":true,"confidence":4},{"trial_n":114,"span":11,"encoder":"91316974514","distractor":"91316904514","target":"absent","response":"absent","rt":"5212.3000000045","correct":true,"confidence":2},{"trial_n":115,"span":11,"encoder":"09383778237","distractor":"09381778237","target":"absent","response":"present","rt":"7540.3999999985","correct":false,"confidence":2},{"trial_n":116,"span":10,"encoder":"0222383598","distractor":"0222373598","target":"present","response":"present","rt":"7454.3999999985","correct":true,"confidence":2},{"trial_n":117,"span":10,"encoder":"5943845337","distractor":"5943845437","target":"absent","response":"absent","rt":"1480.099999994","correct":true,"confidence":5},{"trial_n":118,"span":11,"encoder":"59866765500","distractor":"59866765100","target":"absent","response":"absent","rt":"1758","correct":true,"confidence":5},{"trial_n":119,"span":11,"encoder":"90345018719","distractor":"90345018519","target":"present","response":"present","rt":"2662.6000000015","correct":true,"confidence":5},{"trial_n":120,"span":12,"encoder":"985519191417","distractor":"985519191415","target":"absent","response":"absent","rt":"4976.6999999955","correct":true,"confidence":5},{"trial_n":121,"span":12,"encoder":"687474943003","distractor":"687474443003","target":"present","response":"present","rt":"3344.700000003","correct":true,"confidence":4},{"trial_n":122,"span":13,"encoder":"1424432676505","distractor":"6424432676505","target":"absent","response":"present","rt":"7664.3999999985","correct":false,"confidence":2},{"trial_n":123,"span":12,"encoder":"917908766651","distractor":"917908762651","target":"absent","response":"absent","rt":"1854","correct":true,"confidence":5},{"trial_n":124,"span":12,"encoder":"336163017298","distractor":"036163017298","target":"absent","response":"absent","rt":"6617.6000000015","correct":true,"confidence":5},{"trial_n":125,"span":13,"encoder":"8318741335507","distractor":"2318741335507","target":"present","response":"present","rt":"3727.8999999985","correct":true,"confidence":4},{"trial_n":126,"span":13,"encoder":"0113066145015","distractor":"0113066545015","target":"present","response":"present","rt":"9718.099999994","correct":true,"confidence":1},{"trial_n":127,"span":14,"encoder":"72240735141137","distractor":"72240735141117","target":"absent","response":"absent","rt":"2122","correct":true,"confidence":5},{"trial_n":128,"span":14,"encoder":"43036487652474","distractor":"46036487652474","target":"present","response":"absent","rt":"8906.3999999985","correct":false,"confidence":1},{"trial_n":129,"span":13,"encoder":"8464720659707","distractor":"8464720639707","target":"present","response":"present","rt":"11461.599999994","correct":true,"confidence":1},{"trial_n":130,"span":13,"encoder":"1427139876564","distractor":"1427139976564","target":"present","response":"present","rt":"5097.700000003","correct":true,"confidence":1},{"trial_n":131,"span":14,"encoder":"72463622024460","distractor":"72453622024460","target":"present","response":"present","rt":"7704.1000000015","correct":true,"confidence":2},{"trial_n":132,"span":14,"encoder":"59114784389156","distractor":"56114784389156","target":"absent","response":"absent","rt":"5979.8999999985","correct":true,"confidence":1},{"trial_n":133,"span":15,"encoder":"193982318154850","distractor":"193982348154850","target":"absent","response":"absent","rt":"1196.5","correct":true,"confidence":1},{"trial_n":134,"span":15,"encoder":"096671570397274","distractor":"096671870397274","target":"present","response":"absent","rt":"6061.5","correct":false,"confidence":1},{"trial_n":135,"span":14,"encoder":"79454748370475","distractor":"75454748370475","target":"present","response":"present","rt":"6752","correct":true,"confidence":4},{"trial_n":136,"span":14,"encoder":"05579539970188","distractor":"05579539978188","target":"present","response":"present","rt":"11028.5","correct":true,"confidence":5},{"trial_n":137,"span":15,"encoder":"088948432388829","distractor":"088948732388829","target":"absent","response":"absent","rt":"18303.699999996","correct":true,"confidence":3},{"trial_n":138,"span":15,"encoder":"337850962927271","distractor":"337850961927271","target":"absent","response":"present","rt":"7438.3999999985","correct":false,"confidence":1},{"trial_n":139,"span":14,"encoder":"53234275061838","distractor":"53234275061898","target":"absent","response":"present","rt":"1014.3000000045","correct":false,"confidence":1},{"trial_n":140,"span":13,"encoder":"3289683585088","distractor":"3289680585088","target":"present","response":"absent","rt":"8850.799999997","correct":false,"confidence":2}]