[{"trial_n":1,"min":25,"max":230,"target":"present","response":"present","rt":6801.8000000045,"correct":true,"confidence":-1},{"trial_n":2,"min":25,"max":230,"target":"present","response":"present","rt":1382.700000003,"correct":true,"confidence":-1},{"trial_n":3,"min":41,"max":214,"target":"absent","response":"absent","rt":949.10000000149,"correct":true,"confidence":-1},{"trial_n":4,"min":41,"max":214,"target":"absent","response":"absent","rt":1176.8999999985,"correct":true,"confidence":-1},{"trial_n":5,"min":57,"max":198,"target":"present","response":"present","rt":922.60000000149,"correct":true,"confidence":-1},{"trial_n":6,"min":57,"max":198,"target":"absent","response":"absent","rt":838,"correct":true,"confidence":-1},{"trial_n":7,"min":73,"max":182,"target":"absent","response":"absent","rt":909.29999999702,"correct":true,"confidence":-1},{"trial_n":8,"min":73,"max":182,"target":"present","response":"absent","rt":897.10000000149,"correct":false,"confidence":-1},{"trial_n":9,"min":57,"max":198,"target":"present","response":"present","rt":936.5,"correct":true,"confidence":-1},{"trial_n":10,"min":57,"max":198,"target":"present","response":"present","rt":913.20000000298,"correct":true,"confidence":-1},{"trial_n":11,"min":65,"max":190,"target":"absent","response":"absent","rt":907.5,"correct":true,"confidence":-1},{"trial_n":12,"min":65,"max":190,"target":"absent","response":"absent","rt":862.69999999553,"correct":true,"confidence":-1},{"trial_n":13,"min":73,"max":182,"target":"absent","response":"absent","rt":846.10000000149,"correct":true,"confidence":-1},{"trial_n":14,"min":73,"max":182,"target":"absent","response":"absent","rt":785,"correct":true,"confidence":-1},{"trial_n":15,"min":81,"max":174,"target":"present","response":"present","rt":1032.1999999955,"correct":true,"confidence":-1},{"trial_n":16,"min":81,"max":174,"target":"absent","response":"absent","rt":941.60000000149,"correct":true,"confidence":-1},{"trial_n":17,"min":89,"max":166,"target":"absent","response":"absent","rt":1093.799999997,"correct":true,"confidence":-1},{"trial_n":18,"min":89,"max":166,"target":"present","response":"absent","rt":809.70000000298,"correct":false,"confidence":-1},{"trial_n":19,"min":81,"max":174,"target":"present","response":"present","rt":955,"correct":true,"confidence":-1},{"trial_n":20,"min":81,"max":174,"target":"absent","response":"absent","rt":883,"correct":true,"confidence":-1},{"trial_n":21,"min":85,"max":170,"target":"absent","response":"absent","rt":2344.3999999985,"correct":true,"confidence":1},{"trial_n":22,"min":85,"max":170,"target":"absent","response":"absent","rt":1077.700000003,"correct":true,"confidence":4},{"trial_n":23,"min":89,"max":166,"target":"absent","response":"absent","rt":1296.1000000015,"correct":true,"confidence":4},{"trial_n":24,"min":89,"max":166,"target":"absent","response":"absent","rt":880.39999999851,"correct":true,"confidence":3},{"trial_n":25,"min":93,"max":162,"target":"present","response":"absent","rt":793.79999999702,"correct":false,"confidence":3},{"trial_n":26,"min":89,"max":166,"target":"present","response":"present","rt":742.5,"correct":true,"confidence":2},{"trial_n":27,"min":89,"max":166,"target":"present","response":"absent","rt":1005.1999999955,"correct":false,"confidence":1},{"trial_n":28,"min":85,"max":170,"target":"absent","response":"present","rt":717.80000000447,"correct":false,"confidence":1},{"trial_n":29,"min":81,"max":174,"target":"absent","response":"absent","rt":1045.700000003,"correct":true,"confidence":1},{"trial_n":30,"min":81,"max":174,"target":"absent","response":"absent","rt":1237.3999999985,"correct":true,"confidence":2},{"trial_n":31,"min":83,"max":172,"target":"present","response":"present","rt":896.79999999702,"correct":true,"confidence":1},{"trial_n":32,"min":83,"max":172,"target":"present","response":"absent","rt":767,"correct":false,"confidence":1},{"trial_n":33,"min":81,"max":174,"target":"present","response":"present","rt":856.79999999702,"correct":true,"confidence":3},{"trial_n":34,"min":81,"max":174,"target":"present","response":"present","rt":1103.5,"correct":true,"confidence":3},{"trial_n":35,"min":83,"max":172,"target":"absent","response":"absent","rt":1227.8999999985,"correct":true,"confidence":3},{"trial_n":36,"min":83,"max":172,"target":"absent","response":"present","rt":1585.5,"correct":false,"confidence":3},{"trial_n":37,"min":81,"max":174,"target":"absent","response":"absent","rt":903.69999999553,"correct":true,"confidence":1},{"trial_n":38,"min":81,"max":174,"target":"present","response":"present","rt":943.29999999702,"correct":true,"confidence":3},{"trial_n":39,"min":83,"max":172,"target":"present","response":"present","rt":1458.3999999985,"correct":true,"confidence":2},{"trial_n":40,"min":83,"max":172,"target":"present","response":"present","rt":1034.400000006,"correct":true,"confidence":3},{"trial_n":41,"min":84,"max":171,"target":"absent","response":"absent","rt":800.20000000298,"correct":true,"confidence":1},{"trial_n":42,"min":84,"max":171,"target":"present","response":"absent","rt":1535.799999997,"correct":false,"confidence":1},{"trial_n":43,"min":83,"max":172,"target":"present","response":"present","rt":918.19999999553,"correct":true,"confidence":3},{"trial_n":44,"min":83,"max":172,"target":"present","response":"present","rt":1231.6000000015,"correct":true,"confidence":3},{"trial_n":45,"min":84,"max":171,"target":"present","response":"present","rt":783.60000000149,"correct":true,"confidence":2},{"trial_n":46,"min":84,"max":171,"target":"absent","response":"absent","rt":944.60000000149,"correct":true,"confidence":3},{"trial_n":47,"min":85,"max":170,"target":"present","response":"present","rt":1061.5,"correct":true,"confidence":4},{"trial_n":48,"min":85,"max":170,"target":"absent","response":"absent","rt":811.39999999851,"correct":true,"confidence":2},{"trial_n":49,"min":86,"max":169,"target":"present","response":"present","rt":798.80000000447,"correct":true,"confidence":3},{"trial_n":50,"min":86,"max":169,"target":"present","response":"present","rt":885.70000000298,"correct":true,"confidence":4},{"trial_n":51,"min":87,"max":168,"target":"present","response":"present","rt":1143,"correct":true,"confidence":3},{"trial_n":52,"min":87,"max":168,"target":"absent","response":"absent","rt":882.20000000298,"correct":true,"confidence":2},{"trial_n":53,"min":88,"max":167,"target":"absent","response":"absent","rt":1450.6000000015,"correct":true,"confidence":3},{"trial_n":54,"min":88,"max":167,"target":"absent","response":"absent","rt":729,"correct":true,"confidence":3},{"trial_n":55,"min":89,"max":166,"target":"absent","response":"present","rt":1003.8000000045,"correct":false,"confidence":2},{"trial_n":56,"min":88,"max":167,"target":"present","response":"absent","rt":1782.6000000015,"correct":false,"confidence":2},{"trial_n":57,"min":87,"max":168,"target":"present","response":"present","rt":721.10000000149,"correct":true,"confidence":3},{"trial_n":58,"min":87,"max":168,"target":"present","response":"present","rt":749.30000000447,"correct":true,"confidence":3},{"trial_n":59,"min":88,"max":167,"target":"present","response":"present","rt":779.29999999702,"correct":true,"confidence":3},{"trial_n":60,"min":88,"max":167,"target":"absent","response":"absent","rt":2679.1000000015,"correct":true,"confidence":3},{"trial_n":61,"min":89,"max":166,"target":"present","response":"present","rt":1241,"correct":true,"confidence":4},{"trial_n":62,"min":89,"max":166,"target":"absent","response":"absent","rt":1463.1000000015,"correct":true,"confidence":3},{"trial_n":63,"min":90,"max":165,"target":"present","response":"absent","rt":8074.900000006,"correct":false,"confidence":3},{"trial_n":64,"min":89,"max":166,"target":"absent","response":"absent","rt":713.5,"correct":true,"confidence":4},{"trial_n":65,"min":89,"max":166,"target":"absent","response":"absent","rt":924.09999999404,"correct":true,"confidence":4},{"trial_n":66,"min":90,"max":165,"target":"present","response":"present","rt":980.19999999553,"correct":true,"confidence":2},{"trial_n":67,"min":90,"max":165,"target":"absent","response":"present","rt":824,"correct":false,"confidence":1},{"trial_n":68,"min":89,"max":166,"target":"present","response":"present","rt":749.39999999851,"correct":true,"confidence":1},{"trial_n":69,"min":89,"max":166,"target":"present","response":"present","rt":1397.8999999985,"correct":true,"confidence":4},{"trial_n":70,"min":90,"max":165,"target":"absent","response":"absent","rt":1851.6999999955,"correct":true,"confidence":1},{"trial_n":71,"min":41,"max":214,"target":"present","response":"present","rt":1604.200000003,"correct":true,"confidence":-1},{"trial_n":72,"min":41,"max":214,"target":"present","response":"present","rt":555.10000000149,"correct":true,"confidence":-1},{"trial_n":73,"min":57,"max":198,"target":"absent","response":"absent","rt":732.60000000149,"correct":true,"confidence":-1},{"trial_n":74,"min":57,"max":198,"target":"absent","response":"absent","rt":757.80000000447,"correct":true,"confidence":-1},{"trial_n":75,"min":73,"max":182,"target":"present","response":"present","rt":1136.400000006,"correct":true,"confidence":-1},{"trial_n":76,"min":73,"max":182,"target":"absent","response":"absent","rt":1736.8000000045,"correct":true,"confidence":-1},{"trial_n":77,"min":89,"max":166,"target":"present","response":"present","rt":917.5,"correct":true,"confidence":-1},{"trial_n":78,"min":89,"max":166,"target":"present","response":"present","rt":1344.6999999955,"correct":true,"confidence":-1},{"trial_n":79,"min":105,"max":150,"target":"present","response":"present","rt":5671.6000000015,"correct":true,"confidence":-1},{"trial_n":80,"min":105,"max":150,"target":"absent","response":"present","rt":951.70000000298,"correct":false,"confidence":-1},{"trial_n":81,"min":97,"max":158,"target":"absent","response":"present","rt":1783.1000000015,"correct":false,"confidence":-1},{"trial_n":82,"min":89,"max":166,"target":"absent","response":"absent","rt":823.89999999851,"correct":true,"confidence":-1},{"trial_n":83,"min":89,"max":166,"target":"present","response":"absent","rt":836.70000000298,"correct":false,"confidence":-1},{"trial_n":84,"min":81,"max":174,"target":"absent","response":"present","rt":1145.8999999985,"correct":false,"confidence":-1},{"trial_n":85,"min":73,"max":182,"target":"absent","response":"present","rt":820.89999999851,"correct":false,"confidence":-1},{"trial_n":86,"min":65,"max":190,"target":"absent","response":"present","rt":690.20000000298,"correct":false,"confidence":-1},{"trial_n":87,"min":57,"max":198,"target":"absent","response":"absent","rt":1665.6000000015,"correct":true,"confidence":-1},{"trial_n":88,"min":57,"max":198,"target":"absent","response":"absent","rt":862,"correct":true,"confidence":-1},{"trial_n":89,"min":65,"max":190,"target":"present","response":"present","rt":1270.5,"correct":true,"confidence":-1},{"trial_n":90,"min":65,"max":190,"target":"present","response":"present","rt":1436.6000000015,"correct":true,"confidence":-1},{"trial_n":91,"min":69,"max":186,"target":"present","response":"present","rt":1145.1999999955,"correct":true,"confidence":5},{"trial_n":92,"min":69,"max":186,"target":"absent","response":"absent","rt":1018.1000000015,"correct":true,"confidence":1},{"trial_n":93,"min":73,"max":182,"target":"present","response":"present","rt":1356.8999999985,"correct":true,"confidence":5},{"trial_n":94,"min":73,"max":182,"target":"absent","response":"absent","rt":2120.8999999985,"correct":true,"confidence":4},{"trial_n":95,"min":77,"max":178,"target":"present","response":"present","rt":782.60000000149,"correct":true,"confidence":4},{"trial_n":96,"min":77,"max":178,"target":"absent","response":"absent","rt":768.39999999851,"correct":true,"confidence":4},{"trial_n":97,"min":81,"max":174,"target":"absent","response":"absent","rt":820.20000000298,"correct":true,"confidence":4},{"trial_n":98,"min":81,"max":174,"target":"absent","response":"absent","rt":2980.5,"correct":true,"confidence":1},{"trial_n":99,"min":85,"max":170,"target":"present","response":"present","rt":848,"correct":true,"confidence":4},{"trial_n":100,"min":85,"max":170,"target":"present","response":"absent","rt":746.19999999553,"correct":false,"confidence":1},{"trial_n":101,"min":83,"max":172,"target":"present","response":"present","rt":1200.400000006,"correct":true,"confidence":4},{"trial_n":102,"min":83,"max":172,"target":"present","response":"present","rt":868.29999999702,"correct":true,"confidence":4},{"trial_n":103,"min":85,"max":170,"target":"present","response":"present","rt":1169.299999997,"correct":true,"confidence":4},{"trial_n":104,"min":85,"max":170,"target":"present","response":"present","rt":705.20000000298,"correct":true,"confidence":4},{"trial_n":105,"min":87,"max":168,"target":"present","response":"present","rt":813.89999999851,"correct":true,"confidence":4},{"trial_n":106,"min":87,"max":168,"target":"absent","response":"absent","rt":1690.6000000015,"correct":true,"confidence":1},{"trial_n":107,"min":89,"max":166,"target":"absent","response":"absent","rt":1527.8999999985,"correct":true,"confidence":1},{"trial_n":108,"min":89,"max":166,"target":"absent","response":"present","rt":888.5,"correct":false,"confidence":3},{"trial_n":109,"min":87,"max":168,"target":"absent","response":"absent","rt":1826.200000003,"correct":true,"confidence":1},{"trial_n":110,"min":87,"max":168,"target":"present","response":"present","rt":821.60000000149,"correct":true,"confidence":2},{"trial_n":111,"min":88,"max":167,"target":"absent","response":"present","rt":1077,"correct":false,"confidence":1},{"trial_n":112,"min":87,"max":168,"target":"present","response":"present","rt":908.20000000298,"correct":true,"confidence":1},{"trial_n":113,"min":87,"max":168,"target":"present","response":"absent","rt":610.69999999553,"correct":false,"confidence":1},{"trial_n":114,"min":86,"max":169,"target":"present","response":"present","rt":930.09999999404,"correct":true,"confidence":3},{"trial_n":115,"min":86,"max":169,"target":"absent","response":"absent","rt":795.70000000298,"correct":true,"confidence":1},{"trial_n":116,"min":87,"max":168,"target":"present","response":"present","rt":751.20000000298,"correct":true,"confidence":2},{"trial_n":117,"min":87,"max":168,"target":"absent","response":"present","rt":704.59999999404,"correct":false,"confidence":2},{"trial_n":118,"min":86,"max":169,"target":"present","response":"present","rt":1234.099999994,"correct":true,"confidence":3},{"trial_n":119,"min":86,"max":169,"target":"absent","response":"present","rt":1643.700000003,"correct":false,"confidence":1},{"trial_n":120,"min":85,"max":170,"target":"present","response":"present","rt":716.80000000447,"correct":true,"confidence":3},{"trial_n":121,"min":85,"max":170,"target":"present","response":"present","rt":1133.3999999985,"correct":true,"confidence":4},{"trial_n":122,"min":86,"max":169,"target":"absent","response":"present","rt":972.10000000149,"correct":false,"confidence":1},{"trial_n":123,"min":85,"max":170,"target":"present","response":"absent","rt":1570.700000003,"correct":false,"confidence":1},{"trial_n":124,"min":84,"max":171,"target":"present","response":"present","rt":1187.5,"correct":true,"confidence":3},{"trial_n":125,"min":84,"max":171,"target":"present","response":"absent","rt":1363.299999997,"correct":false,"confidence":2},{"trial_n":126,"min":83,"max":172,"target":"absent","response":"absent","rt":1331.599999994,"correct":true,"confidence":4},{"trial_n":127,"min":83,"max":172,"target":"absent","response":"absent","rt":875.70000000298,"correct":true,"confidence":4},{"trial_n":128,"min":84,"max":171,"target":"absent","response":"present","rt":872.30000000447,"correct":false,"confidence":1},{"trial_n":129,"min":83,"max":172,"target":"absent","response":"absent","rt":1062.3000000045,"correct":true,"confidence":3},{"trial_n":130,"min":83,"max":172,"target":"present","response":"present","rt":1033.1000000015,"correct":true,"confidence":3},{"trial_n":131,"min":84,"max":171,"target":"present","response":"present","rt":723.29999999702,"correct":true,"confidence":5},{"trial_n":132,"min":84,"max":171,"target":"present","response":"present","rt":981.70000000298,"correct":true,"confidence":3},{"trial_n":133,"min":85,"max":170,"target":"absent","response":"present","rt":1083.6000000015,"correct":false,"confidence":2},{"trial_n":134,"min":84,"max":171,"target":"present","response":"present","rt":792.60000000149,"correct":true,"confidence":3},{"trial_n":135,"min":84,"max":171,"target":"present","response":"present","rt":830.19999999553,"correct":true,"confidence":5},{"trial_n":136,"min":85,"max":170,"target":"absent","response":"absent","rt":1153.1000000015,"correct":true,"confidence":1},{"trial_n":137,"min":85,"max":170,"target":"absent","response":"absent","rt":919,"correct":true,"confidence":1},{"trial_n":138,"min":86,"max":169,"target":"absent","response":"present","rt":855.69999999553,"correct":false,"confidence":3},{"trial_n":139,"min":85,"max":170,"target":"present","response":"present","rt":1379.1000000015,"correct":true,"confidence":2},{"trial_n":140,"min":85,"max":170,"target":"absent","response":"present","rt":724.90000000596,"correct":false,"confidence":1}]