[{"trial_n":1,"n_dots":4.25,"target":"left","response":"left","rt":2955.8000000045,"correct":true,"confidence":-1},{"trial_n":2,"n_dots":4.25,"target":"left","response":"left","rt":1227.3000000045,"correct":true,"confidence":-1},{"trial_n":3,"n_dots":3.85,"target":"right","response":"left","rt":939.39999999851,"correct":false,"confidence":-1},{"trial_n":4,"n_dots":4.25,"target":"left","response":"left","rt":309.10000000149,"correct":true,"confidence":-1},{"trial_n":5,"n_dots":4.25,"target":"right","response":"right","rt":96.89999999851,"correct":true,"confidence":-1},{"trial_n":6,"n_dots":3.85,"target":"left","response":"left","rt":51.70000000298,"correct":true,"confidence":-1},{"trial_n":7,"n_dots":3.85,"target":"left","response":"right","rt":117.80000000447,"correct":false,"confidence":-1},{"trial_n":8,"n_dots":4.05,"target":"right","response":"left","rt":1098.200000003,"correct":false,"confidence":-1},{"trial_n":9,"n_dots":4.25,"target":"right","response":"right","rt":69,"correct":true,"confidence":-1},{"trial_n":10,"n_dots":4.25,"target":"right","response":"right","rt":682.30000000447,"correct":true,"confidence":-1},{"trial_n":11,"n_dots":4.05,"target":"left","response":"left","rt":407.29999999702,"correct":true,"confidence":-1},{"trial_n":12,"n_dots":4.05,"target":"right","response":"left","rt":310.70000000298,"correct":false,"confidence":-1},{"trial_n":13,"n_dots":4.15,"target":"right","response":"right","rt":297.10000000149,"correct":true,"confidence":-1},{"trial_n":14,"n_dots":4.15,"target":"left","response":"left","rt":286,"correct":true,"confidence":-1},{"trial_n":15,"n_dots":4.05,"target":"left","response":"left","rt":261.10000000149,"correct":true,"confidence":-1},{"trial_n":16,"n_dots":4.05,"target":"right","response":"right","rt":281.70000000298,"correct":true,"confidence":-1},{"trial_n":17,"n_dots":3.95,"target":"left","response":"left","rt":311.5,"correct":true,"confidence":-1},{"trial_n":18,"n_dots":3.95,"target":"left","response":"left","rt":297.60000000149,"correct":true,"confidence":-1},{"trial_n":19,"n_dots":3.85,"target":"left","response":"left","rt":205.79999999702,"correct":true,"confidence":-1},{"trial_n":20,"n_dots":3.85,"target":"left","response":"left","rt":198.79999999702,"correct":true,"confidence":-1},{"trial_n":21,"n_dots":3.75,"target":"left","response":"left","rt":627.59999999404,"correct":true,"confidence":5},{"trial_n":22,"n_dots":3.75,"target":"right","response":"right","rt":479.40000000596,"correct":true,"confidence":5},{"trial_n":23,"n_dots":3.65,"target":"right","response":"right","rt":328.5,"correct":true,"confidence":5},{"trial_n":24,"n_dots":3.65,"target":"left","response":"left","rt":381.60000000149,"correct":true,"confidence":3},{"trial_n":25,"n_dots":3.55,"target":"left","response":"right","rt":430.40000000596,"correct":false,"confidence":3},{"trial_n":26,"n_dots":3.65,"target":"left","response":"left","rt":600.90000000596,"correct":true,"confidence":2},{"trial_n":27,"n_dots":3.65,"target":"left","response":"right","rt":733.30000000447,"correct":false,"confidence":1},{"trial_n":28,"n_dots":3.75,"target":"right","response":"right","rt":358.70000000298,"correct":true,"confidence":3},{"trial_n":29,"n_dots":3.75,"target":"left","response":"left","rt":339.39999999851,"correct":true,"confidence":3},{"trial_n":30,"n_dots":3.65,"target":"right","response":"right","rt":340.60000000149,"correct":true,"confidence":2},{"trial_n":31,"n_dots":3.65,"target":"left","response":"left","rt":1031.8000000045,"correct":true,"confidence":1},{"trial_n":32,"n_dots":3.55,"target":"left","response":"left","rt":320.60000000149,"correct":true,"confidence":2},{"trial_n":33,"n_dots":3.55,"target":"right","response":"right","rt":410.20000000298,"correct":true,"confidence":2},{"trial_n":34,"n_dots":3.45,"target":"left","response":"left","rt":978.89999999851,"correct":true,"confidence":2},{"trial_n":35,"n_dots":3.45,"target":"right","response":"right","rt":362.79999999702,"correct":true,"confidence":3},{"trial_n":36,"n_dots":3.35,"target":"right","response":"right","rt":295.29999999702,"correct":true,"confidence":2},{"trial_n":37,"n_dots":3.35,"target":"right","response":"right","rt":182,"correct":true,"confidence":1},{"trial_n":38,"n_dots":3.25,"target":"right","response":"left","rt":318.89999999851,"correct":false,"confidence":1},{"trial_n":39,"n_dots":3.35,"target":"left","response":"left","rt":281.5,"correct":true,"confidence":1},{"trial_n":40,"n_dots":3.35,"target":"left","response":"left","rt":300.59999999404,"correct":true,"confidence":1},{"trial_n":41,"n_dots":3.25,"target":"left","response":"left","rt":392.89999999851,"correct":true,"confidence":1},{"trial_n":42,"n_dots":3.25,"target":"left","response":"right","rt":878.20000000298,"correct":false,"confidence":1},{"trial_n":43,"n_dots":3.35,"target":"right","response":"right","rt":600.39999999851,"correct":true,"confidence":1},{"trial_n":44,"n_dots":3.35,"target":"right","response":"left","rt":535.39999999851,"correct":false,"confidence":1},{"trial_n":45,"n_dots":3.45,"target":"right","response":"right","rt":510.69999999553,"correct":true,"confidence":2},{"trial_n":46,"n_dots":3.45,"target":"right","response":"right","rt":399.5,"correct":true,"confidence":2},{"trial_n":47,"n_dots":3.35,"target":"left","response":"left","rt":988.19999999553,"correct":true,"confidence":1},{"trial_n":48,"n_dots":3.35,"target":"left","response":"right","rt":813.69999999553,"correct":false,"confidence":1},{"trial_n":49,"n_dots":3.45,"target":"left","response":"left","rt":699.69999999553,"correct":true,"confidence":1},{"trial_n":50,"n_dots":3.45,"target":"right","response":"right","rt":497.59999999404,"correct":true,"confidence":1},{"trial_n":51,"n_dots":3.35,"target":"right","response":"right","rt":425.60000000149,"correct":true,"confidence":3},{"trial_n":52,"n_dots":3.35,"target":"right","response":"left","rt":841.5,"correct":false,"confidence":1},{"trial_n":53,"n_dots":3.45,"target":"left","response":"left","rt":587.80000000447,"correct":true,"confidence":1},{"trial_n":54,"n_dots":3.45,"target":"left","response":"left","rt":341.60000000149,"correct":true,"confidence":4},{"trial_n":55,"n_dots":3.35,"target":"right","response":"right","rt":668.40000000596,"correct":true,"confidence":2},{"trial_n":56,"n_dots":3.35,"target":"left","response":"left","rt":447,"correct":true,"confidence":3},{"trial_n":57,"n_dots":3.25,"target":"right","response":"left","rt":394.80000000447,"correct":false,"confidence":2},{"trial_n":58,"n_dots":3.35,"target":"right","response":"right","rt":530.89999999851,"correct":true,"confidence":1},{"trial_n":59,"n_dots":3.35,"target":"left","response":"left","rt":363.89999999851,"correct":true,"confidence":2},{"trial_n":60,"n_dots":3.25,"target":"left","response":"left","rt":753.80000000447,"correct":true,"confidence":1},{"trial_n":61,"n_dots":3.25,"target":"right","response":"right","rt":437.39999999851,"correct":true,"confidence":2},{"trial_n":62,"n_dots":3.15,"target":"right","response":"right","rt":962.70000000298,"correct":true,"confidence":3},{"trial_n":63,"n_dots":3.15,"target":"left","response":"left","rt":396.60000000149,"correct":true,"confidence":3},{"trial_n":64,"n_dots":3.05,"target":"left","response":"left","rt":370.39999999851,"correct":true,"confidence":3},{"trial_n":65,"n_dots":3.05,"target":"left","response":"right","rt":628.29999999702,"correct":false,"confidence":3},{"trial_n":66,"n_dots":3.15,"target":"right","response":"left","rt":500.20000000298,"correct":false,"confidence":1},{"trial_n":67,"n_dots":3.25,"target":"left","response":"left","rt":358.29999999702,"correct":true,"confidence":2},{"trial_n":68,"n_dots":3.25,"target":"right","response":"left","rt":770.39999999851,"correct":false,"confidence":1},{"trial_n":69,"n_dots":3.35,"target":"left","response":"left","rt":367.60000000149,"correct":true,"confidence":3},{"trial_n":70,"n_dots":3.35,"target":"right","response":"left","rt":379.5,"correct":false,"confidence":1},{"trial_n":71,"n_dots":3.45,"target":"left","response":"left","rt":391.20000000298,"correct":true,"confidence":2},{"trial_n":72,"n_dots":3.45,"target":"left","response":"left","rt":486.10000000149,"correct":true,"confidence":3},{"trial_n":73,"n_dots":3.35,"target":"right","response":"right","rt":486.69999999553,"correct":true,"confidence":2},{"trial_n":74,"n_dots":3.35,"target":"left","response":"left","rt":483.29999999702,"correct":true,"confidence":2},{"trial_n":75,"n_dots":3.25,"target":"left","response":"left","rt":400.70000000298,"correct":true,"confidence":1},{"trial_n":76,"n_dots":3.25,"target":"left","response":"left","rt":341.29999999702,"correct":true,"confidence":1},{"trial_n":77,"n_dots":3.15,"target":"right","response":"left","rt":611.80000000447,"correct":false,"confidence":1},{"trial_n":78,"n_dots":3.25,"target":"right","response":"right","rt":1101.1000000015,"correct":true,"confidence":2},{"trial_n":79,"n_dots":3.25,"target":"left","response":"left","rt":440.79999999702,"correct":true,"confidence":1},{"trial_n":80,"n_dots":3.15,"target":"left","response":"left","rt":674.69999999553,"correct":true,"confidence":1},{"trial_n":81,"n_dots":3.15,"target":"right","response":"right","rt":2163.099999994,"correct":true,"confidence":1},{"trial_n":82,"n_dots":3.05,"target":"right","response":"right","rt":551.69999999553,"correct":true,"confidence":1},{"trial_n":83,"n_dots":3.05,"target":"right","response":"right","rt":316.09999999404,"correct":true,"confidence":1},{"trial_n":84,"n_dots":2.95,"target":"right","response":"left","rt":448.19999999553,"correct":false,"confidence":1},{"trial_n":85,"n_dots":3.05,"target":"right","response":"left","rt":521.40000000596,"correct":false,"confidence":2},{"trial_n":86,"n_dots":3.15,"target":"left","response":"left","rt":679.19999999553,"correct":true,"confidence":1},{"trial_n":87,"n_dots":3.15,"target":"left","response":"right","rt":368.60000000149,"correct":false,"confidence":2},{"trial_n":88,"n_dots":3.25,"target":"right","response":"right","rt":737.40000000596,"correct":true,"confidence":3},{"trial_n":89,"n_dots":3.25,"target":"left","response":"right","rt":589.70000000298,"correct":false,"confidence":2},{"trial_n":90,"n_dots":3.35,"target":"right","response":"right","rt":412.39999999851,"correct":true,"confidence":3},{"trial_n":91,"n_dots":3.35,"target":"left","response":"left","rt":488.10000000149,"correct":true,"confidence":4},{"trial_n":92,"n_dots":3.25,"target":"left","response":"left","rt":392.20000000298,"correct":true,"confidence":4},{"trial_n":93,"n_dots":3.25,"target":"left","response":"right","rt":374.80000000447,"correct":false,"confidence":3},{"trial_n":94,"n_dots":3.35,"target":"right","response":"left","rt":363.89999999851,"correct":false,"confidence":1},{"trial_n":95,"n_dots":3.45,"target":"left","response":"left","rt":200.5,"correct":true,"confidence":1},{"trial_n":96,"n_dots":3.45,"target":"right","response":"left","rt":421.30000000447,"correct":false,"confidence":1},{"trial_n":97,"n_dots":3.55,"target":"left","response":"right","rt":581.29999999702,"correct":false,"confidence":2},{"trial_n":98,"n_dots":3.65,"target":"right","response":"right","rt":412.30000000447,"correct":true,"confidence":3},{"trial_n":99,"n_dots":3.65,"target":"right","response":"right","rt":1400.8999999985,"correct":true,"confidence":2},{"trial_n":100,"n_dots":3.55,"target":"right","response":"right","rt":349.5,"correct":true,"confidence":3},{"trial_n":101,"n_dots":3.55,"target":"left","response":"right","rt":416.39999999851,"correct":false,"confidence":3},{"trial_n":102,"n_dots":3.65,"target":"right","response":"right","rt":574.79999999702,"correct":true,"confidence":2},{"trial_n":103,"n_dots":3.65,"target":"right","response":"right","rt":549.80000000447,"correct":true,"confidence":3},{"trial_n":104,"n_dots":3.55,"target":"left","response":"left","rt":373,"correct":true,"confidence":4},{"trial_n":105,"n_dots":3.55,"target":"left","response":"right","rt":722.70000000298,"correct":false,"confidence":1},{"trial_n":106,"n_dots":3.65,"target":"right","response":"right","rt":389.30000000447,"correct":true,"confidence":1},{"trial_n":107,"n_dots":3.65,"target":"left","response":"left","rt":68.79999999702,"correct":true,"confidence":1},{"trial_n":108,"n_dots":3.55,"target":"left","response":"left","rt":87.89999999851,"correct":true,"confidence":1},{"trial_n":109,"n_dots":3.55,"target":"right","response":"left","rt":106.89999999851,"correct":false,"confidence":5},{"trial_n":110,"n_dots":3.65,"target":"left","response":"left","rt":1338.6000000015,"correct":true,"confidence":3},{"trial_n":111,"n_dots":3.65,"target":"right","response":"right","rt":388.19999999553,"correct":true,"confidence":5},{"trial_n":112,"n_dots":3.55,"target":"right","response":"right","rt":418.29999999702,"correct":true,"confidence":5},{"trial_n":113,"n_dots":3.55,"target":"right","response":"right","rt":523,"correct":true,"confidence":4},{"trial_n":114,"n_dots":3.45,"target":"right","response":"left","rt":738.89999999851,"correct":false,"confidence":4},{"trial_n":115,"n_dots":3.55,"target":"left","response":"right","rt":698.69999999553,"correct":false,"confidence":3},{"trial_n":116,"n_dots":3.65,"target":"right","response":"right","rt":210.90000000596,"correct":true,"confidence":4},{"trial_n":117,"n_dots":3.65,"target":"right","response":"right","rt":42,"correct":true,"confidence":5},{"trial_n":118,"n_dots":3.55,"target":"right","response":"right","rt":77.5,"correct":true,"confidence":5},{"trial_n":119,"n_dots":3.55,"target":"right","response":"right","rt":880.10000000149,"correct":true,"confidence":1},{"trial_n":120,"n_dots":3.45,"target":"right","response":"right","rt":493.29999999702,"correct":true,"confidence":1}]