[{"trial_n":1,"span":8,"encoder":"79436238","distractor":"78436238","target":"present","response":"present","rt":"3137.099999994","correct":true,"confidence":-1},{"trial_n":2,"span":8,"encoder":"37768517","distractor":"37268517","target":"present","response":"present","rt":"1371.2000000179","correct":true,"confidence":-1},{"trial_n":3,"span":10,"encoder":"3926333187","distractor":"3926333185","target":"absent","response":"absent","rt":"1898.599999994","correct":true,"confidence":-1},{"trial_n":4,"span":10,"encoder":"4500527324","distractor":"4700527324","target":"absent","response":"present","rt":"1493.2999999821","correct":false,"confidence":-1},{"trial_n":5,"span":8,"encoder":"03291101","distractor":"03293101","target":"present","response":"present","rt":"1604.599999994","correct":true,"confidence":-1},{"trial_n":6,"span":8,"encoder":"92990255","distractor":"92910255","target":"absent","response":"absent","rt":"1901.7000000179","correct":true,"confidence":-1},{"trial_n":7,"span":10,"encoder":"7227922198","distractor":"7227022198","target":"absent","response":"present","rt":"2610.900000006","correct":false,"confidence":-1},{"trial_n":8,"span":8,"encoder":"37757562","distractor":"37754562","target":"absent","response":"present","rt":"1004.1999999881","correct":false,"confidence":-1},{"trial_n":9,"span":6,"encoder":"641905","distractor":"641105","target":"present","response":"present","rt":"1355.5","correct":true,"confidence":-1},{"trial_n":10,"span":6,"encoder":"978043","distractor":"958043","target":"absent","response":"absent","rt":"1373.8000000119","correct":true,"confidence":-1},{"trial_n":11,"span":8,"encoder":"56605269","distractor":"54605269","target":"present","response":"present","rt":"1387.6000000238","correct":true,"confidence":-1},{"trial_n":12,"span":8,"encoder":"23340316","distractor":"23340306","target":"present","response":"present","rt":"1007.5","correct":true,"confidence":-1},{"trial_n":13,"span":9,"encoder":"662330095","distractor":"662530095","target":"present","response":"present","rt":"1093.6999999881","correct":true,"confidence":-1},{"trial_n":14,"span":9,"encoder":"297545483","distractor":"297545883","target":"absent","response":"absent","rt":"1391.599999994","correct":true,"confidence":-1},{"trial_n":15,"span":10,"encoder":"7225730757","distractor":"7228730757","target":"present","response":"absent","rt":"1125.7999999821","correct":false,"confidence":-1},{"trial_n":16,"span":9,"encoder":"030773640","distractor":"030773648","target":"present","response":"present","rt":"1172.5","correct":true,"confidence":-1},{"trial_n":17,"span":9,"encoder":"742104427","distractor":"742104425","target":"absent","response":"absent","rt":"1744.900000006","correct":true,"confidence":-1},{"trial_n":18,"span":10,"encoder":"1246720722","distractor":"1206720722","target":"present","response":"present","rt":"827.80000001192","correct":true,"confidence":-1},{"trial_n":19,"span":10,"encoder":"2122534021","distractor":"2422534021","target":"absent","response":"present","rt":"1043","correct":false,"confidence":-1},{"trial_n":20,"span":9,"encoder":"884943891","distractor":"880943891","target":"present","response":"present","rt":"809.29999998212","correct":true,"confidence":-1},{"trial_n":21,"span":9,"encoder":"506261347","distractor":"506201347","target":"absent","response":"present","rt":"1366.7000000179","correct":false,"confidence":4},{"trial_n":22,"span":8,"encoder":"82094842","distractor":"82094942","target":"absent","response":"present","rt":"2603","correct":false,"confidence":3},{"trial_n":23,"span":7,"encoder":"1880259","distractor":"1810259","target":"present","response":"present","rt":"2067.2999999821","correct":true,"confidence":5},{"trial_n":24,"span":7,"encoder":"5552488","distractor":"5553488","target":"absent","response":"absent","rt":"1925.6999999881","correct":true,"confidence":5},{"trial_n":25,"span":8,"encoder":"95707544","distractor":"95704544","target":"present","response":"present","rt":"3813.3000000119","correct":true,"confidence":3},{"trial_n":26,"span":8,"encoder":"63927518","distractor":"63957518","target":"present","response":"absent","rt":"12200.899999976","correct":false,"confidence":5},{"trial_n":27,"span":7,"encoder":"1218499","distractor":"1218199","target":"absent","response":"absent","rt":"2637.900000006","correct":true,"confidence":4},{"trial_n":28,"span":7,"encoder":"9047854","distractor":"9047874","target":"absent","response":"absent","rt":"3230.400000006","correct":true,"confidence":5},{"trial_n":29,"span":8,"encoder":"64683919","distractor":"64683914","target":"present","response":"present","rt":"3202","correct":true,"confidence":3},{"trial_n":30,"span":8,"encoder":"98472350","distractor":"98172350","target":"absent","response":"absent","rt":"2472","correct":true,"confidence":4},{"trial_n":31,"span":9,"encoder":"466757362","distractor":"466757369","target":"absent","response":"absent","rt":"3517.6000000238","correct":true,"confidence":5},{"trial_n":32,"span":9,"encoder":"465923663","distractor":"465923693","target":"absent","response":"absent","rt":"3993.1999999881","correct":true,"confidence":3},{"trial_n":33,"span":10,"encoder":"6104140001","distractor":"6104640001","target":"absent","response":"absent","rt":"2460.400000006","correct":true,"confidence":3},{"trial_n":34,"span":10,"encoder":"0314504137","distractor":"0314500137","target":"absent","response":"present","rt":"2611.1999999881","correct":false,"confidence":3},{"trial_n":35,"span":9,"encoder":"866297883","distractor":"866297853","target":"absent","response":"absent","rt":"2242","correct":true,"confidence":5},{"trial_n":36,"span":9,"encoder":"617959438","distractor":"617979438","target":"absent","response":"absent","rt":"4120.3000000119","correct":true,"confidence":4},{"trial_n":37,"span":10,"encoder":"6038897408","distractor":"6338897408","target":"present","response":"present","rt":"2936.7999999821","correct":true,"confidence":5},{"trial_n":38,"span":10,"encoder":"1210098845","distractor":"1210098841","target":"present","response":"absent","rt":"3546.2999999821","correct":false,"confidence":3},{"trial_n":39,"span":9,"encoder":"252303912","distractor":"252303412","target":"present","response":"present","rt":"2534.6999999881","correct":true,"confidence":5},{"trial_n":40,"span":9,"encoder":"931555517","distractor":"931554517","target":"present","response":"present","rt":"1740.099999994","correct":true,"confidence":3},{"trial_n":41,"span":10,"encoder":"1721439395","distractor":"1721439375","target":"present","response":"present","rt":"1863.5","correct":true,"confidence":5},{"trial_n":42,"span":10,"encoder":"8329599568","distractor":"8329599368","target":"present","response":"present","rt":"2842.8999999762","correct":true,"confidence":3},{"trial_n":43,"span":11,"encoder":"94444521723","distractor":"54444521723","target":"absent","response":"absent","rt":"2072.3999999762","correct":true,"confidence":4},{"trial_n":44,"span":11,"encoder":"44570211085","distractor":"44570281085","target":"present","response":"absent","rt":"4042.400000006","correct":false,"confidence":2},{"trial_n":45,"span":10,"encoder":"3931430759","distractor":"3931438759","target":"present","response":"absent","rt":"1724.1999999881","correct":false,"confidence":5},{"trial_n":46,"span":9,"encoder":"873563535","distractor":"873563539","target":"present","response":"present","rt":"1456.900000006","correct":true,"confidence":3},{"trial_n":47,"span":9,"encoder":"884172016","distractor":"884172012","target":"present","response":"present","rt":"2961","correct":true,"confidence":4},{"trial_n":48,"span":10,"encoder":"6283675071","distractor":"6283675031","target":"present","response":"present","rt":"2301.7999999821","correct":true,"confidence":4},{"trial_n":49,"span":10,"encoder":"6022432512","distractor":"6022432517","target":"present","response":"present","rt":"1192.400000006","correct":true,"confidence":2},{"trial_n":50,"span":11,"encoder":"81137565030","distractor":"81127565030","target":"absent","response":"present","rt":"1927.900000006","correct":false,"confidence":4},{"trial_n":51,"span":10,"encoder":"0863316540","distractor":"0863316940","target":"absent","response":"present","rt":"1508.3000000119","correct":false,"confidence":3},{"trial_n":52,"span":9,"encoder":"802591223","distractor":"802591222","target":"absent","response":"absent","rt":"2616.400000006","correct":true,"confidence":3},{"trial_n":53,"span":9,"encoder":"301768869","distractor":"301768839","target":"absent","response":"present","rt":"1490.900000006","correct":false,"confidence":5},{"trial_n":54,"span":8,"encoder":"66685428","distractor":"56685428","target":"absent","response":"present","rt":"2775.8000000119","correct":false,"confidence":4},{"trial_n":55,"span":7,"encoder":"9992055","distractor":"9972055","target":"present","response":"present","rt":"1597.900000006","correct":true,"confidence":5},{"trial_n":56,"span":7,"encoder":"5557424","distractor":"5557434","target":"present","response":"present","rt":"1511.7000000179","correct":true,"confidence":5},{"trial_n":57,"span":8,"encoder":"22439212","distractor":"24439212","target":"present","response":"absent","rt":"3466.400000006","correct":false,"confidence":4},{"trial_n":58,"span":7,"encoder":"5954716","distractor":"0954716","target":"present","response":"present","rt":"1901.6999999881","correct":true,"confidence":5},{"trial_n":59,"span":7,"encoder":"1173447","distractor":"1173427","target":"absent","response":"absent","rt":"2921","correct":true,"confidence":2},{"trial_n":60,"span":8,"encoder":"84616501","distractor":"04616501","target":"absent","response":"present","rt":"1284","correct":false,"confidence":3},{"trial_n":61,"span":7,"encoder":"2462861","distractor":"2762861","target":"absent","response":"absent","rt":"1594.599999994","correct":true,"confidence":5},{"trial_n":62,"span":7,"encoder":"1442249","distractor":"3442249","target":"absent","response":"absent","rt":"2605.2999999821","correct":true,"confidence":5},{"trial_n":63,"span":8,"encoder":"23277984","distractor":"23777984","target":"present","response":"present","rt":"1868.400000006","correct":true,"confidence":3},{"trial_n":64,"span":8,"encoder":"56377862","distractor":"56377882","target":"present","response":"present","rt":"1775.599999994","correct":true,"confidence":4},{"trial_n":65,"span":9,"encoder":"804684815","distractor":"804684810","target":"present","response":"present","rt":"1750.5","correct":true,"confidence":3},{"trial_n":66,"span":9,"encoder":"180417099","distractor":"180917099","target":"present","response":"present","rt":"1013.6999999881","correct":true,"confidence":4},{"trial_n":67,"span":10,"encoder":"4019226971","distractor":"4019126971","target":"absent","response":"present","rt":"3011.5","correct":false,"confidence":3},{"trial_n":68,"span":9,"encoder":"584411414","distractor":"284411414","target":"absent","response":"present","rt":"1660.3999999762","correct":false,"confidence":2},{"trial_n":69,"span":8,"encoder":"10827643","distractor":"10427643","target":"absent","response":"absent","rt":"2531.7000000179","correct":true,"confidence":4},{"trial_n":70,"span":8,"encoder":"22228240","distractor":"22228230","target":"present","response":"present","rt":"1805","correct":true,"confidence":5},{"trial_n":71,"span":8,"encoder":"35364888","distractor":"35361888","target":"present","response":"absent","rt":"2224.2000000179","correct":false,"confidence":-1},{"trial_n":72,"span":7,"encoder":"3730536","distractor":"3730537","target":"present","response":"present","rt":"1260.5","correct":true,"confidence":-1},{"trial_n":73,"span":7,"encoder":"3686253","distractor":"3686251","target":"absent","response":"absent","rt":"1033.400000006","correct":true,"confidence":-1},{"trial_n":74,"span":8,"encoder":"36338848","distractor":"36338048","target":"absent","response":"absent","rt":"1665.5","correct":true,"confidence":-1},{"trial_n":75,"span":8,"encoder":"91986959","distractor":"91086959","target":"present","response":"absent","rt":"4162.5","correct":false,"confidence":-1},{"trial_n":76,"span":7,"encoder":"6717835","distractor":"6717235","target":"absent","response":"present","rt":"1435.400000006","correct":false,"confidence":-1},{"trial_n":77,"span":6,"encoder":"406712","distractor":"706712","target":"present","response":"present","rt":"1905.3000000119","correct":true,"confidence":-1},{"trial_n":78,"span":6,"encoder":"043609","distractor":"048609","target":"absent","response":"present","rt":"1587.900000006","correct":false,"confidence":-1},{"trial_n":79,"span":5,"encoder":"73154","distractor":"75154","target":"absent","response":"absent","rt":"2036.1999999881","correct":true,"confidence":-1},{"trial_n":80,"span":5,"encoder":"60303","distractor":"60803","target":"absent","response":"absent","rt":"936.5","correct":true,"confidence":-1},{"trial_n":81,"span":6,"encoder":"313016","distractor":"313017","target":"present","response":"present","rt":"1074.400000006","correct":true,"confidence":-1},{"trial_n":82,"span":6,"encoder":"903177","distractor":"901177","target":"absent","response":"absent","rt":"2247.400000006","correct":true,"confidence":-1},{"trial_n":83,"span":7,"encoder":"5370101","distractor":"5370151","target":"present","response":"present","rt":"1455.3999999762","correct":true,"confidence":-1},{"trial_n":84,"span":7,"encoder":"6542317","distractor":"6542517","target":"absent","response":"present","rt":"763.69999998808","correct":false,"confidence":-1},{"trial_n":85,"span":6,"encoder":"800348","distractor":"830348","target":"absent","response":"absent","rt":"1632","correct":true,"confidence":-1},{"trial_n":86,"span":6,"encoder":"816316","distractor":"811316","target":"present","response":"absent","rt":"3127.2999999821","correct":false,"confidence":-1},{"trial_n":87,"span":5,"encoder":"32867","distractor":"32866","target":"absent","response":"absent","rt":"1679.2000000179","correct":true,"confidence":-1},{"trial_n":88,"span":5,"encoder":"99068","distractor":"92068","target":"present","response":"present","rt":"2018.2999999821","correct":true,"confidence":-1},{"trial_n":89,"span":6,"encoder":"686546","distractor":"683546","target":"absent","response":"present","rt":"1054.099999994","correct":false,"confidence":-1},{"trial_n":90,"span":5,"encoder":"36563","distractor":"36263","target":"present","response":"absent","rt":"522.80000001192","correct":false,"confidence":-1},{"trial_n":91,"span":4,"encoder":"7449","distractor":"7444","target":"absent","response":"absent","rt":"1222.599999994","correct":true,"confidence":5},{"trial_n":92,"span":4,"encoder":"5552","distractor":"5556","target":"present","response":"present","rt":"1198.2000000179","correct":true,"confidence":5},{"trial_n":93,"span":5,"encoder":"20795","distractor":"24795","target":"absent","response":"absent","rt":"1101.1999999881","correct":true,"confidence":5},{"trial_n":94,"span":5,"encoder":"58679","distractor":"53679","target":"absent","response":"absent","rt":"2710.7999999821","correct":true,"confidence":4},{"trial_n":95,"span":6,"encoder":"865597","distractor":"465597","target":"present","response":"present","rt":"6018.5","correct":true,"confidence":5},{"trial_n":96,"span":6,"encoder":"179671","distractor":"979671","target":"absent","response":"absent","rt":"1150.1000000238","correct":true,"confidence":5},{"trial_n":97,"span":7,"encoder":"6153432","distractor":"6156432","target":"absent","response":"absent","rt":"3214.8000000119","correct":true,"confidence":3},{"trial_n":98,"span":7,"encoder":"1990653","distractor":"6990653","target":"present","response":"absent","rt":"2510.1999999881","correct":false,"confidence":2},{"trial_n":99,"span":6,"encoder":"163906","distractor":"168906","target":"present","response":"present","rt":"2016.6000000238","correct":true,"confidence":4},{"trial_n":100,"span":6,"encoder":"425256","distractor":"425156","target":"present","response":"present","rt":"2102.1999999881","correct":true,"confidence":5},{"trial_n":101,"span":7,"encoder":"9315977","distractor":"1315977","target":"present","response":"present","rt":"2800","correct":true,"confidence":3},{"trial_n":102,"span":7,"encoder":"6578588","distractor":"0578588","target":"present","response":"absent","rt":"2014.099999994","correct":false,"confidence":4},{"trial_n":103,"span":6,"encoder":"734581","distractor":"744581","target":"absent","response":"absent","rt":"1274.8000000119","correct":true,"confidence":5},{"trial_n":104,"span":6,"encoder":"224342","distractor":"224352","target":"absent","response":"absent","rt":"2628.1999999881","correct":true,"confidence":5},{"trial_n":105,"span":7,"encoder":"7670807","distractor":"9670807","target":"present","response":"present","rt":"2513.7999999821","correct":true,"confidence":5},{"trial_n":106,"span":7,"encoder":"6144355","distractor":"6644355","target":"absent","response":"present","rt":"3103.900000006","correct":false,"confidence":5},{"trial_n":107,"span":6,"encoder":"088411","distractor":"087411","target":"present","response":"present","rt":"2600.400000006","correct":true,"confidence":5},{"trial_n":108,"span":6,"encoder":"147808","distractor":"647808","target":"present","response":"present","rt":"1496.5","correct":true,"confidence":5},{"trial_n":109,"span":7,"encoder":"8898113","distractor":"8868113","target":"present","response":"present","rt":"1894.5","correct":true,"confidence":5},{"trial_n":110,"span":7,"encoder":"0272487","distractor":"0272587","target":"absent","response":"absent","rt":"1228.6999999881","correct":true,"confidence":1},{"trial_n":111,"span":8,"encoder":"45071486","distractor":"45071406","target":"absent","response":"absent","rt":"1614.7999999821","correct":true,"confidence":5},{"trial_n":112,"span":8,"encoder":"63300381","distractor":"63320381","target":"present","response":"present","rt":"1790.599999994","correct":true,"confidence":1},{"trial_n":113,"span":9,"encoder":"718079244","distractor":"778079244","target":"present","response":"present","rt":"4940.8999999762","correct":true,"confidence":3},{"trial_n":114,"span":9,"encoder":"006120228","distractor":"606120228","target":"absent","response":"absent","rt":"4970.2999999821","correct":true,"confidence":5},{"trial_n":115,"span":10,"encoder":"0302773882","distractor":"0309773882","target":"present","response":"present","rt":"5723","correct":true,"confidence":5},{"trial_n":116,"span":10,"encoder":"0403430601","distractor":"0403430801","target":"absent","response":"absent","rt":"5025","correct":true,"confidence":1},{"trial_n":117,"span":11,"encoder":"48445496544","distractor":"47445496544","target":"present","response":"present","rt":"1969.8000000119","correct":true,"confidence":5},{"trial_n":118,"span":11,"encoder":"15461407924","distractor":"15461307924","target":"absent","response":"present","rt":"1335","correct":false,"confidence":3},{"trial_n":119,"span":10,"encoder":"3159580822","distractor":"3159580820","target":"present","response":"present","rt":"5231.900000006","correct":true,"confidence":4},{"trial_n":120,"span":10,"encoder":"9164330896","distractor":"9164330196","target":"absent","response":"present","rt":"2702.400000006","correct":false,"confidence":3},{"trial_n":121,"span":9,"encoder":"396533509","distractor":"366533509","target":"present","response":"absent","rt":"3953.3000000119","correct":false,"confidence":4},{"trial_n":122,"span":8,"encoder":"56990764","distractor":"51990764","target":"absent","response":"absent","rt":"3319.5","correct":true,"confidence":2},{"trial_n":123,"span":8,"encoder":"43191156","distractor":"43121156","target":"present","response":"absent","rt":"2533.099999994","correct":false,"confidence":3},{"trial_n":124,"span":7,"encoder":"5206692","distractor":"5806692","target":"absent","response":"present","rt":"1007.2000000179","correct":false,"confidence":4},{"trial_n":125,"span":6,"encoder":"486920","distractor":"486926","target":"present","response":"present","rt":"1655.7000000179","correct":true,"confidence":5},{"trial_n":126,"span":6,"encoder":"792189","distractor":"782189","target":"absent","response":"present","rt":"3068.400000006","correct":false,"confidence":4},{"trial_n":127,"span":5,"encoder":"77656","distractor":"47656","target":"present","response":"present","rt":"1102.3000000119","correct":true,"confidence":5},{"trial_n":128,"span":5,"encoder":"17002","distractor":"17402","target":"absent","response":"present","rt":"1442.900000006","correct":false,"confidence":3},{"trial_n":129,"span":4,"encoder":"0077","distractor":"0277","target":"present","response":"present","rt":"1080.599999994","correct":true,"confidence":5},{"trial_n":130,"span":4,"encoder":"5064","distractor":"9064","target":"present","response":"present","rt":"2056.099999994","correct":true,"confidence":5},{"trial_n":131,"span":5,"encoder":"89679","distractor":"89671","target":"present","response":"present","rt":"2295.599999994","correct":true,"confidence":5},{"trial_n":132,"span":5,"encoder":"67896","distractor":"67596","target":"present","response":"present","rt":"2157.3000000119","correct":true,"confidence":5},{"trial_n":133,"span":6,"encoder":"970219","distractor":"570219","target":"absent","response":"absent","rt":"2894.5","correct":true,"confidence":5},{"trial_n":134,"span":6,"encoder":"943609","distractor":"953609","target":"present","response":"present","rt":"2720.6000000238","correct":true,"confidence":5},{"trial_n":135,"span":7,"encoder":"0674238","distractor":"6674238","target":"absent","response":"absent","rt":"1394.900000006","correct":true,"confidence":5},{"trial_n":136,"span":7,"encoder":"8029589","distractor":"8079589","target":"absent","response":"absent","rt":"3692.2000000179","correct":true,"confidence":3},{"trial_n":137,"span":8,"encoder":"83715496","distractor":"87715496","target":"absent","response":"absent","rt":"3664.3000000119","correct":true,"confidence":4},{"trial_n":138,"span":8,"encoder":"32184172","distractor":"32164172","target":"present","response":"absent","rt":"2968.900000006","correct":false,"confidence":1},{"trial_n":139,"span":7,"encoder":"5635248","distractor":"5935248","target":"absent","response":"present","rt":"2028.900000006","correct":false,"confidence":4},{"trial_n":140,"span":6,"encoder":"120654","distractor":"127654","target":"present","response":"absent","rt":"1504.400000006","correct":false,"confidence":5}]