[{"trial_n":1,"min":25,"max":230,"target":"present","response":"present","rt":3674.299999997,"correct":true,"confidence":-1},{"trial_n":2,"min":25,"max":230,"target":"present","response":"present","rt":952.40000000224,"correct":true,"confidence":-1},{"trial_n":3,"min":41,"max":214,"target":"absent","response":"absent","rt":814.89999999851,"correct":true,"confidence":-1},{"trial_n":4,"min":41,"max":214,"target":"absent","response":"absent","rt":608.69999999925,"correct":true,"confidence":-1},{"trial_n":5,"min":57,"max":198,"target":"present","response":"present","rt":889.90000000224,"correct":true,"confidence":-1},{"trial_n":6,"min":57,"max":198,"target":"present","response":"present","rt":440,"correct":true,"confidence":-1},{"trial_n":7,"min":73,"max":182,"target":"absent","response":"absent","rt":3618.3000000007,"correct":true,"confidence":-1},{"trial_n":8,"min":73,"max":182,"target":"absent","response":"absent","rt":397,"correct":true,"confidence":-1},{"trial_n":9,"min":89,"max":166,"target":"absent","response":"absent","rt":628.29999999702,"correct":true,"confidence":-1},{"trial_n":10,"min":89,"max":166,"target":"absent","response":"absent","rt":1176.200000003,"correct":true,"confidence":-1},{"trial_n":11,"min":97,"max":158,"target":"absent","response":"absent","rt":978.40000000224,"correct":true,"confidence":-1},{"trial_n":12,"min":97,"max":158,"target":"present","response":"absent","rt":1015.0999999978,"correct":false,"confidence":-1},{"trial_n":13,"min":89,"max":166,"target":"absent","response":"absent","rt":812.20000000298,"correct":true,"confidence":-1},{"trial_n":14,"min":89,"max":166,"target":"present","response":"absent","rt":1883.1000000015,"correct":false,"confidence":-1},{"trial_n":15,"min":81,"max":174,"target":"absent","response":"absent","rt":673.90000000224,"correct":true,"confidence":-1},{"trial_n":16,"min":81,"max":174,"target":"absent","response":"absent","rt":672.20000000298,"correct":true,"confidence":-1},{"trial_n":17,"min":89,"max":166,"target":"absent","response":"present","rt":2491.8000000007,"correct":false,"confidence":-1},{"trial_n":18,"min":81,"max":174,"target":"present","response":"present","rt":994.30000000075,"correct":true,"confidence":-1},{"trial_n":19,"min":81,"max":174,"target":"absent","response":"present","rt":1083.8000000007,"correct":false,"confidence":-1},{"trial_n":20,"min":73,"max":182,"target":"present","response":"present","rt":755.5,"correct":true,"confidence":-1},{"trial_n":21,"min":73,"max":182,"target":"absent","response":"present","rt":2381.5999999978,"correct":false,"confidence":5},{"trial_n":22,"min":69,"max":186,"target":"present","response":"present","rt":906.5,"correct":true,"confidence":5},{"trial_n":23,"min":69,"max":186,"target":"present","response":"present","rt":969.30000000075,"correct":true,"confidence":5},{"trial_n":24,"min":73,"max":182,"target":"absent","response":"absent","rt":1311.0999999978,"correct":true,"confidence":5},{"trial_n":25,"min":73,"max":182,"target":"present","response":"present","rt":1267.8999999985,"correct":true,"confidence":5},{"trial_n":26,"min":77,"max":178,"target":"present","response":"present","rt":1225.5,"correct":true,"confidence":5},{"trial_n":27,"min":77,"max":178,"target":"present","response":"present","rt":923.30000000075,"correct":true,"confidence":5},{"trial_n":28,"min":81,"max":174,"target":"absent","response":"absent","rt":970.10000000149,"correct":true,"confidence":5},{"trial_n":29,"min":81,"max":174,"target":"present","response":"present","rt":764.69999999925,"correct":true,"confidence":5},{"trial_n":30,"min":85,"max":170,"target":"present","response":"absent","rt":1291.4000000022,"correct":false,"confidence":3},{"trial_n":31,"min":83,"max":172,"target":"present","response":"present","rt":1291.6999999993,"correct":true,"confidence":5},{"trial_n":32,"min":83,"max":172,"target":"present","response":"present","rt":1001.1000000015,"correct":true,"confidence":5},{"trial_n":33,"min":85,"max":170,"target":"absent","response":"absent","rt":1053.3000000007,"correct":true,"confidence":4},{"trial_n":34,"min":85,"max":170,"target":"absent","response":"absent","rt":1080,"correct":true,"confidence":5},{"trial_n":35,"min":87,"max":168,"target":"absent","response":"absent","rt":1797.0999999978,"correct":true,"confidence":5},{"trial_n":36,"min":87,"max":168,"target":"absent","response":"absent","rt":996.80000000075,"correct":true,"confidence":5},{"trial_n":37,"min":89,"max":166,"target":"present","response":"present","rt":1187,"correct":true,"confidence":3},{"trial_n":38,"min":89,"max":166,"target":"present","response":"present","rt":1042.3999999985,"correct":true,"confidence":5},{"trial_n":39,"min":91,"max":164,"target":"present","response":"present","rt":1174.5999999978,"correct":true,"confidence":5},{"trial_n":40,"min":91,"max":164,"target":"present","response":"present","rt":779.39999999851,"correct":true,"confidence":5},{"trial_n":41,"min":92,"max":163,"target":"present","response":"present","rt":927.80000000075,"correct":true,"confidence":4},{"trial_n":42,"min":92,"max":163,"target":"present","response":"present","rt":2065.1000000015,"correct":true,"confidence":5},{"trial_n":43,"min":93,"max":162,"target":"present","response":"absent","rt":1156,"correct":false,"confidence":4},{"trial_n":44,"min":92,"max":163,"target":"absent","response":"absent","rt":968.90000000224,"correct":true,"confidence":5},{"trial_n":45,"min":92,"max":163,"target":"absent","response":"absent","rt":1075.0999999978,"correct":true,"confidence":5},{"trial_n":46,"min":93,"max":162,"target":"absent","response":"absent","rt":1358.799999997,"correct":true,"confidence":5},{"trial_n":47,"min":93,"max":162,"target":"absent","response":"absent","rt":3690.6999999993,"correct":true,"confidence":3},{"trial_n":48,"min":94,"max":161,"target":"present","response":"present","rt":986.69999999925,"correct":true,"confidence":5},{"trial_n":49,"min":94,"max":161,"target":"absent","response":"absent","rt":1020.5,"correct":true,"confidence":4},{"trial_n":50,"min":95,"max":160,"target":"present","response":"present","rt":1548.5,"correct":true,"confidence":3},{"trial_n":51,"min":95,"max":160,"target":"absent","response":"absent","rt":937.80000000075,"correct":true,"confidence":5},{"trial_n":52,"min":96,"max":159,"target":"present","response":"absent","rt":1680.8999999985,"correct":false,"confidence":5},{"trial_n":53,"min":95,"max":160,"target":"present","response":"present","rt":1279.1999999993,"correct":true,"confidence":3},{"trial_n":54,"min":95,"max":160,"target":"present","response":"absent","rt":1014.6999999993,"correct":false,"confidence":5},{"trial_n":55,"min":94,"max":161,"target":"absent","response":"absent","rt":1085.8999999985,"correct":true,"confidence":4},{"trial_n":56,"min":94,"max":161,"target":"present","response":"absent","rt":1495.8999999985,"correct":false,"confidence":3},{"trial_n":57,"min":93,"max":162,"target":"absent","response":"absent","rt":1306.1999999993,"correct":true,"confidence":5},{"trial_n":58,"min":93,"max":162,"target":"present","response":"present","rt":2459.1000000015,"correct":true,"confidence":5},{"trial_n":59,"min":94,"max":161,"target":"absent","response":"absent","rt":1854.5,"correct":true,"confidence":4},{"trial_n":60,"min":94,"max":161,"target":"absent","response":"absent","rt":1258.3999999985,"correct":true,"confidence":5},{"trial_n":61,"min":95,"max":160,"target":"absent","response":"absent","rt":936.80000000075,"correct":true,"confidence":5},{"trial_n":62,"min":95,"max":160,"target":"absent","response":"present","rt":960.30000000075,"correct":false,"confidence":5},{"trial_n":63,"min":94,"max":161,"target":"present","response":"absent","rt":965,"correct":false,"confidence":5},{"trial_n":64,"min":93,"max":162,"target":"absent","response":"present","rt":1012,"correct":false,"confidence":3},{"trial_n":65,"min":92,"max":163,"target":"present","response":"absent","rt":1076.1000000015,"correct":false,"confidence":5},{"trial_n":66,"min":91,"max":164,"target":"absent","response":"absent","rt":3769.5,"correct":true,"confidence":4},{"trial_n":67,"min":91,"max":164,"target":"present","response":"absent","rt":1853.5,"correct":false,"confidence":5},{"trial_n":68,"min":90,"max":165,"target":"present","response":"absent","rt":1024.3999999985,"correct":false,"confidence":5},{"trial_n":69,"min":89,"max":166,"target":"absent","response":"absent","rt":2211.3000000007,"correct":true,"confidence":5},{"trial_n":70,"min":89,"max":166,"target":"present","response":"present","rt":1886.8000000007,"correct":true,"confidence":3},{"trial_n":71,"min":41,"max":214,"target":"present","response":"present","rt":4280.8000000007,"correct":true,"confidence":-1},{"trial_n":72,"min":41,"max":214,"target":"present","response":"present","rt":1310.3000000007,"correct":true,"confidence":-1},{"trial_n":73,"min":57,"max":198,"target":"absent","response":"absent","rt":1462.3000000007,"correct":true,"confidence":-1},{"trial_n":74,"min":57,"max":198,"target":"absent","response":"absent","rt":1233,"correct":true,"confidence":-1},{"trial_n":75,"min":73,"max":182,"target":"present","response":"present","rt":949.59999999776,"correct":true,"confidence":-1},{"trial_n":76,"min":73,"max":182,"target":"absent","response":"absent","rt":1149.4000000022,"correct":true,"confidence":-1},{"trial_n":77,"min":89,"max":166,"target":"present","response":"present","rt":1235.700000003,"correct":true,"confidence":-1},{"trial_n":78,"min":89,"max":166,"target":"present","response":"present","rt":1072.6000000015,"correct":true,"confidence":-1},{"trial_n":79,"min":105,"max":150,"target":"present","response":"absent","rt":2269.6999999993,"correct":false,"confidence":-1},{"trial_n":80,"min":89,"max":166,"target":"present","response":"present","rt":1093.4000000022,"correct":true,"confidence":-1},{"trial_n":81,"min":89,"max":166,"target":"absent","response":"absent","rt":3862.3000000007,"correct":true,"confidence":-1},{"trial_n":82,"min":97,"max":158,"target":"present","response":"present","rt":1202.8000000007,"correct":true,"confidence":-1},{"trial_n":83,"min":97,"max":158,"target":"present","response":"present","rt":671.69999999925,"correct":true,"confidence":-1},{"trial_n":84,"min":105,"max":150,"target":"absent","response":"absent","rt":1924.5,"correct":true,"confidence":-1},{"trial_n":85,"min":105,"max":150,"target":"absent","response":"present","rt":1213.8000000007,"correct":false,"confidence":-1},{"trial_n":86,"min":97,"max":158,"target":"absent","response":"present","rt":763.5,"correct":false,"confidence":-1},{"trial_n":87,"min":89,"max":166,"target":"present","response":"present","rt":1078.8000000007,"correct":true,"confidence":-1},{"trial_n":88,"min":89,"max":166,"target":"present","response":"absent","rt":1142.8999999985,"correct":false,"confidence":-1},{"trial_n":89,"min":81,"max":174,"target":"absent","response":"present","rt":1700.6999999993,"correct":false,"confidence":-1},{"trial_n":90,"min":73,"max":182,"target":"present","response":"present","rt":839.70000000298,"correct":true,"confidence":-1},{"trial_n":91,"min":73,"max":182,"target":"absent","response":"absent","rt":1418,"correct":true,"confidence":5},{"trial_n":92,"min":77,"max":178,"target":"present","response":"absent","rt":669.10000000149,"correct":false,"confidence":2},{"trial_n":93,"min":73,"max":182,"target":"present","response":"present","rt":1200.8999999985,"correct":true,"confidence":5},{"trial_n":94,"min":73,"max":182,"target":"absent","response":"absent","rt":1030.3000000007,"correct":true,"confidence":5},{"trial_n":95,"min":77,"max":178,"target":"absent","response":"absent","rt":1152.8000000007,"correct":true,"confidence":5},{"trial_n":96,"min":77,"max":178,"target":"absent","response":"absent","rt":1027.6999999993,"correct":true,"confidence":5},{"trial_n":97,"min":81,"max":174,"target":"absent","response":"absent","rt":981.89999999851,"correct":true,"confidence":5},{"trial_n":98,"min":81,"max":174,"target":"absent","response":"absent","rt":1842.5,"correct":true,"confidence":5},{"trial_n":99,"min":85,"max":170,"target":"absent","response":"absent","rt":1199.8000000007,"correct":true,"confidence":5},{"trial_n":100,"min":85,"max":170,"target":"absent","response":"absent","rt":1153.4000000022,"correct":true,"confidence":5},{"trial_n":101,"min":87,"max":168,"target":"present","response":"present","rt":1200.4000000022,"correct":true,"confidence":3},{"trial_n":102,"min":87,"max":168,"target":"absent","response":"absent","rt":1136.0999999978,"correct":true,"confidence":4},{"trial_n":103,"min":89,"max":166,"target":"absent","response":"absent","rt":1463.200000003,"correct":true,"confidence":5},{"trial_n":104,"min":89,"max":166,"target":"present","response":"absent","rt":3724.1000000015,"correct":false,"confidence":1},{"trial_n":105,"min":87,"max":168,"target":"present","response":"present","rt":976,"correct":true,"confidence":5},{"trial_n":106,"min":87,"max":168,"target":"present","response":"present","rt":1168.5,"correct":true,"confidence":5},{"trial_n":107,"min":89,"max":166,"target":"present","response":"present","rt":961.69999999925,"correct":true,"confidence":5},{"trial_n":108,"min":89,"max":166,"target":"present","response":"present","rt":795.80000000075,"correct":true,"confidence":5},{"trial_n":109,"min":91,"max":164,"target":"absent","response":"absent","rt":1280.1999999993,"correct":true,"confidence":2},{"trial_n":110,"min":91,"max":164,"target":"present","response":"present","rt":845.60000000149,"correct":true,"confidence":5},{"trial_n":111,"min":92,"max":163,"target":"absent","response":"present","rt":2763.5,"correct":false,"confidence":1},{"trial_n":112,"min":91,"max":164,"target":"present","response":"present","rt":709.69999999925,"correct":true,"confidence":5},{"trial_n":113,"min":91,"max":164,"target":"present","response":"present","rt":1511.3999999985,"correct":true,"confidence":5},{"trial_n":114,"min":92,"max":163,"target":"absent","response":"present","rt":1106,"correct":false,"confidence":4},{"trial_n":115,"min":91,"max":164,"target":"present","response":"present","rt":1455,"correct":true,"confidence":4},{"trial_n":116,"min":91,"max":164,"target":"absent","response":"present","rt":1688.5,"correct":false,"confidence":5},{"trial_n":117,"min":90,"max":165,"target":"absent","response":"present","rt":1661.3999999985,"correct":false,"confidence":3},{"trial_n":118,"min":89,"max":166,"target":"absent","response":"absent","rt":1961.8000000007,"correct":true,"confidence":2},{"trial_n":119,"min":89,"max":166,"target":"present","response":"present","rt":875.39999999851,"correct":true,"confidence":5},{"trial_n":120,"min":90,"max":165,"target":"present","response":"present","rt":1206.5999999978,"correct":true,"confidence":5},{"trial_n":121,"min":90,"max":165,"target":"absent","response":"present","rt":1421.1000000015,"correct":false,"confidence":5},{"trial_n":122,"min":89,"max":166,"target":"present","response":"present","rt":859.79999999702,"correct":true,"confidence":5},{"trial_n":123,"min":89,"max":166,"target":"present","response":"present","rt":1120.5,"correct":true,"confidence":5},{"trial_n":124,"min":90,"max":165,"target":"absent","response":"absent","rt":1440.8000000007,"correct":true,"confidence":5},{"trial_n":125,"min":90,"max":165,"target":"present","response":"present","rt":1065.3999999985,"correct":true,"confidence":5},{"trial_n":126,"min":91,"max":164,"target":"absent","response":"present","rt":892.90000000224,"correct":false,"confidence":5},{"trial_n":127,"min":90,"max":165,"target":"absent","response":"present","rt":1734.8000000007,"correct":false,"confidence":3},{"trial_n":128,"min":89,"max":166,"target":"present","response":"present","rt":1151.8999999985,"correct":true,"confidence":5},{"trial_n":129,"min":89,"max":166,"target":"present","response":"present","rt":1077.3999999985,"correct":true,"confidence":5},{"trial_n":130,"min":90,"max":165,"target":"absent","response":"present","rt":718.60000000149,"correct":false,"confidence":5},{"trial_n":131,"min":89,"max":166,"target":"present","response":"present","rt":780.19999999925,"correct":true,"confidence":5},{"trial_n":132,"min":89,"max":166,"target":"absent","response":"absent","rt":1151,"correct":true,"confidence":5},{"trial_n":133,"min":90,"max":165,"target":"absent","response":"absent","rt":1122.8000000007,"correct":true,"confidence":3},{"trial_n":134,"min":90,"max":165,"target":"present","response":"present","rt":831.30000000075,"correct":true,"confidence":5},{"trial_n":135,"min":91,"max":164,"target":"present","response":"present","rt":983.39999999851,"correct":true,"confidence":5},{"trial_n":136,"min":91,"max":164,"target":"absent","response":"present","rt":1792.3000000007,"correct":false,"confidence":3},{"trial_n":137,"min":90,"max":165,"target":"present","response":"present","rt":2752.3999999985,"correct":true,"confidence":5},{"trial_n":138,"min":90,"max":165,"target":"present","response":"present","rt":1709.4000000022,"correct":true,"confidence":5},{"trial_n":139,"min":91,"max":164,"target":"absent","response":"absent","rt":1079.5,"correct":true,"confidence":5},{"trial_n":140,"min":91,"max":164,"target":"absent","response":"absent","rt":3947.1999999993,"correct":true,"confidence":1}]