[{"trial_n":1,"min":25,"max":230,"target":"present","response":"present","rt":6076,"correct":true,"confidence":-1},{"trial_n":2,"min":25,"max":230,"target":"present","response":"present","rt":703.60000000149,"correct":true,"confidence":-1},{"trial_n":3,"min":41,"max":214,"target":"absent","response":"absent","rt":919.20000000298,"correct":true,"confidence":-1},{"trial_n":4,"min":41,"max":214,"target":"absent","response":"absent","rt":502.80000000447,"correct":true,"confidence":-1},{"trial_n":5,"min":57,"max":198,"target":"present","response":"present","rt":692,"correct":true,"confidence":-1},{"trial_n":6,"min":57,"max":198,"target":"present","response":"present","rt":482.80000000447,"correct":true,"confidence":-1},{"trial_n":7,"min":73,"max":182,"target":"present","response":"present","rt":1071.299999997,"correct":true,"confidence":-1},{"trial_n":8,"min":73,"max":182,"target":"absent","response":"absent","rt":364.20000000298,"correct":true,"confidence":-1},{"trial_n":9,"min":89,"max":166,"target":"absent","response":"absent","rt":348.39999999851,"correct":true,"confidence":-1},{"trial_n":10,"min":89,"max":166,"target":"present","response":"absent","rt":368.60000000149,"correct":false,"confidence":-1},{"trial_n":11,"min":81,"max":174,"target":"present","response":"absent","rt":451.60000000149,"correct":false,"confidence":-1},{"trial_n":12,"min":73,"max":182,"target":"present","response":"present","rt":654.30000000447,"correct":true,"confidence":-1},{"trial_n":13,"min":73,"max":182,"target":"absent","response":"absent","rt":388.90000000596,"correct":true,"confidence":-1},{"trial_n":14,"min":81,"max":174,"target":"present","response":"present","rt":459.90000000596,"correct":true,"confidence":-1},{"trial_n":15,"min":81,"max":174,"target":"absent","response":"absent","rt":316.30000000447,"correct":true,"confidence":-1},{"trial_n":16,"min":89,"max":166,"target":"absent","response":"present","rt":595,"correct":false,"confidence":-1},{"trial_n":17,"min":81,"max":174,"target":"absent","response":"absent","rt":375.60000000149,"correct":true,"confidence":-1},{"trial_n":18,"min":81,"max":174,"target":"absent","response":"absent","rt":338.20000000298,"correct":true,"confidence":-1},{"trial_n":19,"min":89,"max":166,"target":"absent","response":"absent","rt":209.89999999851,"correct":true,"confidence":-1},{"trial_n":20,"min":89,"max":166,"target":"present","response":"absent","rt":188,"correct":false,"confidence":-1},{"trial_n":21,"min":85,"max":170,"target":"absent","response":"absent","rt":858.60000000149,"correct":true,"confidence":4},{"trial_n":22,"min":85,"max":170,"target":"absent","response":"present","rt":2387.6000000015,"correct":false,"confidence":3},{"trial_n":23,"min":81,"max":174,"target":"present","response":"present","rt":1462.200000003,"correct":true,"confidence":3},{"trial_n":24,"min":81,"max":174,"target":"present","response":"present","rt":1284.5,"correct":true,"confidence":2},{"trial_n":25,"min":85,"max":170,"target":"absent","response":"present","rt":971.69999999553,"correct":false,"confidence":3},{"trial_n":26,"min":81,"max":174,"target":"absent","response":"absent","rt":1357,"correct":true,"confidence":2},{"trial_n":27,"min":81,"max":174,"target":"present","response":"present","rt":1831.799999997,"correct":true,"confidence":2},{"trial_n":28,"min":85,"max":170,"target":"present","response":"present","rt":1330.299999997,"correct":true,"confidence":3},{"trial_n":29,"min":85,"max":170,"target":"absent","response":"present","rt":843.69999999553,"correct":false,"confidence":4},{"trial_n":30,"min":81,"max":174,"target":"present","response":"present","rt":839.5,"correct":true,"confidence":5},{"trial_n":31,"min":81,"max":174,"target":"present","response":"present","rt":848.5,"correct":true,"confidence":5},{"trial_n":32,"min":83,"max":172,"target":"absent","response":"present","rt":1667.299999997,"correct":false,"confidence":3},{"trial_n":33,"min":81,"max":174,"target":"present","response":"present","rt":1066.599999994,"correct":true,"confidence":2},{"trial_n":34,"min":81,"max":174,"target":"present","response":"present","rt":825.10000000149,"correct":true,"confidence":4},{"trial_n":35,"min":83,"max":172,"target":"absent","response":"present","rt":1770.799999997,"correct":false,"confidence":2},{"trial_n":36,"min":81,"max":174,"target":"absent","response":"absent","rt":1090.1000000015,"correct":true,"confidence":2},{"trial_n":37,"min":81,"max":174,"target":"present","response":"present","rt":992.80000000447,"correct":true,"confidence":3},{"trial_n":38,"min":83,"max":172,"target":"absent","response":"present","rt":3142.6000000015,"correct":false,"confidence":2},{"trial_n":39,"min":81,"max":174,"target":"absent","response":"absent","rt":660.10000000149,"correct":true,"confidence":3},{"trial_n":40,"min":81,"max":174,"target":"present","response":"present","rt":1400.8999999985,"correct":true,"confidence":2},{"trial_n":41,"min":82,"max":173,"target":"present","response":"absent","rt":1817.3000000045,"correct":false,"confidence":2},{"trial_n":42,"min":81,"max":174,"target":"present","response":"absent","rt":616.09999999404,"correct":false,"confidence":5},{"trial_n":43,"min":80,"max":175,"target":"present","response":"present","rt":754.5,"correct":true,"confidence":3},{"trial_n":44,"min":80,"max":175,"target":"present","response":"present","rt":769.80000000447,"correct":true,"confidence":3},{"trial_n":45,"min":81,"max":174,"target":"present","response":"absent","rt":1194.700000003,"correct":false,"confidence":2},{"trial_n":46,"min":80,"max":175,"target":"absent","response":"absent","rt":694.20000000298,"correct":true,"confidence":3},{"trial_n":47,"min":80,"max":175,"target":"present","response":"absent","rt":1183.3999999985,"correct":false,"confidence":2},{"trial_n":48,"min":79,"max":176,"target":"present","response":"present","rt":810.89999999851,"correct":true,"confidence":3},{"trial_n":49,"min":79,"max":176,"target":"present","response":"absent","rt":857.10000000149,"correct":false,"confidence":3},{"trial_n":50,"min":78,"max":177,"target":"absent","response":"absent","rt":730.79999999702,"correct":true,"confidence":3},{"trial_n":51,"min":78,"max":177,"target":"present","response":"present","rt":854.89999999851,"correct":true,"confidence":3},{"trial_n":52,"min":79,"max":176,"target":"absent","response":"absent","rt":664.79999999702,"correct":true,"confidence":3},{"trial_n":53,"min":79,"max":176,"target":"absent","response":"absent","rt":635.39999999851,"correct":true,"confidence":5},{"trial_n":54,"min":80,"max":175,"target":"absent","response":"absent","rt":693.20000000298,"correct":true,"confidence":5},{"trial_n":55,"min":80,"max":175,"target":"absent","response":"absent","rt":632.29999999702,"correct":true,"confidence":5},{"trial_n":56,"min":81,"max":174,"target":"present","response":"present","rt":911.5,"correct":true,"confidence":3},{"trial_n":57,"min":81,"max":174,"target":"present","response":"present","rt":1072,"correct":true,"confidence":2},{"trial_n":58,"min":82,"max":173,"target":"present","response":"absent","rt":1452.3000000045,"correct":false,"confidence":2},{"trial_n":59,"min":81,"max":174,"target":"present","response":"present","rt":866.39999999851,"correct":true,"confidence":2},{"trial_n":60,"min":81,"max":174,"target":"absent","response":"absent","rt":637.69999999553,"correct":true,"confidence":3},{"trial_n":61,"min":82,"max":173,"target":"absent","response":"absent","rt":661.5,"correct":true,"confidence":5},{"trial_n":62,"min":82,"max":173,"target":"absent","response":"absent","rt":2053.8999999985,"correct":true,"confidence":2},{"trial_n":63,"min":83,"max":172,"target":"present","response":"absent","rt":1115,"correct":false,"confidence":2},{"trial_n":64,"min":82,"max":173,"target":"absent","response":"absent","rt":1131.3999999985,"correct":true,"confidence":2},{"trial_n":65,"min":82,"max":173,"target":"present","response":"absent","rt":1187.1999999955,"correct":false,"confidence":2},{"trial_n":66,"min":81,"max":174,"target":"present","response":"absent","rt":657.5,"correct":false,"confidence":2},{"trial_n":67,"min":80,"max":175,"target":"absent","response":"absent","rt":733.79999999702,"correct":true,"confidence":5},{"trial_n":68,"min":80,"max":175,"target":"absent","response":"absent","rt":873.39999999851,"correct":true,"confidence":2},{"trial_n":69,"min":81,"max":174,"target":"absent","response":"absent","rt":662,"correct":true,"confidence":2},{"trial_n":70,"min":81,"max":174,"target":"absent","response":"absent","rt":510.39999999851,"correct":true,"confidence":2},{"trial_n":71,"min":41,"max":214,"target":"present","response":"present","rt":2039.1000000015,"correct":true,"confidence":-1},{"trial_n":72,"min":41,"max":214,"target":"present","response":"absent","rt":990.60000000149,"correct":false,"confidence":-1},{"trial_n":73,"min":25,"max":230,"target":"absent","response":"absent","rt":364.40000000596,"correct":true,"confidence":-1},{"trial_n":74,"min":25,"max":230,"target":"absent","response":"absent","rt":280.5,"correct":true,"confidence":-1},{"trial_n":75,"min":41,"max":214,"target":"present","response":"present","rt":202.30000000447,"correct":true,"confidence":-1},{"trial_n":76,"min":41,"max":214,"target":"present","response":"present","rt":327.79999999702,"correct":true,"confidence":-1},{"trial_n":77,"min":57,"max":198,"target":"present","response":"absent","rt":431.5,"correct":false,"confidence":-1},{"trial_n":78,"min":41,"max":214,"target":"absent","response":"absent","rt":410.5,"correct":true,"confidence":-1},{"trial_n":79,"min":41,"max":214,"target":"present","response":"present","rt":349.39999999851,"correct":true,"confidence":-1},{"trial_n":80,"min":57,"max":198,"target":"present","response":"present","rt":268.39999999851,"correct":true,"confidence":-1},{"trial_n":81,"min":57,"max":198,"target":"absent","response":"absent","rt":309.5,"correct":true,"confidence":-1},{"trial_n":82,"min":65,"max":190,"target":"present","response":"present","rt":302.89999999851,"correct":true,"confidence":-1},{"trial_n":83,"min":65,"max":190,"target":"present","response":"present","rt":332.20000000298,"correct":true,"confidence":-1},{"trial_n":84,"min":73,"max":182,"target":"present","response":"present","rt":311.10000000149,"correct":true,"confidence":-1},{"trial_n":85,"min":73,"max":182,"target":"absent","response":"absent","rt":310,"correct":true,"confidence":-1},{"trial_n":86,"min":81,"max":174,"target":"present","response":"present","rt":355.80000000447,"correct":true,"confidence":-1},{"trial_n":87,"min":81,"max":174,"target":"present","response":"present","rt":349.39999999851,"correct":true,"confidence":-1},{"trial_n":88,"min":89,"max":166,"target":"absent","response":"absent","rt":458.10000000149,"correct":true,"confidence":-1},{"trial_n":89,"min":89,"max":166,"target":"absent","response":"present","rt":354.80000000447,"correct":false,"confidence":-1},{"trial_n":90,"min":81,"max":174,"target":"present","response":"present","rt":401.70000000298,"correct":true,"confidence":-1},{"trial_n":91,"min":81,"max":174,"target":"absent","response":"absent","rt":558.5,"correct":true,"confidence":3},{"trial_n":92,"min":85,"max":170,"target":"present","response":"present","rt":455.39999999851,"correct":true,"confidence":4},{"trial_n":93,"min":85,"max":170,"target":"absent","response":"absent","rt":371.5,"correct":true,"confidence":5},{"trial_n":94,"min":89,"max":166,"target":"present","response":"present","rt":585.5,"correct":true,"confidence":3},{"trial_n":95,"min":89,"max":166,"target":"absent","response":"present","rt":578.39999999851,"correct":false,"confidence":2},{"trial_n":96,"min":85,"max":170,"target":"present","response":"present","rt":415.29999999702,"correct":true,"confidence":3},{"trial_n":97,"min":85,"max":170,"target":"present","response":"present","rt":467.19999999553,"correct":true,"confidence":4},{"trial_n":98,"min":89,"max":166,"target":"absent","response":"absent","rt":639.5,"correct":true,"confidence":2},{"trial_n":99,"min":89,"max":166,"target":"present","response":"present","rt":730.5,"correct":true,"confidence":3},{"trial_n":100,"min":93,"max":162,"target":"present","response":"present","rt":530.39999999851,"correct":true,"confidence":2},{"trial_n":101,"min":93,"max":162,"target":"absent","response":"absent","rt":1204.8999999985,"correct":true,"confidence":2},{"trial_n":102,"min":95,"max":160,"target":"absent","response":"present","rt":1100.099999994,"correct":false,"confidence":2},{"trial_n":103,"min":93,"max":162,"target":"present","response":"present","rt":507.19999999553,"correct":true,"confidence":2},{"trial_n":104,"min":93,"max":162,"target":"absent","response":"present","rt":550.19999999553,"correct":false,"confidence":2},{"trial_n":105,"min":91,"max":164,"target":"absent","response":"absent","rt":822.89999999851,"correct":true,"confidence":2},{"trial_n":106,"min":91,"max":164,"target":"present","response":"present","rt":620.69999999553,"correct":true,"confidence":2},{"trial_n":107,"min":93,"max":162,"target":"absent","response":"present","rt":508.29999999702,"correct":false,"confidence":2},{"trial_n":108,"min":91,"max":164,"target":"present","response":"present","rt":612.59999999404,"correct":true,"confidence":2},{"trial_n":109,"min":91,"max":164,"target":"present","response":"present","rt":815,"correct":true,"confidence":2},{"trial_n":110,"min":93,"max":162,"target":"absent","response":"present","rt":659.19999999553,"correct":false,"confidence":2},{"trial_n":111,"min":92,"max":163,"target":"absent","response":"present","rt":648.30000000447,"correct":false,"confidence":2},{"trial_n":112,"min":91,"max":164,"target":"absent","response":"present","rt":605.40000000596,"correct":false,"confidence":1},{"trial_n":113,"min":90,"max":165,"target":"absent","response":"present","rt":600.19999999553,"correct":false,"confidence":1},{"trial_n":114,"min":89,"max":166,"target":"absent","response":"present","rt":498.40000000596,"correct":false,"confidence":1},{"trial_n":115,"min":88,"max":167,"target":"present","response":"present","rt":291.30000000447,"correct":true,"confidence":1},{"trial_n":116,"min":88,"max":167,"target":"absent","response":"absent","rt":466.70000000298,"correct":true,"confidence":1},{"trial_n":117,"min":89,"max":166,"target":"present","response":"present","rt":828.5,"correct":true,"confidence":1},{"trial_n":118,"min":89,"max":166,"target":"present","response":"present","rt":466.5,"correct":true,"confidence":1},{"trial_n":119,"min":90,"max":165,"target":"present","response":"present","rt":355.20000000298,"correct":true,"confidence":1},{"trial_n":120,"min":90,"max":165,"target":"absent","response":"present","rt":295.60000000149,"correct":false,"confidence":1},{"trial_n":121,"min":89,"max":166,"target":"absent","response":"present","rt":400.5,"correct":false,"confidence":1},{"trial_n":122,"min":88,"max":167,"target":"present","response":"present","rt":321,"correct":true,"confidence":1},{"trial_n":123,"min":88,"max":167,"target":"present","response":"present","rt":324.89999999851,"correct":true,"confidence":1},{"trial_n":124,"min":89,"max":166,"target":"present","response":"present","rt":342.30000000447,"correct":true,"confidence":1},{"trial_n":125,"min":89,"max":166,"target":"absent","response":"absent","rt":471.39999999851,"correct":true,"confidence":1},{"trial_n":126,"min":90,"max":165,"target":"absent","response":"present","rt":995.20000000298,"correct":false,"confidence":1},{"trial_n":127,"min":89,"max":166,"target":"absent","response":"present","rt":350.10000000149,"correct":false,"confidence":1},{"trial_n":128,"min":88,"max":167,"target":"absent","response":"present","rt":293.89999999851,"correct":false,"confidence":1},{"trial_n":129,"min":87,"max":168,"target":"absent","response":"present","rt":350.10000000149,"correct":false,"confidence":1},{"trial_n":130,"min":86,"max":169,"target":"present","response":"present","rt":281.5,"correct":true,"confidence":1},{"trial_n":131,"min":86,"max":169,"target":"absent","response":"absent","rt":391.60000000149,"correct":true,"confidence":4},{"trial_n":132,"min":87,"max":168,"target":"absent","response":"present","rt":792.30000000447,"correct":false,"confidence":2},{"trial_n":133,"min":86,"max":169,"target":"absent","response":"absent","rt":572.79999999702,"correct":true,"confidence":3},{"trial_n":134,"min":86,"max":169,"target":"present","response":"present","rt":522.5,"correct":true,"confidence":4},{"trial_n":135,"min":87,"max":168,"target":"present","response":"present","rt":434.80000000447,"correct":true,"confidence":4},{"trial_n":136,"min":87,"max":168,"target":"present","response":"present","rt":310.10000000149,"correct":true,"confidence":4},{"trial_n":137,"min":88,"max":167,"target":"absent","response":"present","rt":738.60000000149,"correct":false,"confidence":1},{"trial_n":138,"min":87,"max":168,"target":"present","response":"present","rt":347.29999999702,"correct":true,"confidence":4},{"trial_n":139,"min":87,"max":168,"target":"absent","response":"present","rt":854.70000000298,"correct":false,"confidence":3},{"trial_n":140,"min":86,"max":169,"target":"present","response":"present","rt":351,"correct":true,"confidence":3}]