[{"trial_n":1,"n_dots":4.25,"target":"left","response":"left","rt":8446,"correct":true,"confidence":-1},{"trial_n":2,"n_dots":4.25,"target":"left","response":"left","rt":1143.400000006,"correct":true,"confidence":-1},{"trial_n":3,"n_dots":3.85,"target":"right","response":"right","rt":1137.3000000119,"correct":true,"confidence":-1},{"trial_n":4,"n_dots":3.85,"target":"right","response":"left","rt":1641.3999999762,"correct":false,"confidence":-1},{"trial_n":5,"n_dots":4.25,"target":"right","response":"right","rt":1654.400000006,"correct":true,"confidence":-1},{"trial_n":6,"n_dots":4.25,"target":"left","response":"left","rt":603.80000001192,"correct":true,"confidence":-1},{"trial_n":7,"n_dots":3.85,"target":"left","response":"right","rt":578.59999999404,"correct":false,"confidence":-1},{"trial_n":8,"n_dots":4.05,"target":"left","response":"left","rt":787.5,"correct":true,"confidence":-1},{"trial_n":9,"n_dots":4.05,"target":"left","response":"left","rt":672.90000000596,"correct":true,"confidence":-1},{"trial_n":10,"n_dots":3.85,"target":"right","response":"left","rt":511.89999997616,"correct":false,"confidence":-1},{"trial_n":11,"n_dots":4.05,"target":"right","response":"right","rt":663.90000000596,"correct":true,"confidence":-1},{"trial_n":12,"n_dots":4.05,"target":"left","response":"left","rt":530.30000001192,"correct":true,"confidence":-1},{"trial_n":13,"n_dots":3.95,"target":"left","response":"left","rt":624.69999998808,"correct":true,"confidence":-1},{"trial_n":14,"n_dots":3.95,"target":"right","response":"left","rt":579.59999999404,"correct":false,"confidence":-1},{"trial_n":15,"n_dots":4.05,"target":"right","response":"left","rt":1254.7999999821,"correct":false,"confidence":-1},{"trial_n":16,"n_dots":4.15,"target":"left","response":"left","rt":877.80000001192,"correct":true,"confidence":-1},{"trial_n":17,"n_dots":4.15,"target":"right","response":"right","rt":441.09999999404,"correct":true,"confidence":-1},{"trial_n":18,"n_dots":4.05,"target":"right","response":"right","rt":585.30000001192,"correct":true,"confidence":-1},{"trial_n":19,"n_dots":4.05,"target":"right","response":"right","rt":576.80000001192,"correct":true,"confidence":-1},{"trial_n":20,"n_dots":3.95,"target":"right","response":"left","rt":746.20000001788,"correct":false,"confidence":-1},{"trial_n":21,"n_dots":4.05,"target":"left","response":"left","rt":756.79999998212,"correct":true,"confidence":4},{"trial_n":22,"n_dots":4.05,"target":"right","response":"right","rt":742.90000000596,"correct":true,"confidence":3},{"trial_n":23,"n_dots":3.95,"target":"left","response":"left","rt":632.09999999404,"correct":true,"confidence":5},{"trial_n":24,"n_dots":3.95,"target":"left","response":"left","rt":422.5,"correct":true,"confidence":3},{"trial_n":25,"n_dots":3.85,"target":"right","response":"right","rt":378.69999998808,"correct":true,"confidence":5},{"trial_n":26,"n_dots":3.85,"target":"right","response":"left","rt":1663.8999999762,"correct":false,"confidence":2},{"trial_n":27,"n_dots":3.95,"target":"right","response":"right","rt":522.19999998808,"correct":true,"confidence":4},{"trial_n":28,"n_dots":3.95,"target":"right","response":"right","rt":712.5,"correct":true,"confidence":3},{"trial_n":29,"n_dots":3.85,"target":"left","response":"left","rt":359.09999999404,"correct":true,"confidence":5},{"trial_n":30,"n_dots":3.85,"target":"right","response":"right","rt":248.19999998808,"correct":true,"confidence":5},{"trial_n":31,"n_dots":3.75,"target":"left","response":"left","rt":364.5,"correct":true,"confidence":4},{"trial_n":32,"n_dots":3.75,"target":"left","response":"left","rt":757.09999999404,"correct":true,"confidence":3},{"trial_n":33,"n_dots":3.65,"target":"left","response":"left","rt":292.5,"correct":true,"confidence":4},{"trial_n":34,"n_dots":3.65,"target":"right","response":"right","rt":600.40000000596,"correct":true,"confidence":3},{"trial_n":35,"n_dots":3.55,"target":"right","response":"left","rt":605,"correct":false,"confidence":2},{"trial_n":36,"n_dots":3.65,"target":"left","response":"left","rt":506,"correct":true,"confidence":3},{"trial_n":37,"n_dots":3.65,"target":"left","response":"left","rt":665.59999999404,"correct":true,"confidence":1},{"trial_n":38,"n_dots":3.55,"target":"right","response":"right","rt":771.5,"correct":true,"confidence":4},{"trial_n":39,"n_dots":3.55,"target":"left","response":"left","rt":465.70000001788,"correct":true,"confidence":5},{"trial_n":40,"n_dots":3.45,"target":"right","response":"left","rt":593.5,"correct":false,"confidence":2},{"trial_n":41,"n_dots":3.55,"target":"right","response":"right","rt":575.59999999404,"correct":true,"confidence":3},{"trial_n":42,"n_dots":3.55,"target":"left","response":"left","rt":344,"correct":true,"confidence":5},{"trial_n":43,"n_dots":3.45,"target":"left","response":"left","rt":493.40000000596,"correct":true,"confidence":5},{"trial_n":44,"n_dots":3.45,"target":"left","response":"left","rt":534,"correct":true,"confidence":3},{"trial_n":45,"n_dots":3.35,"target":"left","response":"left","rt":478.59999999404,"correct":true,"confidence":4},{"trial_n":46,"n_dots":3.35,"target":"left","response":"right","rt":524.29999998212,"correct":false,"confidence":3},{"trial_n":47,"n_dots":3.45,"target":"right","response":"right","rt":591.69999998808,"correct":true,"confidence":5},{"trial_n":48,"n_dots":3.45,"target":"left","response":"left","rt":486.90000000596,"correct":true,"confidence":5},{"trial_n":49,"n_dots":3.35,"target":"left","response":"left","rt":792.90000000596,"correct":true,"confidence":1},{"trial_n":50,"n_dots":3.35,"target":"right","response":"right","rt":636.30000001192,"correct":true,"confidence":4},{"trial_n":51,"n_dots":3.25,"target":"left","response":"left","rt":398.90000000596,"correct":true,"confidence":5},{"trial_n":52,"n_dots":3.25,"target":"right","response":"left","rt":469.70000001788,"correct":false,"confidence":5},{"trial_n":53,"n_dots":3.35,"target":"left","response":"left","rt":430,"correct":true,"confidence":2},{"trial_n":54,"n_dots":3.35,"target":"left","response":"right","rt":695.79999998212,"correct":false,"confidence":4},{"trial_n":55,"n_dots":3.45,"target":"left","response":"left","rt":482,"correct":true,"confidence":4},{"trial_n":56,"n_dots":3.45,"target":"right","response":"left","rt":666.5,"correct":false,"confidence":3},{"trial_n":57,"n_dots":3.55,"target":"left","response":"right","rt":702.30000001192,"correct":false,"confidence":1},{"trial_n":58,"n_dots":3.65,"target":"right","response":"left","rt":505.30000001192,"correct":false,"confidence":5},{"trial_n":59,"n_dots":3.75,"target":"right","response":"right","rt":1389.3999999762,"correct":true,"confidence":3},{"trial_n":60,"n_dots":3.75,"target":"left","response":"left","rt":435.59999999404,"correct":true,"confidence":5},{"trial_n":61,"n_dots":3.65,"target":"right","response":"right","rt":531.20000001788,"correct":true,"confidence":4},{"trial_n":62,"n_dots":3.65,"target":"right","response":"left","rt":666.19999998808,"correct":false,"confidence":3},{"trial_n":63,"n_dots":3.75,"target":"left","response":"left","rt":427.90000000596,"correct":true,"confidence":5},{"trial_n":64,"n_dots":3.75,"target":"right","response":"right","rt":376.60000002384,"correct":true,"confidence":5},{"trial_n":65,"n_dots":3.65,"target":"right","response":"right","rt":458.69999998808,"correct":true,"confidence":4},{"trial_n":66,"n_dots":3.65,"target":"right","response":"left","rt":775.70000001788,"correct":false,"confidence":3},{"trial_n":67,"n_dots":3.75,"target":"left","response":"left","rt":584.80000001192,"correct":true,"confidence":3},{"trial_n":68,"n_dots":3.75,"target":"left","response":"left","rt":594.5,"correct":true,"confidence":4},{"trial_n":69,"n_dots":3.65,"target":"right","response":"right","rt":505.59999999404,"correct":true,"confidence":5},{"trial_n":70,"n_dots":3.65,"target":"right","response":"right","rt":2014.2999999821,"correct":true,"confidence":3},{"trial_n":71,"n_dots":3.55,"target":"left","response":"left","rt":358.40000000596,"correct":true,"confidence":5},{"trial_n":72,"n_dots":3.55,"target":"left","response":"left","rt":498.80000001192,"correct":true,"confidence":3},{"trial_n":73,"n_dots":3.45,"target":"right","response":"right","rt":766.69999998808,"correct":true,"confidence":3},{"trial_n":74,"n_dots":3.45,"target":"left","response":"left","rt":393.5,"correct":true,"confidence":5},{"trial_n":75,"n_dots":3.35,"target":"left","response":"left","rt":448.59999999404,"correct":true,"confidence":4},{"trial_n":76,"n_dots":3.35,"target":"right","response":"right","rt":426.40000000596,"correct":true,"confidence":5},{"trial_n":77,"n_dots":3.25,"target":"left","response":"left","rt":283.40000000596,"correct":true,"confidence":4},{"trial_n":78,"n_dots":3.25,"target":"right","response":"right","rt":455.39999997616,"correct":true,"confidence":5},{"trial_n":79,"n_dots":3.15,"target":"left","response":"left","rt":393.19999998808,"correct":true,"confidence":4},{"trial_n":80,"n_dots":3.15,"target":"right","response":"left","rt":637.70000001788,"correct":false,"confidence":3},{"trial_n":81,"n_dots":3.25,"target":"right","response":"right","rt":102.30000001192,"correct":true,"confidence":5},{"trial_n":82,"n_dots":3.25,"target":"left","response":"left","rt":441.5,"correct":true,"confidence":5},{"trial_n":83,"n_dots":3.15,"target":"right","response":"left","rt":1062.5,"correct":false,"confidence":2},{"trial_n":84,"n_dots":3.25,"target":"left","response":"right","rt":505.70000001788,"correct":false,"confidence":3},{"trial_n":85,"n_dots":3.35,"target":"right","response":"right","rt":77,"correct":true,"confidence":5},{"trial_n":86,"n_dots":3.35,"target":"right","response":"right","rt":470,"correct":true,"confidence":5},{"trial_n":87,"n_dots":3.25,"target":"right","response":"left","rt":463.20000001788,"correct":false,"confidence":4},{"trial_n":88,"n_dots":3.35,"target":"left","response":"left","rt":785.09999999404,"correct":true,"confidence":5},{"trial_n":89,"n_dots":3.35,"target":"left","response":"left","rt":458.20000001788,"correct":true,"confidence":4},{"trial_n":90,"n_dots":3.25,"target":"right","response":"right","rt":317.29999998212,"correct":true,"confidence":5},{"trial_n":91,"n_dots":3.25,"target":"left","response":"left","rt":389.69999998808,"correct":true,"confidence":4},{"trial_n":92,"n_dots":3.15,"target":"left","response":"left","rt":317.80000001192,"correct":true,"confidence":5},{"trial_n":93,"n_dots":3.15,"target":"left","response":"left","rt":234.5,"correct":true,"confidence":3},{"trial_n":94,"n_dots":3.05,"target":"right","response":"right","rt":401.19999998808,"correct":true,"confidence":3},{"trial_n":95,"n_dots":3.05,"target":"left","response":"left","rt":3.5,"correct":true,"confidence":5},{"trial_n":96,"n_dots":2.95,"target":"left","response":"left","rt":218,"correct":true,"confidence":5},{"trial_n":97,"n_dots":2.95,"target":"left","response":"right","rt":178,"correct":false,"confidence":5},{"trial_n":98,"n_dots":3.05,"target":"left","response":"left","rt":875.80000001192,"correct":true,"confidence":5},{"trial_n":99,"n_dots":3.05,"target":"right","response":"right","rt":514.79999998212,"correct":true,"confidence":2},{"trial_n":100,"n_dots":2.95,"target":"left","response":"left","rt":359.5,"correct":true,"confidence":1},{"trial_n":101,"n_dots":2.95,"target":"left","response":"left","rt":123.5,"correct":true,"confidence":5},{"trial_n":102,"n_dots":2.85,"target":"left","response":"left","rt":293.30000001192,"correct":true,"confidence":4},{"trial_n":103,"n_dots":2.85,"target":"right","response":"right","rt":494,"correct":true,"confidence":3},{"trial_n":104,"n_dots":2.75,"target":"right","response":"left","rt":916,"correct":false,"confidence":1},{"trial_n":105,"n_dots":2.85,"target":"right","response":"right","rt":498.09999999404,"correct":true,"confidence":5},{"trial_n":106,"n_dots":2.85,"target":"left","response":"left","rt":322.5,"correct":true,"confidence":3},{"trial_n":107,"n_dots":2.75,"target":"right","response":"right","rt":669.5,"correct":true,"confidence":4},{"trial_n":108,"n_dots":2.75,"target":"right","response":"right","rt":99.90000000596,"correct":true,"confidence":5},{"trial_n":109,"n_dots":2.65,"target":"left","response":"left","rt":653.80000001192,"correct":true,"confidence":2},{"trial_n":110,"n_dots":2.65,"target":"right","response":"right","rt":515.79999998212,"correct":true,"confidence":1},{"trial_n":111,"n_dots":2.55,"target":"right","response":"left","rt":317,"correct":false,"confidence":4},{"trial_n":112,"n_dots":2.65,"target":"right","response":"right","rt":444.59999999404,"correct":true,"confidence":3},{"trial_n":113,"n_dots":2.65,"target":"right","response":"left","rt":45,"correct":false,"confidence":2},{"trial_n":114,"n_dots":2.75,"target":"right","response":"right","rt":430.40000000596,"correct":true,"confidence":3},{"trial_n":115,"n_dots":2.75,"target":"left","response":"left","rt":323.5,"correct":true,"confidence":5},{"trial_n":116,"n_dots":2.65,"target":"left","response":"right","rt":799.69999998808,"correct":false,"confidence":5},{"trial_n":117,"n_dots":2.75,"target":"right","response":"left","rt":49,"correct":false,"confidence":5},{"trial_n":118,"n_dots":2.85,"target":"left","response":"left","rt":494,"correct":true,"confidence":4},{"trial_n":119,"n_dots":2.85,"target":"right","response":"right","rt":629.69999998808,"correct":true,"confidence":3},{"trial_n":120,"n_dots":2.75,"target":"right","response":"right","rt":300.79999998212,"correct":true,"confidence":5}]