[{"trial_n":1,"n_dots":4.25,"target":"right","response":"right","rt":11744.100000001,"correct":true,"confidence":-1},{"trial_n":2,"n_dots":4.25,"target":"left","response":"left","rt":503.19999999553,"correct":true,"confidence":-1},{"trial_n":3,"n_dots":3.85,"target":"right","response":"left","rt":1121.799999997,"correct":false,"confidence":-1},{"trial_n":4,"n_dots":4.25,"target":"left","response":"left","rt":403.20000000298,"correct":true,"confidence":-1},{"trial_n":5,"n_dots":4.25,"target":"right","response":"right","rt":577.60000000149,"correct":true,"confidence":-1},{"trial_n":6,"n_dots":3.85,"target":"left","response":"left","rt":419,"correct":true,"confidence":-1},{"trial_n":7,"n_dots":3.85,"target":"left","response":"left","rt":188.09999999404,"correct":true,"confidence":-1},{"trial_n":8,"n_dots":3.65,"target":"right","response":"right","rt":680,"correct":true,"confidence":-1},{"trial_n":9,"n_dots":3.65,"target":"left","response":"left","rt":181.30000000447,"correct":true,"confidence":-1},{"trial_n":10,"n_dots":3.45,"target":"right","response":"right","rt":623.89999999851,"correct":true,"confidence":-1},{"trial_n":11,"n_dots":3.45,"target":"right","response":"left","rt":520.79999999702,"correct":false,"confidence":-1},{"trial_n":12,"n_dots":3.65,"target":"right","response":"left","rt":904.70000000298,"correct":false,"confidence":-1},{"trial_n":13,"n_dots":3.75,"target":"right","response":"right","rt":557.29999999702,"correct":true,"confidence":-1},{"trial_n":14,"n_dots":3.75,"target":"left","response":"left","rt":348.10000000149,"correct":true,"confidence":-1},{"trial_n":15,"n_dots":3.65,"target":"right","response":"left","rt":191,"correct":false,"confidence":-1},{"trial_n":16,"n_dots":3.75,"target":"left","response":"right","rt":544.40000000596,"correct":false,"confidence":-1},{"trial_n":17,"n_dots":3.85,"target":"left","response":"left","rt":185.20000000298,"correct":true,"confidence":-1},{"trial_n":18,"n_dots":3.85,"target":"right","response":"left","rt":478.20000000298,"correct":false,"confidence":-1},{"trial_n":19,"n_dots":3.95,"target":"right","response":"left","rt":434.79999999702,"correct":false,"confidence":-1},{"trial_n":20,"n_dots":4.05,"target":"left","response":"left","rt":618.5,"correct":true,"confidence":-1},{"trial_n":21,"n_dots":4.05,"target":"left","response":"left","rt":545.39999999851,"correct":true,"confidence":4},{"trial_n":22,"n_dots":3.95,"target":"left","response":"left","rt":628.20000000298,"correct":true,"confidence":4},{"trial_n":23,"n_dots":3.95,"target":"right","response":"right","rt":627.40000000596,"correct":true,"confidence":3},{"trial_n":24,"n_dots":3.85,"target":"right","response":"left","rt":688.29999999702,"correct":false,"confidence":3},{"trial_n":25,"n_dots":3.95,"target":"right","response":"left","rt":2388,"correct":false,"confidence":2},{"trial_n":26,"n_dots":4.05,"target":"left","response":"left","rt":578,"correct":true,"confidence":3},{"trial_n":27,"n_dots":4.05,"target":"right","response":"right","rt":1184.400000006,"correct":true,"confidence":1},{"trial_n":28,"n_dots":3.95,"target":"left","response":"left","rt":570.10000000149,"correct":true,"confidence":3},{"trial_n":29,"n_dots":3.95,"target":"left","response":"left","rt":440.60000000149,"correct":true,"confidence":5},{"trial_n":30,"n_dots":3.85,"target":"left","response":"left","rt":627,"correct":true,"confidence":4},{"trial_n":31,"n_dots":3.85,"target":"right","response":"right","rt":657.20000000298,"correct":true,"confidence":2},{"trial_n":32,"n_dots":3.75,"target":"left","response":"left","rt":438.79999999702,"correct":true,"confidence":3},{"trial_n":33,"n_dots":3.75,"target":"left","response":"left","rt":294,"correct":true,"confidence":3},{"trial_n":34,"n_dots":3.65,"target":"right","response":"right","rt":690.19999999553,"correct":true,"confidence":2},{"trial_n":35,"n_dots":3.65,"target":"right","response":"left","rt":2209.799999997,"correct":false,"confidence":1},{"trial_n":36,"n_dots":3.75,"target":"right","response":"right","rt":760.70000000298,"correct":true,"confidence":2},{"trial_n":37,"n_dots":3.75,"target":"right","response":"left","rt":621.80000000447,"correct":false,"confidence":2},{"trial_n":38,"n_dots":3.85,"target":"right","response":"left","rt":1068.1999999955,"correct":false,"confidence":2},{"trial_n":39,"n_dots":3.95,"target":"left","response":"left","rt":282.29999999702,"correct":true,"confidence":3},{"trial_n":40,"n_dots":3.95,"target":"left","response":"left","rt":231.20000000298,"correct":true,"confidence":3},{"trial_n":41,"n_dots":3.85,"target":"right","response":"right","rt":1899.1000000015,"correct":true,"confidence":1},{"trial_n":42,"n_dots":3.85,"target":"right","response":"right","rt":654.80000000447,"correct":true,"confidence":3},{"trial_n":43,"n_dots":3.75,"target":"right","response":"right","rt":577,"correct":true,"confidence":3},{"trial_n":44,"n_dots":3.75,"target":"left","response":"left","rt":241.89999999851,"correct":true,"confidence":3},{"trial_n":45,"n_dots":3.65,"target":"left","response":"left","rt":595.69999999553,"correct":true,"confidence":3},{"trial_n":46,"n_dots":3.65,"target":"left","response":"left","rt":404.70000000298,"correct":true,"confidence":3},{"trial_n":47,"n_dots":3.55,"target":"left","response":"right","rt":851.60000000149,"correct":false,"confidence":2},{"trial_n":48,"n_dots":3.65,"target":"left","response":"left","rt":178.30000000447,"correct":true,"confidence":3},{"trial_n":49,"n_dots":3.65,"target":"right","response":"right","rt":541.29999999702,"correct":true,"confidence":3},{"trial_n":50,"n_dots":3.55,"target":"left","response":"left","rt":437.79999999702,"correct":true,"confidence":2},{"trial_n":51,"n_dots":3.55,"target":"left","response":"left","rt":490.19999999553,"correct":true,"confidence":3},{"trial_n":52,"n_dots":3.45,"target":"left","response":"left","rt":650.19999999553,"correct":true,"confidence":2},{"trial_n":53,"n_dots":3.45,"target":"left","response":"left","rt":381.79999999702,"correct":true,"confidence":2},{"trial_n":54,"n_dots":3.35,"target":"left","response":"left","rt":339.30000000447,"correct":true,"confidence":3},{"trial_n":55,"n_dots":3.35,"target":"left","response":"left","rt":540.29999999702,"correct":true,"confidence":4},{"trial_n":56,"n_dots":3.25,"target":"right","response":"left","rt":596.10000000149,"correct":false,"confidence":4},{"trial_n":57,"n_dots":3.35,"target":"left","response":"left","rt":637.30000000447,"correct":true,"confidence":4},{"trial_n":58,"n_dots":3.35,"target":"right","response":"right","rt":1950.6000000015,"correct":true,"confidence":1},{"trial_n":59,"n_dots":3.25,"target":"right","response":"right","rt":681.5,"correct":true,"confidence":3},{"trial_n":60,"n_dots":3.25,"target":"right","response":"right","rt":3742.3999999985,"correct":true,"confidence":1},{"trial_n":61,"n_dots":3.15,"target":"left","response":"left","rt":629.60000000149,"correct":true,"confidence":4},{"trial_n":62,"n_dots":3.15,"target":"right","response":"left","rt":415.69999999553,"correct":false,"confidence":4},{"trial_n":63,"n_dots":3.25,"target":"right","response":"right","rt":1524.3999999985,"correct":true,"confidence":2},{"trial_n":64,"n_dots":3.25,"target":"left","response":"left","rt":354.39999999851,"correct":true,"confidence":4},{"trial_n":65,"n_dots":3.15,"target":"right","response":"left","rt":329.20000000298,"correct":false,"confidence":4},{"trial_n":66,"n_dots":3.25,"target":"right","response":"right","rt":3270.799999997,"correct":true,"confidence":1},{"trial_n":67,"n_dots":3.25,"target":"left","response":"left","rt":332.60000000149,"correct":true,"confidence":3},{"trial_n":68,"n_dots":3.15,"target":"right","response":"right","rt":1378.3999999985,"correct":true,"confidence":1},{"trial_n":69,"n_dots":3.15,"target":"right","response":"left","rt":3034.1999999955,"correct":false,"confidence":1},{"trial_n":70,"n_dots":3.25,"target":"left","response":"left","rt":453.10000000149,"correct":true,"confidence":4},{"trial_n":71,"n_dots":3.25,"target":"right","response":"right","rt":2028.6000000015,"correct":true,"confidence":2},{"trial_n":72,"n_dots":3.15,"target":"right","response":"right","rt":2225.8000000045,"correct":true,"confidence":2},{"trial_n":73,"n_dots":3.15,"target":"right","response":"right","rt":580.89999999851,"correct":true,"confidence":2},{"trial_n":74,"n_dots":3.05,"target":"left","response":"left","rt":223.20000000298,"correct":true,"confidence":2},{"trial_n":75,"n_dots":3.05,"target":"left","response":"left","rt":584.39999999851,"correct":true,"confidence":2},{"trial_n":76,"n_dots":2.95,"target":"left","response":"left","rt":249.39999999851,"correct":true,"confidence":3},{"trial_n":77,"n_dots":2.95,"target":"right","response":"right","rt":2448.1000000015,"correct":true,"confidence":2},{"trial_n":78,"n_dots":2.85,"target":"right","response":"left","rt":833.70000000298,"correct":false,"confidence":2},{"trial_n":79,"n_dots":2.95,"target":"right","response":"left","rt":1745.5,"correct":false,"confidence":2},{"trial_n":80,"n_dots":3.05,"target":"right","response":"right","rt":1360.200000003,"correct":true,"confidence":2},{"trial_n":81,"n_dots":3.05,"target":"left","response":"left","rt":334.70000000298,"correct":true,"confidence":4},{"trial_n":82,"n_dots":2.95,"target":"left","response":"left","rt":1152.6000000015,"correct":true,"confidence":3},{"trial_n":83,"n_dots":2.95,"target":"left","response":"left","rt":380.39999999851,"correct":true,"confidence":3},{"trial_n":84,"n_dots":2.85,"target":"left","response":"left","rt":590.79999999702,"correct":true,"confidence":3},{"trial_n":85,"n_dots":2.85,"target":"right","response":"right","rt":605.10000000149,"correct":true,"confidence":4},{"trial_n":86,"n_dots":2.75,"target":"left","response":"left","rt":491.60000000149,"correct":true,"confidence":3},{"trial_n":87,"n_dots":2.75,"target":"right","response":"right","rt":1298.5,"correct":true,"confidence":2},{"trial_n":88,"n_dots":2.65,"target":"right","response":"left","rt":213.20000000298,"correct":false,"confidence":3},{"trial_n":89,"n_dots":2.75,"target":"right","response":"left","rt":205.39999999851,"correct":false,"confidence":2},{"trial_n":90,"n_dots":2.85,"target":"right","response":"left","rt":1013.8000000045,"correct":false,"confidence":2},{"trial_n":91,"n_dots":2.95,"target":"left","response":"left","rt":2011,"correct":true,"confidence":1},{"trial_n":92,"n_dots":2.95,"target":"left","response":"left","rt":770.90000000596,"correct":true,"confidence":3},{"trial_n":93,"n_dots":2.85,"target":"right","response":"right","rt":1811.1000000015,"correct":true,"confidence":2},{"trial_n":94,"n_dots":2.85,"target":"left","response":"left","rt":658.29999999702,"correct":true,"confidence":3},{"trial_n":95,"n_dots":2.75,"target":"right","response":"left","rt":1371.1000000015,"correct":false,"confidence":2},{"trial_n":96,"n_dots":2.85,"target":"left","response":"left","rt":647.39999999851,"correct":true,"confidence":3},{"trial_n":97,"n_dots":2.85,"target":"left","response":"left","rt":841.69999999553,"correct":true,"confidence":2},{"trial_n":98,"n_dots":2.75,"target":"right","response":"left","rt":846.5,"correct":false,"confidence":3},{"trial_n":99,"n_dots":2.85,"target":"left","response":"left","rt":489.89999999851,"correct":true,"confidence":3},{"trial_n":100,"n_dots":2.85,"target":"right","response":"right","rt":1145.200000003,"correct":true,"confidence":2},{"trial_n":101,"n_dots":2.75,"target":"left","response":"left","rt":404.5,"correct":true,"confidence":3},{"trial_n":102,"n_dots":2.75,"target":"left","response":"left","rt":466.59999999404,"correct":true,"confidence":3},{"trial_n":103,"n_dots":2.65,"target":"right","response":"left","rt":525.39999999851,"correct":false,"confidence":3},{"trial_n":104,"n_dots":2.75,"target":"right","response":"left","rt":3017.8999999985,"correct":false,"confidence":3},{"trial_n":105,"n_dots":2.85,"target":"left","response":"left","rt":828.89999999851,"correct":true,"confidence":3},{"trial_n":106,"n_dots":2.85,"target":"left","response":"right","rt":1248.1000000015,"correct":false,"confidence":1},{"trial_n":107,"n_dots":2.95,"target":"left","response":"right","rt":3446.3999999985,"correct":false,"confidence":1},{"trial_n":108,"n_dots":3.05,"target":"right","response":"left","rt":681.10000000149,"correct":false,"confidence":1},{"trial_n":109,"n_dots":3.15,"target":"left","response":"left","rt":794.5,"correct":true,"confidence":2},{"trial_n":110,"n_dots":3.15,"target":"left","response":"left","rt":678.39999999851,"correct":true,"confidence":1},{"trial_n":111,"n_dots":3.05,"target":"right","response":"left","rt":1180.400000006,"correct":false,"confidence":1},{"trial_n":112,"n_dots":3.15,"target":"right","response":"right","rt":769.79999999702,"correct":true,"confidence":3},{"trial_n":113,"n_dots":3.15,"target":"right","response":"left","rt":988.89999999851,"correct":false,"confidence":1},{"trial_n":114,"n_dots":3.25,"target":"left","response":"left","rt":331.79999999702,"correct":true,"confidence":2},{"trial_n":115,"n_dots":3.25,"target":"right","response":"right","rt":680.89999999851,"correct":true,"confidence":1},{"trial_n":116,"n_dots":3.15,"target":"right","response":"left","rt":657.89999999851,"correct":false,"confidence":1},{"trial_n":117,"n_dots":3.25,"target":"left","response":"right","rt":705.20000000298,"correct":false,"confidence":1},{"trial_n":118,"n_dots":3.35,"target":"right","response":"left","rt":200.30000000447,"correct":false,"confidence":2},{"trial_n":119,"n_dots":3.45,"target":"left","response":"left","rt":112,"correct":true,"confidence":3},{"trial_n":120,"n_dots":3.45,"target":"left","response":"left","rt":287.79999999702,"correct":true,"confidence":3}]