[{"trial_n":1,"n_dots":4.25,"target":"left","response":"right","rt":4204,"correct":false,"confidence":-1},{"trial_n":2,"n_dots":4.25,"target":"right","response":"right","rt":1008,"correct":true,"confidence":-1},{"trial_n":3,"n_dots":4.25,"target":"right","response":"left","rt":816,"correct":false,"confidence":-1},{"trial_n":4,"n_dots":4.65,"target":"right","response":"right","rt":636,"correct":true,"confidence":-1},{"trial_n":5,"n_dots":4.65,"target":"right","response":"right","rt":649,"correct":true,"confidence":-1},{"trial_n":6,"n_dots":4.25,"target":"left","response":"left","rt":757.00000000001,"correct":true,"confidence":-1},{"trial_n":7,"n_dots":4.25,"target":"right","response":"right","rt":687.00000000001,"correct":true,"confidence":-1},{"trial_n":8,"n_dots":4.05,"target":"right","response":"right","rt":415,"correct":true,"confidence":-1},{"trial_n":9,"n_dots":4.05,"target":"right","response":"left","rt":827.00000000001,"correct":false,"confidence":-1},{"trial_n":10,"n_dots":4.25,"target":"left","response":"left","rt":467.99999999999,"correct":true,"confidence":-1},{"trial_n":11,"n_dots":4.25,"target":"left","response":"left","rt":361,"correct":true,"confidence":-1},{"trial_n":12,"n_dots":4.05,"target":"right","response":"right","rt":710,"correct":true,"confidence":-1},{"trial_n":13,"n_dots":4.05,"target":"right","response":"left","rt":808,"correct":false,"confidence":-1},{"trial_n":14,"n_dots":4.15,"target":"right","response":"right","rt":651.00000000001,"correct":true,"confidence":-1},{"trial_n":15,"n_dots":4.15,"target":"left","response":"left","rt":402,"correct":true,"confidence":-1},{"trial_n":16,"n_dots":4.05,"target":"left","response":"left","rt":659.99999999999,"correct":true,"confidence":-1},{"trial_n":17,"n_dots":4.05,"target":"right","response":"right","rt":1151,"correct":true,"confidence":-1},{"trial_n":18,"n_dots":3.95,"target":"left","response":"left","rt":666,"correct":true,"confidence":-1},{"trial_n":19,"n_dots":3.95,"target":"left","response":"right","rt":6084,"correct":false,"confidence":-1},{"trial_n":20,"n_dots":4.05,"target":"right","response":"right","rt":715,"correct":true,"confidence":-1},{"trial_n":21,"n_dots":4.05,"target":"right","response":"right","rt":959.00000000001,"correct":true,"confidence":3},{"trial_n":22,"n_dots":3.95,"target":"left","response":"left","rt":619,"correct":true,"confidence":4},{"trial_n":23,"n_dots":3.95,"target":"left","response":"left","rt":836,"correct":true,"confidence":4},{"trial_n":24,"n_dots":3.85,"target":"left","response":"left","rt":1464,"correct":true,"confidence":3},{"trial_n":25,"n_dots":3.85,"target":"left","response":"left","rt":913.00000000001,"correct":true,"confidence":3},{"trial_n":26,"n_dots":3.75,"target":"left","response":"right","rt":741,"correct":false,"confidence":3},{"trial_n":27,"n_dots":3.85,"target":"right","response":"left","rt":731,"correct":false,"confidence":4},{"trial_n":28,"n_dots":3.95,"target":"left","response":"left","rt":671,"correct":true,"confidence":5},{"trial_n":29,"n_dots":3.95,"target":"left","response":"left","rt":488.99999999997,"correct":true,"confidence":3},{"trial_n":30,"n_dots":3.85,"target":"left","response":"left","rt":1287,"correct":true,"confidence":2},{"trial_n":31,"n_dots":3.85,"target":"left","response":"left","rt":408,"correct":true,"confidence":3},{"trial_n":32,"n_dots":3.75,"target":"right","response":"right","rt":1021,"correct":true,"confidence":1},{"trial_n":33,"n_dots":3.75,"target":"left","response":"left","rt":685,"correct":true,"confidence":3},{"trial_n":34,"n_dots":3.65,"target":"right","response":"right","rt":2401,"correct":true,"confidence":2},{"trial_n":35,"n_dots":3.65,"target":"right","response":"right","rt":405,"correct":true,"confidence":3},{"trial_n":36,"n_dots":3.55,"target":"left","response":"left","rt":622,"correct":true,"confidence":3},{"trial_n":37,"n_dots":3.55,"target":"right","response":"right","rt":1018,"correct":true,"confidence":3},{"trial_n":38,"n_dots":3.45,"target":"left","response":"right","rt":795,"correct":false,"confidence":2},{"trial_n":39,"n_dots":3.55,"target":"right","response":"right","rt":526,"correct":true,"confidence":3},{"trial_n":40,"n_dots":3.55,"target":"right","response":"right","rt":274,"correct":true,"confidence":5},{"trial_n":41,"n_dots":3.45,"target":"right","response":"right","rt":762,"correct":true,"confidence":3},{"trial_n":42,"n_dots":3.45,"target":"left","response":"left","rt":429,"correct":true,"confidence":4},{"trial_n":43,"n_dots":3.35,"target":"left","response":"left","rt":839,"correct":true,"confidence":4},{"trial_n":44,"n_dots":3.35,"target":"right","response":"right","rt":622,"correct":true,"confidence":3},{"trial_n":45,"n_dots":3.25,"target":"left","response":"left","rt":670,"correct":true,"confidence":3},{"trial_n":46,"n_dots":3.25,"target":"right","response":"right","rt":346.99999999997,"correct":true,"confidence":4},{"trial_n":47,"n_dots":3.15,"target":"right","response":"right","rt":334,"correct":true,"confidence":4},{"trial_n":48,"n_dots":3.15,"target":"left","response":"right","rt":500,"correct":false,"confidence":4},{"trial_n":49,"n_dots":3.25,"target":"right","response":"right","rt":295,"correct":true,"confidence":5},{"trial_n":50,"n_dots":3.25,"target":"right","response":"right","rt":578,"correct":true,"confidence":3},{"trial_n":51,"n_dots":3.15,"target":"left","response":"left","rt":716.00000000003,"correct":true,"confidence":2},{"trial_n":52,"n_dots":3.15,"target":"right","response":"left","rt":646,"correct":false,"confidence":1},{"trial_n":53,"n_dots":3.25,"target":"left","response":"left","rt":656.00000000006,"correct":true,"confidence":2},{"trial_n":54,"n_dots":3.25,"target":"right","response":"right","rt":265,"correct":true,"confidence":5},{"trial_n":55,"n_dots":3.15,"target":"left","response":"right","rt":2033,"correct":false,"confidence":1},{"trial_n":56,"n_dots":3.25,"target":"right","response":"right","rt":386,"correct":true,"confidence":3},{"trial_n":57,"n_dots":3.25,"target":"left","response":"left","rt":947,"correct":true,"confidence":1},{"trial_n":58,"n_dots":3.15,"target":"right","response":"right","rt":472,"correct":true,"confidence":3},{"trial_n":59,"n_dots":3.15,"target":"left","response":"left","rt":485,"correct":true,"confidence":3},{"trial_n":60,"n_dots":3.05,"target":"right","response":"right","rt":233,"correct":true,"confidence":3},{"trial_n":61,"n_dots":3.05,"target":"left","response":"left","rt":377.00000000006,"correct":true,"confidence":3},{"trial_n":62,"n_dots":2.95,"target":"right","response":"right","rt":106,"correct":true,"confidence":3},{"trial_n":63,"n_dots":2.95,"target":"right","response":"right","rt":369,"correct":true,"confidence":3},{"trial_n":64,"n_dots":2.85,"target":"right","response":"right","rt":407,"correct":true,"confidence":4},{"trial_n":65,"n_dots":2.85,"target":"left","response":"left","rt":203,"correct":true,"confidence":2},{"trial_n":66,"n_dots":2.75,"target":"left","response":"right","rt":544,"correct":false,"confidence":3},{"trial_n":67,"n_dots":2.85,"target":"left","response":"left","rt":2291,"correct":true,"confidence":1},{"trial_n":68,"n_dots":2.85,"target":"right","response":"left","rt":493,"correct":false,"confidence":1},{"trial_n":69,"n_dots":2.95,"target":"left","response":"left","rt":378,"correct":true,"confidence":3},{"trial_n":70,"n_dots":2.95,"target":"left","response":"left","rt":480.00000000006,"correct":true,"confidence":4},{"trial_n":71,"n_dots":2.85,"target":"left","response":"right","rt":183,"correct":false,"confidence":5},{"trial_n":72,"n_dots":2.95,"target":"left","response":"left","rt":196,"correct":true,"confidence":5},{"trial_n":73,"n_dots":2.95,"target":"left","response":"left","rt":238.00000000006,"correct":true,"confidence":4},{"trial_n":74,"n_dots":2.85,"target":"right","response":"right","rt":112.99999999994,"correct":true,"confidence":4},{"trial_n":75,"n_dots":2.85,"target":"right","response":"right","rt":257.99999999994,"correct":true,"confidence":5},{"trial_n":76,"n_dots":2.75,"target":"right","response":"left","rt":1115,"correct":false,"confidence":3},{"trial_n":77,"n_dots":2.85,"target":"left","response":"right","rt":6887,"correct":false,"confidence":3},{"trial_n":78,"n_dots":2.95,"target":"right","response":"left","rt":529,"correct":false,"confidence":4},{"trial_n":79,"n_dots":3.05,"target":"right","response":"right","rt":656,"correct":true,"confidence":3},{"trial_n":80,"n_dots":3.05,"target":"right","response":"left","rt":6695,"correct":false,"confidence":1},{"trial_n":81,"n_dots":3.15,"target":"left","response":"right","rt":899,"correct":false,"confidence":1},{"trial_n":82,"n_dots":3.25,"target":"left","response":"left","rt":357,"correct":true,"confidence":2},{"trial_n":83,"n_dots":3.25,"target":"right","response":"right","rt":409,"correct":true,"confidence":3},{"trial_n":84,"n_dots":3.15,"target":"right","response":"right","rt":326,"correct":true,"confidence":4},{"trial_n":85,"n_dots":3.15,"target":"right","response":"right","rt":112,"correct":true,"confidence":1},{"trial_n":86,"n_dots":3.05,"target":"left","response":"left","rt":2301,"correct":true,"confidence":1},{"trial_n":87,"n_dots":3.05,"target":"left","response":"left","rt":584.99999999988,"correct":true,"confidence":2},{"trial_n":88,"n_dots":2.95,"target":"right","response":"left","rt":816,"correct":false,"confidence":1},{"trial_n":89,"n_dots":3.05,"target":"left","response":"left","rt":277,"correct":true,"confidence":4},{"trial_n":90,"n_dots":3.05,"target":"right","response":"right","rt":600,"correct":true,"confidence":3},{"trial_n":91,"n_dots":2.95,"target":"left","response":"left","rt":396,"correct":true,"confidence":3},{"trial_n":92,"n_dots":2.95,"target":"right","response":"left","rt":377,"correct":false,"confidence":4},{"trial_n":93,"n_dots":3.05,"target":"right","response":"left","rt":1305,"correct":false,"confidence":2},{"trial_n":94,"n_dots":3.15,"target":"right","response":"right","rt":109,"correct":true,"confidence":3},{"trial_n":95,"n_dots":3.15,"target":"right","response":"right","rt":329,"correct":true,"confidence":4},{"trial_n":96,"n_dots":3.05,"target":"left","response":"left","rt":490,"correct":true,"confidence":2},{"trial_n":97,"n_dots":3.05,"target":"left","response":"left","rt":886,"correct":true,"confidence":3},{"trial_n":98,"n_dots":2.95,"target":"right","response":"right","rt":239,"correct":true,"confidence":4},{"trial_n":99,"n_dots":2.95,"target":"right","response":"right","rt":399,"correct":true,"confidence":2},{"trial_n":100,"n_dots":2.85,"target":"left","response":"right","rt":576,"correct":false,"confidence":3},{"trial_n":101,"n_dots":2.95,"target":"left","response":"left","rt":646,"correct":true,"confidence":3},{"trial_n":102,"n_dots":2.95,"target":"left","response":"right","rt":784.99999999988,"correct":false,"confidence":1},{"trial_n":103,"n_dots":3.05,"target":"right","response":"right","rt":515,"correct":true,"confidence":3},{"trial_n":104,"n_dots":3.05,"target":"right","response":"right","rt":593,"correct":true,"confidence":2},{"trial_n":105,"n_dots":2.95,"target":"left","response":"left","rt":890,"correct":true,"confidence":1},{"trial_n":106,"n_dots":2.95,"target":"right","response":"right","rt":503.99999999988,"correct":true,"confidence":3},{"trial_n":107,"n_dots":2.85,"target":"left","response":"left","rt":812.00000000012,"correct":true,"confidence":2},{"trial_n":108,"n_dots":2.85,"target":"right","response":"right","rt":630,"correct":true,"confidence":3},{"trial_n":109,"n_dots":2.75,"target":"left","response":"left","rt":374,"correct":true,"confidence":2},{"trial_n":110,"n_dots":2.75,"target":"right","response":"right","rt":348,"correct":true,"confidence":4},{"trial_n":111,"n_dots":2.65,"target":"left","response":"left","rt":502,"correct":true,"confidence":3},{"trial_n":112,"n_dots":2.65,"target":"left","response":"left","rt":474.00000000012,"correct":true,"confidence":4},{"trial_n":113,"n_dots":2.55,"target":"left","response":"right","rt":590,"correct":false,"confidence":4},{"trial_n":114,"n_dots":2.65,"target":"left","response":"left","rt":739,"correct":true,"confidence":3},{"trial_n":115,"n_dots":2.65,"target":"left","response":"left","rt":438,"correct":true,"confidence":2},{"trial_n":116,"n_dots":2.55,"target":"left","response":"right","rt":1888,"correct":false,"confidence":1},{"trial_n":117,"n_dots":2.65,"target":"right","response":"right","rt":587,"correct":true,"confidence":3},{"trial_n":118,"n_dots":2.65,"target":"left","response":"left","rt":893,"correct":true,"confidence":2},{"trial_n":119,"n_dots":2.55,"target":"right","response":"right","rt":306,"correct":true,"confidence":4},{"trial_n":120,"n_dots":2.55,"target":"right","response":"right","rt":688,"correct":true,"confidence":4}]