[{"trial_n":1,"min":25,"max":230,"target":"present","response":"absent","rt":4298,"correct":false,"confidence":-1},{"trial_n":2,"min":25,"max":230,"target":"present","response":"present","rt":2422,"correct":true,"confidence":-1},{"trial_n":3,"min":25,"max":230,"target":"absent","response":"absent","rt":488,"correct":true,"confidence":-1},{"trial_n":4,"min":41,"max":214,"target":"absent","response":"absent","rt":457,"correct":true,"confidence":-1},{"trial_n":5,"min":41,"max":214,"target":"present","response":"present","rt":459,"correct":true,"confidence":-1},{"trial_n":6,"min":57,"max":198,"target":"absent","response":"absent","rt":457,"correct":true,"confidence":-1},{"trial_n":7,"min":57,"max":198,"target":"absent","response":"absent","rt":397,"correct":true,"confidence":-1},{"trial_n":8,"min":73,"max":182,"target":"absent","response":"absent","rt":365,"correct":true,"confidence":-1},{"trial_n":9,"min":73,"max":182,"target":"absent","response":"absent","rt":1018,"correct":true,"confidence":-1},{"trial_n":10,"min":89,"max":166,"target":"present","response":"present","rt":453,"correct":true,"confidence":-1},{"trial_n":11,"min":89,"max":166,"target":"present","response":"absent","rt":540,"correct":false,"confidence":-1},{"trial_n":12,"min":81,"max":174,"target":"absent","response":"present","rt":1412,"correct":false,"confidence":-1},{"trial_n":13,"min":73,"max":182,"target":"absent","response":"absent","rt":598,"correct":true,"confidence":-1},{"trial_n":14,"min":73,"max":182,"target":"absent","response":"absent","rt":330,"correct":true,"confidence":-1},{"trial_n":15,"min":81,"max":174,"target":"absent","response":"absent","rt":298,"correct":true,"confidence":-1},{"trial_n":16,"min":81,"max":174,"target":"present","response":"absent","rt":307,"correct":false,"confidence":-1},{"trial_n":17,"min":73,"max":182,"target":"absent","response":"absent","rt":2748,"correct":true,"confidence":-1},{"trial_n":18,"min":73,"max":182,"target":"absent","response":"absent","rt":438,"correct":true,"confidence":-1},{"trial_n":19,"min":81,"max":174,"target":"present","response":"present","rt":487,"correct":true,"confidence":-1},{"trial_n":20,"min":81,"max":174,"target":"absent","response":"absent","rt":436,"correct":true,"confidence":-1},{"trial_n":21,"min":85,"max":170,"target":"absent","response":"absent","rt":641.99999999999,"correct":true,"confidence":3},{"trial_n":22,"min":85,"max":170,"target":"present","response":"present","rt":546,"correct":true,"confidence":5},{"trial_n":23,"min":89,"max":166,"target":"present","response":"absent","rt":882.99999999999,"correct":false,"confidence":3},{"trial_n":24,"min":85,"max":170,"target":"present","response":"present","rt":650.99999999999,"correct":true,"confidence":4},{"trial_n":25,"min":85,"max":170,"target":"present","response":"present","rt":955,"correct":true,"confidence":4},{"trial_n":26,"min":89,"max":166,"target":"present","response":"absent","rt":485.99999999999,"correct":false,"confidence":4},{"trial_n":27,"min":85,"max":170,"target":"present","response":"absent","rt":514,"correct":false,"confidence":5},{"trial_n":28,"min":81,"max":174,"target":"present","response":"absent","rt":525,"correct":false,"confidence":5},{"trial_n":29,"min":77,"max":178,"target":"absent","response":"absent","rt":597,"correct":true,"confidence":5},{"trial_n":30,"min":77,"max":178,"target":"present","response":"present","rt":835,"correct":true,"confidence":2},{"trial_n":31,"min":79,"max":176,"target":"absent","response":"absent","rt":802,"correct":true,"confidence":1},{"trial_n":32,"min":79,"max":176,"target":"absent","response":"present","rt":700,"correct":false,"confidence":3},{"trial_n":33,"min":77,"max":178,"target":"present","response":"present","rt":807,"correct":true,"confidence":3},{"trial_n":34,"min":77,"max":178,"target":"present","response":"present","rt":477,"correct":true,"confidence":3},{"trial_n":35,"min":79,"max":176,"target":"present","response":"present","rt":584,"correct":true,"confidence":3},{"trial_n":36,"min":79,"max":176,"target":"absent","response":"present","rt":1328,"correct":false,"confidence":3},{"trial_n":37,"min":77,"max":178,"target":"present","response":"absent","rt":496,"correct":false,"confidence":5},{"trial_n":38,"min":75,"max":180,"target":"absent","response":"absent","rt":568,"correct":true,"confidence":5},{"trial_n":39,"min":75,"max":180,"target":"present","response":"present","rt":996,"correct":true,"confidence":3},{"trial_n":40,"min":77,"max":178,"target":"absent","response":"absent","rt":3300,"correct":true,"confidence":1},{"trial_n":41,"min":77,"max":178,"target":"absent","response":"absent","rt":509,"correct":true,"confidence":3},{"trial_n":42,"min":78,"max":177,"target":"absent","response":"absent","rt":423.00000000001,"correct":true,"confidence":3},{"trial_n":43,"min":78,"max":177,"target":"present","response":"absent","rt":573,"correct":false,"confidence":3},{"trial_n":44,"min":77,"max":178,"target":"absent","response":"absent","rt":372,"correct":true,"confidence":3},{"trial_n":45,"min":77,"max":178,"target":"present","response":"present","rt":933,"correct":true,"confidence":4},{"trial_n":46,"min":78,"max":177,"target":"absent","response":"absent","rt":782.00000000001,"correct":true,"confidence":4},{"trial_n":47,"min":78,"max":177,"target":"present","response":"present","rt":1377,"correct":true,"confidence":3},{"trial_n":48,"min":79,"max":176,"target":"present","response":"present","rt":1272,"correct":true,"confidence":4},{"trial_n":49,"min":79,"max":176,"target":"present","response":"present","rt":901,"correct":true,"confidence":2},{"trial_n":50,"min":80,"max":175,"target":"present","response":"absent","rt":1092,"correct":false,"confidence":1},{"trial_n":51,"min":79,"max":176,"target":"present","response":"absent","rt":1221,"correct":false,"confidence":1},{"trial_n":52,"min":78,"max":177,"target":"present","response":"present","rt":632,"correct":true,"confidence":4},{"trial_n":53,"min":78,"max":177,"target":"present","response":"present","rt":715.00000000012,"correct":true,"confidence":4},{"trial_n":54,"min":79,"max":176,"target":"absent","response":"absent","rt":419,"correct":true,"confidence":5},{"trial_n":55,"min":79,"max":176,"target":"present","response":"present","rt":1824,"correct":true,"confidence":4},{"trial_n":56,"min":80,"max":175,"target":"present","response":"present","rt":654,"correct":true,"confidence":4},{"trial_n":57,"min":80,"max":175,"target":"absent","response":"absent","rt":1042,"correct":true,"confidence":3},{"trial_n":58,"min":81,"max":174,"target":"absent","response":"absent","rt":1077,"correct":true,"confidence":3},{"trial_n":59,"min":81,"max":174,"target":"absent","response":"absent","rt":442,"correct":true,"confidence":4},{"trial_n":60,"min":82,"max":173,"target":"absent","response":"absent","rt":991,"correct":true,"confidence":4},{"trial_n":61,"min":82,"max":173,"target":"present","response":"absent","rt":940,"correct":false,"confidence":4},{"trial_n":62,"min":81,"max":174,"target":"present","response":"absent","rt":867,"correct":false,"confidence":4},{"trial_n":63,"min":80,"max":175,"target":"absent","response":"absent","rt":585,"correct":true,"confidence":4},{"trial_n":64,"min":80,"max":175,"target":"absent","response":"present","rt":1338,"correct":false,"confidence":3},{"trial_n":65,"min":79,"max":176,"target":"present","response":"present","rt":839.00000000012,"correct":true,"confidence":3},{"trial_n":66,"min":79,"max":176,"target":"absent","response":"present","rt":682,"correct":false,"confidence":1},{"trial_n":67,"min":78,"max":177,"target":"absent","response":"absent","rt":1920,"correct":true,"confidence":1},{"trial_n":68,"min":78,"max":177,"target":"absent","response":"absent","rt":735,"correct":true,"confidence":4},{"trial_n":69,"min":79,"max":176,"target":"present","response":"absent","rt":521,"correct":false,"confidence":4},{"trial_n":70,"min":78,"max":177,"target":"present","response":"present","rt":649,"correct":true,"confidence":4},{"trial_n":71,"min":41,"max":214,"target":"present","response":"present","rt":5688,"correct":true,"confidence":-1},{"trial_n":72,"min":41,"max":214,"target":"present","response":"present","rt":591,"correct":true,"confidence":-1},{"trial_n":73,"min":57,"max":198,"target":"absent","response":"absent","rt":681,"correct":true,"confidence":-1},{"trial_n":74,"min":57,"max":198,"target":"absent","response":"absent","rt":619.00000000012,"correct":true,"confidence":-1},{"trial_n":75,"min":73,"max":182,"target":"present","response":"present","rt":729,"correct":true,"confidence":-1},{"trial_n":76,"min":73,"max":182,"target":"absent","response":"absent","rt":668,"correct":true,"confidence":-1},{"trial_n":77,"min":89,"max":166,"target":"absent","response":"present","rt":1407,"correct":false,"confidence":-1},{"trial_n":78,"min":73,"max":182,"target":"absent","response":"absent","rt":967,"correct":true,"confidence":-1},{"trial_n":79,"min":73,"max":182,"target":"absent","response":"absent","rt":885,"correct":true,"confidence":-1},{"trial_n":80,"min":89,"max":166,"target":"present","response":"present","rt":414,"correct":true,"confidence":-1},{"trial_n":81,"min":89,"max":166,"target":"present","response":"absent","rt":1023,"correct":false,"confidence":-1},{"trial_n":82,"min":81,"max":174,"target":"present","response":"present","rt":528,"correct":true,"confidence":-1},{"trial_n":83,"min":81,"max":174,"target":"absent","response":"absent","rt":976,"correct":true,"confidence":-1},{"trial_n":84,"min":89,"max":166,"target":"present","response":"present","rt":763,"correct":true,"confidence":-1},{"trial_n":85,"min":89,"max":166,"target":"present","response":"absent","rt":1142,"correct":false,"confidence":-1},{"trial_n":86,"min":81,"max":174,"target":"absent","response":"absent","rt":1240,"correct":true,"confidence":-1},{"trial_n":87,"min":81,"max":174,"target":"absent","response":"absent","rt":977,"correct":true,"confidence":-1},{"trial_n":88,"min":89,"max":166,"target":"present","response":"present","rt":416.00000000012,"correct":true,"confidence":-1},{"trial_n":89,"min":89,"max":166,"target":"present","response":"absent","rt":1090,"correct":false,"confidence":-1},{"trial_n":90,"min":81,"max":174,"target":"present","response":"present","rt":695,"correct":true,"confidence":-1},{"trial_n":91,"min":81,"max":174,"target":"present","response":"present","rt":771.99999999988,"correct":true,"confidence":3},{"trial_n":92,"min":85,"max":170,"target":"absent","response":"absent","rt":1014,"correct":true,"confidence":3},{"trial_n":93,"min":85,"max":170,"target":"present","response":"present","rt":893,"correct":true,"confidence":1},{"trial_n":94,"min":89,"max":166,"target":"absent","response":"present","rt":1129,"correct":false,"confidence":3},{"trial_n":95,"min":85,"max":170,"target":"present","response":"present","rt":452,"correct":true,"confidence":5},{"trial_n":96,"min":85,"max":170,"target":"present","response":"present","rt":519,"correct":true,"confidence":4},{"trial_n":97,"min":89,"max":166,"target":"present","response":"present","rt":712,"correct":true,"confidence":4},{"trial_n":98,"min":89,"max":166,"target":"present","response":"present","rt":507,"correct":true,"confidence":4},{"trial_n":99,"min":93,"max":162,"target":"present","response":"present","rt":960,"correct":true,"confidence":5},{"trial_n":100,"min":93,"max":162,"target":"absent","response":"present","rt":486,"correct":false,"confidence":4},{"trial_n":101,"min":91,"max":164,"target":"absent","response":"present","rt":964.99999999988,"correct":false,"confidence":2},{"trial_n":102,"min":89,"max":166,"target":"absent","response":"absent","rt":953,"correct":true,"confidence":3},{"trial_n":103,"min":89,"max":166,"target":"absent","response":"present","rt":573,"correct":false,"confidence":4},{"trial_n":104,"min":87,"max":168,"target":"absent","response":"present","rt":3139,"correct":false,"confidence":3},{"trial_n":105,"min":85,"max":170,"target":"absent","response":"absent","rt":842,"correct":true,"confidence":1},{"trial_n":106,"min":85,"max":170,"target":"absent","response":"present","rt":1020.9999999999,"correct":false,"confidence":3},{"trial_n":107,"min":83,"max":172,"target":"absent","response":"absent","rt":1545,"correct":true,"confidence":2},{"trial_n":108,"min":83,"max":172,"target":"absent","response":"absent","rt":727,"correct":true,"confidence":4},{"trial_n":109,"min":85,"max":170,"target":"absent","response":"present","rt":632,"correct":false,"confidence":3},{"trial_n":110,"min":83,"max":172,"target":"present","response":"present","rt":529,"correct":true,"confidence":3},{"trial_n":111,"min":83,"max":172,"target":"absent","response":"absent","rt":551,"correct":true,"confidence":4},{"trial_n":112,"min":84,"max":171,"target":"present","response":"present","rt":432,"correct":true,"confidence":4},{"trial_n":113,"min":84,"max":171,"target":"present","response":"present","rt":1534,"correct":true,"confidence":4},{"trial_n":114,"min":85,"max":170,"target":"absent","response":"absent","rt":1264,"correct":true,"confidence":3},{"trial_n":115,"min":85,"max":170,"target":"present","response":"present","rt":1153,"correct":true,"confidence":4},{"trial_n":116,"min":86,"max":169,"target":"absent","response":"absent","rt":664,"correct":true,"confidence":1},{"trial_n":117,"min":86,"max":169,"target":"present","response":"absent","rt":563,"correct":false,"confidence":1},{"trial_n":118,"min":85,"max":170,"target":"present","response":"present","rt":552,"correct":true,"confidence":4},{"trial_n":119,"min":85,"max":170,"target":"absent","response":"absent","rt":879,"correct":true,"confidence":2},{"trial_n":120,"min":86,"max":169,"target":"present","response":"present","rt":680,"correct":true,"confidence":4},{"trial_n":121,"min":86,"max":169,"target":"present","response":"present","rt":607,"correct":true,"confidence":3},{"trial_n":122,"min":87,"max":168,"target":"present","response":"present","rt":752,"correct":true,"confidence":4},{"trial_n":123,"min":87,"max":168,"target":"absent","response":"present","rt":453,"correct":false,"confidence":3},{"trial_n":124,"min":86,"max":169,"target":"absent","response":"absent","rt":497,"correct":true,"confidence":1},{"trial_n":125,"min":86,"max":169,"target":"absent","response":"absent","rt":789.99999999988,"correct":true,"confidence":1},{"trial_n":126,"min":87,"max":168,"target":"absent","response":"present","rt":509,"correct":false,"confidence":3},{"trial_n":127,"min":86,"max":169,"target":"absent","response":"absent","rt":1118,"correct":true,"confidence":2},{"trial_n":128,"min":86,"max":169,"target":"present","response":"present","rt":324,"correct":true,"confidence":4},{"trial_n":129,"min":87,"max":168,"target":"present","response":"present","rt":1168,"correct":true,"confidence":2},{"trial_n":130,"min":87,"max":168,"target":"absent","response":"absent","rt":927.00000000012,"correct":true,"confidence":1},{"trial_n":131,"min":88,"max":167,"target":"present","response":"present","rt":637,"correct":true,"confidence":4},{"trial_n":132,"min":88,"max":167,"target":"absent","response":"present","rt":1016,"correct":false,"confidence":3},{"trial_n":133,"min":87,"max":168,"target":"absent","response":"absent","rt":1135,"correct":true,"confidence":4},{"trial_n":134,"min":87,"max":168,"target":"present","response":"present","rt":1318.9999999999,"correct":true,"confidence":2},{"trial_n":135,"min":88,"max":167,"target":"present","response":"present","rt":1262,"correct":true,"confidence":3},{"trial_n":136,"min":88,"max":167,"target":"present","response":"absent","rt":1102,"correct":false,"confidence":3},{"trial_n":137,"min":87,"max":168,"target":"present","response":"absent","rt":972,"correct":false,"confidence":1},{"trial_n":138,"min":86,"max":169,"target":"present","response":"absent","rt":411,"correct":false,"confidence":1},{"trial_n":139,"min":85,"max":170,"target":"absent","response":"present","rt":1186,"correct":false,"confidence":1},{"trial_n":140,"min":84,"max":171,"target":"present","response":"present","rt":1647,"correct":true,"confidence":3}]