[{"trial_n":1,"min":25,"max":230,"target":"present","response":"present","rt":5906.6000000238,"correct":true,"confidence":-1},{"trial_n":2,"min":25,"max":230,"target":"present","response":"present","rt":475.5,"correct":true,"confidence":-1},{"trial_n":3,"min":41,"max":214,"target":"absent","response":"absent","rt":157.69999998808,"correct":true,"confidence":-1},{"trial_n":4,"min":41,"max":214,"target":"absent","response":"absent","rt":249.90000003576,"correct":true,"confidence":-1},{"trial_n":5,"min":57,"max":198,"target":"present","response":"present","rt":126.90000003576,"correct":true,"confidence":-1},{"trial_n":6,"min":57,"max":198,"target":"absent","response":"absent","rt":209.5,"correct":true,"confidence":-1},{"trial_n":7,"min":73,"max":182,"target":"absent","response":"absent","rt":175.90000003576,"correct":true,"confidence":-1},{"trial_n":8,"min":73,"max":182,"target":"absent","response":"absent","rt":129,"correct":true,"confidence":-1},{"trial_n":9,"min":89,"max":166,"target":"present","response":"present","rt":41.699999988079,"correct":true,"confidence":-1},{"trial_n":10,"min":89,"max":166,"target":"present","response":"absent","rt":178.30000001192,"correct":false,"confidence":-1},{"trial_n":11,"min":81,"max":174,"target":"present","response":"absent","rt":416.5,"correct":false,"confidence":-1},{"trial_n":12,"min":73,"max":182,"target":"present","response":"present","rt":129.40000003576,"correct":true,"confidence":-1},{"trial_n":13,"min":73,"max":182,"target":"present","response":"present","rt":443.5,"correct":true,"confidence":-1},{"trial_n":14,"min":81,"max":174,"target":"present","response":"absent","rt":262.20000004768,"correct":false,"confidence":-1},{"trial_n":15,"min":73,"max":182,"target":"absent","response":"absent","rt":391.30000001192,"correct":true,"confidence":-1},{"trial_n":16,"min":73,"max":182,"target":"absent","response":"absent","rt":400.60000002384,"correct":true,"confidence":-1},{"trial_n":17,"min":81,"max":174,"target":"present","response":"present","rt":316.19999998808,"correct":true,"confidence":-1},{"trial_n":18,"min":81,"max":174,"target":"present","response":"absent","rt":280.60000002384,"correct":false,"confidence":-1},{"trial_n":19,"min":73,"max":182,"target":"present","response":"present","rt":196.30000001192,"correct":true,"confidence":-1},{"trial_n":20,"min":73,"max":182,"target":"present","response":"present","rt":315,"correct":true,"confidence":-1},{"trial_n":21,"min":77,"max":178,"target":"present","response":"present","rt":836.5,"correct":true,"confidence":3},{"trial_n":22,"min":77,"max":178,"target":"absent","response":"absent","rt":875.59999996424,"correct":true,"confidence":3},{"trial_n":23,"min":81,"max":174,"target":"absent","response":"absent","rt":889.60000002384,"correct":true,"confidence":3},{"trial_n":24,"min":81,"max":174,"target":"absent","response":"absent","rt":712.60000002384,"correct":true,"confidence":2},{"trial_n":25,"min":85,"max":170,"target":"absent","response":"absent","rt":583.69999998808,"correct":true,"confidence":2},{"trial_n":26,"min":85,"max":170,"target":"present","response":"present","rt":292.30000001192,"correct":true,"confidence":3},{"trial_n":27,"min":89,"max":166,"target":"absent","response":"present","rt":1261.0999999642,"correct":false,"confidence":2},{"trial_n":28,"min":85,"max":170,"target":"present","response":"present","rt":888,"correct":true,"confidence":4},{"trial_n":29,"min":85,"max":170,"target":"absent","response":"present","rt":915.40000003576,"correct":false,"confidence":3},{"trial_n":30,"min":81,"max":174,"target":"present","response":"present","rt":666.79999995232,"correct":true,"confidence":3},{"trial_n":31,"min":81,"max":174,"target":"absent","response":"absent","rt":479.69999998808,"correct":true,"confidence":2},{"trial_n":32,"min":83,"max":172,"target":"absent","response":"present","rt":746.30000001192,"correct":false,"confidence":3},{"trial_n":33,"min":81,"max":174,"target":"absent","response":"absent","rt":757.19999998808,"correct":true,"confidence":2},{"trial_n":34,"min":81,"max":174,"target":"absent","response":"absent","rt":676.30000001192,"correct":true,"confidence":3},{"trial_n":35,"min":83,"max":172,"target":"present","response":"present","rt":508.90000003576,"correct":true,"confidence":5},{"trial_n":36,"min":83,"max":172,"target":"present","response":"present","rt":454.60000002384,"correct":true,"confidence":5},{"trial_n":37,"min":85,"max":170,"target":"present","response":"present","rt":843,"correct":true,"confidence":5},{"trial_n":38,"min":85,"max":170,"target":"absent","response":"present","rt":931.79999995232,"correct":false,"confidence":3},{"trial_n":39,"min":83,"max":172,"target":"absent","response":"absent","rt":477.90000003576,"correct":true,"confidence":3},{"trial_n":40,"min":83,"max":172,"target":"absent","response":"absent","rt":698.69999998808,"correct":true,"confidence":2},{"trial_n":41,"min":84,"max":171,"target":"present","response":"present","rt":1909.0999999642,"correct":true,"confidence":2},{"trial_n":42,"min":84,"max":171,"target":"present","response":"present","rt":891.80000001192,"correct":true,"confidence":2},{"trial_n":43,"min":85,"max":170,"target":"absent","response":"absent","rt":724,"correct":true,"confidence":3},{"trial_n":44,"min":85,"max":170,"target":"present","response":"present","rt":411,"correct":true,"confidence":4},{"trial_n":45,"min":86,"max":169,"target":"absent","response":"absent","rt":1049.1000000238,"correct":true,"confidence":2},{"trial_n":46,"min":86,"max":169,"target":"absent","response":"present","rt":1011,"correct":false,"confidence":2},{"trial_n":47,"min":85,"max":170,"target":"present","response":"present","rt":806.69999998808,"correct":true,"confidence":3},{"trial_n":48,"min":85,"max":170,"target":"present","response":"absent","rt":444.5,"correct":false,"confidence":1},{"trial_n":49,"min":84,"max":171,"target":"present","response":"absent","rt":2534.8999999762,"correct":false,"confidence":1},{"trial_n":50,"min":83,"max":172,"target":"present","response":"present","rt":329.70000004768,"correct":true,"confidence":4},{"trial_n":51,"min":83,"max":172,"target":"present","response":"absent","rt":472.5,"correct":false,"confidence":3},{"trial_n":52,"min":82,"max":173,"target":"present","response":"present","rt":945.80000001192,"correct":true,"confidence":2},{"trial_n":53,"min":82,"max":173,"target":"absent","response":"absent","rt":448.5,"correct":true,"confidence":3},{"trial_n":54,"min":83,"max":172,"target":"absent","response":"absent","rt":676.89999997616,"correct":true,"confidence":3},{"trial_n":55,"min":83,"max":172,"target":"present","response":"present","rt":374.5,"correct":true,"confidence":4},{"trial_n":56,"min":84,"max":171,"target":"absent","response":"present","rt":699.40000003576,"correct":false,"confidence":3},{"trial_n":57,"min":83,"max":172,"target":"present","response":"present","rt":1156.1999999881,"correct":true,"confidence":3},{"trial_n":58,"min":83,"max":172,"target":"present","response":"present","rt":463.70000004768,"correct":true,"confidence":4},{"trial_n":59,"min":84,"max":171,"target":"absent","response":"present","rt":829.30000001192,"correct":false,"confidence":2},{"trial_n":60,"min":83,"max":172,"target":"present","response":"present","rt":1113.6999999881,"correct":true,"confidence":2},{"trial_n":61,"min":83,"max":172,"target":"absent","response":"absent","rt":700.19999998808,"correct":true,"confidence":3},{"trial_n":62,"min":84,"max":171,"target":"absent","response":"absent","rt":1647.8000000119,"correct":true,"confidence":3},{"trial_n":63,"min":84,"max":171,"target":"present","response":"present","rt":352.10000002384,"correct":true,"confidence":4},{"trial_n":64,"min":85,"max":170,"target":"present","response":"absent","rt":972.89999997616,"correct":false,"confidence":4},{"trial_n":65,"min":84,"max":171,"target":"present","response":"present","rt":2358.2000000477,"correct":true,"confidence":2},{"trial_n":66,"min":84,"max":171,"target":"absent","response":"absent","rt":775.59999996424,"correct":true,"confidence":3},{"trial_n":67,"min":85,"max":170,"target":"absent","response":"absent","rt":904.5,"correct":true,"confidence":4},{"trial_n":68,"min":85,"max":170,"target":"absent","response":"absent","rt":574.90000003576,"correct":true,"confidence":3},{"trial_n":69,"min":86,"max":169,"target":"absent","response":"absent","rt":1195.6000000238,"correct":true,"confidence":5},{"trial_n":70,"min":86,"max":169,"target":"absent","response":"absent","rt":813.59999996424,"correct":true,"confidence":4},{"trial_n":71,"min":41,"max":214,"target":"present","response":"present","rt":3648,"correct":true,"confidence":-1},{"trial_n":72,"min":41,"max":214,"target":"present","response":"present","rt":592.20000004768,"correct":true,"confidence":-1},{"trial_n":73,"min":57,"max":198,"target":"absent","response":"absent","rt":57.399999976158,"correct":true,"confidence":-1},{"trial_n":74,"min":57,"max":198,"target":"absent","response":"absent","rt":105.60000002384,"correct":true,"confidence":-1},{"trial_n":75,"min":73,"max":182,"target":"present","response":"present","rt":383.19999998808,"correct":true,"confidence":-1},{"trial_n":76,"min":73,"max":182,"target":"absent","response":"absent","rt":230.80000001192,"correct":true,"confidence":-1},{"trial_n":77,"min":89,"max":166,"target":"absent","response":"absent","rt":351.39999997616,"correct":true,"confidence":-1},{"trial_n":78,"min":89,"max":166,"target":"absent","response":"absent","rt":267.69999998808,"correct":true,"confidence":-1},{"trial_n":79,"min":105,"max":150,"target":"present","response":"present","rt":268.59999996424,"correct":true,"confidence":-1},{"trial_n":80,"min":105,"max":150,"target":"present","response":"absent","rt":335.69999998808,"correct":false,"confidence":-1},{"trial_n":81,"min":97,"max":158,"target":"present","response":"present","rt":435.79999995232,"correct":true,"confidence":-1},{"trial_n":82,"min":97,"max":158,"target":"present","response":"present","rt":413,"correct":true,"confidence":-1},{"trial_n":83,"min":105,"max":150,"target":"present","response":"present","rt":746.59999996424,"correct":true,"confidence":-1},{"trial_n":84,"min":105,"max":150,"target":"absent","response":"present","rt":772.39999997616,"correct":false,"confidence":-1},{"trial_n":85,"min":97,"max":158,"target":"absent","response":"present","rt":1620.1999999881,"correct":false,"confidence":-1},{"trial_n":86,"min":89,"max":166,"target":"absent","response":"absent","rt":376.90000003576,"correct":true,"confidence":-1},{"trial_n":87,"min":89,"max":166,"target":"present","response":"present","rt":1185.6000000238,"correct":true,"confidence":-1},{"trial_n":88,"min":97,"max":158,"target":"present","response":"absent","rt":572.39999997616,"correct":false,"confidence":-1},{"trial_n":89,"min":89,"max":166,"target":"present","response":"present","rt":1779.9000000358,"correct":true,"confidence":-1},{"trial_n":90,"min":89,"max":166,"target":"present","response":"absent","rt":811.09999996424,"correct":false,"confidence":-1},{"trial_n":91,"min":85,"max":170,"target":"present","response":"present","rt":314.19999998808,"correct":true,"confidence":3},{"trial_n":92,"min":85,"max":170,"target":"absent","response":"absent","rt":635.60000002384,"correct":true,"confidence":2},{"trial_n":93,"min":89,"max":166,"target":"absent","response":"absent","rt":362.30000001192,"correct":true,"confidence":3},{"trial_n":94,"min":89,"max":166,"target":"absent","response":"present","rt":529.10000002384,"correct":false,"confidence":4},{"trial_n":95,"min":85,"max":170,"target":"absent","response":"present","rt":236.90000003576,"correct":false,"confidence":4},{"trial_n":96,"min":81,"max":174,"target":"absent","response":"absent","rt":396.69999998808,"correct":true,"confidence":4},{"trial_n":97,"min":81,"max":174,"target":"present","response":"present","rt":793.39999997616,"correct":true,"confidence":3},{"trial_n":98,"min":85,"max":170,"target":"absent","response":"absent","rt":656.90000003576,"correct":true,"confidence":2},{"trial_n":99,"min":85,"max":170,"target":"absent","response":"absent","rt":527.10000002384,"correct":true,"confidence":2},{"trial_n":100,"min":89,"max":166,"target":"absent","response":"absent","rt":826.40000003576,"correct":true,"confidence":3},{"trial_n":101,"min":89,"max":166,"target":"present","response":"present","rt":268.30000001192,"correct":true,"confidence":4},{"trial_n":102,"min":91,"max":164,"target":"present","response":"present","rt":278.10000002384,"correct":true,"confidence":3},{"trial_n":103,"min":91,"max":164,"target":"present","response":"absent","rt":723.40000003576,"correct":false,"confidence":2},{"trial_n":104,"min":89,"max":166,"target":"absent","response":"absent","rt":796,"correct":true,"confidence":2},{"trial_n":105,"min":89,"max":166,"target":"absent","response":"absent","rt":1847.7000000477,"correct":true,"confidence":2},{"trial_n":106,"min":91,"max":164,"target":"present","response":"present","rt":585.80000001192,"correct":true,"confidence":2},{"trial_n":107,"min":91,"max":164,"target":"present","response":"present","rt":1734.1000000238,"correct":true,"confidence":1},{"trial_n":108,"min":93,"max":162,"target":"present","response":"absent","rt":1357.5,"correct":false,"confidence":1},{"trial_n":109,"min":91,"max":164,"target":"absent","response":"absent","rt":805,"correct":true,"confidence":1},{"trial_n":110,"min":91,"max":164,"target":"absent","response":"present","rt":718.80000001192,"correct":false,"confidence":1},{"trial_n":111,"min":90,"max":165,"target":"absent","response":"absent","rt":768.5,"correct":true,"confidence":2},{"trial_n":112,"min":90,"max":165,"target":"present","response":"present","rt":944.5,"correct":true,"confidence":3},{"trial_n":113,"min":91,"max":164,"target":"absent","response":"present","rt":779.29999995232,"correct":false,"confidence":2},{"trial_n":114,"min":90,"max":165,"target":"present","response":"present","rt":524.69999998808,"correct":true,"confidence":3},{"trial_n":115,"min":90,"max":165,"target":"present","response":"absent","rt":1410.8000000119,"correct":false,"confidence":1},{"trial_n":116,"min":89,"max":166,"target":"absent","response":"absent","rt":889,"correct":true,"confidence":2},{"trial_n":117,"min":89,"max":166,"target":"absent","response":"present","rt":872.69999998808,"correct":false,"confidence":2},{"trial_n":118,"min":88,"max":167,"target":"present","response":"absent","rt":1199.6999999881,"correct":false,"confidence":4},{"trial_n":119,"min":87,"max":168,"target":"absent","response":"present","rt":607.69999998808,"correct":false,"confidence":3},{"trial_n":120,"min":86,"max":169,"target":"present","response":"present","rt":758.89999997616,"correct":true,"confidence":4},{"trial_n":121,"min":86,"max":169,"target":"present","response":"absent","rt":552.80000001192,"correct":false,"confidence":2},{"trial_n":122,"min":85,"max":170,"target":"present","response":"absent","rt":548.5,"correct":false,"confidence":2},{"trial_n":123,"min":84,"max":171,"target":"present","response":"present","rt":682.89999997616,"correct":true,"confidence":3},{"trial_n":124,"min":84,"max":171,"target":"present","response":"present","rt":247.70000004768,"correct":true,"confidence":3},{"trial_n":125,"min":85,"max":170,"target":"present","response":"present","rt":460.89999997616,"correct":true,"confidence":3},{"trial_n":126,"min":85,"max":170,"target":"absent","response":"absent","rt":426.69999998808,"correct":true,"confidence":3},{"trial_n":127,"min":86,"max":169,"target":"present","response":"absent","rt":889.60000002384,"correct":false,"confidence":2},{"trial_n":128,"min":85,"max":170,"target":"present","response":"present","rt":639.60000002384,"correct":true,"confidence":2},{"trial_n":129,"min":85,"max":170,"target":"absent","response":"absent","rt":581.5,"correct":true,"confidence":1},{"trial_n":130,"min":86,"max":169,"target":"absent","response":"present","rt":511.60000002384,"correct":false,"confidence":2},{"trial_n":131,"min":85,"max":170,"target":"absent","response":"absent","rt":1549.5,"correct":true,"confidence":3},{"trial_n":132,"min":85,"max":170,"target":"absent","response":"present","rt":538.29999995232,"correct":false,"confidence":1},{"trial_n":133,"min":84,"max":171,"target":"absent","response":"present","rt":645.60000002384,"correct":false,"confidence":2},{"trial_n":134,"min":83,"max":172,"target":"present","response":"present","rt":683.80000001192,"correct":true,"confidence":2},{"trial_n":135,"min":83,"max":172,"target":"present","response":"present","rt":768.5,"correct":true,"confidence":3},{"trial_n":136,"min":84,"max":171,"target":"present","response":"present","rt":481,"correct":true,"confidence":3},{"trial_n":137,"min":84,"max":171,"target":"present","response":"present","rt":1092.3999999762,"correct":true,"confidence":2},{"trial_n":138,"min":85,"max":170,"target":"absent","response":"absent","rt":693.60000002384,"correct":true,"confidence":3},{"trial_n":139,"min":85,"max":170,"target":"absent","response":"absent","rt":913,"correct":true,"confidence":3},{"trial_n":140,"min":86,"max":169,"target":"absent","response":"absent","rt":562.09999996424,"correct":true,"confidence":3}]