[{"trial_n":1,"n_dots":4.25,"target":"left","response":"right","rt":4959,"correct":false,"confidence":-1},{"trial_n":2,"n_dots":4.25,"target":"right","response":"left","rt":982,"correct":false,"confidence":-1},{"trial_n":3,"n_dots":4.65,"target":"left","response":"left","rt":329,"correct":true,"confidence":-1},{"trial_n":4,"n_dots":4.65,"target":"right","response":"right","rt":2122,"correct":true,"confidence":-1},{"trial_n":5,"n_dots":4.25,"target":"right","response":"right","rt":558,"correct":true,"confidence":-1},{"trial_n":6,"n_dots":4.25,"target":"right","response":"right","rt":380,"correct":true,"confidence":-1},{"trial_n":7,"n_dots":3.85,"target":"right","response":"right","rt":488,"correct":true,"confidence":-1},{"trial_n":8,"n_dots":3.85,"target":"left","response":"left","rt":363.00000000001,"correct":true,"confidence":-1},{"trial_n":9,"n_dots":3.65,"target":"right","response":"right","rt":483,"correct":true,"confidence":-1},{"trial_n":10,"n_dots":3.65,"target":"right","response":"right","rt":398,"correct":true,"confidence":-1},{"trial_n":11,"n_dots":3.45,"target":"right","response":"right","rt":431,"correct":true,"confidence":-1},{"trial_n":12,"n_dots":3.45,"target":"right","response":"right","rt":370.99999999999,"correct":true,"confidence":-1},{"trial_n":13,"n_dots":3.35,"target":"left","response":"left","rt":409,"correct":true,"confidence":-1},{"trial_n":14,"n_dots":3.35,"target":"left","response":"left","rt":374,"correct":true,"confidence":-1},{"trial_n":15,"n_dots":3.25,"target":"left","response":"left","rt":368,"correct":true,"confidence":-1},{"trial_n":16,"n_dots":3.25,"target":"right","response":"left","rt":444.99999999999,"correct":false,"confidence":-1},{"trial_n":17,"n_dots":3.35,"target":"left","response":"left","rt":394,"correct":true,"confidence":-1},{"trial_n":18,"n_dots":3.35,"target":"right","response":"right","rt":396.99999999999,"correct":true,"confidence":-1},{"trial_n":19,"n_dots":3.25,"target":"right","response":"right","rt":380,"correct":true,"confidence":-1},{"trial_n":20,"n_dots":3.25,"target":"left","response":"left","rt":346,"correct":true,"confidence":-1},{"trial_n":21,"n_dots":3.15,"target":"right","response":"right","rt":920.99999999999,"correct":true,"confidence":2},{"trial_n":22,"n_dots":3.15,"target":"right","response":"right","rt":704,"correct":true,"confidence":3},{"trial_n":23,"n_dots":3.05,"target":"left","response":"left","rt":538,"correct":true,"confidence":2},{"trial_n":24,"n_dots":3.05,"target":"left","response":"left","rt":462,"correct":true,"confidence":3},{"trial_n":25,"n_dots":2.95,"target":"right","response":"right","rt":393,"correct":true,"confidence":3},{"trial_n":26,"n_dots":2.95,"target":"right","response":"right","rt":695,"correct":true,"confidence":3},{"trial_n":27,"n_dots":2.85,"target":"left","response":"right","rt":813,"correct":false,"confidence":2},{"trial_n":28,"n_dots":2.95,"target":"left","response":"left","rt":439,"correct":true,"confidence":3},{"trial_n":29,"n_dots":2.95,"target":"right","response":"right","rt":493,"correct":true,"confidence":3},{"trial_n":30,"n_dots":2.85,"target":"left","response":"left","rt":842,"correct":true,"confidence":2},{"trial_n":31,"n_dots":2.85,"target":"left","response":"left","rt":620.00000000001,"correct":true,"confidence":2},{"trial_n":32,"n_dots":2.75,"target":"left","response":"right","rt":574,"correct":false,"confidence":2},{"trial_n":33,"n_dots":2.85,"target":"right","response":"left","rt":456,"correct":false,"confidence":2},{"trial_n":34,"n_dots":2.95,"target":"left","response":"right","rt":321.00000000003,"correct":false,"confidence":2},{"trial_n":35,"n_dots":3.05,"target":"left","response":"left","rt":385,"correct":true,"confidence":2},{"trial_n":36,"n_dots":3.05,"target":"left","response":"right","rt":385,"correct":false,"confidence":2},{"trial_n":37,"n_dots":3.15,"target":"right","response":"right","rt":384.99999999997,"correct":true,"confidence":2},{"trial_n":38,"n_dots":3.15,"target":"right","response":"left","rt":741,"correct":false,"confidence":1},{"trial_n":39,"n_dots":3.25,"target":"left","response":"left","rt":788,"correct":true,"confidence":2},{"trial_n":40,"n_dots":3.25,"target":"left","response":"left","rt":316,"correct":true,"confidence":2},{"trial_n":41,"n_dots":3.15,"target":"left","response":"left","rt":124,"correct":true,"confidence":3},{"trial_n":42,"n_dots":3.15,"target":"left","response":"left","rt":97.000000000029,"correct":true,"confidence":3},{"trial_n":43,"n_dots":3.05,"target":"right","response":"right","rt":1246,"correct":true,"confidence":3},{"trial_n":44,"n_dots":3.05,"target":"right","response":"left","rt":415,"correct":false,"confidence":3},{"trial_n":45,"n_dots":3.15,"target":"right","response":"right","rt":352,"correct":true,"confidence":3},{"trial_n":46,"n_dots":3.15,"target":"left","response":"left","rt":76,"correct":true,"confidence":2},{"trial_n":47,"n_dots":3.05,"target":"right","response":"right","rt":843,"correct":true,"confidence":2},{"trial_n":48,"n_dots":3.05,"target":"left","response":"left","rt":649,"correct":true,"confidence":2},{"trial_n":49,"n_dots":2.95,"target":"left","response":"left","rt":353,"correct":true,"confidence":2},{"trial_n":50,"n_dots":2.95,"target":"right","response":"right","rt":307,"correct":true,"confidence":3},{"trial_n":51,"n_dots":2.85,"target":"left","response":"left","rt":345.99999999997,"correct":true,"confidence":3},{"trial_n":52,"n_dots":2.85,"target":"left","response":"left","rt":399,"correct":true,"confidence":2},{"trial_n":53,"n_dots":2.75,"target":"right","response":"right","rt":1340,"correct":true,"confidence":2},{"trial_n":54,"n_dots":2.75,"target":"left","response":"left","rt":596.00000000003,"correct":true,"confidence":2},{"trial_n":55,"n_dots":2.65,"target":"left","response":"left","rt":359,"correct":true,"confidence":2},{"trial_n":56,"n_dots":2.65,"target":"right","response":"right","rt":275,"correct":true,"confidence":2},{"trial_n":57,"n_dots":2.55,"target":"left","response":"left","rt":405.99999999997,"correct":true,"confidence":2},{"trial_n":58,"n_dots":2.55,"target":"left","response":"right","rt":316.99999999997,"correct":false,"confidence":2},{"trial_n":59,"n_dots":2.65,"target":"left","response":"left","rt":334.99999999997,"correct":true,"confidence":2},{"trial_n":60,"n_dots":2.65,"target":"left","response":"right","rt":397.99999999997,"correct":false,"confidence":2},{"trial_n":61,"n_dots":2.75,"target":"right","response":"left","rt":445.00000000003,"correct":false,"confidence":2},{"trial_n":62,"n_dots":2.85,"target":"left","response":"left","rt":385.00000000003,"correct":true,"confidence":2},{"trial_n":63,"n_dots":2.85,"target":"right","response":"right","rt":320.99999999997,"correct":true,"confidence":2},{"trial_n":64,"n_dots":2.75,"target":"right","response":"right","rt":78.999999999942,"correct":true,"confidence":2},{"trial_n":65,"n_dots":2.75,"target":"left","response":"left","rt":556,"correct":true,"confidence":2},{"trial_n":66,"n_dots":2.65,"target":"left","response":"left","rt":381,"correct":true,"confidence":2},{"trial_n":67,"n_dots":2.65,"target":"left","response":"left","rt":410,"correct":true,"confidence":2},{"trial_n":68,"n_dots":2.55,"target":"left","response":"right","rt":404.99999999994,"correct":false,"confidence":2},{"trial_n":69,"n_dots":2.65,"target":"right","response":"left","rt":480,"correct":false,"confidence":2},{"trial_n":70,"n_dots":2.75,"target":"right","response":"right","rt":380,"correct":true,"confidence":2},{"trial_n":71,"n_dots":2.75,"target":"right","response":"right","rt":358,"correct":true,"confidence":2},{"trial_n":72,"n_dots":2.65,"target":"right","response":"left","rt":426,"correct":false,"confidence":2},{"trial_n":73,"n_dots":2.75,"target":"left","response":"left","rt":395,"correct":true,"confidence":2},{"trial_n":74,"n_dots":2.75,"target":"left","response":"left","rt":267,"correct":true,"confidence":2},{"trial_n":75,"n_dots":2.65,"target":"left","response":"left","rt":401,"correct":true,"confidence":2},{"trial_n":76,"n_dots":2.65,"target":"right","response":"right","rt":428,"correct":true,"confidence":2},{"trial_n":77,"n_dots":2.55,"target":"right","response":"left","rt":378,"correct":false,"confidence":2},{"trial_n":78,"n_dots":2.65,"target":"right","response":"left","rt":336,"correct":false,"confidence":2},{"trial_n":79,"n_dots":2.75,"target":"right","response":"left","rt":391.00000000006,"correct":false,"confidence":2},{"trial_n":80,"n_dots":2.85,"target":"left","response":"left","rt":234,"correct":true,"confidence":2},{"trial_n":81,"n_dots":2.85,"target":"right","response":"right","rt":313,"correct":true,"confidence":2},{"trial_n":82,"n_dots":2.75,"target":"right","response":"left","rt":327,"correct":false,"confidence":2},{"trial_n":83,"n_dots":2.85,"target":"left","response":"left","rt":932,"correct":true,"confidence":2},{"trial_n":84,"n_dots":2.85,"target":"right","response":"right","rt":330,"correct":true,"confidence":2},{"trial_n":85,"n_dots":2.75,"target":"left","response":"left","rt":422,"correct":true,"confidence":2},{"trial_n":86,"n_dots":2.75,"target":"right","response":"right","rt":375,"correct":true,"confidence":2},{"trial_n":87,"n_dots":2.65,"target":"right","response":"left","rt":345,"correct":false,"confidence":2},{"trial_n":88,"n_dots":2.75,"target":"right","response":"right","rt":297,"correct":true,"confidence":2},{"trial_n":89,"n_dots":2.75,"target":"right","response":"left","rt":682,"correct":false,"confidence":2},{"trial_n":90,"n_dots":2.85,"target":"left","response":"right","rt":348,"correct":false,"confidence":2},{"trial_n":91,"n_dots":2.95,"target":"left","response":"left","rt":485,"correct":true,"confidence":2},{"trial_n":92,"n_dots":2.95,"target":"left","response":"left","rt":590,"correct":true,"confidence":2},{"trial_n":93,"n_dots":2.85,"target":"right","response":"right","rt":381,"correct":true,"confidence":2},{"trial_n":94,"n_dots":2.85,"target":"left","response":"right","rt":627.99999999994,"correct":false,"confidence":2},{"trial_n":95,"n_dots":2.95,"target":"left","response":"left","rt":440,"correct":true,"confidence":2},{"trial_n":96,"n_dots":2.95,"target":"right","response":"left","rt":421,"correct":false,"confidence":2},{"trial_n":97,"n_dots":3.05,"target":"left","response":"right","rt":294.00000000006,"correct":false,"confidence":2},{"trial_n":98,"n_dots":3.15,"target":"left","response":"left","rt":373,"correct":true,"confidence":2},{"trial_n":99,"n_dots":3.15,"target":"right","response":"right","rt":393,"correct":true,"confidence":2},{"trial_n":100,"n_dots":3.05,"target":"right","response":"left","rt":607,"correct":false,"confidence":2},{"trial_n":101,"n_dots":3.15,"target":"right","response":"left","rt":422.00000000006,"correct":false,"confidence":2},{"trial_n":102,"n_dots":3.25,"target":"right","response":"right","rt":347,"correct":true,"confidence":1},{"trial_n":103,"n_dots":3.25,"target":"left","response":"left","rt":111,"correct":true,"confidence":3},{"trial_n":104,"n_dots":3.15,"target":"left","response":"left","rt":453.99999999994,"correct":true,"confidence":2},{"trial_n":105,"n_dots":3.15,"target":"right","response":"right","rt":471,"correct":true,"confidence":2},{"trial_n":106,"n_dots":3.05,"target":"right","response":"left","rt":423,"correct":false,"confidence":2},{"trial_n":107,"n_dots":3.15,"target":"left","response":"left","rt":537,"correct":true,"confidence":2},{"trial_n":108,"n_dots":3.15,"target":"right","response":"right","rt":496,"correct":true,"confidence":2},{"trial_n":109,"n_dots":3.05,"target":"right","response":"right","rt":413,"correct":true,"confidence":2},{"trial_n":110,"n_dots":3.05,"target":"right","response":"left","rt":938,"correct":false,"confidence":2},{"trial_n":111,"n_dots":3.15,"target":"right","response":"left","rt":427,"correct":false,"confidence":2},{"trial_n":112,"n_dots":3.25,"target":"left","response":"right","rt":659,"correct":false,"confidence":2},{"trial_n":113,"n_dots":3.35,"target":"left","response":"left","rt":378,"correct":true,"confidence":2},{"trial_n":114,"n_dots":3.35,"target":"right","response":"right","rt":238,"correct":true,"confidence":2},{"trial_n":115,"n_dots":3.25,"target":"left","response":"left","rt":252.00000000006,"correct":true,"confidence":2},{"trial_n":116,"n_dots":3.25,"target":"right","response":"right","rt":376,"correct":true,"confidence":2},{"trial_n":117,"n_dots":3.15,"target":"left","response":"left","rt":196.00000000006,"correct":true,"confidence":2},{"trial_n":118,"n_dots":3.15,"target":"right","response":"right","rt":380,"correct":true,"confidence":2},{"trial_n":119,"n_dots":3.05,"target":"left","response":"left","rt":363.99999999994,"correct":true,"confidence":2},{"trial_n":120,"n_dots":3.05,"target":"left","response":"right","rt":464.99999999994,"correct":false,"confidence":2}]