[{"trial_n":1,"span":8,"encoder":"70072192","distractor":"76072192","target":"present","response":"present","rt":"2116","correct":true,"confidence":-1},{"trial_n":2,"span":8,"encoder":"02465654","distractor":"02461654","target":"present","response":"present","rt":"2434","correct":true,"confidence":-1},{"trial_n":3,"span":10,"encoder":"6244974951","distractor":"6444974951","target":"absent","response":"present","rt":"1641","correct":false,"confidence":-1},{"trial_n":4,"span":8,"encoder":"12285208","distractor":"12285268","target":"absent","response":"present","rt":"2972","correct":false,"confidence":-1},{"trial_n":5,"span":6,"encoder":"230603","distractor":"230605","target":"present","response":"present","rt":"1582","correct":true,"confidence":-1},{"trial_n":6,"span":6,"encoder":"258345","distractor":"208345","target":"present","response":"present","rt":"986","correct":true,"confidence":-1},{"trial_n":7,"span":8,"encoder":"19996508","distractor":"19996108","target":"present","response":"present","rt":"2196","correct":true,"confidence":-1},{"trial_n":8,"span":8,"encoder":"24727379","distractor":"24777379","target":"absent","response":"present","rt":"1407","correct":false,"confidence":-1},{"trial_n":9,"span":6,"encoder":"537635","distractor":"537625","target":"absent","response":"present","rt":"2594","correct":false,"confidence":-1},{"trial_n":10,"span":4,"encoder":"4813","distractor":"4863","target":"absent","response":"absent","rt":"1674","correct":true,"confidence":-1},{"trial_n":11,"span":4,"encoder":"5437","distractor":"5435","target":"present","response":"present","rt":"1618","correct":true,"confidence":-1},{"trial_n":12,"span":5,"encoder":"51566","distractor":"51568","target":"present","response":"present","rt":"1083","correct":true,"confidence":-1},{"trial_n":13,"span":5,"encoder":"71652","distractor":"76652","target":"absent","response":"present","rt":"1139","correct":false,"confidence":-1},{"trial_n":14,"span":4,"encoder":"5711","distractor":"5811","target":"absent","response":"absent","rt":"1659","correct":true,"confidence":-1},{"trial_n":15,"span":4,"encoder":"5593","distractor":"5553","target":"present","response":"present","rt":"1402","correct":true,"confidence":-1},{"trial_n":16,"span":5,"encoder":"64372","distractor":"64370","target":"absent","response":"present","rt":"1260","correct":false,"confidence":-1},{"trial_n":17,"span":4,"encoder":"0258","distractor":"0458","target":"present","response":"present","rt":"1193","correct":true,"confidence":-1},{"trial_n":18,"span":4,"encoder":"6203","distractor":"6803","target":"present","response":"present","rt":"817","correct":true,"confidence":-1},{"trial_n":19,"span":5,"encoder":"13604","distractor":"13607","target":"present","response":"present","rt":"977","correct":true,"confidence":-1},{"trial_n":20,"span":5,"encoder":"18667","distractor":"18967","target":"absent","response":"present","rt":"921","correct":false,"confidence":-1},{"trial_n":21,"span":4,"encoder":"5911","distractor":"5411","target":"absent","response":"absent","rt":"1811","correct":true,"confidence":3},{"trial_n":22,"span":4,"encoder":"2275","distractor":"2276","target":"present","response":"present","rt":"1918","correct":true,"confidence":3},{"trial_n":23,"span":5,"encoder":"25560","distractor":"25960","target":"absent","response":"absent","rt":"1462","correct":true,"confidence":3},{"trial_n":24,"span":5,"encoder":"91717","distractor":"91711","target":"absent","response":"absent","rt":"2153","correct":true,"confidence":3},{"trial_n":25,"span":6,"encoder":"562551","distractor":"542551","target":"present","response":"absent","rt":"5043","correct":false,"confidence":2},{"trial_n":26,"span":5,"encoder":"94466","distractor":"94462","target":"absent","response":"absent","rt":"2230","correct":true,"confidence":3},{"trial_n":27,"span":5,"encoder":"98543","distractor":"90543","target":"absent","response":"absent","rt":"3068","correct":true,"confidence":3},{"trial_n":28,"span":6,"encoder":"609180","distractor":"608180","target":"present","response":"absent","rt":"3033","correct":false,"confidence":3},{"trial_n":29,"span":5,"encoder":"30496","distractor":"30196","target":"absent","response":"present","rt":"2451","correct":false,"confidence":3},{"trial_n":30,"span":4,"encoder":"7903","distractor":"7923","target":"present","response":"present","rt":"1524","correct":true,"confidence":3},{"trial_n":31,"span":4,"encoder":"9588","distractor":"9558","target":"present","response":"present","rt":"918.00000000003","correct":true,"confidence":3},{"trial_n":32,"span":5,"encoder":"60168","distractor":"70168","target":"present","response":"present","rt":"1026","correct":true,"confidence":3},{"trial_n":33,"span":5,"encoder":"75924","distractor":"75724","target":"present","response":"present","rt":"1876","correct":true,"confidence":3},{"trial_n":34,"span":6,"encoder":"859981","distractor":"859911","target":"present","response":"present","rt":"1660","correct":true,"confidence":3},{"trial_n":35,"span":6,"encoder":"051947","distractor":"051948","target":"absent","response":"present","rt":"2540","correct":false,"confidence":3},{"trial_n":36,"span":5,"encoder":"89555","distractor":"29555","target":"present","response":"present","rt":"1031","correct":true,"confidence":3},{"trial_n":37,"span":5,"encoder":"50700","distractor":"50200","target":"present","response":"present","rt":"1218","correct":true,"confidence":3},{"trial_n":38,"span":6,"encoder":"666812","distractor":"666882","target":"present","response":"present","rt":"1593","correct":true,"confidence":4},{"trial_n":39,"span":6,"encoder":"996089","distractor":"995089","target":"absent","response":"absent","rt":"1854","correct":true,"confidence":2},{"trial_n":40,"span":7,"encoder":"5202871","distractor":"5802871","target":"present","response":"present","rt":"2548","correct":true,"confidence":2},{"trial_n":41,"span":7,"encoder":"3071132","distractor":"3071932","target":"absent","response":"present","rt":"5189","correct":false,"confidence":2},{"trial_n":42,"span":6,"encoder":"668255","distractor":"688255","target":"present","response":"present","rt":"1512.9999999999","correct":true,"confidence":3},{"trial_n":43,"span":6,"encoder":"707058","distractor":"707258","target":"present","response":"present","rt":"1312.9999999999","correct":true,"confidence":3},{"trial_n":44,"span":7,"encoder":"0638480","distractor":"0638487","target":"absent","response":"absent","rt":"3509.9999999999","correct":true,"confidence":2},{"trial_n":45,"span":7,"encoder":"6885937","distractor":"5885937","target":"absent","response":"present","rt":"3524","correct":false,"confidence":2},{"trial_n":46,"span":6,"encoder":"556252","distractor":"556257","target":"present","response":"present","rt":"1498","correct":true,"confidence":3},{"trial_n":47,"span":6,"encoder":"770383","distractor":"770783","target":"absent","response":"present","rt":"2162","correct":false,"confidence":2},{"trial_n":48,"span":5,"encoder":"02550","distractor":"02950","target":"present","response":"present","rt":"1432","correct":true,"confidence":3},{"trial_n":49,"span":5,"encoder":"17251","distractor":"17250","target":"absent","response":"absent","rt":"3796","correct":true,"confidence":2},{"trial_n":50,"span":6,"encoder":"187938","distractor":"127938","target":"absent","response":"absent","rt":"6024","correct":true,"confidence":2},{"trial_n":51,"span":6,"encoder":"770075","distractor":"170075","target":"present","response":"present","rt":"2661","correct":true,"confidence":3},{"trial_n":52,"span":7,"encoder":"4528053","distractor":"4524053","target":"absent","response":"absent","rt":"2435","correct":true,"confidence":2},{"trial_n":53,"span":7,"encoder":"5596601","distractor":"5596606","target":"present","response":"present","rt":"1672","correct":true,"confidence":3},{"trial_n":54,"span":8,"encoder":"30641500","distractor":"30661500","target":"present","response":"absent","rt":"3985.9999999999","correct":false,"confidence":1},{"trial_n":55,"span":7,"encoder":"4078182","distractor":"4378182","target":"present","response":"present","rt":"1380.0000000001","correct":true,"confidence":2},{"trial_n":56,"span":7,"encoder":"1335286","distractor":"1335236","target":"absent","response":"absent","rt":"1903.9999999999","correct":true,"confidence":2},{"trial_n":57,"span":8,"encoder":"39581561","distractor":"39381561","target":"present","response":"present","rt":"4150.9999999999","correct":true,"confidence":2},{"trial_n":58,"span":8,"encoder":"48652364","distractor":"48452364","target":"present","response":"present","rt":"2158.9999999999","correct":true,"confidence":3},{"trial_n":59,"span":9,"encoder":"971400453","distractor":"971400457","target":"absent","response":"absent","rt":"2683","correct":true,"confidence":3},{"trial_n":60,"span":9,"encoder":"750659542","distractor":"753659542","target":"absent","response":"present","rt":"3870","correct":false,"confidence":3},{"trial_n":61,"span":8,"encoder":"85035383","distractor":"85735383","target":"absent","response":"present","rt":"2661","correct":false,"confidence":2},{"trial_n":62,"span":7,"encoder":"9256525","distractor":"5256525","target":"absent","response":"present","rt":"2345.0000000001","correct":false,"confidence":3},{"trial_n":63,"span":6,"encoder":"277408","distractor":"277308","target":"absent","response":"absent","rt":"2055","correct":true,"confidence":2},{"trial_n":64,"span":6,"encoder":"485054","distractor":"488054","target":"present","response":"present","rt":"1769","correct":true,"confidence":2},{"trial_n":65,"span":7,"encoder":"3129604","distractor":"3123604","target":"absent","response":"present","rt":"2190","correct":false,"confidence":3},{"trial_n":66,"span":6,"encoder":"347161","distractor":"247161","target":"absent","response":"present","rt":"2474","correct":false,"confidence":3},{"trial_n":67,"span":5,"encoder":"22506","distractor":"22546","target":"absent","response":"present","rt":"1514","correct":false,"confidence":3},{"trial_n":68,"span":4,"encoder":"7259","distractor":"7279","target":"absent","response":"absent","rt":"3075","correct":true,"confidence":4},{"trial_n":69,"span":4,"encoder":"1931","distractor":"9931","target":"present","response":"present","rt":"1138","correct":true,"confidence":4},{"trial_n":70,"span":5,"encoder":"73781","distractor":"73789","target":"present","response":"present","rt":"1354.9999999999","correct":true,"confidence":3},{"trial_n":71,"span":8,"encoder":"10401467","distractor":"10481467","target":"present","response":"present","rt":"2832","correct":true,"confidence":-1},{"trial_n":72,"span":8,"encoder":"24845947","distractor":"24845997","target":"present","response":"present","rt":"1828","correct":true,"confidence":-1},{"trial_n":73,"span":9,"encoder":"728785228","distractor":"728786228","target":"absent","response":"absent","rt":"2277","correct":true,"confidence":-1},{"trial_n":74,"span":9,"encoder":"444487192","distractor":"444487132","target":"absent","response":"absent","rt":"2908","correct":true,"confidence":-1},{"trial_n":75,"span":10,"encoder":"0816815621","distractor":"0816815601","target":"present","response":"present","rt":"1939","correct":true,"confidence":-1},{"trial_n":76,"span":10,"encoder":"5996254464","distractor":"5996254465","target":"absent","response":"absent","rt":"2750","correct":true,"confidence":-1},{"trial_n":77,"span":11,"encoder":"14012861916","distractor":"14012861918","target":"absent","response":"absent","rt":"1527","correct":true,"confidence":-1},{"trial_n":78,"span":11,"encoder":"73454507075","distractor":"73454207075","target":"absent","response":"absent","rt":"4918","correct":true,"confidence":-1},{"trial_n":79,"span":12,"encoder":"846077914800","distractor":"846017914800","target":"present","response":"present","rt":"1942","correct":true,"confidence":-1},{"trial_n":80,"span":12,"encoder":"814254502267","distractor":"894254502267","target":"present","response":"absent","rt":"2584","correct":false,"confidence":-1},{"trial_n":81,"span":11,"encoder":"16061259055","distractor":"16061659055","target":"absent","response":"absent","rt":"5301.0000000001","correct":true,"confidence":-1},{"trial_n":82,"span":11,"encoder":"65237166923","distractor":"65233166923","target":"present","response":"present","rt":"2771.0000000001","correct":true,"confidence":-1},{"trial_n":83,"span":12,"encoder":"573857808599","distractor":"573851808599","target":"absent","response":"absent","rt":"2810","correct":true,"confidence":-1},{"trial_n":84,"span":12,"encoder":"391898934553","distractor":"991898934553","target":"present","response":"present","rt":"2723","correct":true,"confidence":-1},{"trial_n":85,"span":13,"encoder":"1967142444055","distractor":"1967942444055","target":"absent","response":"present","rt":"4377.0000000001","correct":false,"confidence":-1},{"trial_n":86,"span":12,"encoder":"217548313326","distractor":"216548313326","target":"absent","response":"absent","rt":"2060","correct":true,"confidence":-1},{"trial_n":87,"span":12,"encoder":"284294100489","distractor":"684294100489","target":"present","response":"present","rt":"3716","correct":true,"confidence":-1},{"trial_n":88,"span":13,"encoder":"9768641823309","distractor":"9868641823309","target":"present","response":"absent","rt":"1181.0000000001","correct":false,"confidence":-1},{"trial_n":89,"span":12,"encoder":"260276924489","distractor":"260276924488","target":"present","response":"present","rt":"1797","correct":true,"confidence":-1},{"trial_n":90,"span":12,"encoder":"753182391003","distractor":"753182391009","target":"present","response":"present","rt":"1404","correct":true,"confidence":-1},{"trial_n":91,"span":13,"encoder":"2588527212458","distractor":"2588427212458","target":"absent","response":"present","rt":"6060","correct":false,"confidence":2},{"trial_n":92,"span":12,"encoder":"836809733070","distractor":"836859733070","target":"present","response":"absent","rt":"5972","correct":false,"confidence":2},{"trial_n":93,"span":11,"encoder":"99476628206","distractor":"99476128206","target":"present","response":"present","rt":"2432","correct":true,"confidence":3},{"trial_n":94,"span":11,"encoder":"69200943518","distractor":"69200943418","target":"absent","response":"absent","rt":"6173","correct":true,"confidence":2},{"trial_n":95,"span":12,"encoder":"670397035783","distractor":"670397095783","target":"absent","response":"absent","rt":"2436","correct":true,"confidence":1},{"trial_n":96,"span":12,"encoder":"759622842712","distractor":"752622842712","target":"present","response":"absent","rt":"4872.0000000001","correct":false,"confidence":1},{"trial_n":97,"span":11,"encoder":"80432873573","distractor":"80432473573","target":"absent","response":"present","rt":"2741","correct":false,"confidence":1},{"trial_n":98,"span":10,"encoder":"1569050779","distractor":"1549050779","target":"absent","response":"absent","rt":"3207","correct":true,"confidence":1},{"trial_n":99,"span":10,"encoder":"4164909716","distractor":"4164905716","target":"absent","response":"absent","rt":"2297","correct":true,"confidence":3},{"trial_n":100,"span":11,"encoder":"57401933074","distractor":"57401933004","target":"present","response":"present","rt":"2889","correct":true,"confidence":3},{"trial_n":101,"span":11,"encoder":"08351183986","distractor":"05351183986","target":"present","response":"present","rt":"4991","correct":true,"confidence":2},{"trial_n":102,"span":12,"encoder":"338884878909","distractor":"338884878908","target":"present","response":"present","rt":"9862","correct":true,"confidence":2},{"trial_n":103,"span":12,"encoder":"227929690144","distractor":"227929690194","target":"absent","response":"absent","rt":"1960","correct":true,"confidence":3},{"trial_n":104,"span":13,"encoder":"2396403623299","distractor":"2396803623299","target":"present","response":"absent","rt":"4646","correct":false,"confidence":2},{"trial_n":105,"span":12,"encoder":"453401904687","distractor":"453401004687","target":"absent","response":"absent","rt":"4000","correct":true,"confidence":2},{"trial_n":106,"span":12,"encoder":"040943159413","distractor":"040943159313","target":"present","response":"present","rt":"6922","correct":true,"confidence":1},{"trial_n":107,"span":13,"encoder":"4273907869891","distractor":"4273907869881","target":"absent","response":"absent","rt":"1896","correct":true,"confidence":3},{"trial_n":108,"span":13,"encoder":"0578389127517","distractor":"0578389137517","target":"absent","response":"absent","rt":"2093","correct":true,"confidence":1},{"trial_n":109,"span":14,"encoder":"89219858225145","distractor":"89219818225145","target":"absent","response":"absent","rt":"5404","correct":true,"confidence":1},{"trial_n":110,"span":14,"encoder":"00687606558100","distractor":"00687606558140","target":"present","response":"present","rt":"2365","correct":true,"confidence":2},{"trial_n":111,"span":15,"encoder":"237354010280830","distractor":"237354010282830","target":"present","response":"absent","rt":"3834","correct":false,"confidence":2},{"trial_n":112,"span":14,"encoder":"87810203906911","distractor":"87810203976911","target":"present","response":"absent","rt":"4314.9999999998","correct":false,"confidence":1},{"trial_n":113,"span":13,"encoder":"3684189667210","distractor":"3684139667210","target":"present","response":"present","rt":"5303","correct":true,"confidence":2},{"trial_n":114,"span":13,"encoder":"9455791387214","distractor":"9415791387214","target":"absent","response":"absent","rt":"3267.0000000002","correct":true,"confidence":2},{"trial_n":115,"span":14,"encoder":"46869808127008","distractor":"43869808127008","target":"absent","response":"absent","rt":"3785","correct":true,"confidence":1},{"trial_n":116,"span":14,"encoder":"93257565961203","distractor":"93257565931203","target":"present","response":"absent","rt":"2339","correct":false,"confidence":1},{"trial_n":117,"span":13,"encoder":"4037135825588","distractor":"4037135821588","target":"present","response":"absent","rt":"1050","correct":false,"confidence":1},{"trial_n":118,"span":12,"encoder":"371171420827","distractor":"371171420828","target":"present","response":"present","rt":"1927","correct":true,"confidence":3},{"trial_n":119,"span":12,"encoder":"216434868753","distractor":"216434868253","target":"absent","response":"absent","rt":"3215.0000000002","correct":true,"confidence":1},{"trial_n":120,"span":13,"encoder":"4843264512992","distractor":"4843064512992","target":"present","response":"present","rt":"3013","correct":true,"confidence":1},{"trial_n":121,"span":13,"encoder":"9727491453323","distractor":"9727491453373","target":"absent","response":"absent","rt":"2020","correct":true,"confidence":3},{"trial_n":122,"span":14,"encoder":"31597098492095","distractor":"31592098492095","target":"absent","response":"present","rt":"3131","correct":false,"confidence":1},{"trial_n":123,"span":13,"encoder":"0999368353413","distractor":"1999368353413","target":"present","response":"present","rt":"1882","correct":true,"confidence":1},{"trial_n":124,"span":13,"encoder":"5371825742940","distractor":"1371825742940","target":"absent","response":"present","rt":"1306","correct":false,"confidence":1},{"trial_n":125,"span":12,"encoder":"812978567025","distractor":"812978568025","target":"absent","response":"present","rt":"1727","correct":false,"confidence":1},{"trial_n":126,"span":11,"encoder":"02267842852","distractor":"02267842851","target":"present","response":"present","rt":"3871","correct":true,"confidence":3},{"trial_n":127,"span":11,"encoder":"90643097008","distractor":"90643097608","target":"present","response":"present","rt":"2561.9999999998","correct":true,"confidence":3},{"trial_n":128,"span":12,"encoder":"526710250736","distractor":"526715250736","target":"absent","response":"present","rt":"4540","correct":false,"confidence":1},{"trial_n":129,"span":11,"encoder":"19737563964","distractor":"19737863964","target":"absent","response":"present","rt":"2087","correct":false,"confidence":1},{"trial_n":130,"span":10,"encoder":"2466812618","distractor":"2466912618","target":"present","response":"absent","rt":"3098.0000000002","correct":false,"confidence":2},{"trial_n":131,"span":9,"encoder":"663820359","distractor":"663020359","target":"present","response":"absent","rt":"2139","correct":false,"confidence":1},{"trial_n":132,"span":8,"encoder":"60140880","distractor":"60143880","target":"present","response":"absent","rt":"4239","correct":false,"confidence":2},{"trial_n":133,"span":7,"encoder":"4087559","distractor":"4087059","target":"absent","response":"absent","rt":"2057","correct":true,"confidence":4},{"trial_n":134,"span":7,"encoder":"8062185","distractor":"8062135","target":"absent","response":"present","rt":"6334.0000000002","correct":false,"confidence":2},{"trial_n":135,"span":6,"encoder":"158432","distractor":"159432","target":"present","response":"present","rt":"2372","correct":true,"confidence":4},{"trial_n":136,"span":6,"encoder":"296857","distractor":"496857","target":"present","response":"present","rt":"4142","correct":true,"confidence":1},{"trial_n":137,"span":7,"encoder":"4119273","distractor":"4119243","target":"absent","response":"absent","rt":"2966","correct":true,"confidence":3},{"trial_n":138,"span":7,"encoder":"5877088","distractor":"0877088","target":"absent","response":"absent","rt":"2724","correct":true,"confidence":3},{"trial_n":139,"span":8,"encoder":"21322357","distractor":"21322358","target":"present","response":"present","rt":"2598.0000000002","correct":true,"confidence":4},{"trial_n":140,"span":8,"encoder":"96037802","distractor":"96037872","target":"absent","response":"absent","rt":"1571.9999999998","correct":true,"confidence":4}]