[{"trial_n":1,"n_dots":4.25,"target":"left","response":"right","rt":3678.1000000238,"correct":false,"confidence":-1},{"trial_n":2,"n_dots":4.25,"target":"left","response":"left","rt":700.10000002384,"correct":true,"confidence":-1},{"trial_n":3,"n_dots":4.25,"target":"right","response":"right","rt":56.399999976158,"correct":true,"confidence":-1},{"trial_n":4,"n_dots":3.85,"target":"right","response":"left","rt":157.29999995232,"correct":false,"confidence":-1},{"trial_n":5,"n_dots":4.25,"target":"left","response":"left","rt":181.10000002384,"correct":true,"confidence":-1},{"trial_n":6,"n_dots":4.25,"target":"left","response":"left","rt":54.100000023842,"correct":true,"confidence":-1},{"trial_n":7,"n_dots":3.85,"target":"right","response":"right","rt":16.5,"correct":true,"confidence":-1},{"trial_n":8,"n_dots":3.85,"target":"left","response":"right","rt":2138.5,"correct":false,"confidence":-1},{"trial_n":9,"n_dots":4.05,"target":"left","response":"left","rt":47.900000035763,"correct":true,"confidence":-1},{"trial_n":10,"n_dots":4.05,"target":"right","response":"right","rt":582.20000004768,"correct":true,"confidence":-1},{"trial_n":11,"n_dots":3.85,"target":"right","response":"right","rt":687.79999995232,"correct":true,"confidence":-1},{"trial_n":12,"n_dots":3.85,"target":"left","response":"left","rt":398.60000002384,"correct":true,"confidence":-1},{"trial_n":13,"n_dots":3.75,"target":"right","response":"right","rt":349.59999996424,"correct":true,"confidence":-1},{"trial_n":14,"n_dots":3.75,"target":"right","response":"right","rt":432.20000004768,"correct":true,"confidence":-1},{"trial_n":15,"n_dots":3.65,"target":"right","response":"right","rt":1094,"correct":true,"confidence":-1},{"trial_n":16,"n_dots":3.65,"target":"left","response":"left","rt":326.89999997616,"correct":true,"confidence":-1},{"trial_n":17,"n_dots":3.55,"target":"right","response":"left","rt":727.30000001192,"correct":false,"confidence":-1},{"trial_n":18,"n_dots":3.65,"target":"left","response":"left","rt":313.69999998808,"correct":true,"confidence":-1},{"trial_n":19,"n_dots":3.65,"target":"left","response":"left","rt":283,"correct":true,"confidence":-1},{"trial_n":20,"n_dots":3.55,"target":"right","response":"right","rt":294.89999997616,"correct":true,"confidence":-1},{"trial_n":21,"n_dots":3.55,"target":"left","response":"left","rt":302.20000004768,"correct":true,"confidence":3},{"trial_n":22,"n_dots":3.45,"target":"right","response":"right","rt":301.30000001192,"correct":true,"confidence":3},{"trial_n":23,"n_dots":3.45,"target":"right","response":"right","rt":610.30000001192,"correct":true,"confidence":3},{"trial_n":24,"n_dots":3.35,"target":"left","response":"left","rt":337.80000001192,"correct":true,"confidence":2},{"trial_n":25,"n_dots":3.35,"target":"right","response":"right","rt":505.89999997616,"correct":true,"confidence":4},{"trial_n":26,"n_dots":3.25,"target":"left","response":"left","rt":688.19999998808,"correct":true,"confidence":2},{"trial_n":27,"n_dots":3.25,"target":"right","response":"right","rt":688.90000003576,"correct":true,"confidence":4},{"trial_n":28,"n_dots":3.15,"target":"right","response":"right","rt":293.80000001192,"correct":true,"confidence":3},{"trial_n":29,"n_dots":3.15,"target":"right","response":"right","rt":292,"correct":true,"confidence":3},{"trial_n":30,"n_dots":3.05,"target":"left","response":"left","rt":2637.6000000238,"correct":true,"confidence":2},{"trial_n":31,"n_dots":3.05,"target":"left","response":"left","rt":723.10000002384,"correct":true,"confidence":2},{"trial_n":32,"n_dots":2.95,"target":"right","response":"right","rt":414.39999997616,"correct":true,"confidence":2},{"trial_n":33,"n_dots":2.95,"target":"right","response":"left","rt":1520.3999999762,"correct":false,"confidence":1},{"trial_n":34,"n_dots":3.05,"target":"right","response":"right","rt":616.69999998808,"correct":true,"confidence":3},{"trial_n":35,"n_dots":3.05,"target":"left","response":"left","rt":303.40000003576,"correct":true,"confidence":3},{"trial_n":36,"n_dots":2.95,"target":"right","response":"right","rt":336.39999997616,"correct":true,"confidence":3},{"trial_n":37,"n_dots":2.95,"target":"right","response":"right","rt":387,"correct":true,"confidence":4},{"trial_n":38,"n_dots":2.85,"target":"right","response":"right","rt":486,"correct":true,"confidence":3},{"trial_n":39,"n_dots":2.85,"target":"right","response":"left","rt":281.89999997616,"correct":false,"confidence":2},{"trial_n":40,"n_dots":2.95,"target":"right","response":"left","rt":379.80000001192,"correct":false,"confidence":2},{"trial_n":41,"n_dots":3.05,"target":"left","response":"left","rt":206.80000001192,"correct":true,"confidence":2},{"trial_n":42,"n_dots":3.05,"target":"right","response":"right","rt":338.39999997616,"correct":true,"confidence":3},{"trial_n":43,"n_dots":2.95,"target":"left","response":"right","rt":377.80000001192,"correct":false,"confidence":2},{"trial_n":44,"n_dots":3.05,"target":"right","response":"left","rt":255,"correct":false,"confidence":2},{"trial_n":45,"n_dots":3.15,"target":"left","response":"left","rt":540.19999998808,"correct":true,"confidence":3},{"trial_n":46,"n_dots":3.15,"target":"left","response":"left","rt":768.59999996424,"correct":true,"confidence":3},{"trial_n":47,"n_dots":3.05,"target":"right","response":"right","rt":501.70000004768,"correct":true,"confidence":3},{"trial_n":48,"n_dots":3.05,"target":"left","response":"left","rt":369.89999997616,"correct":true,"confidence":3},{"trial_n":49,"n_dots":2.95,"target":"right","response":"right","rt":1613.0999999642,"correct":true,"confidence":4},{"trial_n":50,"n_dots":2.95,"target":"left","response":"left","rt":388.10000002384,"correct":true,"confidence":3},{"trial_n":51,"n_dots":2.85,"target":"left","response":"left","rt":232.40000003576,"correct":true,"confidence":3},{"trial_n":52,"n_dots":2.85,"target":"left","response":"left","rt":378.10000002384,"correct":true,"confidence":2},{"trial_n":53,"n_dots":2.75,"target":"right","response":"right","rt":818.19999998808,"correct":true,"confidence":3},{"trial_n":54,"n_dots":2.75,"target":"left","response":"right","rt":250.69999998808,"correct":false,"confidence":3},{"trial_n":55,"n_dots":2.85,"target":"left","response":"left","rt":269.40000003576,"correct":true,"confidence":3},{"trial_n":56,"n_dots":2.85,"target":"right","response":"left","rt":499.5,"correct":false,"confidence":2},{"trial_n":57,"n_dots":2.95,"target":"right","response":"right","rt":977.69999998808,"correct":true,"confidence":4},{"trial_n":58,"n_dots":2.95,"target":"right","response":"right","rt":587.10000002384,"correct":true,"confidence":3},{"trial_n":59,"n_dots":2.85,"target":"left","response":"left","rt":191.80000001192,"correct":true,"confidence":3},{"trial_n":60,"n_dots":2.85,"target":"right","response":"right","rt":380.19999998808,"correct":true,"confidence":2},{"trial_n":61,"n_dots":2.75,"target":"left","response":"left","rt":267.89999997616,"correct":true,"confidence":2},{"trial_n":62,"n_dots":2.75,"target":"right","response":"right","rt":345.69999998808,"correct":true,"confidence":3},{"trial_n":63,"n_dots":2.65,"target":"right","response":"right","rt":51.099999964237,"correct":true,"confidence":3},{"trial_n":64,"n_dots":2.65,"target":"right","response":"left","rt":1.2000000476837,"correct":false,"confidence":3},{"trial_n":65,"n_dots":2.75,"target":"left","response":"right","rt":1022.6999999881,"correct":false,"confidence":2},{"trial_n":66,"n_dots":2.85,"target":"right","response":"right","rt":222.69999998808,"correct":true,"confidence":3},{"trial_n":67,"n_dots":2.85,"target":"left","response":"left","rt":613.40000003576,"correct":true,"confidence":2},{"trial_n":68,"n_dots":2.75,"target":"left","response":"left","rt":541.10000002384,"correct":true,"confidence":2},{"trial_n":69,"n_dots":2.75,"target":"left","response":"left","rt":392.39999997616,"correct":true,"confidence":3},{"trial_n":70,"n_dots":2.65,"target":"right","response":"right","rt":313.59999996424,"correct":true,"confidence":3},{"trial_n":71,"n_dots":2.65,"target":"right","response":"right","rt":278.90000003576,"correct":true,"confidence":3},{"trial_n":72,"n_dots":2.55,"target":"left","response":"right","rt":369.39999997616,"correct":false,"confidence":2},{"trial_n":73,"n_dots":2.65,"target":"left","response":"left","rt":377,"correct":true,"confidence":3},{"trial_n":74,"n_dots":2.65,"target":"left","response":"left","rt":257.79999995232,"correct":true,"confidence":3},{"trial_n":75,"n_dots":2.55,"target":"right","response":"right","rt":379.60000002384,"correct":true,"confidence":3},{"trial_n":76,"n_dots":2.55,"target":"right","response":"left","rt":437.30000001192,"correct":false,"confidence":2},{"trial_n":77,"n_dots":2.65,"target":"left","response":"left","rt":235.89999997616,"correct":true,"confidence":3},{"trial_n":78,"n_dots":2.65,"target":"left","response":"left","rt":308.69999998808,"correct":true,"confidence":2},{"trial_n":79,"n_dots":2.55,"target":"left","response":"right","rt":275.09999996424,"correct":false,"confidence":2},{"trial_n":80,"n_dots":2.65,"target":"left","response":"left","rt":239.69999998808,"correct":true,"confidence":3},{"trial_n":81,"n_dots":2.65,"target":"left","response":"left","rt":95.5,"correct":true,"confidence":2},{"trial_n":82,"n_dots":2.55,"target":"right","response":"right","rt":837,"correct":true,"confidence":2},{"trial_n":83,"n_dots":2.55,"target":"left","response":"left","rt":874.89999997616,"correct":true,"confidence":2},{"trial_n":84,"n_dots":2.45,"target":"right","response":"right","rt":1124.8000000119,"correct":true,"confidence":2},{"trial_n":85,"n_dots":2.45,"target":"right","response":"right","rt":373,"correct":true,"confidence":3},{"trial_n":86,"n_dots":2.35,"target":"right","response":"right","rt":383,"correct":true,"confidence":3},{"trial_n":87,"n_dots":2.35,"target":"left","response":"left","rt":296.29999995232,"correct":true,"confidence":2},{"trial_n":88,"n_dots":2.25,"target":"right","response":"right","rt":327.89999997616,"correct":true,"confidence":3},{"trial_n":89,"n_dots":2.25,"target":"left","response":"right","rt":390.40000003576,"correct":false,"confidence":3},{"trial_n":90,"n_dots":2.35,"target":"right","response":"right","rt":132.30000001192,"correct":true,"confidence":3},{"trial_n":91,"n_dots":2.35,"target":"left","response":"left","rt":610.10000002384,"correct":true,"confidence":2},{"trial_n":92,"n_dots":2.25,"target":"right","response":"right","rt":454.30000001192,"correct":true,"confidence":3},{"trial_n":93,"n_dots":2.25,"target":"left","response":"right","rt":423.70000004768,"correct":false,"confidence":3},{"trial_n":94,"n_dots":2.35,"target":"right","response":"left","rt":119.60000002384,"correct":false,"confidence":3},{"trial_n":95,"n_dots":2.45,"target":"right","response":"left","rt":572.69999998808,"correct":false,"confidence":2},{"trial_n":96,"n_dots":2.55,"target":"right","response":"left","rt":588.10000002384,"correct":false,"confidence":2},{"trial_n":97,"n_dots":2.65,"target":"right","response":"right","rt":1321,"correct":true,"confidence":2},{"trial_n":98,"n_dots":2.65,"target":"right","response":"right","rt":305.10000002384,"correct":true,"confidence":3},{"trial_n":99,"n_dots":2.55,"target":"left","response":"right","rt":619.39999997616,"correct":false,"confidence":2},{"trial_n":100,"n_dots":2.65,"target":"left","response":"left","rt":272.5,"correct":true,"confidence":3},{"trial_n":101,"n_dots":2.65,"target":"left","response":"right","rt":1042.6000000238,"correct":false,"confidence":1},{"trial_n":102,"n_dots":2.75,"target":"left","response":"left","rt":320,"correct":true,"confidence":2},{"trial_n":103,"n_dots":2.75,"target":"right","response":"left","rt":498,"correct":false,"confidence":2},{"trial_n":104,"n_dots":2.85,"target":"right","response":"left","rt":604.19999998808,"correct":false,"confidence":2},{"trial_n":105,"n_dots":2.95,"target":"left","response":"right","rt":313.10000002384,"correct":false,"confidence":2},{"trial_n":106,"n_dots":3.05,"target":"left","response":"right","rt":293.40000003576,"correct":false,"confidence":2},{"trial_n":107,"n_dots":3.15,"target":"left","response":"left","rt":445.5,"correct":true,"confidence":2},{"trial_n":108,"n_dots":3.15,"target":"left","response":"left","rt":367.69999998808,"correct":true,"confidence":2},{"trial_n":109,"n_dots":3.05,"target":"left","response":"right","rt":434.19999998808,"correct":false,"confidence":3},{"trial_n":110,"n_dots":3.15,"target":"right","response":"right","rt":342.60000002384,"correct":true,"confidence":3},{"trial_n":111,"n_dots":3.15,"target":"right","response":"left","rt":456.60000002384,"correct":false,"confidence":1},{"trial_n":112,"n_dots":3.25,"target":"right","response":"right","rt":268.89999997616,"correct":true,"confidence":3},{"trial_n":113,"n_dots":3.25,"target":"left","response":"left","rt":291.69999998808,"correct":true,"confidence":3},{"trial_n":114,"n_dots":3.15,"target":"left","response":"left","rt":303,"correct":true,"confidence":3},{"trial_n":115,"n_dots":3.15,"target":"right","response":"right","rt":471.39999997616,"correct":true,"confidence":3},{"trial_n":116,"n_dots":3.05,"target":"left","response":"left","rt":342.79999995232,"correct":true,"confidence":3},{"trial_n":117,"n_dots":3.05,"target":"right","response":"left","rt":267.80000001192,"correct":false,"confidence":2},{"trial_n":118,"n_dots":3.15,"target":"left","response":"left","rt":871.30000001192,"correct":true,"confidence":2},{"trial_n":119,"n_dots":3.15,"target":"left","response":"left","rt":332.59999996424,"correct":true,"confidence":2},{"trial_n":120,"n_dots":3.05,"target":"left","response":"left","rt":2157.7999999523,"correct":true,"confidence":1}]