[{"trial_n":1,"min":25,"max":230,"target":"present","response":"absent","rt":13466,"correct":false,"confidence":-1},{"trial_n":2,"min":25,"max":230,"target":"present","response":"present","rt":2940.2999999523,"correct":true,"confidence":-1},{"trial_n":3,"min":25,"max":230,"target":"absent","response":"absent","rt":1890.7000000477,"correct":true,"confidence":-1},{"trial_n":4,"min":41,"max":214,"target":"absent","response":"present","rt":2767.5,"correct":false,"confidence":-1},{"trial_n":5,"min":25,"max":230,"target":"present","response":"present","rt":1680.1999999285,"correct":true,"confidence":-1},{"trial_n":6,"min":25,"max":230,"target":"present","response":"present","rt":1215.6999999285,"correct":true,"confidence":-1},{"trial_n":7,"min":41,"max":214,"target":"absent","response":"absent","rt":1453.3999999762,"correct":true,"confidence":-1},{"trial_n":8,"min":41,"max":214,"target":"present","response":"present","rt":1056,"correct":true,"confidence":-1},{"trial_n":9,"min":57,"max":198,"target":"present","response":"present","rt":848.19999992847,"correct":true,"confidence":-1},{"trial_n":10,"min":57,"max":198,"target":"absent","response":"absent","rt":1256.4000000954,"correct":true,"confidence":-1},{"trial_n":11,"min":65,"max":190,"target":"present","response":"present","rt":931.70000004768,"correct":true,"confidence":-1},{"trial_n":12,"min":65,"max":190,"target":"absent","response":"absent","rt":1297.8999999762,"correct":true,"confidence":-1},{"trial_n":13,"min":73,"max":182,"target":"absent","response":"absent","rt":1032.4000000954,"correct":true,"confidence":-1},{"trial_n":14,"min":73,"max":182,"target":"absent","response":"absent","rt":836.5,"correct":true,"confidence":-1},{"trial_n":15,"min":81,"max":174,"target":"present","response":"absent","rt":750.5,"correct":false,"confidence":-1},{"trial_n":16,"min":73,"max":182,"target":"present","response":"present","rt":1267,"correct":true,"confidence":-1},{"trial_n":17,"min":73,"max":182,"target":"present","response":"present","rt":684.89999997616,"correct":true,"confidence":-1},{"trial_n":18,"min":81,"max":174,"target":"absent","response":"absent","rt":1289.8000000715,"correct":true,"confidence":-1},{"trial_n":19,"min":81,"max":174,"target":"absent","response":"absent","rt":1424.1000000238,"correct":true,"confidence":-1},{"trial_n":20,"min":89,"max":166,"target":"absent","response":"absent","rt":1092.3999999762,"correct":true,"confidence":-1},{"trial_n":21,"min":89,"max":166,"target":"present","response":"present","rt":1648.2999999523,"correct":true,"confidence":2},{"trial_n":22,"min":93,"max":162,"target":"absent","response":"present","rt":1374.7999999523,"correct":false,"confidence":4},{"trial_n":23,"min":89,"max":166,"target":"present","response":"present","rt":1294.2999999523,"correct":true,"confidence":4},{"trial_n":24,"min":89,"max":166,"target":"absent","response":"present","rt":2698,"correct":false,"confidence":3},{"trial_n":25,"min":85,"max":170,"target":"present","response":"present","rt":1320.6999999285,"correct":true,"confidence":3},{"trial_n":26,"min":85,"max":170,"target":"absent","response":"present","rt":1262.2999999523,"correct":false,"confidence":4},{"trial_n":27,"min":81,"max":174,"target":"absent","response":"present","rt":1264.3999999762,"correct":false,"confidence":5},{"trial_n":28,"min":77,"max":178,"target":"present","response":"present","rt":1443.1999999285,"correct":true,"confidence":3},{"trial_n":29,"min":77,"max":178,"target":"present","response":"present","rt":1675.7999999523,"correct":true,"confidence":4},{"trial_n":30,"min":81,"max":174,"target":"absent","response":"present","rt":1905.8999999762,"correct":false,"confidence":3},{"trial_n":31,"min":79,"max":176,"target":"absent","response":"present","rt":1216.6000000238,"correct":false,"confidence":4},{"trial_n":32,"min":77,"max":178,"target":"absent","response":"present","rt":1215,"correct":false,"confidence":4},{"trial_n":33,"min":75,"max":180,"target":"present","response":"present","rt":1851.2000000477,"correct":true,"confidence":5},{"trial_n":34,"min":75,"max":180,"target":"present","response":"present","rt":1210.8999999762,"correct":true,"confidence":4},{"trial_n":35,"min":77,"max":178,"target":"present","response":"present","rt":1265,"correct":true,"confidence":5},{"trial_n":36,"min":77,"max":178,"target":"absent","response":"absent","rt":1778.7000000477,"correct":true,"confidence":2},{"trial_n":37,"min":79,"max":176,"target":"present","response":"present","rt":1217.5,"correct":true,"confidence":3},{"trial_n":38,"min":79,"max":176,"target":"absent","response":"present","rt":1162.6000000238,"correct":false,"confidence":4},{"trial_n":39,"min":77,"max":178,"target":"absent","response":"present","rt":1291.1000000238,"correct":false,"confidence":3},{"trial_n":40,"min":75,"max":180,"target":"present","response":"present","rt":1203.8999999762,"correct":true,"confidence":5},{"trial_n":41,"min":75,"max":180,"target":"absent","response":"present","rt":1290.6999999285,"correct":false,"confidence":3},{"trial_n":42,"min":74,"max":181,"target":"absent","response":"present","rt":1439.1000000238,"correct":false,"confidence":3},{"trial_n":43,"min":73,"max":182,"target":"present","response":"present","rt":1192.8000000715,"correct":true,"confidence":5},{"trial_n":44,"min":73,"max":182,"target":"absent","response":"present","rt":1283.5,"correct":false,"confidence":4},{"trial_n":45,"min":72,"max":183,"target":"absent","response":"present","rt":1202.7999999523,"correct":false,"confidence":3},{"trial_n":46,"min":71,"max":184,"target":"present","response":"present","rt":1265.4000000954,"correct":true,"confidence":5},{"trial_n":47,"min":71,"max":184,"target":"absent","response":"present","rt":2139.2999999523,"correct":false,"confidence":3},{"trial_n":48,"min":70,"max":185,"target":"present","response":"absent","rt":2135.5999999046,"correct":false,"confidence":2},{"trial_n":49,"min":69,"max":186,"target":"present","response":"present","rt":1143.4000000954,"correct":true,"confidence":3},{"trial_n":50,"min":69,"max":186,"target":"present","response":"present","rt":1422.5,"correct":true,"confidence":3},{"trial_n":51,"min":70,"max":185,"target":"present","response":"present","rt":1139,"correct":true,"confidence":5},{"trial_n":52,"min":70,"max":185,"target":"absent","response":"present","rt":1218.7999999523,"correct":false,"confidence":3},{"trial_n":53,"min":69,"max":186,"target":"present","response":"present","rt":1138.3000000715,"correct":true,"confidence":5},{"trial_n":54,"min":69,"max":186,"target":"absent","response":"absent","rt":1599.1999999285,"correct":true,"confidence":3},{"trial_n":55,"min":70,"max":185,"target":"present","response":"present","rt":1256.3000000715,"correct":true,"confidence":2},{"trial_n":56,"min":70,"max":185,"target":"absent","response":"present","rt":1202.1000000238,"correct":false,"confidence":3},{"trial_n":57,"min":69,"max":186,"target":"absent","response":"present","rt":1261.3000000715,"correct":false,"confidence":3},{"trial_n":58,"min":68,"max":187,"target":"present","response":"present","rt":1223.5,"correct":true,"confidence":4},{"trial_n":59,"min":68,"max":187,"target":"absent","response":"absent","rt":2451.6999999285,"correct":true,"confidence":2},{"trial_n":60,"min":69,"max":186,"target":"absent","response":"absent","rt":3076.5,"correct":true,"confidence":1},{"trial_n":61,"min":69,"max":186,"target":"present","response":"present","rt":1362,"correct":true,"confidence":5},{"trial_n":62,"min":70,"max":185,"target":"absent","response":"absent","rt":1353.5,"correct":true,"confidence":3},{"trial_n":63,"min":70,"max":185,"target":"present","response":"present","rt":1269,"correct":true,"confidence":4},{"trial_n":64,"min":71,"max":184,"target":"present","response":"present","rt":1347.8999999762,"correct":true,"confidence":4},{"trial_n":65,"min":71,"max":184,"target":"present","response":"present","rt":1236.5,"correct":true,"confidence":4},{"trial_n":66,"min":72,"max":183,"target":"absent","response":"absent","rt":1414,"correct":true,"confidence":3},{"trial_n":67,"min":72,"max":183,"target":"absent","response":"absent","rt":1906.2999999523,"correct":true,"confidence":1},{"trial_n":68,"min":73,"max":182,"target":"present","response":"present","rt":1247.2000000477,"correct":true,"confidence":2},{"trial_n":69,"min":73,"max":182,"target":"present","response":"present","rt":1654.3999999762,"correct":true,"confidence":4},{"trial_n":70,"min":74,"max":181,"target":"present","response":"present","rt":1147.8000000715,"correct":true,"confidence":4},{"trial_n":71,"min":41,"max":214,"target":"present","response":"present","rt":1520.3000000715,"correct":true,"confidence":-1},{"trial_n":72,"min":41,"max":214,"target":"present","response":"present","rt":1247.7999999523,"correct":true,"confidence":-1},{"trial_n":73,"min":57,"max":198,"target":"absent","response":"absent","rt":1406.8999999762,"correct":true,"confidence":-1},{"trial_n":74,"min":57,"max":198,"target":"absent","response":"absent","rt":1402.7999999523,"correct":true,"confidence":-1},{"trial_n":75,"min":73,"max":182,"target":"present","response":"present","rt":1069.8000000715,"correct":true,"confidence":-1},{"trial_n":76,"min":73,"max":182,"target":"absent","response":"absent","rt":2176.1000000238,"correct":true,"confidence":-1},{"trial_n":77,"min":89,"max":166,"target":"absent","response":"present","rt":2264,"correct":false,"confidence":-1},{"trial_n":78,"min":73,"max":182,"target":"present","response":"present","rt":1894.1000000238,"correct":true,"confidence":-1},{"trial_n":79,"min":73,"max":182,"target":"present","response":"present","rt":837.70000004768,"correct":true,"confidence":-1},{"trial_n":80,"min":89,"max":166,"target":"absent","response":"absent","rt":1392.6000000238,"correct":true,"confidence":-1},{"trial_n":81,"min":89,"max":166,"target":"absent","response":"present","rt":1406.8999999762,"correct":false,"confidence":-1},{"trial_n":82,"min":81,"max":174,"target":"present","response":"present","rt":1110,"correct":true,"confidence":-1},{"trial_n":83,"min":81,"max":174,"target":"present","response":"present","rt":850.79999995232,"correct":true,"confidence":-1},{"trial_n":84,"min":89,"max":166,"target":"absent","response":"present","rt":986.20000004768,"correct":false,"confidence":-1},{"trial_n":85,"min":81,"max":174,"target":"present","response":"present","rt":820.5,"correct":true,"confidence":-1},{"trial_n":86,"min":81,"max":174,"target":"present","response":"present","rt":812.29999995232,"correct":true,"confidence":-1},{"trial_n":87,"min":89,"max":166,"target":"present","response":"present","rt":807.60000002384,"correct":true,"confidence":-1},{"trial_n":88,"min":89,"max":166,"target":"absent","response":"absent","rt":1591,"correct":true,"confidence":-1},{"trial_n":89,"min":97,"max":158,"target":"absent","response":"present","rt":1189.1999999285,"correct":false,"confidence":-1},{"trial_n":90,"min":89,"max":166,"target":"absent","response":"present","rt":744,"correct":false,"confidence":-1},{"trial_n":91,"min":85,"max":170,"target":"present","response":"absent","rt":1865.6999999285,"correct":false,"confidence":2},{"trial_n":92,"min":81,"max":174,"target":"absent","response":"present","rt":1435.6999999285,"correct":false,"confidence":3},{"trial_n":93,"min":77,"max":178,"target":"present","response":"present","rt":1237,"correct":true,"confidence":5},{"trial_n":94,"min":77,"max":178,"target":"absent","response":"present","rt":1303.2999999523,"correct":false,"confidence":2},{"trial_n":95,"min":73,"max":182,"target":"absent","response":"absent","rt":1846,"correct":true,"confidence":3},{"trial_n":96,"min":73,"max":182,"target":"absent","response":"absent","rt":1427.7999999523,"correct":true,"confidence":4},{"trial_n":97,"min":77,"max":178,"target":"absent","response":"absent","rt":2349,"correct":true,"confidence":1},{"trial_n":98,"min":77,"max":178,"target":"absent","response":"absent","rt":2099.1000000238,"correct":true,"confidence":1},{"trial_n":99,"min":81,"max":174,"target":"absent","response":"present","rt":2230.6999999285,"correct":false,"confidence":1},{"trial_n":100,"min":77,"max":178,"target":"absent","response":"absent","rt":1338.3999999762,"correct":true,"confidence":3},{"trial_n":101,"min":77,"max":178,"target":"absent","response":"absent","rt":1497.8000000715,"correct":true,"confidence":3},{"trial_n":102,"min":79,"max":176,"target":"absent","response":"absent","rt":1421.2000000477,"correct":true,"confidence":3},{"trial_n":103,"min":79,"max":176,"target":"present","response":"present","rt":1201.7000000477,"correct":true,"confidence":4},{"trial_n":104,"min":81,"max":174,"target":"absent","response":"present","rt":1335.1000000238,"correct":false,"confidence":3},{"trial_n":105,"min":79,"max":176,"target":"present","response":"present","rt":1201.2000000477,"correct":true,"confidence":5},{"trial_n":106,"min":79,"max":176,"target":"absent","response":"present","rt":1372.8999999762,"correct":false,"confidence":4},{"trial_n":107,"min":77,"max":178,"target":"present","response":"present","rt":1274.5,"correct":true,"confidence":4},{"trial_n":108,"min":77,"max":178,"target":"present","response":"present","rt":1495.2999999523,"correct":true,"confidence":5},{"trial_n":109,"min":79,"max":176,"target":"absent","response":"present","rt":1474,"correct":false,"confidence":1},{"trial_n":110,"min":77,"max":178,"target":"present","response":"present","rt":1195.8999999762,"correct":true,"confidence":4},{"trial_n":111,"min":77,"max":178,"target":"present","response":"present","rt":1187.2000000477,"correct":true,"confidence":5},{"trial_n":112,"min":78,"max":177,"target":"absent","response":"absent","rt":1447.1000000238,"correct":true,"confidence":3},{"trial_n":113,"min":78,"max":177,"target":"absent","response":"present","rt":1416,"correct":false,"confidence":3},{"trial_n":114,"min":77,"max":178,"target":"absent","response":"present","rt":1232.7000000477,"correct":false,"confidence":2},{"trial_n":115,"min":76,"max":179,"target":"absent","response":"present","rt":1428.6000000238,"correct":false,"confidence":3},{"trial_n":116,"min":75,"max":180,"target":"present","response":"present","rt":1309,"correct":true,"confidence":5},{"trial_n":117,"min":75,"max":180,"target":"absent","response":"absent","rt":1763.5,"correct":true,"confidence":2},{"trial_n":118,"min":76,"max":179,"target":"absent","response":"present","rt":1216.8000000715,"correct":false,"confidence":3},{"trial_n":119,"min":75,"max":180,"target":"present","response":"present","rt":1448.2000000477,"correct":true,"confidence":5},{"trial_n":120,"min":75,"max":180,"target":"present","response":"present","rt":1128.7000000477,"correct":true,"confidence":5},{"trial_n":121,"min":76,"max":179,"target":"present","response":"present","rt":1108,"correct":true,"confidence":5},{"trial_n":122,"min":76,"max":179,"target":"present","response":"present","rt":1220,"correct":true,"confidence":5},{"trial_n":123,"min":77,"max":178,"target":"absent","response":"absent","rt":1637,"correct":true,"confidence":1},{"trial_n":124,"min":77,"max":178,"target":"present","response":"present","rt":1065.1000000238,"correct":true,"confidence":4},{"trial_n":125,"min":78,"max":177,"target":"present","response":"present","rt":1178.5999999046,"correct":true,"confidence":4},{"trial_n":126,"min":78,"max":177,"target":"present","response":"present","rt":1333,"correct":true,"confidence":5},{"trial_n":127,"min":79,"max":176,"target":"present","response":"present","rt":1198.1000000238,"correct":true,"confidence":5},{"trial_n":128,"min":79,"max":176,"target":"present","response":"present","rt":999.5,"correct":true,"confidence":4},{"trial_n":129,"min":80,"max":175,"target":"absent","response":"absent","rt":1555.1999999285,"correct":true,"confidence":3},{"trial_n":130,"min":80,"max":175,"target":"present","response":"present","rt":1259.2000000477,"correct":true,"confidence":3},{"trial_n":131,"min":81,"max":174,"target":"present","response":"present","rt":1034.7000000477,"correct":true,"confidence":4},{"trial_n":132,"min":81,"max":174,"target":"absent","response":"absent","rt":1499.2999999523,"correct":true,"confidence":3},{"trial_n":133,"min":82,"max":173,"target":"present","response":"present","rt":1146.3000000715,"correct":true,"confidence":5},{"trial_n":134,"min":82,"max":173,"target":"present","response":"present","rt":1103.6000000238,"correct":true,"confidence":5},{"trial_n":135,"min":83,"max":172,"target":"absent","response":"absent","rt":1903.1000000238,"correct":true,"confidence":3},{"trial_n":136,"min":83,"max":172,"target":"present","response":"present","rt":1257.3999999762,"correct":true,"confidence":5},{"trial_n":137,"min":84,"max":171,"target":"present","response":"present","rt":1197.8999999762,"correct":true,"confidence":5},{"trial_n":138,"min":84,"max":171,"target":"absent","response":"absent","rt":1499.4000000954,"correct":true,"confidence":3},{"trial_n":139,"min":85,"max":170,"target":"present","response":"absent","rt":1542.2000000477,"correct":false,"confidence":4},{"trial_n":140,"min":84,"max":171,"target":"present","response":"present","rt":1212,"correct":true,"confidence":4}]