[{"trial_n":1,"span":8,"encoder":"00464264","distractor":"00464263","target":"present","response":"absent","rt":"4825.3000000119","correct":false,"confidence":-1},{"trial_n":2,"span":6,"encoder":"702226","distractor":"702206","target":"present","response":"present","rt":"2533.6000000238","correct":true,"confidence":-1},{"trial_n":3,"span":6,"encoder":"115100","distractor":"115103","target":"absent","response":"absent","rt":"2416.7000000477","correct":true,"confidence":-1},{"trial_n":4,"span":8,"encoder":"24273834","distractor":"24273839","target":"absent","response":"absent","rt":"2337.1000000238","correct":true,"confidence":-1},{"trial_n":5,"span":8,"encoder":"00142854","distractor":"00142884","target":"present","response":"present","rt":"3127.4000000358","correct":true,"confidence":-1},{"trial_n":6,"span":10,"encoder":"5246493578","distractor":"5446493578","target":"present","response":"absent","rt":"3522.4000000358","correct":false,"confidence":-1},{"trial_n":7,"span":8,"encoder":"95715252","distractor":"99715252","target":"present","response":"present","rt":"3554","correct":true,"confidence":-1},{"trial_n":8,"span":8,"encoder":"57924280","distractor":"58924280","target":"absent","response":"present","rt":"3095.8000000119","correct":false,"confidence":-1},{"trial_n":9,"span":6,"encoder":"793058","distractor":"793358","target":"present","response":"present","rt":"1651","correct":true,"confidence":-1},{"trial_n":10,"span":6,"encoder":"832106","distractor":"832108","target":"absent","response":"absent","rt":"1902.5999999642","correct":true,"confidence":-1},{"trial_n":11,"span":8,"encoder":"05246204","distractor":"85246204","target":"absent","response":"absent","rt":"4767.6999999881","correct":true,"confidence":-1},{"trial_n":12,"span":8,"encoder":"84330739","distractor":"87330739","target":"absent","response":"present","rt":"2373.3999999762","correct":false,"confidence":-1},{"trial_n":13,"span":7,"encoder":"3423800","distractor":"3423900","target":"absent","response":"absent","rt":"1944","correct":true,"confidence":-1},{"trial_n":14,"span":7,"encoder":"2242375","distractor":"2242372","target":"present","response":"present","rt":"2308.9000000358","correct":true,"confidence":-1},{"trial_n":15,"span":8,"encoder":"33834594","distractor":"33894594","target":"present","response":"present","rt":"2481.5999999642","correct":true,"confidence":-1},{"trial_n":16,"span":8,"encoder":"70438773","distractor":"71438773","target":"absent","response":"present","rt":"1246.3999999762","correct":false,"confidence":-1},{"trial_n":17,"span":7,"encoder":"0139527","distractor":"0199527","target":"present","response":"present","rt":"1420.1000000238","correct":true,"confidence":-1},{"trial_n":18,"span":7,"encoder":"7909329","distractor":"7909389","target":"absent","response":"absent","rt":"3945.9000000358","correct":true,"confidence":-1},{"trial_n":19,"span":8,"encoder":"99531342","distractor":"99531542","target":"present","response":"present","rt":"2097.9000000358","correct":true,"confidence":-1},{"trial_n":20,"span":8,"encoder":"94609778","distractor":"94609798","target":"present","response":"present","rt":"1114.8999999762","correct":true,"confidence":-1},{"trial_n":21,"span":9,"encoder":"244422163","distractor":"244424163","target":"present","response":"present","rt":"2847","correct":true,"confidence":4},{"trial_n":22,"span":9,"encoder":"044099324","distractor":"044099374","target":"absent","response":"absent","rt":"6013.6999999881","correct":true,"confidence":3},{"trial_n":23,"span":10,"encoder":"7055678463","distractor":"7055478463","target":"absent","response":"present","rt":"4390.3000000119","correct":false,"confidence":3},{"trial_n":24,"span":9,"encoder":"409027004","distractor":"401027004","target":"present","response":"present","rt":"2090","correct":true,"confidence":4},{"trial_n":25,"span":9,"encoder":"533479488","distractor":"433479488","target":"present","response":"present","rt":"3605.6999999881","correct":true,"confidence":4},{"trial_n":26,"span":10,"encoder":"7069276370","distractor":"1069276370","target":"absent","response":"absent","rt":"3109.5","correct":true,"confidence":4},{"trial_n":27,"span":10,"encoder":"6540393662","distractor":"6540993662","target":"present","response":"present","rt":"3972.3999999762","correct":true,"confidence":3},{"trial_n":28,"span":11,"encoder":"31424835950","distractor":"31724835950","target":"present","response":"present","rt":"3891.0999999642","correct":true,"confidence":3},{"trial_n":29,"span":11,"encoder":"00563596740","distractor":"00563596745","target":"absent","response":"absent","rt":"4455.8999999762","correct":true,"confidence":5},{"trial_n":30,"span":12,"encoder":"236278443768","distractor":"236278443760","target":"absent","response":"absent","rt":"3314.0999999642","correct":true,"confidence":5},{"trial_n":31,"span":12,"encoder":"661085441078","distractor":"161085441078","target":"absent","response":"present","rt":"4368.4000000358","correct":false,"confidence":2},{"trial_n":32,"span":11,"encoder":"30111923747","distractor":"30111926747","target":"present","response":"absent","rt":"3882.5","correct":false,"confidence":3},{"trial_n":33,"span":10,"encoder":"7948071590","distractor":"2948071590","target":"absent","response":"present","rt":"3785.8999999762","correct":false,"confidence":3},{"trial_n":34,"span":9,"encoder":"333221304","distractor":"333221354","target":"present","response":"present","rt":"3062.6999999881","correct":true,"confidence":4},{"trial_n":35,"span":9,"encoder":"809095436","distractor":"809096436","target":"absent","response":"present","rt":"4696.6000000238","correct":false,"confidence":3},{"trial_n":36,"span":8,"encoder":"15451686","distractor":"15461686","target":"absent","response":"present","rt":"3343.7000000477","correct":false,"confidence":4},{"trial_n":37,"span":7,"encoder":"2983471","distractor":"2283471","target":"present","response":"present","rt":"3148.5","correct":true,"confidence":5},{"trial_n":38,"span":7,"encoder":"6372770","distractor":"6872770","target":"absent","response":"absent","rt":"3172.6000000238","correct":true,"confidence":4},{"trial_n":39,"span":8,"encoder":"99867899","distractor":"99877899","target":"absent","response":"absent","rt":"3406.8999999762","correct":true,"confidence":4},{"trial_n":40,"span":8,"encoder":"09901260","distractor":"09901360","target":"absent","response":"present","rt":"4631.1999999881","correct":false,"confidence":3},{"trial_n":41,"span":7,"encoder":"4674387","distractor":"2674387","target":"present","response":"present","rt":"2704.8000000119","correct":true,"confidence":4},{"trial_n":42,"span":7,"encoder":"9718490","distractor":"0718490","target":"present","response":"absent","rt":"5715.3000000119","correct":false,"confidence":3},{"trial_n":43,"span":6,"encoder":"185418","distractor":"985418","target":"absent","response":"absent","rt":"4367.1999999881","correct":true,"confidence":5},{"trial_n":44,"span":6,"encoder":"830613","distractor":"830213","target":"present","response":"present","rt":"2633.6000000238","correct":true,"confidence":5},{"trial_n":45,"span":7,"encoder":"6547305","distractor":"6577305","target":"absent","response":"absent","rt":"2285.6999999881","correct":true,"confidence":4},{"trial_n":46,"span":7,"encoder":"6169100","distractor":"6169106","target":"present","response":"present","rt":"4712","correct":true,"confidence":4},{"trial_n":47,"span":8,"encoder":"37811276","distractor":"77811276","target":"absent","response":"absent","rt":"1916.6999999881","correct":true,"confidence":4},{"trial_n":48,"span":8,"encoder":"56690732","distractor":"56790732","target":"present","response":"absent","rt":"5118","correct":false,"confidence":2},{"trial_n":49,"span":7,"encoder":"9110271","distractor":"9110278","target":"present","response":"present","rt":"3676","correct":true,"confidence":3},{"trial_n":50,"span":7,"encoder":"1148352","distractor":"1198352","target":"present","response":"absent","rt":"2893.6999999881","correct":false,"confidence":2},{"trial_n":51,"span":6,"encoder":"440329","distractor":"444329","target":"absent","response":"absent","rt":"2011.5","correct":true,"confidence":4},{"trial_n":52,"span":6,"encoder":"807966","distractor":"887966","target":"present","response":"present","rt":"2885.8999999762","correct":true,"confidence":4},{"trial_n":53,"span":7,"encoder":"2829454","distractor":"2869454","target":"absent","response":"absent","rt":"1799.6999999881","correct":true,"confidence":3},{"trial_n":54,"span":7,"encoder":"3121595","distractor":"8121595","target":"present","response":"present","rt":"2910.8999999762","correct":true,"confidence":4},{"trial_n":55,"span":8,"encoder":"26907152","distractor":"26907156","target":"present","response":"absent","rt":"4499.1999999881","correct":false,"confidence":3},{"trial_n":56,"span":7,"encoder":"0068669","distractor":"0068664","target":"absent","response":"absent","rt":"3254.3999999762","correct":true,"confidence":5},{"trial_n":57,"span":7,"encoder":"1884507","distractor":"8884507","target":"present","response":"present","rt":"2635.1999999881","correct":true,"confidence":5},{"trial_n":58,"span":8,"encoder":"91520245","distractor":"91520285","target":"absent","response":"present","rt":"3814.4000000358","correct":false,"confidence":3},{"trial_n":59,"span":7,"encoder":"5217152","distractor":"5207152","target":"absent","response":"absent","rt":"3967.4000000358","correct":true,"confidence":3},{"trial_n":60,"span":7,"encoder":"7165699","distractor":"7165099","target":"absent","response":"absent","rt":"3124.1999999881","correct":true,"confidence":3},{"trial_n":61,"span":8,"encoder":"43877054","distractor":"43577054","target":"present","response":"present","rt":"4131.6999999881","correct":true,"confidence":2},{"trial_n":62,"span":8,"encoder":"88095268","distractor":"88092268","target":"present","response":"present","rt":"3398.3999999762","correct":true,"confidence":3},{"trial_n":63,"span":9,"encoder":"366066210","distractor":"366966210","target":"present","response":"present","rt":"2398.6000000238","correct":true,"confidence":4},{"trial_n":64,"span":9,"encoder":"967461939","distractor":"967461949","target":"absent","response":"absent","rt":"1290.3999999762","correct":true,"confidence":5},{"trial_n":65,"span":10,"encoder":"1813784500","distractor":"1813784530","target":"absent","response":"absent","rt":"1494.8999999762","correct":true,"confidence":5},{"trial_n":66,"span":10,"encoder":"2372847355","distractor":"4372847355","target":"present","response":"present","rt":"3689.5","correct":true,"confidence":4},{"trial_n":67,"span":11,"encoder":"82297860068","distractor":"82297860168","target":"present","response":"present","rt":"3116.9000000358","correct":true,"confidence":4},{"trial_n":68,"span":11,"encoder":"69447320160","distractor":"69447620160","target":"absent","response":"present","rt":"3495","correct":false,"confidence":3},{"trial_n":69,"span":10,"encoder":"0916428808","distractor":"5916428808","target":"present","response":"present","rt":"2796","correct":true,"confidence":3},{"trial_n":70,"span":10,"encoder":"5894710477","distractor":"5294710477","target":"absent","response":"present","rt":"3499.0999999642","correct":false,"confidence":4},{"trial_n":71,"span":8,"encoder":"19067577","distractor":"19067570","target":"present","response":"present","rt":"1900","correct":true,"confidence":-1},{"trial_n":72,"span":8,"encoder":"13327688","distractor":"13387688","target":"present","response":"present","rt":"3844.6000000238","correct":true,"confidence":-1},{"trial_n":73,"span":9,"encoder":"846172323","distractor":"846178323","target":"absent","response":"absent","rt":"2248.3000000119","correct":true,"confidence":-1},{"trial_n":74,"span":9,"encoder":"731273343","distractor":"721273343","target":"absent","response":"present","rt":"5889","correct":false,"confidence":-1},{"trial_n":75,"span":8,"encoder":"12837015","distractor":"12837915","target":"present","response":"present","rt":"3765.2000000477","correct":true,"confidence":-1},{"trial_n":76,"span":8,"encoder":"63635614","distractor":"93635614","target":"present","response":"present","rt":"1722.6000000238","correct":true,"confidence":-1},{"trial_n":77,"span":9,"encoder":"109071929","distractor":"109031929","target":"present","response":"present","rt":"3815.8999999762","correct":true,"confidence":-1},{"trial_n":78,"span":9,"encoder":"105778589","distractor":"105768589","target":"present","response":"present","rt":"2526.5","correct":true,"confidence":-1},{"trial_n":79,"span":10,"encoder":"1643680627","distractor":"1643685627","target":"present","response":"present","rt":"1822.8000000119","correct":true,"confidence":-1},{"trial_n":80,"span":10,"encoder":"4897254589","distractor":"4897224589","target":"present","response":"present","rt":"4584.9000000358","correct":true,"confidence":-1},{"trial_n":81,"span":11,"encoder":"85049154753","distractor":"85049194753","target":"present","response":"absent","rt":"3254.2999999523","correct":false,"confidence":-1},{"trial_n":82,"span":10,"encoder":"7432265720","distractor":"7432365720","target":"absent","response":"absent","rt":"6696.7999999523","correct":true,"confidence":-1},{"trial_n":83,"span":10,"encoder":"5061597139","distractor":"5061597133","target":"present","response":"present","rt":"1918","correct":true,"confidence":-1},{"trial_n":84,"span":11,"encoder":"54968174224","distractor":"54948174224","target":"absent","response":"present","rt":"5408.5","correct":false,"confidence":-1},{"trial_n":85,"span":10,"encoder":"2063028929","distractor":"2063028129","target":"absent","response":"present","rt":"588.69999998808","correct":false,"confidence":-1},{"trial_n":86,"span":9,"encoder":"343651009","distractor":"243651009","target":"present","response":"present","rt":"1838.5","correct":true,"confidence":-1},{"trial_n":87,"span":9,"encoder":"410367662","distractor":"410367632","target":"absent","response":"absent","rt":"1152.5","correct":true,"confidence":-1},{"trial_n":88,"span":10,"encoder":"1407956539","distractor":"1907956539","target":"absent","response":"absent","rt":"13728.400000036","correct":true,"confidence":-1},{"trial_n":89,"span":10,"encoder":"3312686313","distractor":"3342686313","target":"absent","response":"absent","rt":"4005.8999999762","correct":true,"confidence":-1},{"trial_n":90,"span":11,"encoder":"16577370201","distractor":"10577370201","target":"present","response":"present","rt":"2770.9000000358","correct":true,"confidence":-1},{"trial_n":91,"span":11,"encoder":"51218903151","distractor":"21218903151","target":"present","response":"present","rt":"9172.9000000358","correct":true,"confidence":3},{"trial_n":92,"span":12,"encoder":"682183740255","distractor":"682183744255","target":"absent","response":"absent","rt":"2927.1000000238","correct":true,"confidence":4},{"trial_n":93,"span":12,"encoder":"038448698833","distractor":"038248698833","target":"present","response":"present","rt":"5481.6999999881","correct":true,"confidence":2},{"trial_n":94,"span":13,"encoder":"4376713234553","distractor":"0376713234553","target":"absent","response":"present","rt":"5028.6999999881","correct":false,"confidence":2},{"trial_n":95,"span":12,"encoder":"091425952604","distractor":"891425952604","target":"present","response":"present","rt":"5451.4000000358","correct":true,"confidence":3},{"trial_n":96,"span":12,"encoder":"101183482894","distractor":"101183482854","target":"present","response":"present","rt":"5442.1999999881","correct":true,"confidence":3},{"trial_n":97,"span":13,"encoder":"8079862126659","distractor":"6079862126659","target":"present","response":"present","rt":"7556.1000000238","correct":true,"confidence":2},{"trial_n":98,"span":13,"encoder":"0303152039366","distractor":"0303152039666","target":"absent","response":"present","rt":"17621.800000012","correct":false,"confidence":4},{"trial_n":99,"span":12,"encoder":"192776581363","distractor":"192776561363","target":"absent","response":"absent","rt":"4053.6000000238","correct":true,"confidence":3},{"trial_n":100,"span":12,"encoder":"141259115445","distractor":"141259015445","target":"absent","response":"absent","rt":"3614.7000000477","correct":true,"confidence":3},{"trial_n":101,"span":13,"encoder":"5193844430728","distractor":"5193844230728","target":"absent","response":"present","rt":"13930.5","correct":false,"confidence":3},{"trial_n":102,"span":12,"encoder":"377007223949","distractor":"377003223949","target":"absent","response":"present","rt":"7344.5999999642","correct":false,"confidence":3},{"trial_n":103,"span":11,"encoder":"52568613676","distractor":"52568613376","target":"absent","response":"absent","rt":"4950.5","correct":true,"confidence":3},{"trial_n":104,"span":11,"encoder":"08381586412","distractor":"08381586410","target":"present","response":"present","rt":"1780.8999999762","correct":true,"confidence":5},{"trial_n":105,"span":12,"encoder":"159719262612","distractor":"155719262612","target":"present","response":"present","rt":"8037","correct":true,"confidence":4},{"trial_n":106,"span":12,"encoder":"606858637166","distractor":"606858617166","target":"present","response":"present","rt":"3240.6999999881","correct":true,"confidence":3},{"trial_n":107,"span":13,"encoder":"8067317059602","distractor":"3067317059602","target":"absent","response":"present","rt":"5370.5","correct":false,"confidence":2},{"trial_n":108,"span":12,"encoder":"742018318903","distractor":"722018318903","target":"absent","response":"absent","rt":"7985","correct":true,"confidence":3},{"trial_n":109,"span":12,"encoder":"733416630214","distractor":"733416630224","target":"present","response":"present","rt":"5194.3999999762","correct":true,"confidence":4},{"trial_n":110,"span":13,"encoder":"9820743545438","distractor":"9840743545438","target":"absent","response":"present","rt":"5303.1000000238","correct":false,"confidence":2},{"trial_n":111,"span":12,"encoder":"283632335416","distractor":"283632335426","target":"present","response":"absent","rt":"12544.599999964","correct":false,"confidence":3},{"trial_n":112,"span":11,"encoder":"49980435834","distractor":"09980435834","target":"present","response":"present","rt":"4523.8999999762","correct":true,"confidence":2},{"trial_n":113,"span":11,"encoder":"98218304773","distractor":"98218304777","target":"absent","response":"absent","rt":"2762.6000000238","correct":true,"confidence":4},{"trial_n":114,"span":12,"encoder":"769296268081","distractor":"769196268081","target":"present","response":"present","rt":"9208.1999999881","correct":true,"confidence":2},{"trial_n":115,"span":12,"encoder":"286269274990","distractor":"286209274990","target":"absent","response":"absent","rt":"12205.5","correct":true,"confidence":3},{"trial_n":116,"span":13,"encoder":"2726700530392","distractor":"2726700536392","target":"present","response":"absent","rt":"6133.3999999762","correct":false,"confidence":3},{"trial_n":117,"span":12,"encoder":"241885871704","distractor":"241885871604","target":"absent","response":"absent","rt":"5349.9000000358","correct":true,"confidence":4},{"trial_n":118,"span":12,"encoder":"524887674024","distractor":"524887675024","target":"absent","response":"absent","rt":"2952.1000000238","correct":true,"confidence":3},{"trial_n":119,"span":13,"encoder":"2708572507640","distractor":"2768572507640","target":"present","response":"absent","rt":"5036.1999999881","correct":false,"confidence":3},{"trial_n":120,"span":12,"encoder":"883799558101","distractor":"883599558101","target":"present","response":"absent","rt":"5266.8999999762","correct":false,"confidence":2},{"trial_n":121,"span":11,"encoder":"05178157347","distractor":"75178157347","target":"absent","response":"absent","rt":"2358.3999999762","correct":true,"confidence":3},{"trial_n":122,"span":11,"encoder":"34556281166","distractor":"34556287166","target":"absent","response":"absent","rt":"6319.8999999762","correct":true,"confidence":4},{"trial_n":123,"span":12,"encoder":"272867491447","distractor":"271867491447","target":"present","response":"present","rt":"5845.5","correct":true,"confidence":2},{"trial_n":124,"span":12,"encoder":"710381367188","distractor":"010381367188","target":"absent","response":"present","rt":"3383.3999999762","correct":false,"confidence":3},{"trial_n":125,"span":11,"encoder":"04419257027","distractor":"05419257027","target":"present","response":"present","rt":"9851.5","correct":true,"confidence":2},{"trial_n":126,"span":11,"encoder":"66310012014","distractor":"69310012014","target":"present","response":"present","rt":"9971.7999999523","correct":true,"confidence":1},{"trial_n":127,"span":12,"encoder":"518089650934","distractor":"518089650936","target":"absent","response":"absent","rt":"1972.4000000358","correct":true,"confidence":5},{"trial_n":128,"span":12,"encoder":"262139376601","distractor":"262139377601","target":"absent","response":"absent","rt":"2899.5","correct":true,"confidence":5},{"trial_n":129,"span":13,"encoder":"7235291055516","distractor":"7235291455516","target":"present","response":"present","rt":"8135.1999999881","correct":true,"confidence":3},{"trial_n":130,"span":13,"encoder":"5629129862714","distractor":"5629129862814","target":"absent","response":"absent","rt":"1941.3000000119","correct":true,"confidence":4},{"trial_n":131,"span":14,"encoder":"71384312011309","distractor":"71384312911309","target":"absent","response":"absent","rt":"3534.8000000119","correct":true,"confidence":3},{"trial_n":132,"span":14,"encoder":"59452498743370","distractor":"59452698743370","target":"present","response":"present","rt":"7247.5","correct":true,"confidence":2},{"trial_n":133,"span":15,"encoder":"603161380256285","distractor":"603161380756285","target":"present","response":"present","rt":"4329.7999999523","correct":true,"confidence":2},{"trial_n":134,"span":15,"encoder":"761794921172632","distractor":"741794921172632","target":"present","response":"absent","rt":"11360.399999976","correct":false,"confidence":3},{"trial_n":135,"span":14,"encoder":"05174039927532","distractor":"05174039922532","target":"absent","response":"absent","rt":"9106.5","correct":true,"confidence":3},{"trial_n":136,"span":14,"encoder":"71428048303133","distractor":"61428048303133","target":"absent","response":"absent","rt":"4369.6000000238","correct":true,"confidence":2},{"trial_n":137,"span":15,"encoder":"194236805600845","distractor":"194236855600845","target":"present","response":"present","rt":"8113.3999999762","correct":true,"confidence":3},{"trial_n":138,"span":15,"encoder":"879831671376738","distractor":"879831671676738","target":"present","response":"present","rt":"11541.399999976","correct":true,"confidence":3},{"trial_n":139,"span":16,"encoder":"3343517029208651","distractor":"3343517029408651","target":"absent","response":"present","rt":"8750.3000000119","correct":false,"confidence":2},{"trial_n":140,"span":15,"encoder":"336642760448839","distractor":"436642760448839","target":"absent","response":"absent","rt":"2588.8000000119","correct":true,"confidence":4}]