[{"trial_n":1,"span":8,"encoder":"21353366","distractor":"21353066","target":"present","response":"absent","rt":"5867.6999999285","correct":false,"confidence":-1},{"trial_n":2,"span":6,"encoder":"451472","distractor":"651472","target":"present","response":"present","rt":"3483.2000000477","correct":true,"confidence":-1},{"trial_n":3,"span":6,"encoder":"431534","distractor":"411534","target":"absent","response":"absent","rt":"2565.6000000238","correct":true,"confidence":-1},{"trial_n":4,"span":8,"encoder":"89876891","distractor":"81876891","target":"absent","response":"present","rt":"3650.3999999762","correct":false,"confidence":-1},{"trial_n":5,"span":6,"encoder":"826643","distractor":"826743","target":"present","response":"present","rt":"2836.6000000238","correct":true,"confidence":-1},{"trial_n":6,"span":6,"encoder":"527442","distractor":"526442","target":"present","response":"present","rt":"3790.7999999523","correct":true,"confidence":-1},{"trial_n":7,"span":8,"encoder":"59236666","distractor":"51236666","target":"present","response":"present","rt":"4209.7000000477","correct":true,"confidence":-1},{"trial_n":8,"span":8,"encoder":"64628523","distractor":"64728523","target":"absent","response":"present","rt":"4089.6000000238","correct":false,"confidence":-1},{"trial_n":9,"span":6,"encoder":"320246","distractor":"320746","target":"present","response":"present","rt":"2336","correct":true,"confidence":-1},{"trial_n":10,"span":6,"encoder":"114045","distractor":"114645","target":"absent","response":"absent","rt":"3475","correct":true,"confidence":-1},{"trial_n":11,"span":8,"encoder":"22179642","distractor":"21179642","target":"present","response":"present","rt":"3039.2999999523","correct":true,"confidence":-1},{"trial_n":12,"span":8,"encoder":"07942613","distractor":"07942313","target":"absent","response":"present","rt":"3847.6000000238","correct":false,"confidence":-1},{"trial_n":13,"span":7,"encoder":"8824407","distractor":"8824497","target":"present","response":"present","rt":"2916.1999999285","correct":true,"confidence":-1},{"trial_n":14,"span":7,"encoder":"8684645","distractor":"8686645","target":"absent","response":"absent","rt":"3498.5","correct":true,"confidence":-1},{"trial_n":15,"span":8,"encoder":"20979238","distractor":"20979838","target":"absent","response":"present","rt":"3984.6000000238","correct":false,"confidence":-1},{"trial_n":16,"span":7,"encoder":"7235191","distractor":"7235091","target":"absent","response":"absent","rt":"3049.8000000715","correct":true,"confidence":-1},{"trial_n":17,"span":7,"encoder":"1113746","distractor":"1113766","target":"absent","response":"absent","rt":"4068.6000000238","correct":true,"confidence":-1},{"trial_n":18,"span":8,"encoder":"92097328","distractor":"92097348","target":"present","response":"present","rt":"2937.1000000238","correct":true,"confidence":-1},{"trial_n":19,"span":8,"encoder":"87017516","distractor":"87017510","target":"absent","response":"absent","rt":"3218.8999999762","correct":true,"confidence":-1},{"trial_n":20,"span":9,"encoder":"406216149","distractor":"406236149","target":"present","response":"absent","rt":"3593.1000000238","correct":false,"confidence":-1},{"trial_n":21,"span":8,"encoder":"63529102","distractor":"63529182","target":"present","response":"present","rt":"3665.1000000238","correct":true,"confidence":5},{"trial_n":22,"span":8,"encoder":"90729777","distractor":"90729773","target":"absent","response":"absent","rt":"5360.7000000477","correct":true,"confidence":5},{"trial_n":23,"span":9,"encoder":"184266097","distractor":"184266094","target":"present","response":"absent","rt":"3359.3999999762","correct":false,"confidence":4},{"trial_n":24,"span":8,"encoder":"50574091","distractor":"50579091","target":"absent","response":"absent","rt":"3445.5","correct":true,"confidence":4},{"trial_n":25,"span":8,"encoder":"18666893","distractor":"18666891","target":"present","response":"absent","rt":"5017.1000000238","correct":false,"confidence":3},{"trial_n":26,"span":7,"encoder":"2116933","distractor":"3116933","target":"present","response":"present","rt":"4803.7999999523","correct":true,"confidence":3},{"trial_n":27,"span":7,"encoder":"7008164","distractor":"7008124","target":"present","response":"present","rt":"3154.8000000715","correct":true,"confidence":3},{"trial_n":28,"span":8,"encoder":"58454556","distractor":"58424556","target":"absent","response":"present","rt":"4411.6999999285","correct":false,"confidence":3},{"trial_n":29,"span":7,"encoder":"8365722","distractor":"8365122","target":"absent","response":"absent","rt":"3024.7999999523","correct":true,"confidence":4},{"trial_n":30,"span":7,"encoder":"0491710","distractor":"0191710","target":"absent","response":"absent","rt":"3515.1000000238","correct":true,"confidence":3},{"trial_n":31,"span":8,"encoder":"46673961","distractor":"46673962","target":"absent","response":"absent","rt":"3386.3000000715","correct":true,"confidence":3},{"trial_n":32,"span":8,"encoder":"16158025","distractor":"16158125","target":"present","response":"absent","rt":"5383.5999999046","correct":false,"confidence":2},{"trial_n":33,"span":7,"encoder":"2419895","distractor":"2416895","target":"absent","response":"present","rt":"4356.8999999762","correct":false,"confidence":3},{"trial_n":34,"span":6,"encoder":"053573","distractor":"953573","target":"absent","response":"absent","rt":"5340.6000000238","correct":true,"confidence":5},{"trial_n":35,"span":6,"encoder":"021179","distractor":"021579","target":"absent","response":"absent","rt":"3925.6000000238","correct":true,"confidence":4},{"trial_n":36,"span":7,"encoder":"6629843","distractor":"6629823","target":"present","response":"present","rt":"3159.8000000715","correct":true,"confidence":3},{"trial_n":37,"span":7,"encoder":"9206921","distractor":"9606921","target":"present","response":"present","rt":"3084.5","correct":true,"confidence":5},{"trial_n":38,"span":8,"encoder":"82245825","distractor":"82205825","target":"absent","response":"absent","rt":"4212.5999999046","correct":true,"confidence":5},{"trial_n":39,"span":8,"encoder":"72113943","distractor":"32113943","target":"present","response":"present","rt":"3761.4000000954","correct":true,"confidence":2},{"trial_n":40,"span":9,"encoder":"101181202","distractor":"101081202","target":"absent","response":"absent","rt":"4045.3999999762","correct":true,"confidence":3},{"trial_n":41,"span":9,"encoder":"646834181","distractor":"646854181","target":"present","response":"absent","rt":"3575.5","correct":false,"confidence":1},{"trial_n":42,"span":8,"encoder":"33160764","distractor":"39160764","target":"present","response":"present","rt":"3506.6000000238","correct":true,"confidence":3},{"trial_n":43,"span":8,"encoder":"98797069","distractor":"98797065","target":"present","response":"present","rt":"4177.8999999762","correct":true,"confidence":3},{"trial_n":44,"span":9,"encoder":"384736971","distractor":"354736971","target":"present","response":"present","rt":"4378.7999999523","correct":true,"confidence":3},{"trial_n":45,"span":9,"encoder":"265761156","distractor":"295761156","target":"present","response":"present","rt":"4281.5999999046","correct":true,"confidence":4},{"trial_n":46,"span":10,"encoder":"4901090619","distractor":"4901590619","target":"absent","response":"present","rt":"4672.8999999762","correct":false,"confidence":2},{"trial_n":47,"span":9,"encoder":"925755733","distractor":"925755133","target":"absent","response":"present","rt":"4386.7999999523","correct":false,"confidence":2},{"trial_n":48,"span":8,"encoder":"49378609","distractor":"49378699","target":"present","response":"present","rt":"3716.8999999762","correct":true,"confidence":4},{"trial_n":49,"span":8,"encoder":"95692331","distractor":"95696331","target":"absent","response":"absent","rt":"6561.3999999762","correct":true,"confidence":2},{"trial_n":50,"span":9,"encoder":"455686730","distractor":"555686730","target":"present","response":"present","rt":"4313.7999999523","correct":true,"confidence":3},{"trial_n":51,"span":9,"encoder":"937418866","distractor":"937418865","target":"present","response":"absent","rt":"5069.7000000477","correct":false,"confidence":2},{"trial_n":52,"span":8,"encoder":"18767978","distractor":"18767938","target":"present","response":"present","rt":"3620.2999999523","correct":true,"confidence":4},{"trial_n":53,"span":8,"encoder":"00187962","distractor":"00187965","target":"absent","response":"absent","rt":"4135.8000000715","correct":true,"confidence":5},{"trial_n":54,"span":9,"encoder":"368294650","distractor":"368290650","target":"present","response":"absent","rt":"6842.1000000238","correct":false,"confidence":3},{"trial_n":55,"span":8,"encoder":"15747568","distractor":"15745568","target":"absent","response":"absent","rt":"5550.3999999762","correct":true,"confidence":3},{"trial_n":56,"span":8,"encoder":"99288617","distractor":"99280617","target":"present","response":"present","rt":"4049.1999999285","correct":true,"confidence":3},{"trial_n":57,"span":9,"encoder":"628685863","distractor":"628685867","target":"absent","response":"absent","rt":"4043.2999999523","correct":true,"confidence":5},{"trial_n":58,"span":9,"encoder":"814353896","distractor":"814352896","target":"absent","response":"absent","rt":"5139.2000000477","correct":true,"confidence":2},{"trial_n":59,"span":10,"encoder":"2457833210","distractor":"8457833210","target":"present","response":"absent","rt":"4211.2000000477","correct":false,"confidence":2},{"trial_n":60,"span":9,"encoder":"375282051","distractor":"375222051","target":"absent","response":"absent","rt":"4009.5","correct":true,"confidence":4},{"trial_n":61,"span":9,"encoder":"589047570","distractor":"589047470","target":"present","response":"absent","rt":"6349.7000000477","correct":false,"confidence":2},{"trial_n":62,"span":8,"encoder":"18143752","distractor":"18123752","target":"absent","response":"absent","rt":"3545","correct":true,"confidence":3},{"trial_n":63,"span":8,"encoder":"21419165","distractor":"81419165","target":"absent","response":"present","rt":"4024.5","correct":false,"confidence":4},{"trial_n":64,"span":7,"encoder":"3902977","distractor":"3902947","target":"absent","response":"absent","rt":"3220.5999999046","correct":true,"confidence":5},{"trial_n":65,"span":7,"encoder":"6576071","distractor":"6526071","target":"present","response":"absent","rt":"6051.7999999523","correct":false,"confidence":2},{"trial_n":66,"span":6,"encoder":"260628","distractor":"260618","target":"present","response":"present","rt":"3112.0999999046","correct":true,"confidence":5},{"trial_n":67,"span":6,"encoder":"910099","distractor":"910699","target":"present","response":"present","rt":"5086","correct":true,"confidence":5},{"trial_n":68,"span":7,"encoder":"1967561","distractor":"1967861","target":"absent","response":"absent","rt":"3078.6000000238","correct":true,"confidence":4},{"trial_n":69,"span":7,"encoder":"8281149","distractor":"8251149","target":"absent","response":"absent","rt":"4488.7000000477","correct":true,"confidence":3},{"trial_n":70,"span":8,"encoder":"38936127","distractor":"38036127","target":"present","response":"present","rt":"3729.6999999285","correct":true,"confidence":3},{"trial_n":71,"span":8,"encoder":"07988795","distractor":"07088795","target":"present","response":"absent","rt":"12325.600000024","correct":false,"confidence":-1},{"trial_n":72,"span":7,"encoder":"7336287","distractor":"6336287","target":"present","response":"present","rt":"2209.7999999523","correct":true,"confidence":-1},{"trial_n":73,"span":7,"encoder":"3302415","distractor":"3302413","target":"absent","response":"absent","rt":"5776","correct":true,"confidence":-1},{"trial_n":74,"span":8,"encoder":"46969730","distractor":"46979730","target":"absent","response":"present","rt":"7692.6000000238","correct":false,"confidence":-1},{"trial_n":75,"span":7,"encoder":"9756089","distractor":"9716089","target":"present","response":"present","rt":"7744.8999999762","correct":true,"confidence":-1},{"trial_n":76,"span":7,"encoder":"4381745","distractor":"4386745","target":"present","response":"present","rt":"10488.900000095","correct":true,"confidence":-1},{"trial_n":77,"span":8,"encoder":"56297845","distractor":"56296845","target":"present","response":"present","rt":"9390.2000000477","correct":true,"confidence":-1},{"trial_n":78,"span":8,"encoder":"01122929","distractor":"01122928","target":"absent","response":"absent","rt":"8451.8000000715","correct":true,"confidence":-1},{"trial_n":79,"span":9,"encoder":"150000274","distractor":"650000274","target":"absent","response":"absent","rt":"4886.8000000715","correct":true,"confidence":-1},{"trial_n":80,"span":9,"encoder":"943772580","distractor":"923772580","target":"absent","response":"present","rt":"2768.6000000238","correct":false,"confidence":-1},{"trial_n":81,"span":8,"encoder":"94045250","distractor":"94745250","target":"absent","response":"absent","rt":"4579.7999999523","correct":true,"confidence":-1},{"trial_n":82,"span":8,"encoder":"02011325","distractor":"52011325","target":"present","response":"present","rt":"2260","correct":true,"confidence":-1},{"trial_n":83,"span":9,"encoder":"665463486","distractor":"065463486","target":"absent","response":"present","rt":"1906.6999999285","correct":false,"confidence":-1},{"trial_n":84,"span":8,"encoder":"10034831","distractor":"13034831","target":"absent","response":"absent","rt":"8051.3000000715","correct":true,"confidence":-1},{"trial_n":85,"span":8,"encoder":"33258919","distractor":"37258919","target":"present","response":"present","rt":"5386.9000000954","correct":true,"confidence":-1},{"trial_n":86,"span":9,"encoder":"831936525","distractor":"831936522","target":"present","response":"present","rt":"2350.6000000238","correct":true,"confidence":-1},{"trial_n":87,"span":9,"encoder":"919714887","distractor":"919712887","target":"absent","response":"absent","rt":"8262.1000000238","correct":true,"confidence":-1},{"trial_n":88,"span":10,"encoder":"3300543902","distractor":"3300543002","target":"absent","response":"absent","rt":"6092.5","correct":true,"confidence":-1},{"trial_n":89,"span":10,"encoder":"4333406312","distractor":"4333206312","target":"present","response":"absent","rt":"7365","correct":false,"confidence":-1},{"trial_n":90,"span":9,"encoder":"967485813","distractor":"267485813","target":"present","response":"present","rt":"7399.7999999523","correct":true,"confidence":-1},{"trial_n":91,"span":9,"encoder":"788694707","distractor":"788294707","target":"present","response":"present","rt":"7260.5","correct":true,"confidence":2},{"trial_n":92,"span":10,"encoder":"8131136943","distractor":"8131136843","target":"absent","response":"absent","rt":"9134.1999999285","correct":true,"confidence":4},{"trial_n":93,"span":10,"encoder":"1642087066","distractor":"1642087026","target":"absent","response":"absent","rt":"12535","correct":true,"confidence":1},{"trial_n":94,"span":11,"encoder":"62939770962","distractor":"62939870962","target":"absent","response":"absent","rt":"13787.100000024","correct":true,"confidence":1},{"trial_n":95,"span":11,"encoder":"83845281794","distractor":"83845281294","target":"present","response":"present","rt":"15615.800000072","correct":true,"confidence":3},{"trial_n":96,"span":12,"encoder":"844719696490","distractor":"844719696290","target":"absent","response":"present","rt":"14843.400000095","correct":false,"confidence":1},{"trial_n":97,"span":11,"encoder":"65031695884","distractor":"65031695834","target":"absent","response":"absent","rt":"6640.5","correct":true,"confidence":3},{"trial_n":98,"span":11,"encoder":"92310480086","distractor":"92310430086","target":"absent","response":"present","rt":"10334.899999976","correct":false,"confidence":2},{"trial_n":99,"span":10,"encoder":"4809215244","distractor":"8809215244","target":"absent","response":"present","rt":"6204.8999999762","correct":false,"confidence":1},{"trial_n":100,"span":9,"encoder":"968344899","distractor":"968344299","target":"absent","response":"absent","rt":"5446.7999999523","correct":true,"confidence":3},{"trial_n":101,"span":9,"encoder":"046525939","distractor":"846525939","target":"present","response":"present","rt":"5312.2000000477","correct":true,"confidence":4},{"trial_n":102,"span":10,"encoder":"0779979191","distractor":"9779979191","target":"present","response":"present","rt":"4479.2999999523","correct":true,"confidence":4},{"trial_n":103,"span":10,"encoder":"3659459798","distractor":"3657459798","target":"present","response":"present","rt":"6680.5","correct":true,"confidence":1},{"trial_n":104,"span":11,"encoder":"78807762736","distractor":"78407762736","target":"absent","response":"absent","rt":"2710.5","correct":true,"confidence":3},{"trial_n":105,"span":11,"encoder":"88861199513","distractor":"88861199813","target":"absent","response":"absent","rt":"5800.7000000477","correct":true,"confidence":4},{"trial_n":106,"span":12,"encoder":"887459022599","distractor":"837459022599","target":"absent","response":"absent","rt":"6688.3000000715","correct":true,"confidence":2},{"trial_n":107,"span":12,"encoder":"647421154933","distractor":"647421154937","target":"absent","response":"absent","rt":"6183.5","correct":true,"confidence":2},{"trial_n":108,"span":13,"encoder":"6077081696724","distractor":"6077081696424","target":"present","response":"present","rt":"2972.1000000238","correct":true,"confidence":5},{"trial_n":109,"span":13,"encoder":"4890723111079","distractor":"4190723111079","target":"present","response":"absent","rt":"4768","correct":false,"confidence":1},{"trial_n":110,"span":12,"encoder":"988549472444","distractor":"988549572444","target":"present","response":"present","rt":"6768.2999999523","correct":true,"confidence":1},{"trial_n":111,"span":12,"encoder":"970089745109","distractor":"960089745109","target":"present","response":"present","rt":"10928.699999928","correct":true,"confidence":3},{"trial_n":112,"span":13,"encoder":"3792188698664","distractor":"3792088698664","target":"present","response":"present","rt":"11304.099999905","correct":true,"confidence":1},{"trial_n":113,"span":13,"encoder":"3834608225125","distractor":"3834608425125","target":"present","response":"present","rt":"5767.5","correct":true,"confidence":1},{"trial_n":114,"span":14,"encoder":"66089443497847","distractor":"66089403497847","target":"present","response":"present","rt":"8574.3999999762","correct":true,"confidence":1},{"trial_n":115,"span":14,"encoder":"33427947716690","distractor":"33426947716690","target":"absent","response":"absent","rt":"9759.6999999285","correct":true,"confidence":1},{"trial_n":116,"span":15,"encoder":"151330789376862","distractor":"151330789376868","target":"absent","response":"absent","rt":"9367.5","correct":true,"confidence":2},{"trial_n":117,"span":15,"encoder":"392505332999746","distractor":"392505382999746","target":"absent","response":"absent","rt":"10394.600000024","correct":true,"confidence":3},{"trial_n":118,"span":16,"encoder":"4267327159201203","distractor":"4267327159101203","target":"absent","response":"absent","rt":"8415.8999999762","correct":true,"confidence":3},{"trial_n":119,"span":16,"encoder":"1363765201573684","distractor":"1363765201473684","target":"present","response":"present","rt":"9988","correct":true,"confidence":4},{"trial_n":120,"span":17,"encoder":"01134933418937921","distractor":"01134933418937421","target":"absent","response":"absent","rt":"11881.300000072","correct":true,"confidence":5},{"trial_n":121,"span":17,"encoder":"91049698482606859","distractor":"91049698482608859","target":"present","response":"present","rt":"10431.100000024","correct":true,"confidence":5},{"trial_n":122,"span":18,"encoder":"860745800712691457","distractor":"860745800712591457","target":"absent","response":"absent","rt":"9200.5","correct":true,"confidence":3},{"trial_n":123,"span":18,"encoder":"676247551248302929","distractor":"676247551248902929","target":"absent","response":"absent","rt":"8962.8999999762","correct":true,"confidence":2},{"trial_n":124,"span":19,"encoder":"9261739161119479618","distractor":"9261739161119409618","target":"absent","response":"absent","rt":"25662.099999905","correct":true,"confidence":1},{"trial_n":125,"span":19,"encoder":"7028955802747754020","distractor":"7028955882747754020","target":"absent","response":"present","rt":"29091.600000024","correct":false,"confidence":1},{"trial_n":126,"span":18,"encoder":"594518789790602907","distractor":"594518789790601907","target":"present","response":"present","rt":"7687.8999999762","correct":true,"confidence":5},{"trial_n":127,"span":18,"encoder":"764595370119272035","distractor":"764595370189272035","target":"absent","response":"present","rt":"11654.600000024","correct":false,"confidence":2},{"trial_n":128,"span":17,"encoder":"34882647488455426","distractor":"34482647488455426","target":"present","response":"absent","rt":"24298.5","correct":false,"confidence":1},{"trial_n":129,"span":16,"encoder":"4694480143949076","distractor":"4694480143949073","target":"present","response":"present","rt":"5736.3999999762","correct":true,"confidence":5},{"trial_n":130,"span":16,"encoder":"5337607270886839","distractor":"5337607270086839","target":"absent","response":"absent","rt":"5891.3000000715","correct":true,"confidence":4},{"trial_n":131,"span":17,"encoder":"86102159909790788","distractor":"86102159900790788","target":"absent","response":"absent","rt":"10227.700000048","correct":true,"confidence":2},{"trial_n":132,"span":17,"encoder":"16712803734215030","distractor":"16712103734215030","target":"present","response":"present","rt":"14823.899999976","correct":true,"confidence":1},{"trial_n":133,"span":18,"encoder":"131268324100460335","distractor":"131268324101460335","target":"present","response":"present","rt":"9441.1000000238","correct":true,"confidence":1},{"trial_n":134,"span":18,"encoder":"395914471324750501","distractor":"395914477324750501","target":"present","response":"present","rt":"9954.5","correct":true,"confidence":2},{"trial_n":135,"span":19,"encoder":"0281817696895369487","distractor":"0281817696805369487","target":"present","response":"present","rt":"5246.4000000954","correct":true,"confidence":1},{"trial_n":136,"span":19,"encoder":"0716031921366193309","distractor":"0786031921366193309","target":"present","response":"present","rt":"8676.6000000238","correct":true,"confidence":1},{"trial_n":137,"span":20,"encoder":"78306208150919305111","distractor":"78306207150919305111","target":"present","response":"absent","rt":"10447.400000095","correct":false,"confidence":2},{"trial_n":138,"span":19,"encoder":"6629051632726089316","distractor":"6629057632726089316","target":"present","response":"present","rt":"12201.200000048","correct":true,"confidence":2},{"trial_n":139,"span":19,"encoder":"0862517111090163507","distractor":"0862517111090133507","target":"present","response":"present","rt":"7157.1000000238","correct":true,"confidence":3},{"trial_n":140,"span":20,"encoder":"63444272407611398406","distractor":"63444272607611398406","target":"present","response":"absent","rt":"10355.199999928","correct":false,"confidence":2}]