[{"trial_n":1,"min":25,"max":230,"target":"present","response":"present","rt":9381,"correct":true,"confidence":-1},{"trial_n":2,"min":25,"max":230,"target":"present","response":"present","rt":2269,"correct":true,"confidence":-1},{"trial_n":3,"min":41,"max":214,"target":"absent","response":"present","rt":3276,"correct":false,"confidence":-1},{"trial_n":4,"min":25,"max":230,"target":"absent","response":"present","rt":1163,"correct":false,"confidence":-1},{"trial_n":5,"min":9,"max":246,"target":"present","response":"absent","rt":1202,"correct":false,"confidence":-1},{"trial_n":6,"min":0,"max":255,"target":"absent","response":"present","rt":1010,"correct":false,"confidence":-1},{"trial_n":7,"min":0,"max":255,"target":"absent","response":"present","rt":2477,"correct":false,"confidence":-1},{"trial_n":8,"min":0,"max":255,"target":"present","response":"absent","rt":1286,"correct":false,"confidence":-1},{"trial_n":9,"min":0,"max":255,"target":"present","response":"present","rt":2441,"correct":true,"confidence":-1},{"trial_n":10,"min":0,"max":255,"target":"absent","response":"absent","rt":946,"correct":true,"confidence":-1},{"trial_n":11,"min":8,"max":247,"target":"absent","response":"absent","rt":629.00000000001,"correct":true,"confidence":-1},{"trial_n":12,"min":8,"max":247,"target":"absent","response":"absent","rt":544,"correct":true,"confidence":-1},{"trial_n":13,"min":16,"max":239,"target":"present","response":"present","rt":656,"correct":true,"confidence":-1},{"trial_n":14,"min":16,"max":239,"target":"absent","response":"absent","rt":980,"correct":true,"confidence":-1},{"trial_n":15,"min":24,"max":231,"target":"absent","response":"absent","rt":864,"correct":true,"confidence":-1},{"trial_n":16,"min":24,"max":231,"target":"present","response":"present","rt":687.00000000001,"correct":true,"confidence":-1},{"trial_n":17,"min":32,"max":223,"target":"absent","response":"absent","rt":862.00000000001,"correct":true,"confidence":-1},{"trial_n":18,"min":32,"max":223,"target":"absent","response":"absent","rt":494,"correct":true,"confidence":-1},{"trial_n":19,"min":40,"max":215,"target":"absent","response":"absent","rt":461,"correct":true,"confidence":-1},{"trial_n":20,"min":40,"max":215,"target":"present","response":"present","rt":1040,"correct":true,"confidence":-1},{"trial_n":21,"min":44,"max":211,"target":"present","response":"present","rt":608,"correct":true,"confidence":3},{"trial_n":22,"min":44,"max":211,"target":"present","response":"present","rt":924.00000000001,"correct":true,"confidence":3},{"trial_n":23,"min":48,"max":207,"target":"present","response":"present","rt":706,"correct":true,"confidence":3},{"trial_n":24,"min":48,"max":207,"target":"absent","response":"absent","rt":865,"correct":true,"confidence":3},{"trial_n":25,"min":52,"max":203,"target":"absent","response":"absent","rt":764,"correct":true,"confidence":3},{"trial_n":26,"min":52,"max":203,"target":"absent","response":"absent","rt":1213,"correct":true,"confidence":3},{"trial_n":27,"min":56,"max":199,"target":"present","response":"present","rt":739.99999999999,"correct":true,"confidence":3},{"trial_n":28,"min":56,"max":199,"target":"present","response":"present","rt":757,"correct":true,"confidence":3},{"trial_n":29,"min":60,"max":195,"target":"present","response":"absent","rt":707.99999999999,"correct":false,"confidence":3},{"trial_n":30,"min":56,"max":199,"target":"absent","response":"absent","rt":916,"correct":true,"confidence":3},{"trial_n":31,"min":56,"max":199,"target":"present","response":"present","rt":693,"correct":true,"confidence":3},{"trial_n":32,"min":58,"max":197,"target":"absent","response":"absent","rt":799,"correct":true,"confidence":3},{"trial_n":33,"min":58,"max":197,"target":"present","response":"present","rt":594,"correct":true,"confidence":3},{"trial_n":34,"min":60,"max":195,"target":"absent","response":"absent","rt":749.00000000001,"correct":true,"confidence":3},{"trial_n":35,"min":60,"max":195,"target":"present","response":"present","rt":576,"correct":true,"confidence":3},{"trial_n":36,"min":62,"max":193,"target":"absent","response":"absent","rt":683,"correct":true,"confidence":3},{"trial_n":37,"min":62,"max":193,"target":"absent","response":"absent","rt":699.00000000003,"correct":true,"confidence":3},{"trial_n":38,"min":64,"max":191,"target":"present","response":"present","rt":709,"correct":true,"confidence":3},{"trial_n":39,"min":64,"max":191,"target":"present","response":"present","rt":728,"correct":true,"confidence":3},{"trial_n":40,"min":66,"max":189,"target":"present","response":"present","rt":610,"correct":true,"confidence":3},{"trial_n":41,"min":66,"max":189,"target":"present","response":"present","rt":762,"correct":true,"confidence":3},{"trial_n":42,"min":67,"max":188,"target":"present","response":"present","rt":596,"correct":true,"confidence":3},{"trial_n":43,"min":67,"max":188,"target":"present","response":"present","rt":912.99999999997,"correct":true,"confidence":3},{"trial_n":44,"min":68,"max":187,"target":"present","response":"present","rt":877,"correct":true,"confidence":3},{"trial_n":45,"min":68,"max":187,"target":"absent","response":"absent","rt":766,"correct":true,"confidence":3},{"trial_n":46,"min":69,"max":186,"target":"present","response":"absent","rt":1409,"correct":false,"confidence":2},{"trial_n":47,"min":68,"max":187,"target":"present","response":"absent","rt":2394,"correct":false,"confidence":2},{"trial_n":48,"min":67,"max":188,"target":"absent","response":"absent","rt":852,"correct":true,"confidence":3},{"trial_n":49,"min":67,"max":188,"target":"present","response":"present","rt":713,"correct":true,"confidence":3},{"trial_n":50,"min":68,"max":187,"target":"absent","response":"absent","rt":1402,"correct":true,"confidence":3},{"trial_n":51,"min":68,"max":187,"target":"absent","response":"absent","rt":819,"correct":true,"confidence":3},{"trial_n":52,"min":69,"max":186,"target":"absent","response":"absent","rt":733,"correct":true,"confidence":3},{"trial_n":53,"min":69,"max":186,"target":"present","response":"absent","rt":897,"correct":false,"confidence":3},{"trial_n":54,"min":68,"max":187,"target":"present","response":"absent","rt":1194,"correct":false,"confidence":3},{"trial_n":55,"min":67,"max":188,"target":"present","response":"present","rt":1562,"correct":true,"confidence":2},{"trial_n":56,"min":67,"max":188,"target":"present","response":"present","rt":949,"correct":true,"confidence":3},{"trial_n":57,"min":68,"max":187,"target":"absent","response":"absent","rt":1021,"correct":true,"confidence":3},{"trial_n":58,"min":68,"max":187,"target":"absent","response":"absent","rt":653.99999999997,"correct":true,"confidence":3},{"trial_n":59,"min":69,"max":186,"target":"absent","response":"absent","rt":936,"correct":true,"confidence":3},{"trial_n":60,"min":69,"max":186,"target":"present","response":"present","rt":948,"correct":true,"confidence":3},{"trial_n":61,"min":70,"max":185,"target":"absent","response":"absent","rt":888,"correct":true,"confidence":3},{"trial_n":62,"min":70,"max":185,"target":"absent","response":"absent","rt":922,"correct":true,"confidence":3},{"trial_n":63,"min":71,"max":184,"target":"present","response":"present","rt":946,"correct":true,"confidence":3},{"trial_n":64,"min":71,"max":184,"target":"absent","response":"absent","rt":885.99999999997,"correct":true,"confidence":3},{"trial_n":65,"min":72,"max":183,"target":"present","response":"present","rt":1247,"correct":true,"confidence":3},{"trial_n":66,"min":72,"max":183,"target":"absent","response":"absent","rt":920.99999999997,"correct":true,"confidence":3},{"trial_n":67,"min":73,"max":182,"target":"absent","response":"absent","rt":1120,"correct":true,"confidence":3},{"trial_n":68,"min":73,"max":182,"target":"present","response":"present","rt":983,"correct":true,"confidence":3},{"trial_n":69,"min":74,"max":181,"target":"present","response":"absent","rt":766,"correct":false,"confidence":2},{"trial_n":70,"min":73,"max":182,"target":"absent","response":"absent","rt":953,"correct":true,"confidence":3},{"trial_n":71,"min":41,"max":214,"target":"present","response":"present","rt":3247,"correct":true,"confidence":-1},{"trial_n":72,"min":41,"max":214,"target":"present","response":"present","rt":698,"correct":true,"confidence":-1},{"trial_n":73,"min":57,"max":198,"target":"absent","response":"absent","rt":861,"correct":true,"confidence":-1},{"trial_n":74,"min":57,"max":198,"target":"absent","response":"absent","rt":1277.9999999999,"correct":true,"confidence":-1},{"trial_n":75,"min":73,"max":182,"target":"present","response":"present","rt":980,"correct":true,"confidence":-1},{"trial_n":76,"min":73,"max":182,"target":"present","response":"present","rt":1348,"correct":true,"confidence":-1},{"trial_n":77,"min":89,"max":166,"target":"absent","response":"absent","rt":1745,"correct":true,"confidence":-1},{"trial_n":78,"min":89,"max":166,"target":"present","response":"present","rt":1866,"correct":true,"confidence":-1},{"trial_n":79,"min":105,"max":150,"target":"absent","response":"present","rt":1011,"correct":false,"confidence":-1},{"trial_n":80,"min":89,"max":166,"target":"present","response":"absent","rt":794,"correct":false,"confidence":-1},{"trial_n":81,"min":81,"max":174,"target":"absent","response":"present","rt":631,"correct":false,"confidence":-1},{"trial_n":82,"min":73,"max":182,"target":"present","response":"present","rt":680,"correct":true,"confidence":-1},{"trial_n":83,"min":73,"max":182,"target":"absent","response":"absent","rt":1348.0000000001,"correct":true,"confidence":-1},{"trial_n":84,"min":81,"max":174,"target":"absent","response":"absent","rt":663,"correct":true,"confidence":-1},{"trial_n":85,"min":81,"max":174,"target":"present","response":"present","rt":895,"correct":true,"confidence":-1},{"trial_n":86,"min":89,"max":166,"target":"absent","response":"present","rt":1262,"correct":false,"confidence":-1},{"trial_n":87,"min":81,"max":174,"target":"absent","response":"present","rt":1047,"correct":false,"confidence":-1},{"trial_n":88,"min":73,"max":182,"target":"present","response":"present","rt":764.99999999994,"correct":true,"confidence":-1},{"trial_n":89,"min":73,"max":182,"target":"absent","response":"absent","rt":1028,"correct":true,"confidence":-1},{"trial_n":90,"min":81,"max":174,"target":"absent","response":"absent","rt":581,"correct":true,"confidence":-1},{"trial_n":91,"min":81,"max":174,"target":"present","response":"absent","rt":1049,"correct":false,"confidence":2},{"trial_n":92,"min":77,"max":178,"target":"present","response":"present","rt":548,"correct":true,"confidence":3},{"trial_n":93,"min":77,"max":178,"target":"present","response":"present","rt":1231,"correct":true,"confidence":2},{"trial_n":94,"min":81,"max":174,"target":"absent","response":"absent","rt":2150,"correct":true,"confidence":3},{"trial_n":95,"min":81,"max":174,"target":"absent","response":"absent","rt":1099,"correct":true,"confidence":2},{"trial_n":96,"min":85,"max":170,"target":"absent","response":"absent","rt":1581,"correct":true,"confidence":2},{"trial_n":97,"min":85,"max":170,"target":"absent","response":"absent","rt":2648,"correct":true,"confidence":2},{"trial_n":98,"min":89,"max":166,"target":"present","response":"absent","rt":950,"correct":false,"confidence":2},{"trial_n":99,"min":85,"max":170,"target":"present","response":"present","rt":651.00000000006,"correct":true,"confidence":2},{"trial_n":100,"min":85,"max":170,"target":"present","response":"present","rt":1401,"correct":true,"confidence":2},{"trial_n":101,"min":87,"max":168,"target":"absent","response":"absent","rt":1300,"correct":true,"confidence":2},{"trial_n":102,"min":87,"max":168,"target":"absent","response":"absent","rt":1451,"correct":true,"confidence":2},{"trial_n":103,"min":89,"max":166,"target":"absent","response":"absent","rt":834,"correct":true,"confidence":2},{"trial_n":104,"min":89,"max":166,"target":"present","response":"present","rt":983,"correct":true,"confidence":3},{"trial_n":105,"min":91,"max":164,"target":"present","response":"absent","rt":2366,"correct":false,"confidence":2},{"trial_n":106,"min":89,"max":166,"target":"present","response":"present","rt":1719.0000000001,"correct":true,"confidence":2},{"trial_n":107,"min":89,"max":166,"target":"absent","response":"present","rt":2119,"correct":false,"confidence":2},{"trial_n":108,"min":87,"max":168,"target":"present","response":"present","rt":1399,"correct":true,"confidence":2},{"trial_n":109,"min":87,"max":168,"target":"present","response":"present","rt":1801.0000000001,"correct":true,"confidence":2},{"trial_n":110,"min":89,"max":166,"target":"absent","response":"absent","rt":2100,"correct":true,"confidence":2},{"trial_n":111,"min":89,"max":166,"target":"present","response":"absent","rt":3735.9999999999,"correct":false,"confidence":2},{"trial_n":112,"min":88,"max":167,"target":"present","response":"present","rt":1050,"correct":true,"confidence":2},{"trial_n":113,"min":88,"max":167,"target":"present","response":"absent","rt":1403,"correct":false,"confidence":2},{"trial_n":114,"min":87,"max":168,"target":"absent","response":"present","rt":1134.9999999999,"correct":false,"confidence":2},{"trial_n":115,"min":86,"max":169,"target":"absent","response":"absent","rt":3369,"correct":true,"confidence":2},{"trial_n":116,"min":86,"max":169,"target":"present","response":"present","rt":787,"correct":true,"confidence":3},{"trial_n":117,"min":87,"max":168,"target":"present","response":"present","rt":1086,"correct":true,"confidence":3},{"trial_n":118,"min":87,"max":168,"target":"absent","response":"absent","rt":1354,"correct":true,"confidence":2},{"trial_n":119,"min":88,"max":167,"target":"absent","response":"present","rt":904,"correct":false,"confidence":2},{"trial_n":120,"min":87,"max":168,"target":"absent","response":"present","rt":937.00000000006,"correct":false,"confidence":1},{"trial_n":121,"min":86,"max":169,"target":"absent","response":"present","rt":2504,"correct":false,"confidence":1},{"trial_n":122,"min":85,"max":170,"target":"present","response":"present","rt":1538,"correct":true,"confidence":3},{"trial_n":123,"min":85,"max":170,"target":"absent","response":"absent","rt":1120,"correct":true,"confidence":3},{"trial_n":124,"min":86,"max":169,"target":"present","response":"present","rt":1004,"correct":true,"confidence":3},{"trial_n":125,"min":86,"max":169,"target":"present","response":"present","rt":1021.0000000001,"correct":true,"confidence":3},{"trial_n":126,"min":87,"max":168,"target":"absent","response":"present","rt":1588,"correct":false,"confidence":1},{"trial_n":127,"min":86,"max":169,"target":"present","response":"absent","rt":1455,"correct":false,"confidence":2},{"trial_n":128,"min":85,"max":170,"target":"absent","response":"present","rt":937.99999999994,"correct":false,"confidence":1},{"trial_n":129,"min":84,"max":171,"target":"present","response":"present","rt":839,"correct":true,"confidence":2},{"trial_n":130,"min":84,"max":171,"target":"absent","response":"present","rt":1472.9999999999,"correct":false,"confidence":2},{"trial_n":131,"min":83,"max":172,"target":"present","response":"present","rt":1006.0000000001,"correct":true,"confidence":2},{"trial_n":132,"min":83,"max":172,"target":"absent","response":"absent","rt":904,"correct":true,"confidence":2},{"trial_n":133,"min":84,"max":171,"target":"present","response":"present","rt":741,"correct":true,"confidence":3},{"trial_n":134,"min":84,"max":171,"target":"absent","response":"present","rt":907,"correct":false,"confidence":2},{"trial_n":135,"min":83,"max":172,"target":"absent","response":"absent","rt":989,"correct":true,"confidence":2},{"trial_n":136,"min":83,"max":172,"target":"present","response":"present","rt":889,"correct":true,"confidence":3},{"trial_n":137,"min":84,"max":171,"target":"present","response":"present","rt":807,"correct":true,"confidence":2},{"trial_n":138,"min":84,"max":171,"target":"absent","response":"absent","rt":874,"correct":true,"confidence":3},{"trial_n":139,"min":85,"max":170,"target":"present","response":"present","rt":960,"correct":true,"confidence":3},{"trial_n":140,"min":85,"max":170,"target":"present","response":"present","rt":839,"correct":true,"confidence":3}]