[{"trial_n":1,"n_dots":4.25,"target":"right","response":"left","rt":12529.799999952,"correct":false,"confidence":-1},{"trial_n":2,"n_dots":4.25,"target":"right","response":"left","rt":1933.6000000238,"correct":false,"confidence":-1},{"trial_n":3,"n_dots":4.65,"target":"left","response":"left","rt":187.79999995232,"correct":true,"confidence":-1},{"trial_n":4,"n_dots":4.65,"target":"right","response":"right","rt":1266.5,"correct":true,"confidence":-1},{"trial_n":5,"n_dots":4.25,"target":"right","response":"right","rt":945.70000004768,"correct":true,"confidence":-1},{"trial_n":6,"n_dots":4.25,"target":"right","response":"right","rt":981.90000009537,"correct":true,"confidence":-1},{"trial_n":7,"n_dots":3.85,"target":"right","response":"left","rt":760.19999992847,"correct":false,"confidence":-1},{"trial_n":8,"n_dots":4.05,"target":"right","response":"right","rt":1140.4000000954,"correct":true,"confidence":-1},{"trial_n":9,"n_dots":4.05,"target":"left","response":"left","rt":551.20000004768,"correct":true,"confidence":-1},{"trial_n":10,"n_dots":3.85,"target":"left","response":"left","rt":261.79999995232,"correct":true,"confidence":-1},{"trial_n":11,"n_dots":3.85,"target":"left","response":"left","rt":397.5,"correct":true,"confidence":-1},{"trial_n":12,"n_dots":3.65,"target":"left","response":"left","rt":493.80000007153,"correct":true,"confidence":-1},{"trial_n":13,"n_dots":3.65,"target":"left","response":"left","rt":185.19999992847,"correct":true,"confidence":-1},{"trial_n":14,"n_dots":3.55,"target":"left","response":"left","rt":416.69999992847,"correct":true,"confidence":-1},{"trial_n":15,"n_dots":3.55,"target":"right","response":"right","rt":554.59999990463,"correct":true,"confidence":-1},{"trial_n":16,"n_dots":3.45,"target":"right","response":"right","rt":1042.0999999046,"correct":true,"confidence":-1},{"trial_n":17,"n_dots":3.45,"target":"left","response":"left","rt":924.09999990463,"correct":true,"confidence":-1},{"trial_n":18,"n_dots":3.35,"target":"left","response":"left","rt":804.39999997616,"correct":true,"confidence":-1},{"trial_n":19,"n_dots":3.35,"target":"left","response":"left","rt":489.70000004768,"correct":true,"confidence":-1},{"trial_n":20,"n_dots":3.25,"target":"left","response":"right","rt":965.20000004768,"correct":false,"confidence":-1},{"trial_n":21,"n_dots":3.35,"target":"right","response":"right","rt":750.89999997616,"correct":true,"confidence":2},{"trial_n":22,"n_dots":3.35,"target":"left","response":"left","rt":798,"correct":true,"confidence":3},{"trial_n":23,"n_dots":3.25,"target":"right","response":"right","rt":1009.6999999285,"correct":true,"confidence":2},{"trial_n":24,"n_dots":3.25,"target":"left","response":"left","rt":670.29999995232,"correct":true,"confidence":3},{"trial_n":25,"n_dots":3.15,"target":"left","response":"left","rt":498.59999990463,"correct":true,"confidence":3},{"trial_n":26,"n_dots":3.15,"target":"left","response":"right","rt":872.10000002384,"correct":false,"confidence":1},{"trial_n":27,"n_dots":3.25,"target":"right","response":"right","rt":1067.5,"correct":true,"confidence":1},{"trial_n":28,"n_dots":3.25,"target":"left","response":"left","rt":583.70000004768,"correct":true,"confidence":4},{"trial_n":29,"n_dots":3.15,"target":"right","response":"right","rt":555.29999995232,"correct":true,"confidence":1},{"trial_n":30,"n_dots":3.15,"target":"left","response":"left","rt":568.09999990463,"correct":true,"confidence":3},{"trial_n":31,"n_dots":3.05,"target":"left","response":"left","rt":381.69999992847,"correct":true,"confidence":3},{"trial_n":32,"n_dots":3.05,"target":"left","response":"right","rt":1278.8000000715,"correct":false,"confidence":1},{"trial_n":33,"n_dots":3.15,"target":"left","response":"left","rt":549.5,"correct":true,"confidence":4},{"trial_n":34,"n_dots":3.15,"target":"left","response":"left","rt":361.10000002384,"correct":true,"confidence":4},{"trial_n":35,"n_dots":3.05,"target":"right","response":"right","rt":719.79999995232,"correct":true,"confidence":1},{"trial_n":36,"n_dots":3.05,"target":"left","response":"left","rt":434.10000002384,"correct":true,"confidence":5},{"trial_n":37,"n_dots":2.95,"target":"left","response":"left","rt":409.19999992847,"correct":true,"confidence":4},{"trial_n":38,"n_dots":2.95,"target":"right","response":"left","rt":860.20000004768,"correct":false,"confidence":3},{"trial_n":39,"n_dots":3.05,"target":"left","response":"left","rt":706.59999990463,"correct":true,"confidence":3},{"trial_n":40,"n_dots":3.05,"target":"right","response":"right","rt":880.19999992847,"correct":true,"confidence":1},{"trial_n":41,"n_dots":2.95,"target":"left","response":"left","rt":391.89999997616,"correct":true,"confidence":5},{"trial_n":42,"n_dots":2.95,"target":"left","response":"left","rt":412.20000004768,"correct":true,"confidence":5},{"trial_n":43,"n_dots":2.85,"target":"left","response":"right","rt":954.70000004768,"correct":false,"confidence":1},{"trial_n":44,"n_dots":2.95,"target":"right","response":"right","rt":525.19999992847,"correct":true,"confidence":4},{"trial_n":45,"n_dots":2.95,"target":"right","response":"left","rt":302,"correct":false,"confidence":2},{"trial_n":46,"n_dots":3.05,"target":"right","response":"left","rt":607.70000004768,"correct":false,"confidence":3},{"trial_n":47,"n_dots":3.15,"target":"left","response":"left","rt":1111.2999999523,"correct":true,"confidence":1},{"trial_n":48,"n_dots":3.15,"target":"right","response":"right","rt":901.39999997616,"correct":true,"confidence":1},{"trial_n":49,"n_dots":3.05,"target":"right","response":"left","rt":936.69999992847,"correct":false,"confidence":1},{"trial_n":50,"n_dots":3.15,"target":"right","response":"left","rt":556.40000009537,"correct":false,"confidence":2},{"trial_n":51,"n_dots":3.25,"target":"left","response":"right","rt":527.39999997616,"correct":false,"confidence":2},{"trial_n":52,"n_dots":3.35,"target":"left","response":"left","rt":732.90000009537,"correct":true,"confidence":4},{"trial_n":53,"n_dots":3.35,"target":"right","response":"left","rt":910.59999990463,"correct":false,"confidence":2},{"trial_n":54,"n_dots":3.45,"target":"right","response":"right","rt":372.10000002384,"correct":true,"confidence":2},{"trial_n":55,"n_dots":3.45,"target":"right","response":"left","rt":2060.7999999523,"correct":false,"confidence":2},{"trial_n":56,"n_dots":3.55,"target":"left","response":"left","rt":1018.5999999046,"correct":true,"confidence":3},{"trial_n":57,"n_dots":3.55,"target":"right","response":"left","rt":1066.3999999762,"correct":false,"confidence":1},{"trial_n":58,"n_dots":3.65,"target":"right","response":"right","rt":2396.5999999046,"correct":true,"confidence":3},{"trial_n":59,"n_dots":3.65,"target":"left","response":"left","rt":1135.8999999762,"correct":true,"confidence":5},{"trial_n":60,"n_dots":3.55,"target":"left","response":"left","rt":559.89999997616,"correct":true,"confidence":5},{"trial_n":61,"n_dots":3.55,"target":"left","response":"left","rt":836,"correct":true,"confidence":3},{"trial_n":62,"n_dots":3.45,"target":"right","response":"left","rt":707.60000002384,"correct":false,"confidence":2},{"trial_n":63,"n_dots":3.55,"target":"left","response":"left","rt":625.89999997616,"correct":true,"confidence":4},{"trial_n":64,"n_dots":3.55,"target":"right","response":"right","rt":1821,"correct":true,"confidence":2},{"trial_n":65,"n_dots":3.45,"target":"right","response":"left","rt":906.60000002384,"correct":false,"confidence":1},{"trial_n":66,"n_dots":3.55,"target":"right","response":"right","rt":600.89999997616,"correct":true,"confidence":3},{"trial_n":67,"n_dots":3.55,"target":"right","response":"right","rt":1014.6000000238,"correct":true,"confidence":3},{"trial_n":68,"n_dots":3.45,"target":"left","response":"left","rt":622.20000004768,"correct":true,"confidence":4},{"trial_n":69,"n_dots":3.45,"target":"left","response":"left","rt":680.5,"correct":true,"confidence":4},{"trial_n":70,"n_dots":3.35,"target":"left","response":"left","rt":836.70000004768,"correct":true,"confidence":5},{"trial_n":71,"n_dots":3.35,"target":"right","response":"left","rt":913.60000002384,"correct":false,"confidence":2},{"trial_n":72,"n_dots":3.45,"target":"right","response":"left","rt":800.19999992847,"correct":false,"confidence":3},{"trial_n":73,"n_dots":3.55,"target":"right","response":"right","rt":2411.5,"correct":true,"confidence":2},{"trial_n":74,"n_dots":3.55,"target":"left","response":"left","rt":531.10000002384,"correct":true,"confidence":5},{"trial_n":75,"n_dots":3.45,"target":"right","response":"left","rt":684.20000004768,"correct":false,"confidence":1},{"trial_n":76,"n_dots":3.55,"target":"left","response":"left","rt":394.70000004768,"correct":true,"confidence":4},{"trial_n":77,"n_dots":3.55,"target":"left","response":"left","rt":436.39999997616,"correct":true,"confidence":5},{"trial_n":78,"n_dots":3.45,"target":"right","response":"right","rt":1064.5,"correct":true,"confidence":2},{"trial_n":79,"n_dots":3.45,"target":"right","response":"left","rt":724,"correct":false,"confidence":1},{"trial_n":80,"n_dots":3.55,"target":"left","response":"left","rt":599.90000009537,"correct":true,"confidence":3},{"trial_n":81,"n_dots":3.55,"target":"right","response":"right","rt":502.69999992847,"correct":true,"confidence":1},{"trial_n":82,"n_dots":3.45,"target":"left","response":"left","rt":265.20000004768,"correct":true,"confidence":4},{"trial_n":83,"n_dots":3.45,"target":"right","response":"left","rt":642.70000004768,"correct":false,"confidence":1},{"trial_n":84,"n_dots":3.55,"target":"left","response":"left","rt":393.10000002384,"correct":true,"confidence":5},{"trial_n":85,"n_dots":3.55,"target":"right","response":"right","rt":1160.5999999046,"correct":true,"confidence":1},{"trial_n":86,"n_dots":3.45,"target":"left","response":"left","rt":392.59999990463,"correct":true,"confidence":3},{"trial_n":87,"n_dots":3.45,"target":"left","response":"left","rt":346,"correct":true,"confidence":4},{"trial_n":88,"n_dots":3.35,"target":"right","response":"left","rt":840,"correct":false,"confidence":2},{"trial_n":89,"n_dots":3.45,"target":"left","response":"left","rt":714.39999997616,"correct":true,"confidence":3},{"trial_n":90,"n_dots":3.45,"target":"right","response":"left","rt":796.89999997616,"correct":false,"confidence":3},{"trial_n":91,"n_dots":3.55,"target":"right","response":"left","rt":833.5,"correct":false,"confidence":1},{"trial_n":92,"n_dots":3.65,"target":"right","response":"left","rt":918,"correct":false,"confidence":1},{"trial_n":93,"n_dots":3.75,"target":"right","response":"right","rt":1045.8000000715,"correct":true,"confidence":2},{"trial_n":94,"n_dots":3.75,"target":"right","response":"right","rt":496.10000002384,"correct":true,"confidence":2},{"trial_n":95,"n_dots":3.65,"target":"right","response":"left","rt":908.80000007153,"correct":false,"confidence":2},{"trial_n":96,"n_dots":3.75,"target":"right","response":"right","rt":675.10000002384,"correct":true,"confidence":1},{"trial_n":97,"n_dots":3.75,"target":"right","response":"left","rt":637.70000004768,"correct":false,"confidence":3},{"trial_n":98,"n_dots":3.85,"target":"left","response":"left","rt":283.60000002384,"correct":true,"confidence":4},{"trial_n":99,"n_dots":3.85,"target":"left","response":"left","rt":543.20000004768,"correct":true,"confidence":5},{"trial_n":100,"n_dots":3.75,"target":"right","response":"left","rt":996.79999995232,"correct":false,"confidence":2},{"trial_n":101,"n_dots":3.85,"target":"left","response":"left","rt":626.69999992847,"correct":true,"confidence":5},{"trial_n":102,"n_dots":3.85,"target":"left","response":"left","rt":380.40000009537,"correct":true,"confidence":5},{"trial_n":103,"n_dots":3.75,"target":"left","response":"left","rt":632.10000002384,"correct":true,"confidence":4},{"trial_n":104,"n_dots":3.75,"target":"left","response":"left","rt":603,"correct":true,"confidence":5},{"trial_n":105,"n_dots":3.65,"target":"left","response":"left","rt":586.59999990463,"correct":true,"confidence":3},{"trial_n":106,"n_dots":3.65,"target":"left","response":"left","rt":611.19999992847,"correct":true,"confidence":4},{"trial_n":107,"n_dots":3.55,"target":"right","response":"right","rt":1146.6999999285,"correct":true,"confidence":2},{"trial_n":108,"n_dots":3.55,"target":"right","response":"left","rt":1293.8999999762,"correct":false,"confidence":2},{"trial_n":109,"n_dots":3.65,"target":"left","response":"left","rt":593.70000004768,"correct":true,"confidence":5},{"trial_n":110,"n_dots":3.65,"target":"right","response":"right","rt":2360.6000000238,"correct":true,"confidence":2},{"trial_n":111,"n_dots":3.55,"target":"right","response":"left","rt":766.89999997616,"correct":false,"confidence":3},{"trial_n":112,"n_dots":3.65,"target":"right","response":"left","rt":1258,"correct":false,"confidence":1},{"trial_n":113,"n_dots":3.75,"target":"right","response":"left","rt":1888.2999999523,"correct":false,"confidence":1},{"trial_n":114,"n_dots":3.85,"target":"left","response":"left","rt":652,"correct":true,"confidence":3},{"trial_n":115,"n_dots":3.85,"target":"right","response":"right","rt":613.89999997616,"correct":true,"confidence":3},{"trial_n":116,"n_dots":3.75,"target":"left","response":"left","rt":541.5,"correct":true,"confidence":3},{"trial_n":117,"n_dots":3.75,"target":"right","response":"left","rt":869.39999997616,"correct":false,"confidence":1},{"trial_n":118,"n_dots":3.85,"target":"left","response":"left","rt":392.60000002384,"correct":true,"confidence":4},{"trial_n":119,"n_dots":3.85,"target":"right","response":"right","rt":703.80000007153,"correct":true,"confidence":1},{"trial_n":120,"n_dots":3.75,"target":"left","response":"left","rt":579.80000007153,"correct":true,"confidence":4}]