[{"trial_n":1,"min":25,"max":230,"target":"present","response":"absent","rt":8985.3999999911,"correct":false,"confidence":-1},{"trial_n":2,"min":25,"max":230,"target":"present","response":"present","rt":1127.700000003,"correct":true,"confidence":-1},{"trial_n":3,"min":25,"max":230,"target":"absent","response":"absent","rt":1333.400000006,"correct":true,"confidence":-1},{"trial_n":4,"min":41,"max":214,"target":"absent","response":"absent","rt":641.89999999106,"correct":true,"confidence":-1},{"trial_n":5,"min":41,"max":214,"target":"present","response":"present","rt":1220.6000000089,"correct":true,"confidence":-1},{"trial_n":6,"min":57,"max":198,"target":"absent","response":"absent","rt":1560.700000003,"correct":true,"confidence":-1},{"trial_n":7,"min":57,"max":198,"target":"absent","response":"absent","rt":4294.299999997,"correct":true,"confidence":-1},{"trial_n":8,"min":73,"max":182,"target":"present","response":"present","rt":996.19999998808,"correct":true,"confidence":-1},{"trial_n":9,"min":73,"max":182,"target":"present","response":"present","rt":1025,"correct":true,"confidence":-1},{"trial_n":10,"min":89,"max":166,"target":"absent","response":"absent","rt":740.09999999404,"correct":true,"confidence":-1},{"trial_n":11,"min":89,"max":166,"target":"present","response":"absent","rt":503.39999999106,"correct":false,"confidence":-1},{"trial_n":12,"min":81,"max":174,"target":"present","response":"present","rt":739.90000000596,"correct":true,"confidence":-1},{"trial_n":13,"min":81,"max":174,"target":"absent","response":"absent","rt":1080,"correct":true,"confidence":-1},{"trial_n":14,"min":89,"max":166,"target":"present","response":"absent","rt":11143.400000006,"correct":false,"confidence":-1},{"trial_n":15,"min":81,"max":174,"target":"absent","response":"absent","rt":1404.900000006,"correct":true,"confidence":-1},{"trial_n":16,"min":81,"max":174,"target":"present","response":"present","rt":1240.900000006,"correct":true,"confidence":-1},{"trial_n":17,"min":89,"max":166,"target":"present","response":"absent","rt":46658.200000003,"correct":false,"confidence":-1},{"trial_n":18,"min":81,"max":174,"target":"present","response":"present","rt":1225.299999997,"correct":true,"confidence":-1},{"trial_n":19,"min":81,"max":174,"target":"present","response":"absent","rt":963.29999999702,"correct":false,"confidence":-1},{"trial_n":20,"min":73,"max":182,"target":"absent","response":"present","rt":1240.700000003,"correct":false,"confidence":-1},{"trial_n":21,"min":69,"max":186,"target":"present","response":"present","rt":1216.400000006,"correct":true,"confidence":5},{"trial_n":22,"min":69,"max":186,"target":"present","response":"present","rt":1411.3999999911,"correct":true,"confidence":5},{"trial_n":23,"min":73,"max":182,"target":"present","response":"present","rt":990.59999999404,"correct":true,"confidence":5},{"trial_n":24,"min":73,"max":182,"target":"present","response":"present","rt":770.59999999404,"correct":true,"confidence":5},{"trial_n":25,"min":77,"max":178,"target":"absent","response":"absent","rt":1000.200000003,"correct":true,"confidence":2},{"trial_n":26,"min":77,"max":178,"target":"absent","response":"absent","rt":2286.799999997,"correct":true,"confidence":2},{"trial_n":27,"min":81,"max":174,"target":"present","response":"present","rt":780,"correct":true,"confidence":4},{"trial_n":28,"min":81,"max":174,"target":"absent","response":"present","rt":1470.5,"correct":false,"confidence":2},{"trial_n":29,"min":77,"max":178,"target":"present","response":"present","rt":934.20000000298,"correct":true,"confidence":5},{"trial_n":30,"min":77,"max":178,"target":"absent","response":"present","rt":993.09999999404,"correct":false,"confidence":4},{"trial_n":31,"min":75,"max":180,"target":"present","response":"present","rt":853,"correct":true,"confidence":5},{"trial_n":32,"min":75,"max":180,"target":"absent","response":"absent","rt":1656.099999994,"correct":true,"confidence":1},{"trial_n":33,"min":77,"max":178,"target":"present","response":"present","rt":698.70000000298,"correct":true,"confidence":3},{"trial_n":34,"min":77,"max":178,"target":"absent","response":"absent","rt":1549.8000000119,"correct":true,"confidence":2},{"trial_n":35,"min":79,"max":176,"target":"absent","response":"absent","rt":1104.900000006,"correct":true,"confidence":2},{"trial_n":36,"min":79,"max":176,"target":"present","response":"present","rt":1259.599999994,"correct":true,"confidence":4},{"trial_n":37,"min":81,"max":174,"target":"absent","response":"present","rt":801.19999998808,"correct":false,"confidence":3},{"trial_n":38,"min":79,"max":176,"target":"present","response":"present","rt":862.69999998808,"correct":true,"confidence":4},{"trial_n":39,"min":79,"max":176,"target":"present","response":"present","rt":758.40000000596,"correct":true,"confidence":5},{"trial_n":40,"min":81,"max":174,"target":"absent","response":"absent","rt":1252.599999994,"correct":true,"confidence":1},{"trial_n":41,"min":81,"max":174,"target":"present","response":"present","rt":1115.900000006,"correct":true,"confidence":3},{"trial_n":42,"min":82,"max":173,"target":"present","response":"present","rt":807.39999999106,"correct":true,"confidence":3},{"trial_n":43,"min":82,"max":173,"target":"present","response":"present","rt":1033.200000003,"correct":true,"confidence":4},{"trial_n":44,"min":83,"max":172,"target":"absent","response":"present","rt":903.40000000596,"correct":false,"confidence":2},{"trial_n":45,"min":82,"max":173,"target":"absent","response":"present","rt":759.20000000298,"correct":false,"confidence":4},{"trial_n":46,"min":81,"max":174,"target":"present","response":"present","rt":716.70000000298,"correct":true,"confidence":5},{"trial_n":47,"min":81,"max":174,"target":"present","response":"present","rt":599.90000000596,"correct":true,"confidence":5},{"trial_n":48,"min":82,"max":173,"target":"absent","response":"absent","rt":1050.099999994,"correct":true,"confidence":2},{"trial_n":49,"min":82,"max":173,"target":"absent","response":"absent","rt":2756.5,"correct":true,"confidence":3},{"trial_n":50,"min":83,"max":172,"target":"absent","response":"present","rt":1343.200000003,"correct":false,"confidence":1},{"trial_n":51,"min":82,"max":173,"target":"absent","response":"present","rt":1449,"correct":false,"confidence":2},{"trial_n":52,"min":81,"max":174,"target":"absent","response":"absent","rt":719,"correct":true,"confidence":1},{"trial_n":53,"min":81,"max":174,"target":"absent","response":"absent","rt":1037,"correct":true,"confidence":1},{"trial_n":54,"min":82,"max":173,"target":"absent","response":"absent","rt":1281.5,"correct":true,"confidence":1},{"trial_n":55,"min":82,"max":173,"target":"present","response":"present","rt":627.09999999404,"correct":true,"confidence":3},{"trial_n":56,"min":83,"max":172,"target":"absent","response":"absent","rt":1119.099999994,"correct":true,"confidence":1},{"trial_n":57,"min":83,"max":172,"target":"absent","response":"absent","rt":1219.6000000089,"correct":true,"confidence":2},{"trial_n":58,"min":84,"max":171,"target":"present","response":"present","rt":767.40000000596,"correct":true,"confidence":4},{"trial_n":59,"min":84,"max":171,"target":"absent","response":"absent","rt":836.79999999702,"correct":true,"confidence":2},{"trial_n":60,"min":85,"max":170,"target":"absent","response":"present","rt":2373.700000003,"correct":false,"confidence":2},{"trial_n":61,"min":84,"max":171,"target":"absent","response":"present","rt":1752.799999997,"correct":false,"confidence":1},{"trial_n":62,"min":83,"max":172,"target":"present","response":"present","rt":782.90000000596,"correct":true,"confidence":2},{"trial_n":63,"min":83,"max":172,"target":"present","response":"absent","rt":1213.400000006,"correct":false,"confidence":1},{"trial_n":64,"min":82,"max":173,"target":"present","response":"present","rt":706.90000000596,"correct":true,"confidence":4},{"trial_n":65,"min":82,"max":173,"target":"present","response":"present","rt":801,"correct":true,"confidence":4},{"trial_n":66,"min":83,"max":172,"target":"present","response":"present","rt":764.20000000298,"correct":true,"confidence":3},{"trial_n":67,"min":83,"max":172,"target":"absent","response":"absent","rt":1229.400000006,"correct":true,"confidence":1},{"trial_n":68,"min":84,"max":171,"target":"present","response":"present","rt":2026.200000003,"correct":true,"confidence":3},{"trial_n":69,"min":84,"max":171,"target":"absent","response":"present","rt":1266.599999994,"correct":false,"confidence":1},{"trial_n":70,"min":83,"max":172,"target":"absent","response":"absent","rt":1285.5,"correct":true,"confidence":1},{"trial_n":71,"min":41,"max":214,"target":"present","response":"present","rt":2896,"correct":true,"confidence":-1},{"trial_n":72,"min":41,"max":214,"target":"present","response":"present","rt":871.29999999702,"correct":true,"confidence":-1},{"trial_n":73,"min":57,"max":198,"target":"absent","response":"absent","rt":1076.3000000119,"correct":true,"confidence":-1},{"trial_n":74,"min":57,"max":198,"target":"absent","response":"absent","rt":1713.799999997,"correct":true,"confidence":-1},{"trial_n":75,"min":73,"max":182,"target":"present","response":"present","rt":1181.8999999911,"correct":true,"confidence":-1},{"trial_n":76,"min":73,"max":182,"target":"absent","response":"absent","rt":1114.799999997,"correct":true,"confidence":-1},{"trial_n":77,"min":89,"max":166,"target":"absent","response":"absent","rt":1442.700000003,"correct":true,"confidence":-1},{"trial_n":78,"min":89,"max":166,"target":"absent","response":"present","rt":2283.299999997,"correct":false,"confidence":-1},{"trial_n":79,"min":73,"max":182,"target":"present","response":"present","rt":1155.299999997,"correct":true,"confidence":-1},{"trial_n":80,"min":73,"max":182,"target":"present","response":"present","rt":1460,"correct":true,"confidence":-1},{"trial_n":81,"min":81,"max":174,"target":"absent","response":"absent","rt":1935.6000000089,"correct":true,"confidence":-1},{"trial_n":82,"min":81,"max":174,"target":"absent","response":"absent","rt":1068.700000003,"correct":true,"confidence":-1},{"trial_n":83,"min":89,"max":166,"target":"absent","response":"absent","rt":972.79999999702,"correct":true,"confidence":-1},{"trial_n":84,"min":89,"max":166,"target":"present","response":"present","rt":1971.3999999911,"correct":true,"confidence":-1},{"trial_n":85,"min":97,"max":158,"target":"absent","response":"absent","rt":2703.8999999911,"correct":true,"confidence":-1},{"trial_n":86,"min":97,"max":158,"target":"present","response":"present","rt":1511.3999999911,"correct":true,"confidence":-1},{"trial_n":87,"min":105,"max":150,"target":"present","response":"present","rt":1700.1000000089,"correct":true,"confidence":-1},{"trial_n":88,"min":105,"max":150,"target":"present","response":"present","rt":988.10000000894,"correct":true,"confidence":-1},{"trial_n":89,"min":113,"max":142,"target":"absent","response":"present","rt":867.40000000596,"correct":false,"confidence":-1},{"trial_n":90,"min":105,"max":150,"target":"present","response":"present","rt":2381.799999997,"correct":true,"confidence":-1},{"trial_n":91,"min":105,"max":150,"target":"present","response":"absent","rt":2487.8999999911,"correct":false,"confidence":1},{"trial_n":92,"min":101,"max":154,"target":"absent","response":"present","rt":4696.599999994,"correct":false,"confidence":1},{"trial_n":93,"min":97,"max":158,"target":"absent","response":"present","rt":1702.6000000089,"correct":false,"confidence":2},{"trial_n":94,"min":93,"max":162,"target":"absent","response":"present","rt":2100.6000000089,"correct":false,"confidence":1},{"trial_n":95,"min":89,"max":166,"target":"absent","response":"present","rt":4069.6999999881,"correct":false,"confidence":1},{"trial_n":96,"min":85,"max":170,"target":"present","response":"present","rt":1766.700000003,"correct":true,"confidence":2},{"trial_n":97,"min":85,"max":170,"target":"present","response":"present","rt":1403.799999997,"correct":true,"confidence":1},{"trial_n":98,"min":89,"max":166,"target":"absent","response":"present","rt":1197.8999999911,"correct":false,"confidence":1},{"trial_n":99,"min":85,"max":170,"target":"absent","response":"absent","rt":2897.6000000089,"correct":true,"confidence":1},{"trial_n":100,"min":85,"max":170,"target":"absent","response":"present","rt":1255.5,"correct":false,"confidence":1},{"trial_n":101,"min":83,"max":172,"target":"absent","response":"absent","rt":1246.8000000119,"correct":true,"confidence":2},{"trial_n":102,"min":83,"max":172,"target":"present","response":"present","rt":1066.700000003,"correct":true,"confidence":2},{"trial_n":103,"min":85,"max":170,"target":"present","response":"present","rt":1043.900000006,"correct":true,"confidence":1},{"trial_n":104,"min":85,"max":170,"target":"present","response":"present","rt":921.39999999106,"correct":true,"confidence":3},{"trial_n":105,"min":87,"max":168,"target":"absent","response":"absent","rt":1165.8999999911,"correct":true,"confidence":3},{"trial_n":106,"min":87,"max":168,"target":"present","response":"present","rt":843.40000000596,"correct":true,"confidence":1},{"trial_n":107,"min":89,"max":166,"target":"present","response":"present","rt":917.90000000596,"correct":true,"confidence":3},{"trial_n":108,"min":89,"max":166,"target":"absent","response":"absent","rt":2331.700000003,"correct":true,"confidence":1},{"trial_n":109,"min":91,"max":164,"target":"present","response":"present","rt":1215,"correct":true,"confidence":1},{"trial_n":110,"min":91,"max":164,"target":"present","response":"present","rt":1315.6000000089,"correct":true,"confidence":3},{"trial_n":111,"min":92,"max":163,"target":"present","response":"present","rt":1043.299999997,"correct":true,"confidence":1},{"trial_n":112,"min":92,"max":163,"target":"present","response":"present","rt":858.79999999702,"correct":true,"confidence":3},{"trial_n":113,"min":93,"max":162,"target":"absent","response":"present","rt":1549.099999994,"correct":false,"confidence":1},{"trial_n":114,"min":92,"max":163,"target":"absent","response":"absent","rt":1723.1000000089,"correct":true,"confidence":1},{"trial_n":115,"min":92,"max":163,"target":"present","response":"present","rt":1518.400000006,"correct":true,"confidence":1},{"trial_n":116,"min":93,"max":162,"target":"present","response":"present","rt":941.10000000894,"correct":true,"confidence":1},{"trial_n":117,"min":93,"max":162,"target":"present","response":"present","rt":756.79999999702,"correct":true,"confidence":1},{"trial_n":118,"min":94,"max":161,"target":"present","response":"present","rt":898.60000000894,"correct":true,"confidence":4},{"trial_n":119,"min":94,"max":161,"target":"present","response":"present","rt":1374.3000000119,"correct":true,"confidence":1},{"trial_n":120,"min":95,"max":160,"target":"absent","response":"present","rt":1183.299999997,"correct":false,"confidence":1},{"trial_n":121,"min":94,"max":161,"target":"present","response":"present","rt":960.10000000894,"correct":true,"confidence":1},{"trial_n":122,"min":94,"max":161,"target":"present","response":"present","rt":1011.5,"correct":true,"confidence":1},{"trial_n":123,"min":95,"max":160,"target":"present","response":"present","rt":969.60000000894,"correct":true,"confidence":1},{"trial_n":124,"min":95,"max":160,"target":"absent","response":"present","rt":667.70000000298,"correct":false,"confidence":1},{"trial_n":125,"min":94,"max":161,"target":"absent","response":"present","rt":851,"correct":false,"confidence":1},{"trial_n":126,"min":93,"max":162,"target":"present","response":"present","rt":873.29999999702,"correct":true,"confidence":1},{"trial_n":127,"min":93,"max":162,"target":"present","response":"present","rt":665.20000000298,"correct":true,"confidence":1},{"trial_n":128,"min":94,"max":161,"target":"present","response":"absent","rt":1548.200000003,"correct":false,"confidence":1},{"trial_n":129,"min":93,"max":162,"target":"absent","response":"present","rt":1871.599999994,"correct":false,"confidence":1},{"trial_n":130,"min":92,"max":163,"target":"absent","response":"present","rt":2573,"correct":false,"confidence":1},{"trial_n":131,"min":91,"max":164,"target":"present","response":"present","rt":974.40000000596,"correct":true,"confidence":2},{"trial_n":132,"min":91,"max":164,"target":"absent","response":"present","rt":1606.799999997,"correct":false,"confidence":1},{"trial_n":133,"min":90,"max":165,"target":"absent","response":"present","rt":1153.8999999911,"correct":false,"confidence":1},{"trial_n":134,"min":89,"max":166,"target":"present","response":"absent","rt":1647.200000003,"correct":false,"confidence":1},{"trial_n":135,"min":88,"max":167,"target":"absent","response":"present","rt":1921.1000000089,"correct":false,"confidence":1},{"trial_n":136,"min":87,"max":168,"target":"absent","response":"present","rt":871.5,"correct":false,"confidence":2},{"trial_n":137,"min":86,"max":169,"target":"absent","response":"present","rt":1109.1000000089,"correct":false,"confidence":1},{"trial_n":138,"min":85,"max":170,"target":"absent","response":"absent","rt":1341.1000000089,"correct":true,"confidence":1},{"trial_n":139,"min":85,"max":170,"target":"absent","response":"present","rt":8947.5,"correct":false,"confidence":1},{"trial_n":140,"min":84,"max":171,"target":"present","response":"absent","rt":1951.1000000089,"correct":false,"confidence":1}]