[{"trial_n":1,"min":25,"max":230,"target":"present","response":"absent","rt":5771.2000007629,"correct":false,"confidence":-1},{"trial_n":2,"min":25,"max":230,"target":"present","response":"present","rt":1150.1999998093,"correct":true,"confidence":-1},{"trial_n":3,"min":25,"max":230,"target":"absent","response":"present","rt":1817.5999994278,"correct":false,"confidence":-1},{"trial_n":4,"min":9,"max":246,"target":"absent","response":"present","rt":1149.1999998093,"correct":false,"confidence":-1},{"trial_n":5,"min":0,"max":255,"target":"present","response":"present","rt":859.79999923706,"correct":true,"confidence":-1},{"trial_n":6,"min":0,"max":255,"target":"present","response":"present","rt":704.5,"correct":true,"confidence":-1},{"trial_n":7,"min":16,"max":239,"target":"absent","response":"absent","rt":904.79999923706,"correct":true,"confidence":-1},{"trial_n":8,"min":16,"max":239,"target":"present","response":"present","rt":939.89999961853,"correct":true,"confidence":-1},{"trial_n":9,"min":32,"max":223,"target":"present","response":"present","rt":1021.1999998093,"correct":true,"confidence":-1},{"trial_n":10,"min":32,"max":223,"target":"present","response":"present","rt":809.10000038147,"correct":true,"confidence":-1},{"trial_n":11,"min":40,"max":215,"target":"absent","response":"absent","rt":788.0999994278,"correct":true,"confidence":-1},{"trial_n":12,"min":40,"max":215,"target":"absent","response":"absent","rt":754.60000038147,"correct":true,"confidence":-1},{"trial_n":13,"min":48,"max":207,"target":"absent","response":"absent","rt":726.69999980927,"correct":true,"confidence":-1},{"trial_n":14,"min":48,"max":207,"target":"absent","response":"absent","rt":682.79999923706,"correct":true,"confidence":-1},{"trial_n":15,"min":56,"max":199,"target":"present","response":"present","rt":804.70000076294,"correct":true,"confidence":-1},{"trial_n":16,"min":56,"max":199,"target":"absent","response":"absent","rt":671.9000005722,"correct":true,"confidence":-1},{"trial_n":17,"min":64,"max":191,"target":"present","response":"present","rt":738.10000038147,"correct":true,"confidence":-1},{"trial_n":18,"min":64,"max":191,"target":"absent","response":"absent","rt":790.9000005722,"correct":true,"confidence":-1},{"trial_n":19,"min":72,"max":183,"target":"present","response":"present","rt":1054.6999998093,"correct":true,"confidence":-1},{"trial_n":20,"min":72,"max":183,"target":"present","response":"present","rt":1275.4000005722,"correct":true,"confidence":-1},{"trial_n":21,"min":76,"max":179,"target":"present","response":"present","rt":837.9000005722,"correct":true,"confidence":4},{"trial_n":22,"min":76,"max":179,"target":"present","response":"present","rt":810.19999980927,"correct":true,"confidence":4},{"trial_n":23,"min":80,"max":175,"target":"absent","response":"present","rt":1110.5,"correct":false,"confidence":2},{"trial_n":24,"min":76,"max":179,"target":"absent","response":"absent","rt":1477.4000005722,"correct":true,"confidence":4},{"trial_n":25,"min":76,"max":179,"target":"absent","response":"absent","rt":1104.1999998093,"correct":true,"confidence":2},{"trial_n":26,"min":80,"max":175,"target":"absent","response":"absent","rt":2238.1999998093,"correct":true,"confidence":2},{"trial_n":27,"min":80,"max":175,"target":"absent","response":"absent","rt":1542.4000005722,"correct":true,"confidence":3},{"trial_n":28,"min":84,"max":171,"target":"absent","response":"absent","rt":5459.1000003815,"correct":true,"confidence":3},{"trial_n":29,"min":84,"max":171,"target":"absent","response":"absent","rt":1271.2999992371,"correct":true,"confidence":3},{"trial_n":30,"min":88,"max":167,"target":"absent","response":"present","rt":2771.1999998093,"correct":false,"confidence":2},{"trial_n":31,"min":86,"max":169,"target":"absent","response":"present","rt":1960.3999996185,"correct":false,"confidence":2},{"trial_n":32,"min":84,"max":171,"target":"absent","response":"absent","rt":3071.6000003815,"correct":true,"confidence":2},{"trial_n":33,"min":84,"max":171,"target":"present","response":"present","rt":1076.6000003815,"correct":true,"confidence":3},{"trial_n":34,"min":86,"max":169,"target":"present","response":"present","rt":1204.5,"correct":true,"confidence":3},{"trial_n":35,"min":86,"max":169,"target":"absent","response":"present","rt":3824.8999996185,"correct":false,"confidence":2},{"trial_n":36,"min":84,"max":171,"target":"absent","response":"absent","rt":1178.3000001907,"correct":true,"confidence":3},{"trial_n":37,"min":84,"max":171,"target":"present","response":"present","rt":790.5,"correct":true,"confidence":4},{"trial_n":38,"min":86,"max":169,"target":"absent","response":"absent","rt":4774.8999996185,"correct":true,"confidence":3},{"trial_n":39,"min":86,"max":169,"target":"absent","response":"absent","rt":3358,"correct":true,"confidence":1},{"trial_n":40,"min":88,"max":167,"target":"present","response":"present","rt":1045.1000003815,"correct":true,"confidence":3},{"trial_n":41,"min":88,"max":167,"target":"present","response":"absent","rt":1153.6999998093,"correct":false,"confidence":4},{"trial_n":42,"min":87,"max":168,"target":"absent","response":"absent","rt":1879.8000001907,"correct":true,"confidence":3},{"trial_n":43,"min":87,"max":168,"target":"present","response":"present","rt":803.69999980927,"correct":true,"confidence":4},{"trial_n":44,"min":88,"max":167,"target":"present","response":"absent","rt":1292.2999992371,"correct":false,"confidence":3},{"trial_n":45,"min":87,"max":168,"target":"absent","response":"absent","rt":1374.3000001907,"correct":true,"confidence":2},{"trial_n":46,"min":87,"max":168,"target":"present","response":"present","rt":2244.3000001907,"correct":true,"confidence":2},{"trial_n":47,"min":88,"max":167,"target":"present","response":"absent","rt":1774.8000001907,"correct":false,"confidence":4},{"trial_n":48,"min":87,"max":168,"target":"absent","response":"present","rt":3396.5,"correct":false,"confidence":2},{"trial_n":49,"min":86,"max":169,"target":"absent","response":"absent","rt":2933.1999998093,"correct":true,"confidence":2},{"trial_n":50,"min":86,"max":169,"target":"present","response":"present","rt":757.5999994278,"correct":true,"confidence":4},{"trial_n":51,"min":87,"max":168,"target":"absent","response":"present","rt":1957.6999998093,"correct":false,"confidence":3},{"trial_n":52,"min":86,"max":169,"target":"present","response":"absent","rt":856.5,"correct":false,"confidence":3},{"trial_n":53,"min":85,"max":170,"target":"present","response":"present","rt":1072.5,"correct":true,"confidence":4},{"trial_n":54,"min":85,"max":170,"target":"present","response":"present","rt":890.80000019073,"correct":true,"confidence":4},{"trial_n":55,"min":86,"max":169,"target":"present","response":"absent","rt":1023.1999998093,"correct":false,"confidence":2},{"trial_n":56,"min":85,"max":170,"target":"present","response":"present","rt":926.69999980927,"correct":true,"confidence":3},{"trial_n":57,"min":85,"max":170,"target":"present","response":"present","rt":789.9000005722,"correct":true,"confidence":3},{"trial_n":58,"min":86,"max":169,"target":"absent","response":"absent","rt":941.30000019073,"correct":true,"confidence":4},{"trial_n":59,"min":86,"max":169,"target":"absent","response":"present","rt":2008,"correct":false,"confidence":2},{"trial_n":60,"min":85,"max":170,"target":"absent","response":"absent","rt":1700.5999994278,"correct":true,"confidence":2},{"trial_n":61,"min":85,"max":170,"target":"present","response":"present","rt":1146.6000003815,"correct":true,"confidence":3},{"trial_n":62,"min":86,"max":169,"target":"present","response":"present","rt":2949.5999994278,"correct":true,"confidence":2},{"trial_n":63,"min":86,"max":169,"target":"present","response":"absent","rt":1024.5,"correct":false,"confidence":4},{"trial_n":64,"min":85,"max":170,"target":"present","response":"absent","rt":1295.1999998093,"correct":false,"confidence":3},{"trial_n":65,"min":84,"max":171,"target":"present","response":"present","rt":904.69999980927,"correct":true,"confidence":3},{"trial_n":66,"min":84,"max":171,"target":"absent","response":"present","rt":1358.1999998093,"correct":false,"confidence":2},{"trial_n":67,"min":83,"max":172,"target":"absent","response":"present","rt":838,"correct":false,"confidence":3},{"trial_n":68,"min":82,"max":173,"target":"present","response":"present","rt":750.80000019073,"correct":true,"confidence":4},{"trial_n":69,"min":82,"max":173,"target":"present","response":"present","rt":1321.3999996185,"correct":true,"confidence":4},{"trial_n":70,"min":83,"max":172,"target":"absent","response":"absent","rt":1354.8000001907,"correct":true,"confidence":5},{"trial_n":71,"min":41,"max":214,"target":"present","response":"present","rt":1932.5999994278,"correct":true,"confidence":-1},{"trial_n":72,"min":41,"max":214,"target":"present","response":"present","rt":1209.7000007629,"correct":true,"confidence":-1},{"trial_n":73,"min":57,"max":198,"target":"absent","response":"absent","rt":1174.5,"correct":true,"confidence":-1},{"trial_n":74,"min":57,"max":198,"target":"absent","response":"absent","rt":854.69999980927,"correct":true,"confidence":-1},{"trial_n":75,"min":73,"max":182,"target":"present","response":"present","rt":666,"correct":true,"confidence":-1},{"trial_n":76,"min":73,"max":182,"target":"absent","response":"absent","rt":826.20000076294,"correct":true,"confidence":-1},{"trial_n":77,"min":89,"max":166,"target":"absent","response":"absent","rt":1237.9000005722,"correct":true,"confidence":-1},{"trial_n":78,"min":89,"max":166,"target":"present","response":"present","rt":744,"correct":true,"confidence":-1},{"trial_n":79,"min":105,"max":150,"target":"present","response":"present","rt":1781.9000005722,"correct":true,"confidence":-1},{"trial_n":80,"min":105,"max":150,"target":"absent","response":"present","rt":1261.5999994278,"correct":false,"confidence":-1},{"trial_n":81,"min":97,"max":158,"target":"present","response":"absent","rt":1144.6999998093,"correct":false,"confidence":-1},{"trial_n":82,"min":89,"max":166,"target":"absent","response":"absent","rt":2071.3000001907,"correct":true,"confidence":-1},{"trial_n":83,"min":89,"max":166,"target":"present","response":"absent","rt":928.30000019073,"correct":false,"confidence":-1},{"trial_n":84,"min":81,"max":174,"target":"absent","response":"present","rt":1879.6000003815,"correct":false,"confidence":-1},{"trial_n":85,"min":73,"max":182,"target":"present","response":"present","rt":811,"correct":true,"confidence":-1},{"trial_n":86,"min":73,"max":182,"target":"present","response":"present","rt":694.79999923706,"correct":true,"confidence":-1},{"trial_n":87,"min":81,"max":174,"target":"absent","response":"absent","rt":878.0999994278,"correct":true,"confidence":-1},{"trial_n":88,"min":81,"max":174,"target":"absent","response":"absent","rt":721.30000019073,"correct":true,"confidence":-1},{"trial_n":89,"min":89,"max":166,"target":"absent","response":"present","rt":877.19999980927,"correct":false,"confidence":-1},{"trial_n":90,"min":81,"max":174,"target":"absent","response":"absent","rt":843.80000019073,"correct":true,"confidence":-1},{"trial_n":91,"min":81,"max":174,"target":"present","response":"present","rt":1287,"correct":true,"confidence":3},{"trial_n":92,"min":85,"max":170,"target":"present","response":"present","rt":1133.1999998093,"correct":true,"confidence":3},{"trial_n":93,"min":85,"max":170,"target":"present","response":"absent","rt":1761.5,"correct":false,"confidence":1},{"trial_n":94,"min":81,"max":174,"target":"absent","response":"present","rt":7523.6000003815,"correct":false,"confidence":1},{"trial_n":95,"min":77,"max":178,"target":"absent","response":"absent","rt":954.70000076294,"correct":true,"confidence":4},{"trial_n":96,"min":77,"max":178,"target":"present","response":"present","rt":874.30000019073,"correct":true,"confidence":5},{"trial_n":97,"min":81,"max":174,"target":"present","response":"present","rt":2252.5,"correct":true,"confidence":2},{"trial_n":98,"min":81,"max":174,"target":"present","response":"present","rt":956.9000005722,"correct":true,"confidence":4},{"trial_n":99,"min":85,"max":170,"target":"present","response":"present","rt":1446.3999996185,"correct":true,"confidence":5},{"trial_n":100,"min":85,"max":170,"target":"absent","response":"present","rt":1775.5999994278,"correct":false,"confidence":1},{"trial_n":101,"min":83,"max":172,"target":"present","response":"present","rt":860.60000038147,"correct":true,"confidence":5},{"trial_n":102,"min":83,"max":172,"target":"present","response":"present","rt":1481.4000005722,"correct":true,"confidence":5},{"trial_n":103,"min":85,"max":170,"target":"absent","response":"present","rt":1729.6000003815,"correct":false,"confidence":3},{"trial_n":104,"min":83,"max":172,"target":"absent","response":"present","rt":1682.8000001907,"correct":false,"confidence":2},{"trial_n":105,"min":81,"max":174,"target":"absent","response":"present","rt":2864,"correct":false,"confidence":1},{"trial_n":106,"min":79,"max":176,"target":"present","response":"absent","rt":1464,"correct":false,"confidence":1},{"trial_n":107,"min":77,"max":178,"target":"present","response":"present","rt":1381.2000007629,"correct":true,"confidence":2},{"trial_n":108,"min":77,"max":178,"target":"absent","response":"present","rt":1304.6999998093,"correct":false,"confidence":3},{"trial_n":109,"min":75,"max":180,"target":"present","response":"present","rt":954.69999980927,"correct":true,"confidence":4},{"trial_n":110,"min":75,"max":180,"target":"absent","response":"absent","rt":1298,"correct":true,"confidence":4},{"trial_n":111,"min":76,"max":179,"target":"absent","response":"absent","rt":1078.6999998093,"correct":true,"confidence":4},{"trial_n":112,"min":76,"max":179,"target":"present","response":"present","rt":894.20000076294,"correct":true,"confidence":5},{"trial_n":113,"min":77,"max":178,"target":"present","response":"present","rt":1435,"correct":true,"confidence":4},{"trial_n":114,"min":77,"max":178,"target":"present","response":"present","rt":1010.8999996185,"correct":true,"confidence":4},{"trial_n":115,"min":78,"max":177,"target":"present","response":"present","rt":1170.0999994278,"correct":true,"confidence":4},{"trial_n":116,"min":78,"max":177,"target":"present","response":"present","rt":886.0999994278,"correct":true,"confidence":5},{"trial_n":117,"min":79,"max":176,"target":"absent","response":"absent","rt":1778.6000003815,"correct":true,"confidence":3},{"trial_n":118,"min":79,"max":176,"target":"present","response":"present","rt":1021.1000003815,"correct":true,"confidence":4},{"trial_n":119,"min":80,"max":175,"target":"absent","response":"absent","rt":926,"correct":true,"confidence":4},{"trial_n":120,"min":80,"max":175,"target":"absent","response":"absent","rt":1321.1999998093,"correct":true,"confidence":5},{"trial_n":121,"min":81,"max":174,"target":"present","response":"present","rt":973.0999994278,"correct":true,"confidence":3},{"trial_n":122,"min":81,"max":174,"target":"absent","response":"absent","rt":1163.3999996185,"correct":true,"confidence":4},{"trial_n":123,"min":82,"max":173,"target":"present","response":"present","rt":1179.5999994278,"correct":true,"confidence":1},{"trial_n":124,"min":82,"max":173,"target":"absent","response":"absent","rt":1376.0999994278,"correct":true,"confidence":4},{"trial_n":125,"min":83,"max":172,"target":"absent","response":"absent","rt":1054.8000001907,"correct":true,"confidence":3},{"trial_n":126,"min":83,"max":172,"target":"present","response":"present","rt":1050.1999998093,"correct":true,"confidence":4},{"trial_n":127,"min":84,"max":171,"target":"absent","response":"absent","rt":913.29999923706,"correct":true,"confidence":5},{"trial_n":128,"min":84,"max":171,"target":"absent","response":"absent","rt":1094.6999998093,"correct":true,"confidence":5},{"trial_n":129,"min":85,"max":170,"target":"absent","response":"absent","rt":1177.1999998093,"correct":true,"confidence":5},{"trial_n":130,"min":85,"max":170,"target":"present","response":"present","rt":1449.4000005722,"correct":true,"confidence":1},{"trial_n":131,"min":86,"max":169,"target":"present","response":"present","rt":1386.2000007629,"correct":true,"confidence":3},{"trial_n":132,"min":86,"max":169,"target":"absent","response":"present","rt":996.9000005722,"correct":false,"confidence":1},{"trial_n":133,"min":85,"max":170,"target":"present","response":"absent","rt":2808.2000007629,"correct":false,"confidence":2},{"trial_n":134,"min":84,"max":171,"target":"absent","response":"present","rt":2341.8999996185,"correct":false,"confidence":1},{"trial_n":135,"min":83,"max":172,"target":"present","response":"present","rt":1194.2000007629,"correct":true,"confidence":4},{"trial_n":136,"min":83,"max":172,"target":"absent","response":"absent","rt":1434.3000001907,"correct":true,"confidence":1},{"trial_n":137,"min":84,"max":171,"target":"present","response":"absent","rt":2316,"correct":false,"confidence":1},{"trial_n":138,"min":83,"max":172,"target":"absent","response":"absent","rt":1379.3999996185,"correct":true,"confidence":3},{"trial_n":139,"min":83,"max":172,"target":"absent","response":"absent","rt":920,"correct":true,"confidence":4},{"trial_n":140,"min":84,"max":171,"target":"present","response":"present","rt":852.5999994278,"correct":true,"confidence":4}]