[{"trial_n":1,"span":8,"encoder":"00098733","distractor":"00078733","target":"present","response":"present","rt":"6654.1000003815","correct":true,"confidence":-1},{"trial_n":2,"span":8,"encoder":"27646613","distractor":"27246613","target":"present","response":"present","rt":"2838.8000001907","correct":true,"confidence":-1},{"trial_n":3,"span":10,"encoder":"0756046593","distractor":"0756048593","target":"absent","response":"absent","rt":"4008.1000003815","correct":true,"confidence":-1},{"trial_n":4,"span":10,"encoder":"1054944365","distractor":"1054944364","target":"absent","response":"absent","rt":"5693","correct":true,"confidence":-1},{"trial_n":5,"span":12,"encoder":"314800766266","distractor":"314803766266","target":"present","response":"present","rt":"3471.5","correct":true,"confidence":-1},{"trial_n":6,"span":12,"encoder":"051632444712","distractor":"051632444702","target":"absent","response":"present","rt":"4188.3000001907","correct":false,"confidence":-1},{"trial_n":7,"span":10,"encoder":"9509078628","distractor":"9504078628","target":"absent","response":"absent","rt":"3804.6999998093","correct":true,"confidence":-1},{"trial_n":8,"span":10,"encoder":"4301460902","distractor":"4301460302","target":"present","response":"present","rt":"2495.1000003815","correct":true,"confidence":-1},{"trial_n":9,"span":12,"encoder":"774298532592","distractor":"574298532592","target":"absent","response":"absent","rt":"4633.6999998093","correct":true,"confidence":-1},{"trial_n":10,"span":12,"encoder":"300517794678","distractor":"300517094678","target":"absent","response":"absent","rt":"5004.6999998093","correct":true,"confidence":-1},{"trial_n":11,"span":14,"encoder":"44223573106703","distractor":"44523573106703","target":"present","response":"present","rt":"6560.1000003815","correct":true,"confidence":-1},{"trial_n":12,"span":14,"encoder":"93710391457094","distractor":"93710391457294","target":"present","response":"present","rt":"5716","correct":true,"confidence":-1},{"trial_n":13,"span":15,"encoder":"275416789817058","distractor":"275414789817058","target":"present","response":"present","rt":"1533.4000005722","correct":true,"confidence":-1},{"trial_n":14,"span":15,"encoder":"659928873256064","distractor":"659928873256063","target":"absent","response":"absent","rt":"1871.3999996185","correct":true,"confidence":-1},{"trial_n":15,"span":16,"encoder":"2331272071641704","distractor":"4331272071641704","target":"absent","response":"absent","rt":"6711.8999996185","correct":true,"confidence":-1},{"trial_n":16,"span":16,"encoder":"2720115763031269","distractor":"2720115763331269","target":"present","response":"present","rt":"3273","correct":true,"confidence":-1},{"trial_n":17,"span":17,"encoder":"01584172267894444","distractor":"01584142267894444","target":"absent","response":"present","rt":"3216.1999998093","correct":false,"confidence":-1},{"trial_n":18,"span":16,"encoder":"8391608251280013","distractor":"2391608251280013","target":"present","response":"present","rt":"2740.0999994278","correct":true,"confidence":-1},{"trial_n":19,"span":16,"encoder":"0371434738701112","distractor":"3371434738701112","target":"present","response":"absent","rt":"2892.3000001907","correct":false,"confidence":-1},{"trial_n":20,"span":15,"encoder":"910765286428406","distractor":"910965286428406","target":"absent","response":"present","rt":"3124.8999996185","correct":false,"confidence":-1},{"trial_n":21,"span":14,"encoder":"37608676779749","distractor":"37908676779749","target":"present","response":"present","rt":"4056","correct":true,"confidence":4},{"trial_n":22,"span":14,"encoder":"32770590216900","distractor":"22770590216900","target":"present","response":"present","rt":"4316.0999994278","correct":true,"confidence":3},{"trial_n":23,"span":15,"encoder":"594217928588339","distractor":"694217928588339","target":"present","response":"present","rt":"8155.3000001907","correct":true,"confidence":2},{"trial_n":24,"span":15,"encoder":"037907347594851","distractor":"037907342594851","target":"present","response":"present","rt":"6087.5999994278","correct":true,"confidence":4},{"trial_n":25,"span":16,"encoder":"4869804151994662","distractor":"4869804151934662","target":"absent","response":"absent","rt":"9520.6999998093","correct":true,"confidence":4},{"trial_n":26,"span":16,"encoder":"8790610174786447","distractor":"8790110174786447","target":"present","response":"present","rt":"2588","correct":true,"confidence":2},{"trial_n":27,"span":17,"encoder":"78969925202513425","distractor":"78969925202512425","target":"absent","response":"absent","rt":"9556.3000001907","correct":true,"confidence":3},{"trial_n":28,"span":17,"encoder":"78531869768278951","distractor":"78531869768275951","target":"absent","response":"absent","rt":"3937.4000005722","correct":true,"confidence":3},{"trial_n":29,"span":18,"encoder":"904141720447577326","distractor":"904141720447537326","target":"absent","response":"absent","rt":"6896.1999998093","correct":true,"confidence":4},{"trial_n":30,"span":18,"encoder":"458081091917256376","distractor":"458081091917256336","target":"absent","response":"absent","rt":"5110.3000001907","correct":true,"confidence":4},{"trial_n":31,"span":19,"encoder":"9760314998927365675","distractor":"9750314998927365675","target":"present","response":"present","rt":"3579.1000003815","correct":true,"confidence":2},{"trial_n":32,"span":19,"encoder":"9793131608562655063","distractor":"4793131608562655063","target":"present","response":"present","rt":"5103.5","correct":true,"confidence":3},{"trial_n":33,"span":20,"encoder":"97200487312947944004","distractor":"97200487314947944004","target":"absent","response":"absent","rt":"4223.5","correct":true,"confidence":2},{"trial_n":34,"span":20,"encoder":"34278743969051822163","distractor":"34258743969051822163","target":"absent","response":"present","rt":"2770.9000005722","correct":false,"confidence":3},{"trial_n":35,"span":19,"encoder":"8132200597146475965","distractor":"8132200597146475966","target":"absent","response":"present","rt":"9387.6999998093","correct":false,"confidence":3},{"trial_n":36,"span":18,"encoder":"074221989904589430","distractor":"079221989904589430","target":"absent","response":"present","rt":"2702.3999996185","correct":false,"confidence":3},{"trial_n":37,"span":17,"encoder":"43005663116441796","distractor":"43005653116441796","target":"present","response":"present","rt":"3247.8000001907","correct":true,"confidence":4},{"trial_n":38,"span":17,"encoder":"28930180800476860","distractor":"28930280800476860","target":"absent","response":"absent","rt":"6389.8999996185","correct":true,"confidence":4},{"trial_n":39,"span":18,"encoder":"885816591273498135","distractor":"885816591253498135","target":"present","response":"present","rt":"2304.1999998093","correct":true,"confidence":4},{"trial_n":40,"span":18,"encoder":"143589859654833131","distractor":"144589859654833131","target":"present","response":"present","rt":"11433.199999809","correct":true,"confidence":5},{"trial_n":41,"span":19,"encoder":"1000876039113791161","distractor":"1000876036113791161","target":"absent","response":"present","rt":"2197.8999996185","correct":false,"confidence":4},{"trial_n":42,"span":18,"encoder":"579620958216741109","distractor":"579620958416741109","target":"present","response":"present","rt":"6411.3999996185","correct":true,"confidence":2},{"trial_n":43,"span":18,"encoder":"481202823782042502","distractor":"481202023782042502","target":"present","response":"present","rt":"9569.1999998093","correct":true,"confidence":4},{"trial_n":44,"span":19,"encoder":"2431460746053720491","distractor":"2431460746053420491","target":"present","response":"absent","rt":"11854.599999428","correct":false,"confidence":3},{"trial_n":45,"span":18,"encoder":"266900468460943248","distractor":"216900468460943248","target":"absent","response":"present","rt":"8137.0999994278","correct":false,"confidence":4},{"trial_n":46,"span":17,"encoder":"52329216266245397","distractor":"52329286266245397","target":"absent","response":"present","rt":"8671.5999994278","correct":false,"confidence":5},{"trial_n":47,"span":16,"encoder":"4777701384293709","distractor":"4777701384293209","target":"absent","response":"absent","rt":"3203.8999996185","correct":true,"confidence":5},{"trial_n":48,"span":16,"encoder":"5174900318309510","distractor":"5074900318309510","target":"present","response":"absent","rt":"5288.1000003815","correct":false,"confidence":3},{"trial_n":49,"span":15,"encoder":"809694199589519","distractor":"809394199589519","target":"absent","response":"absent","rt":"7570.3999996185","correct":true,"confidence":4},{"trial_n":50,"span":15,"encoder":"140737317278326","distractor":"170737317278326","target":"absent","response":"present","rt":"13728.399999619","correct":false,"confidence":3},{"trial_n":51,"span":14,"encoder":"58904838063805","distractor":"58904835063805","target":"present","response":"absent","rt":"7596.1999998093","correct":false,"confidence":3},{"trial_n":52,"span":13,"encoder":"6508737936944","distractor":"6508737936644","target":"present","response":"present","rt":"5172.2999992371","correct":true,"confidence":5},{"trial_n":53,"span":13,"encoder":"2616318718611","distractor":"2616318758611","target":"absent","response":"absent","rt":"8641.3999996185","correct":true,"confidence":4},{"trial_n":54,"span":14,"encoder":"48270787352603","distractor":"48250787352603","target":"present","response":"present","rt":"6004.8000001907","correct":true,"confidence":4},{"trial_n":55,"span":14,"encoder":"29582696143975","distractor":"19582696143975","target":"absent","response":"absent","rt":"7393.5","correct":true,"confidence":4},{"trial_n":56,"span":15,"encoder":"517408290814177","distractor":"517405290814177","target":"absent","response":"absent","rt":"7637.7999992371","correct":true,"confidence":5},{"trial_n":57,"span":15,"encoder":"745716948240556","distractor":"745716948240056","target":"absent","response":"absent","rt":"2547.0999994278","correct":true,"confidence":5},{"trial_n":58,"span":16,"encoder":"2513638506779074","distractor":"2513638500779074","target":"present","response":"present","rt":"4204.3000001907","correct":true,"confidence":2},{"trial_n":59,"span":16,"encoder":"3308256457937552","distractor":"3307256457937552","target":"absent","response":"present","rt":"5476.8000001907","correct":false,"confidence":3},{"trial_n":60,"span":15,"encoder":"026074700504889","distractor":"026074702504889","target":"present","response":"present","rt":"6508.4000005722","correct":true,"confidence":5},{"trial_n":61,"span":15,"encoder":"996514739092994","distractor":"996514739092294","target":"present","response":"absent","rt":"6977.3000001907","correct":false,"confidence":2},{"trial_n":62,"span":14,"encoder":"10452402991731","distractor":"10452403991731","target":"absent","response":"absent","rt":"4937.3000001907","correct":true,"confidence":4},{"trial_n":63,"span":14,"encoder":"31793385554213","distractor":"31793385554211","target":"present","response":"present","rt":"5621.1999998093","correct":true,"confidence":4},{"trial_n":64,"span":15,"encoder":"661151471490650","distractor":"661151471440650","target":"absent","response":"absent","rt":"4880.4000005722","correct":true,"confidence":5},{"trial_n":65,"span":15,"encoder":"303008028531904","distractor":"303008028511904","target":"present","response":"present","rt":"6799.5999994278","correct":true,"confidence":5},{"trial_n":66,"span":16,"encoder":"1173237987691466","distractor":"1173237983691466","target":"present","response":"absent","rt":"8721.6000003815","correct":false,"confidence":3},{"trial_n":67,"span":15,"encoder":"147354811113059","distractor":"147354891113059","target":"present","response":"present","rt":"6646.3000001907","correct":true,"confidence":3},{"trial_n":68,"span":15,"encoder":"719177858949513","distractor":"019177858949513","target":"present","response":"absent","rt":"7004.6999998093","correct":false,"confidence":3},{"trial_n":69,"span":14,"encoder":"34809152278220","distractor":"34809152274220","target":"present","response":"absent","rt":"4698.5999994278","correct":false,"confidence":3},{"trial_n":70,"span":13,"encoder":"2617870548117","distractor":"0617870548117","target":"absent","response":"absent","rt":"6896.8000001907","correct":true,"confidence":4},{"trial_n":71,"span":8,"encoder":"43414840","distractor":"43414340","target":"present","response":"present","rt":"4688.3000001907","correct":true,"confidence":-1},{"trial_n":72,"span":8,"encoder":"04983802","distractor":"04953802","target":"present","response":"present","rt":"4121.5999994278","correct":true,"confidence":-1},{"trial_n":73,"span":9,"encoder":"917192888","distractor":"917162888","target":"absent","response":"absent","rt":"3874.8999996185","correct":true,"confidence":-1},{"trial_n":74,"span":9,"encoder":"559592189","distractor":"559597189","target":"absent","response":"absent","rt":"8746.3000001907","correct":true,"confidence":-1},{"trial_n":75,"span":10,"encoder":"0290425011","distractor":"0290425041","target":"present","response":"present","rt":"8379.7999992371","correct":true,"confidence":-1},{"trial_n":76,"span":10,"encoder":"3145382445","distractor":"3145392445","target":"present","response":"present","rt":"6054.2000007629","correct":true,"confidence":-1},{"trial_n":77,"span":11,"encoder":"40668857239","distractor":"40662857239","target":"absent","response":"absent","rt":"6239.8000001907","correct":true,"confidence":-1},{"trial_n":78,"span":11,"encoder":"30422129304","distractor":"30428129304","target":"absent","response":"present","rt":"9287.6999998093","correct":false,"confidence":-1},{"trial_n":79,"span":10,"encoder":"9958368155","distractor":"9958368455","target":"absent","response":"absent","rt":"8454","correct":true,"confidence":-1},{"trial_n":80,"span":10,"encoder":"6721409029","distractor":"0721409029","target":"present","response":"present","rt":"6824.4000005722","correct":true,"confidence":-1},{"trial_n":81,"span":11,"encoder":"81811850194","distractor":"81811650194","target":"present","response":"present","rt":"6323.0999994278","correct":true,"confidence":-1},{"trial_n":82,"span":11,"encoder":"26780698201","distractor":"26780698001","target":"present","response":"present","rt":"2086.6999998093","correct":true,"confidence":-1},{"trial_n":83,"span":12,"encoder":"486774249499","distractor":"886774249499","target":"absent","response":"absent","rt":"4019.9000005722","correct":true,"confidence":-1},{"trial_n":84,"span":12,"encoder":"693853585616","distractor":"693853583616","target":"absent","response":"absent","rt":"2309.3999996185","correct":true,"confidence":-1},{"trial_n":85,"span":13,"encoder":"4974597275905","distractor":"4874597275905","target":"present","response":"absent","rt":"10599","correct":false,"confidence":-1},{"trial_n":86,"span":12,"encoder":"200378164096","distractor":"200378165096","target":"absent","response":"absent","rt":"4064","correct":true,"confidence":-1},{"trial_n":87,"span":12,"encoder":"931334993437","distractor":"831334993437","target":"present","response":"present","rt":"4054.3000001907","correct":true,"confidence":-1},{"trial_n":88,"span":13,"encoder":"7252773636473","distractor":"7852773636473","target":"absent","response":"absent","rt":"2554","correct":true,"confidence":-1},{"trial_n":89,"span":13,"encoder":"8138141577878","distractor":"8138141587878","target":"present","response":"present","rt":"2594.7000007629","correct":true,"confidence":-1},{"trial_n":90,"span":14,"encoder":"71000310396752","distractor":"71000310390752","target":"present","response":"present","rt":"10021.199999809","correct":true,"confidence":-1},{"trial_n":91,"span":14,"encoder":"26256291652093","distractor":"66256291652093","target":"absent","response":"present","rt":"5027.3000001907","correct":false,"confidence":3},{"trial_n":92,"span":13,"encoder":"5385274356706","distractor":"0385274356706","target":"present","response":"present","rt":"2353.5","correct":true,"confidence":5},{"trial_n":93,"span":13,"encoder":"9031267068169","distractor":"9031269068169","target":"present","response":"present","rt":"5321.1999998093","correct":true,"confidence":5},{"trial_n":94,"span":14,"encoder":"88611370252411","distractor":"88621370252411","target":"absent","response":"absent","rt":"7965.5","correct":true,"confidence":4},{"trial_n":95,"span":14,"encoder":"11847008076095","distractor":"11847002076095","target":"present","response":"present","rt":"5975.8999996185","correct":true,"confidence":4},{"trial_n":96,"span":15,"encoder":"337227602884719","distractor":"337227602854719","target":"absent","response":"absent","rt":"3365.5","correct":true,"confidence":5},{"trial_n":97,"span":15,"encoder":"323968309745974","distractor":"323968305745974","target":"present","response":"present","rt":"8209.3000001907","correct":true,"confidence":5},{"trial_n":98,"span":16,"encoder":"3507441927453399","distractor":"3577441927453399","target":"present","response":"absent","rt":"5241.2999992371","correct":false,"confidence":1},{"trial_n":99,"span":15,"encoder":"785263967042733","distractor":"785243967042733","target":"absent","response":"absent","rt":"8162.5","correct":true,"confidence":2},{"trial_n":100,"span":15,"encoder":"230477127858011","distractor":"030477127858011","target":"present","response":"present","rt":"4571.0999994278","correct":true,"confidence":4},{"trial_n":101,"span":16,"encoder":"4258339534839966","distractor":"4358339534839966","target":"present","response":"absent","rt":"8238.1000003815","correct":false,"confidence":2},{"trial_n":102,"span":15,"encoder":"610932130519378","distractor":"410932130519378","target":"absent","response":"absent","rt":"2489.5999994278","correct":true,"confidence":5},{"trial_n":103,"span":15,"encoder":"389459290200250","distractor":"389469290200250","target":"present","response":"absent","rt":"9642.5999994278","correct":false,"confidence":3},{"trial_n":104,"span":14,"encoder":"69758535124144","distractor":"67758535124144","target":"absent","response":"absent","rt":"6303.7000007629","correct":true,"confidence":4},{"trial_n":105,"span":14,"encoder":"21461878245481","distractor":"21461876245481","target":"present","response":"present","rt":"8353.5999994278","correct":true,"confidence":5},{"trial_n":106,"span":15,"encoder":"818123801704857","distractor":"818123801714857","target":"present","response":"present","rt":"11652.799999237","correct":true,"confidence":1},{"trial_n":107,"span":15,"encoder":"901162937365991","distractor":"901162937365921","target":"present","response":"absent","rt":"14338","correct":false,"confidence":2},{"trial_n":108,"span":14,"encoder":"07769252000227","distractor":"97769252000227","target":"absent","response":"absent","rt":"3977.3000001907","correct":true,"confidence":3},{"trial_n":109,"span":14,"encoder":"65964907614236","distractor":"63964907614236","target":"present","response":"present","rt":"3753.8000001907","correct":true,"confidence":2},{"trial_n":110,"span":15,"encoder":"849609134540915","distractor":"849659134540915","target":"present","response":"present","rt":"6187.1999998093","correct":true,"confidence":4},{"trial_n":111,"span":15,"encoder":"419001509519608","distractor":"419001509519508","target":"absent","response":"absent","rt":"2564.3000001907","correct":true,"confidence":5},{"trial_n":112,"span":16,"encoder":"3910040627325502","distractor":"3910040627325002","target":"absent","response":"absent","rt":"2286.3000001907","correct":true,"confidence":5},{"trial_n":113,"span":16,"encoder":"6957036718371398","distractor":"6957036418371398","target":"absent","response":"absent","rt":"7621.4000005722","correct":true,"confidence":4},{"trial_n":114,"span":17,"encoder":"41117106858830972","distractor":"41117108858830972","target":"present","response":"present","rt":"6111.2999992371","correct":true,"confidence":2},{"trial_n":115,"span":17,"encoder":"04641097222735771","distractor":"04641092222735771","target":"present","response":"present","rt":"3457","correct":true,"confidence":3},{"trial_n":116,"span":18,"encoder":"921989529573812824","distractor":"421989529573812824","target":"present","response":"present","rt":"7654.6000003815","correct":true,"confidence":3},{"trial_n":117,"span":18,"encoder":"132504759933260699","distractor":"132504759937260699","target":"absent","response":"absent","rt":"3170.1999998093","correct":true,"confidence":5},{"trial_n":118,"span":19,"encoder":"2348410046869413267","distractor":"2348410046869413467","target":"present","response":"present","rt":"14803.800000191","correct":true,"confidence":2},{"trial_n":119,"span":19,"encoder":"5406934263381205854","distractor":"5409934263381205854","target":"absent","response":"absent","rt":"9320","correct":true,"confidence":4},{"trial_n":120,"span":20,"encoder":"01687893660890471770","distractor":"01687893660890476770","target":"present","response":"present","rt":"2766.1999998093","correct":true,"confidence":5},{"trial_n":121,"span":20,"encoder":"11440929488266906647","distractor":"11440929488276906647","target":"absent","response":"absent","rt":"12104.199999809","correct":true,"confidence":3},{"trial_n":122,"span":21,"encoder":"538169517630056621385","distractor":"538169517630056621185","target":"absent","response":"absent","rt":"20487.5","correct":true,"confidence":2},{"trial_n":123,"span":21,"encoder":"610430683933598254149","distractor":"610430687933598254149","target":"present","response":"present","rt":"29871.400000572","correct":true,"confidence":1},{"trial_n":124,"span":22,"encoder":"6815874334629004590313","distractor":"6715874334629004590313","target":"absent","response":"absent","rt":"3428.5","correct":true,"confidence":3},{"trial_n":125,"span":22,"encoder":"5196778349190058815162","distractor":"5196778149190058815162","target":"present","response":"present","rt":"7010.5","correct":true,"confidence":2},{"trial_n":126,"span":23,"encoder":"00711342576345185158987","distractor":"00711342573345185158987","target":"absent","response":"absent","rt":"18198.600000381","correct":true,"confidence":3},{"trial_n":127,"span":23,"encoder":"89026908674920350538029","distractor":"89026908674920350138029","target":"absent","response":"absent","rt":"5360.4000005722","correct":true,"confidence":4},{"trial_n":128,"span":24,"encoder":"725124093991051253471119","distractor":"725124053991051253471119","target":"present","response":"absent","rt":"7939.1999998093","correct":false,"confidence":1},{"trial_n":129,"span":23,"encoder":"66214839159604614553052","distractor":"66214839159604614553452","target":"present","response":"present","rt":"5923.6000003815","correct":true,"confidence":5},{"trial_n":130,"span":23,"encoder":"39186961544873811615187","distractor":"39186961544873811615183","target":"absent","response":"absent","rt":"1520.8999996185","correct":true,"confidence":5},{"trial_n":131,"span":24,"encoder":"336472325865614553838862","distractor":"336472325865614553818862","target":"present","response":"present","rt":"10073.400000572","correct":true,"confidence":2},{"trial_n":132,"span":24,"encoder":"833449406069355967753070","distractor":"833449406069355967753090","target":"present","response":"present","rt":"2439.1999998093","correct":true,"confidence":5},{"trial_n":133,"span":25,"encoder":"2262896720415425610134477","distractor":"2262876720415425610134477","target":"absent","response":"present","rt":"9926.8999996185","correct":false,"confidence":1},{"trial_n":134,"span":24,"encoder":"206426683650754016299229","distractor":"206426183650754016299229","target":"absent","response":"absent","rt":"7793.3999996185","correct":true,"confidence":2},{"trial_n":135,"span":24,"encoder":"994255124827047960575833","distractor":"994255124897047960575833","target":"absent","response":"absent","rt":"16813.700000763","correct":true,"confidence":5},{"trial_n":136,"span":25,"encoder":"4082263591353218553071470","distractor":"4082263591053218553071470","target":"absent","response":"absent","rt":"20687.899999619","correct":true,"confidence":2},{"trial_n":137,"span":25,"encoder":"2823204120894944435342677","distractor":"2823204120894944435142677","target":"present","response":"present","rt":"20336.900000572","correct":true,"confidence":1},{"trial_n":138,"span":26,"encoder":"17390314844171900078421061","distractor":"17390314844171900078481061","target":"absent","response":"present","rt":"16438.399999619","correct":false,"confidence":3},{"trial_n":139,"span":25,"encoder":"0398296400811671545922141","distractor":"0398296400814671545922141","target":"absent","response":"absent","rt":"18604.800000191","correct":true,"confidence":1},{"trial_n":140,"span":25,"encoder":"3075602613960681885334543","distractor":"3065602613960681885334543","target":"absent","response":"present","rt":"5679.8000001907","correct":false,"confidence":3}]