[{"trial_n":1,"min":25,"max":230,"target":"present","response":"present","rt":12146,"correct":true,"confidence":-1},{"trial_n":2,"min":25,"max":230,"target":"present","response":"present","rt":2027,"correct":true,"confidence":-1},{"trial_n":3,"min":41,"max":214,"target":"absent","response":"absent","rt":930,"correct":true,"confidence":-1},{"trial_n":4,"min":41,"max":214,"target":"absent","response":"absent","rt":793,"correct":true,"confidence":-1},{"trial_n":5,"min":57,"max":198,"target":"present","response":"present","rt":700,"correct":true,"confidence":-1},{"trial_n":6,"min":57,"max":198,"target":"present","response":"present","rt":702,"correct":true,"confidence":-1},{"trial_n":7,"min":73,"max":182,"target":"absent","response":"present","rt":775.99999999999,"correct":false,"confidence":-1},{"trial_n":8,"min":57,"max":198,"target":"present","response":"present","rt":820,"correct":true,"confidence":-1},{"trial_n":9,"min":57,"max":198,"target":"absent","response":"absent","rt":613.99999999999,"correct":true,"confidence":-1},{"trial_n":10,"min":73,"max":182,"target":"absent","response":"absent","rt":628,"correct":true,"confidence":-1},{"trial_n":11,"min":73,"max":182,"target":"present","response":"present","rt":834,"correct":true,"confidence":-1},{"trial_n":12,"min":81,"max":174,"target":"absent","response":"absent","rt":662,"correct":true,"confidence":-1},{"trial_n":13,"min":81,"max":174,"target":"present","response":"present","rt":664.99999999999,"correct":true,"confidence":-1},{"trial_n":14,"min":89,"max":166,"target":"absent","response":"absent","rt":864,"correct":true,"confidence":-1},{"trial_n":15,"min":89,"max":166,"target":"absent","response":"absent","rt":628,"correct":true,"confidence":-1},{"trial_n":16,"min":97,"max":158,"target":"present","response":"absent","rt":583,"correct":false,"confidence":-1},{"trial_n":17,"min":89,"max":166,"target":"present","response":"absent","rt":716,"correct":false,"confidence":-1},{"trial_n":18,"min":81,"max":174,"target":"absent","response":"absent","rt":1009,"correct":true,"confidence":-1},{"trial_n":19,"min":81,"max":174,"target":"absent","response":"present","rt":801,"correct":false,"confidence":-1},{"trial_n":20,"min":73,"max":182,"target":"present","response":"present","rt":766,"correct":true,"confidence":-1},{"trial_n":21,"min":73,"max":182,"target":"present","response":"present","rt":986,"correct":true,"confidence":3},{"trial_n":22,"min":77,"max":178,"target":"present","response":"present","rt":1073,"correct":true,"confidence":4},{"trial_n":23,"min":77,"max":178,"target":"absent","response":"present","rt":2343,"correct":false,"confidence":2},{"trial_n":24,"min":73,"max":182,"target":"present","response":"present","rt":1501,"correct":true,"confidence":2},{"trial_n":25,"min":73,"max":182,"target":"present","response":"present","rt":1034,"correct":true,"confidence":3},{"trial_n":26,"min":77,"max":178,"target":"present","response":"present","rt":765.99999999999,"correct":true,"confidence":3},{"trial_n":27,"min":77,"max":178,"target":"absent","response":"present","rt":1564,"correct":false,"confidence":2},{"trial_n":28,"min":73,"max":182,"target":"absent","response":"absent","rt":1101,"correct":true,"confidence":2},{"trial_n":29,"min":73,"max":182,"target":"absent","response":"absent","rt":613.99999999999,"correct":true,"confidence":3},{"trial_n":30,"min":77,"max":178,"target":"absent","response":"absent","rt":631,"correct":true,"confidence":3},{"trial_n":31,"min":77,"max":178,"target":"present","response":"present","rt":1703,"correct":true,"confidence":3},{"trial_n":32,"min":79,"max":176,"target":"absent","response":"absent","rt":981,"correct":true,"confidence":3},{"trial_n":33,"min":79,"max":176,"target":"absent","response":"absent","rt":668,"correct":true,"confidence":2},{"trial_n":34,"min":81,"max":174,"target":"absent","response":"absent","rt":597,"correct":true,"confidence":2},{"trial_n":35,"min":81,"max":174,"target":"absent","response":"absent","rt":680.99999999999,"correct":true,"confidence":3},{"trial_n":36,"min":83,"max":172,"target":"absent","response":"absent","rt":595,"correct":true,"confidence":3},{"trial_n":37,"min":83,"max":172,"target":"present","response":"absent","rt":570,"correct":false,"confidence":3},{"trial_n":38,"min":81,"max":174,"target":"present","response":"present","rt":765.99999999997,"correct":true,"confidence":3},{"trial_n":39,"min":81,"max":174,"target":"absent","response":"absent","rt":981,"correct":true,"confidence":3},{"trial_n":40,"min":83,"max":172,"target":"present","response":"present","rt":949,"correct":true,"confidence":2},{"trial_n":41,"min":83,"max":172,"target":"present","response":"absent","rt":1243,"correct":false,"confidence":2},{"trial_n":42,"min":82,"max":173,"target":"absent","response":"present","rt":981,"correct":false,"confidence":2},{"trial_n":43,"min":81,"max":174,"target":"present","response":"present","rt":687,"correct":true,"confidence":3},{"trial_n":44,"min":81,"max":174,"target":"absent","response":"absent","rt":1016,"correct":true,"confidence":1},{"trial_n":45,"min":82,"max":173,"target":"present","response":"present","rt":851.99999999997,"correct":true,"confidence":2},{"trial_n":46,"min":82,"max":173,"target":"absent","response":"present","rt":833,"correct":false,"confidence":2},{"trial_n":47,"min":81,"max":174,"target":"present","response":"absent","rt":972.00000000003,"correct":false,"confidence":3},{"trial_n":48,"min":80,"max":175,"target":"absent","response":"absent","rt":697,"correct":true,"confidence":3},{"trial_n":49,"min":80,"max":175,"target":"present","response":"absent","rt":649,"correct":false,"confidence":3},{"trial_n":50,"min":79,"max":176,"target":"present","response":"absent","rt":788,"correct":false,"confidence":3},{"trial_n":51,"min":78,"max":177,"target":"absent","response":"present","rt":1052,"correct":false,"confidence":2},{"trial_n":52,"min":77,"max":178,"target":"present","response":"present","rt":663,"correct":true,"confidence":3},{"trial_n":53,"min":77,"max":178,"target":"absent","response":"absent","rt":1014,"correct":true,"confidence":1},{"trial_n":54,"min":78,"max":177,"target":"absent","response":"absent","rt":1314,"correct":true,"confidence":4},{"trial_n":55,"min":78,"max":177,"target":"absent","response":"absent","rt":698.00000000003,"correct":true,"confidence":4},{"trial_n":56,"min":79,"max":176,"target":"present","response":"absent","rt":772.00000000003,"correct":false,"confidence":4},{"trial_n":57,"min":78,"max":177,"target":"present","response":"present","rt":1485,"correct":true,"confidence":4},{"trial_n":58,"min":78,"max":177,"target":"present","response":"absent","rt":1822,"correct":false,"confidence":1},{"trial_n":59,"min":77,"max":178,"target":"present","response":"absent","rt":637,"correct":false,"confidence":2},{"trial_n":60,"min":76,"max":179,"target":"absent","response":"absent","rt":566,"correct":true,"confidence":3},{"trial_n":61,"min":76,"max":179,"target":"present","response":"present","rt":839,"correct":true,"confidence":3},{"trial_n":62,"min":77,"max":178,"target":"absent","response":"absent","rt":953,"correct":true,"confidence":2},{"trial_n":63,"min":77,"max":178,"target":"present","response":"present","rt":1221,"correct":true,"confidence":3},{"trial_n":64,"min":78,"max":177,"target":"absent","response":"present","rt":980,"correct":false,"confidence":2},{"trial_n":65,"min":77,"max":178,"target":"present","response":"present","rt":832,"correct":true,"confidence":2},{"trial_n":66,"min":77,"max":178,"target":"present","response":"present","rt":674,"correct":true,"confidence":4},{"trial_n":67,"min":78,"max":177,"target":"absent","response":"present","rt":813.00000000003,"correct":false,"confidence":3},{"trial_n":68,"min":77,"max":178,"target":"present","response":"present","rt":763.99999999997,"correct":true,"confidence":3},{"trial_n":69,"min":77,"max":178,"target":"present","response":"present","rt":656,"correct":true,"confidence":3},{"trial_n":70,"min":78,"max":177,"target":"absent","response":"present","rt":911,"correct":false,"confidence":3},{"trial_n":71,"min":41,"max":214,"target":"present","response":"present","rt":5367,"correct":true,"confidence":-1},{"trial_n":72,"min":41,"max":214,"target":"present","response":"present","rt":796,"correct":true,"confidence":-1},{"trial_n":73,"min":57,"max":198,"target":"absent","response":"absent","rt":954,"correct":true,"confidence":-1},{"trial_n":74,"min":57,"max":198,"target":"absent","response":"absent","rt":943,"correct":true,"confidence":-1},{"trial_n":75,"min":73,"max":182,"target":"present","response":"absent","rt":1670,"correct":false,"confidence":-1},{"trial_n":76,"min":57,"max":198,"target":"absent","response":"absent","rt":1783,"correct":true,"confidence":-1},{"trial_n":77,"min":57,"max":198,"target":"absent","response":"present","rt":852,"correct":false,"confidence":-1},{"trial_n":78,"min":41,"max":214,"target":"absent","response":"absent","rt":1012,"correct":true,"confidence":-1},{"trial_n":79,"min":41,"max":214,"target":"absent","response":"absent","rt":819,"correct":true,"confidence":-1},{"trial_n":80,"min":57,"max":198,"target":"present","response":"present","rt":801,"correct":true,"confidence":-1},{"trial_n":81,"min":57,"max":198,"target":"absent","response":"present","rt":1125,"correct":false,"confidence":-1},{"trial_n":82,"min":49,"max":206,"target":"absent","response":"absent","rt":873.99999999994,"correct":true,"confidence":-1},{"trial_n":83,"min":49,"max":206,"target":"present","response":"present","rt":860.00000000006,"correct":true,"confidence":-1},{"trial_n":84,"min":57,"max":198,"target":"absent","response":"absent","rt":871,"correct":true,"confidence":-1},{"trial_n":85,"min":57,"max":198,"target":"absent","response":"absent","rt":848,"correct":true,"confidence":-1},{"trial_n":86,"min":65,"max":190,"target":"absent","response":"absent","rt":799,"correct":true,"confidence":-1},{"trial_n":87,"min":65,"max":190,"target":"present","response":"present","rt":752,"correct":true,"confidence":-1},{"trial_n":88,"min":73,"max":182,"target":"present","response":"present","rt":1048,"correct":true,"confidence":-1},{"trial_n":89,"min":73,"max":182,"target":"absent","response":"absent","rt":784,"correct":true,"confidence":-1},{"trial_n":90,"min":81,"max":174,"target":"present","response":"absent","rt":878,"correct":false,"confidence":-1},{"trial_n":91,"min":77,"max":178,"target":"present","response":"present","rt":1480,"correct":true,"confidence":3},{"trial_n":92,"min":77,"max":178,"target":"absent","response":"present","rt":1785,"correct":false,"confidence":1},{"trial_n":93,"min":73,"max":182,"target":"absent","response":"absent","rt":938,"correct":true,"confidence":2},{"trial_n":94,"min":73,"max":182,"target":"present","response":"present","rt":668,"correct":true,"confidence":2},{"trial_n":95,"min":77,"max":178,"target":"present","response":"present","rt":718,"correct":true,"confidence":2},{"trial_n":96,"min":77,"max":178,"target":"absent","response":"absent","rt":803,"correct":true,"confidence":2},{"trial_n":97,"min":81,"max":174,"target":"present","response":"present","rt":786,"correct":true,"confidence":2},{"trial_n":98,"min":81,"max":174,"target":"absent","response":"present","rt":830,"correct":false,"confidence":2},{"trial_n":99,"min":77,"max":178,"target":"absent","response":"absent","rt":952,"correct":true,"confidence":2},{"trial_n":100,"min":77,"max":178,"target":"absent","response":"present","rt":902,"correct":false,"confidence":2},{"trial_n":101,"min":75,"max":180,"target":"present","response":"present","rt":952.99999999994,"correct":true,"confidence":3},{"trial_n":102,"min":75,"max":180,"target":"present","response":"present","rt":902,"correct":true,"confidence":3},{"trial_n":103,"min":77,"max":178,"target":"absent","response":"absent","rt":887,"correct":true,"confidence":3},{"trial_n":104,"min":77,"max":178,"target":"present","response":"present","rt":751,"correct":true,"confidence":3},{"trial_n":105,"min":79,"max":176,"target":"absent","response":"absent","rt":869,"correct":true,"confidence":2},{"trial_n":106,"min":79,"max":176,"target":"present","response":"present","rt":835,"correct":true,"confidence":3},{"trial_n":107,"min":81,"max":174,"target":"absent","response":"absent","rt":936,"correct":true,"confidence":1},{"trial_n":108,"min":81,"max":174,"target":"present","response":"present","rt":785,"correct":true,"confidence":3},{"trial_n":109,"min":83,"max":172,"target":"absent","response":"absent","rt":902,"correct":true,"confidence":2},{"trial_n":110,"min":83,"max":172,"target":"present","response":"present","rt":730.99999999994,"correct":true,"confidence":3},{"trial_n":111,"min":84,"max":171,"target":"absent","response":"absent","rt":955,"correct":true,"confidence":1},{"trial_n":112,"min":84,"max":171,"target":"absent","response":"absent","rt":820,"correct":true,"confidence":1},{"trial_n":113,"min":85,"max":170,"target":"absent","response":"present","rt":1343,"correct":false,"confidence":1},{"trial_n":114,"min":84,"max":171,"target":"absent","response":"absent","rt":796,"correct":true,"confidence":1},{"trial_n":115,"min":84,"max":171,"target":"present","response":"present","rt":764,"correct":true,"confidence":1},{"trial_n":116,"min":85,"max":170,"target":"present","response":"present","rt":816.99999999994,"correct":true,"confidence":1},{"trial_n":117,"min":85,"max":170,"target":"absent","response":"present","rt":1002,"correct":false,"confidence":1},{"trial_n":118,"min":84,"max":171,"target":"absent","response":"present","rt":854,"correct":false,"confidence":1},{"trial_n":119,"min":83,"max":172,"target":"absent","response":"present","rt":1098.9999999999,"correct":false,"confidence":1},{"trial_n":120,"min":82,"max":173,"target":"present","response":"present","rt":818,"correct":true,"confidence":1},{"trial_n":121,"min":82,"max":173,"target":"present","response":"absent","rt":1049.0000000001,"correct":false,"confidence":1},{"trial_n":122,"min":81,"max":174,"target":"present","response":"present","rt":916,"correct":true,"confidence":2},{"trial_n":123,"min":81,"max":174,"target":"present","response":"present","rt":853,"correct":true,"confidence":2},{"trial_n":124,"min":82,"max":173,"target":"absent","response":"present","rt":900.99999999994,"correct":false,"confidence":2},{"trial_n":125,"min":81,"max":174,"target":"absent","response":"absent","rt":883.99999999994,"correct":true,"confidence":1},{"trial_n":126,"min":81,"max":174,"target":"absent","response":"absent","rt":986.00000000006,"correct":true,"confidence":1},{"trial_n":127,"min":82,"max":173,"target":"absent","response":"absent","rt":900,"correct":true,"confidence":1},{"trial_n":128,"min":82,"max":173,"target":"present","response":"absent","rt":870.00000000006,"correct":false,"confidence":1},{"trial_n":129,"min":81,"max":174,"target":"present","response":"present","rt":1231,"correct":true,"confidence":1},{"trial_n":130,"min":81,"max":174,"target":"present","response":"present","rt":649.99999999994,"correct":true,"confidence":1},{"trial_n":131,"min":82,"max":173,"target":"present","response":"present","rt":1036,"correct":true,"confidence":1},{"trial_n":132,"min":82,"max":173,"target":"present","response":"present","rt":915.00000000012,"correct":true,"confidence":2},{"trial_n":133,"min":83,"max":172,"target":"present","response":"present","rt":1283.9999999999,"correct":true,"confidence":1},{"trial_n":134,"min":83,"max":172,"target":"absent","response":"present","rt":855,"correct":false,"confidence":1},{"trial_n":135,"min":82,"max":173,"target":"present","response":"present","rt":933.99999999994,"correct":true,"confidence":1},{"trial_n":136,"min":82,"max":173,"target":"present","response":"present","rt":640,"correct":true,"confidence":1},{"trial_n":137,"min":83,"max":172,"target":"present","response":"present","rt":913,"correct":true,"confidence":1},{"trial_n":138,"min":83,"max":172,"target":"present","response":"absent","rt":1021,"correct":false,"confidence":1},{"trial_n":139,"min":82,"max":173,"target":"present","response":"present","rt":1478,"correct":true,"confidence":1},{"trial_n":140,"min":82,"max":173,"target":"present","response":"present","rt":835,"correct":true,"confidence":1}]