[{"trial_n":1,"n_dots":4.25,"target":"right","response":"left","rt":1637.3000001907,"correct":false,"confidence":-1},{"trial_n":2,"n_dots":4.25,"target":"left","response":"left","rt":768.39999961853,"correct":true,"confidence":-1},{"trial_n":3,"n_dots":4.25,"target":"right","response":"right","rt":552.60000038147,"correct":true,"confidence":-1},{"trial_n":4,"n_dots":3.85,"target":"right","response":"right","rt":615,"correct":true,"confidence":-1},{"trial_n":5,"n_dots":3.85,"target":"right","response":"right","rt":610.9000005722,"correct":true,"confidence":-1},{"trial_n":6,"n_dots":3.45,"target":"right","response":"left","rt":457.89999961853,"correct":false,"confidence":-1},{"trial_n":7,"n_dots":3.85,"target":"right","response":"right","rt":656.30000019073,"correct":true,"confidence":-1},{"trial_n":8,"n_dots":3.85,"target":"right","response":"right","rt":606.19999980927,"correct":true,"confidence":-1},{"trial_n":9,"n_dots":3.65,"target":"right","response":"right","rt":621.30000019073,"correct":true,"confidence":-1},{"trial_n":10,"n_dots":3.65,"target":"right","response":"right","rt":771.19999980927,"correct":true,"confidence":-1},{"trial_n":11,"n_dots":3.45,"target":"left","response":"left","rt":281.5,"correct":true,"confidence":-1},{"trial_n":12,"n_dots":3.45,"target":"left","response":"right","rt":1054.5,"correct":false,"confidence":-1},{"trial_n":13,"n_dots":3.55,"target":"left","response":"left","rt":1732.0999994278,"correct":true,"confidence":-1},{"trial_n":14,"n_dots":3.55,"target":"left","response":"left","rt":1058.5,"correct":true,"confidence":-1},{"trial_n":15,"n_dots":3.45,"target":"right","response":"left","rt":631.60000038147,"correct":false,"confidence":-1},{"trial_n":16,"n_dots":3.55,"target":"left","response":"left","rt":602.4000005722,"correct":true,"confidence":-1},{"trial_n":17,"n_dots":3.55,"target":"left","response":"right","rt":671.20000076294,"correct":false,"confidence":-1},{"trial_n":18,"n_dots":3.65,"target":"right","response":"right","rt":554.39999961853,"correct":true,"confidence":-1},{"trial_n":19,"n_dots":3.65,"target":"left","response":"left","rt":699.19999980927,"correct":true,"confidence":-1},{"trial_n":20,"n_dots":3.55,"target":"left","response":"left","rt":763.10000038147,"correct":true,"confidence":-1},{"trial_n":21,"n_dots":3.55,"target":"right","response":"right","rt":621.0999994278,"correct":true,"confidence":3},{"trial_n":22,"n_dots":3.45,"target":"left","response":"left","rt":621.10000038147,"correct":true,"confidence":4},{"trial_n":23,"n_dots":3.45,"target":"left","response":"right","rt":781.69999980927,"correct":false,"confidence":2},{"trial_n":24,"n_dots":3.55,"target":"left","response":"left","rt":608.30000019073,"correct":true,"confidence":4},{"trial_n":25,"n_dots":3.55,"target":"right","response":"right","rt":1300.8999996185,"correct":true,"confidence":2},{"trial_n":26,"n_dots":3.45,"target":"left","response":"left","rt":670.80000019073,"correct":true,"confidence":3},{"trial_n":27,"n_dots":3.45,"target":"right","response":"right","rt":1396.8999996185,"correct":true,"confidence":2},{"trial_n":28,"n_dots":3.35,"target":"left","response":"left","rt":590.30000019073,"correct":true,"confidence":4},{"trial_n":29,"n_dots":3.35,"target":"left","response":"left","rt":538.0999994278,"correct":true,"confidence":4},{"trial_n":30,"n_dots":3.25,"target":"left","response":"left","rt":654.60000038147,"correct":true,"confidence":4},{"trial_n":31,"n_dots":3.25,"target":"right","response":"left","rt":654.60000038147,"correct":false,"confidence":3},{"trial_n":32,"n_dots":3.35,"target":"right","response":"left","rt":571.10000038147,"correct":false,"confidence":3},{"trial_n":33,"n_dots":3.45,"target":"left","response":"left","rt":1213.5,"correct":true,"confidence":2},{"trial_n":34,"n_dots":3.45,"target":"right","response":"right","rt":875.5,"correct":true,"confidence":2},{"trial_n":35,"n_dots":3.35,"target":"left","response":"left","rt":508,"correct":true,"confidence":3},{"trial_n":36,"n_dots":3.35,"target":"right","response":"right","rt":3298.3000001907,"correct":true,"confidence":2},{"trial_n":37,"n_dots":3.25,"target":"left","response":"left","rt":613,"correct":true,"confidence":4},{"trial_n":38,"n_dots":3.25,"target":"right","response":"left","rt":894.39999961853,"correct":false,"confidence":2},{"trial_n":39,"n_dots":3.35,"target":"right","response":"left","rt":821.0999994278,"correct":false,"confidence":1},{"trial_n":40,"n_dots":3.45,"target":"right","response":"right","rt":1021.3999996185,"correct":true,"confidence":2},{"trial_n":41,"n_dots":3.45,"target":"right","response":"right","rt":458.30000019073,"correct":true,"confidence":4},{"trial_n":42,"n_dots":3.35,"target":"right","response":"right","rt":909.69999980927,"correct":true,"confidence":3},{"trial_n":43,"n_dots":3.35,"target":"left","response":"left","rt":738,"correct":true,"confidence":2},{"trial_n":44,"n_dots":3.25,"target":"right","response":"right","rt":531.80000019073,"correct":true,"confidence":3},{"trial_n":45,"n_dots":3.25,"target":"right","response":"right","rt":669.0999994278,"correct":true,"confidence":3},{"trial_n":46,"n_dots":3.15,"target":"left","response":"left","rt":742,"correct":true,"confidence":2},{"trial_n":47,"n_dots":3.15,"target":"left","response":"left","rt":724.39999961853,"correct":true,"confidence":3},{"trial_n":48,"n_dots":3.05,"target":"right","response":"left","rt":787.9000005722,"correct":false,"confidence":2},{"trial_n":49,"n_dots":3.15,"target":"left","response":"left","rt":808.69999980927,"correct":true,"confidence":3},{"trial_n":50,"n_dots":3.15,"target":"left","response":"left","rt":679.70000076294,"correct":true,"confidence":4},{"trial_n":51,"n_dots":3.05,"target":"left","response":"left","rt":704.5,"correct":true,"confidence":4},{"trial_n":52,"n_dots":3.05,"target":"right","response":"right","rt":604.5999994278,"correct":true,"confidence":3},{"trial_n":53,"n_dots":2.95,"target":"right","response":"right","rt":651.80000019073,"correct":true,"confidence":4},{"trial_n":54,"n_dots":2.95,"target":"left","response":"left","rt":1854.5,"correct":true,"confidence":1},{"trial_n":55,"n_dots":2.85,"target":"right","response":"right","rt":1554.8000001907,"correct":true,"confidence":2},{"trial_n":56,"n_dots":2.85,"target":"left","response":"left","rt":658.9000005722,"correct":true,"confidence":3},{"trial_n":57,"n_dots":2.75,"target":"right","response":"left","rt":1175.6000003815,"correct":false,"confidence":2},{"trial_n":58,"n_dots":2.85,"target":"right","response":"left","rt":1209.5,"correct":false,"confidence":1},{"trial_n":59,"n_dots":2.95,"target":"right","response":"right","rt":821.9000005722,"correct":true,"confidence":2},{"trial_n":60,"n_dots":2.95,"target":"left","response":"left","rt":638,"correct":true,"confidence":4},{"trial_n":61,"n_dots":2.85,"target":"right","response":"right","rt":648.30000019073,"correct":true,"confidence":3},{"trial_n":62,"n_dots":2.85,"target":"left","response":"left","rt":471.29999923706,"correct":true,"confidence":4},{"trial_n":63,"n_dots":2.75,"target":"left","response":"left","rt":821.20000076294,"correct":true,"confidence":2},{"trial_n":64,"n_dots":2.75,"target":"left","response":"left","rt":789.80000019073,"correct":true,"confidence":4},{"trial_n":65,"n_dots":2.65,"target":"right","response":"right","rt":971.19999980927,"correct":true,"confidence":2},{"trial_n":66,"n_dots":2.65,"target":"right","response":"left","rt":559,"correct":false,"confidence":3},{"trial_n":67,"n_dots":2.75,"target":"right","response":"right","rt":1288.1999998093,"correct":true,"confidence":2},{"trial_n":68,"n_dots":2.75,"target":"right","response":"left","rt":721.19999980927,"correct":false,"confidence":2},{"trial_n":69,"n_dots":2.85,"target":"right","response":"right","rt":539,"correct":true,"confidence":4},{"trial_n":70,"n_dots":2.85,"target":"left","response":"left","rt":680,"correct":true,"confidence":3},{"trial_n":71,"n_dots":2.75,"target":"left","response":"left","rt":654.4000005722,"correct":true,"confidence":4},{"trial_n":72,"n_dots":2.75,"target":"right","response":"left","rt":1249.5,"correct":false,"confidence":2},{"trial_n":73,"n_dots":2.85,"target":"left","response":"left","rt":745.70000076294,"correct":true,"confidence":3},{"trial_n":74,"n_dots":2.85,"target":"left","response":"right","rt":853.5,"correct":false,"confidence":2},{"trial_n":75,"n_dots":2.95,"target":"right","response":"left","rt":1337.8000001907,"correct":false,"confidence":3},{"trial_n":76,"n_dots":3.05,"target":"left","response":"left","rt":625,"correct":true,"confidence":4},{"trial_n":77,"n_dots":3.05,"target":"right","response":"right","rt":1079.1999998093,"correct":true,"confidence":2},{"trial_n":78,"n_dots":2.95,"target":"left","response":"left","rt":587.80000019073,"correct":true,"confidence":4},{"trial_n":79,"n_dots":2.95,"target":"right","response":"left","rt":1198.0999994278,"correct":false,"confidence":3},{"trial_n":80,"n_dots":3.05,"target":"left","response":"left","rt":1079,"correct":true,"confidence":3},{"trial_n":81,"n_dots":3.05,"target":"left","response":"left","rt":1098.5,"correct":true,"confidence":2},{"trial_n":82,"n_dots":2.95,"target":"left","response":"left","rt":613.19999980927,"correct":true,"confidence":3},{"trial_n":83,"n_dots":2.95,"target":"left","response":"left","rt":712.0999994278,"correct":true,"confidence":3},{"trial_n":84,"n_dots":2.85,"target":"right","response":"right","rt":716.69999980927,"correct":true,"confidence":2},{"trial_n":85,"n_dots":2.85,"target":"right","response":"left","rt":995.30000019073,"correct":false,"confidence":3},{"trial_n":86,"n_dots":2.95,"target":"right","response":"right","rt":774.80000019073,"correct":true,"confidence":2},{"trial_n":87,"n_dots":2.95,"target":"left","response":"left","rt":921.30000019073,"correct":true,"confidence":4},{"trial_n":88,"n_dots":2.85,"target":"right","response":"right","rt":609.69999980927,"correct":true,"confidence":5},{"trial_n":89,"n_dots":2.85,"target":"left","response":"left","rt":681,"correct":true,"confidence":2},{"trial_n":90,"n_dots":2.75,"target":"left","response":"left","rt":1137.9000005722,"correct":true,"confidence":4},{"trial_n":91,"n_dots":2.75,"target":"right","response":"right","rt":551.20000076294,"correct":true,"confidence":4},{"trial_n":92,"n_dots":2.65,"target":"left","response":"left","rt":748.39999961853,"correct":true,"confidence":3},{"trial_n":93,"n_dots":2.65,"target":"right","response":"right","rt":1184.4000005722,"correct":true,"confidence":2},{"trial_n":94,"n_dots":2.55,"target":"left","response":"left","rt":687.80000019073,"correct":true,"confidence":4},{"trial_n":95,"n_dots":2.55,"target":"right","response":"left","rt":837.80000019073,"correct":false,"confidence":3},{"trial_n":96,"n_dots":2.65,"target":"right","response":"left","rt":663,"correct":false,"confidence":3},{"trial_n":97,"n_dots":2.75,"target":"right","response":"right","rt":1804.8000001907,"correct":true,"confidence":2},{"trial_n":98,"n_dots":2.75,"target":"left","response":"left","rt":687.80000019073,"correct":true,"confidence":4},{"trial_n":99,"n_dots":2.65,"target":"left","response":"left","rt":659.39999961853,"correct":true,"confidence":4},{"trial_n":100,"n_dots":2.65,"target":"left","response":"left","rt":1175.5,"correct":true,"confidence":1},{"trial_n":101,"n_dots":2.55,"target":"left","response":"left","rt":819.0999994278,"correct":true,"confidence":2},{"trial_n":102,"n_dots":2.55,"target":"right","response":"right","rt":637.9000005722,"correct":true,"confidence":4},{"trial_n":103,"n_dots":2.45,"target":"left","response":"left","rt":598.5999994278,"correct":true,"confidence":5},{"trial_n":104,"n_dots":2.45,"target":"left","response":"left","rt":473.30000019073,"correct":true,"confidence":5},{"trial_n":105,"n_dots":2.35,"target":"left","response":"left","rt":1038,"correct":true,"confidence":3},{"trial_n":106,"n_dots":2.35,"target":"left","response":"left","rt":615,"correct":true,"confidence":4},{"trial_n":107,"n_dots":2.25,"target":"left","response":"right","rt":604.60000038147,"correct":false,"confidence":4},{"trial_n":108,"n_dots":2.35,"target":"left","response":"left","rt":687.80000019073,"correct":true,"confidence":3},{"trial_n":109,"n_dots":2.35,"target":"left","response":"left","rt":1191.2999992371,"correct":true,"confidence":3},{"trial_n":110,"n_dots":2.25,"target":"right","response":"right","rt":954.5,"correct":true,"confidence":2},{"trial_n":111,"n_dots":2.25,"target":"left","response":"left","rt":687.80000019073,"correct":true,"confidence":2},{"trial_n":112,"n_dots":2.15,"target":"right","response":"left","rt":2321.4000005722,"correct":false,"confidence":1},{"trial_n":113,"n_dots":2.25,"target":"right","response":"left","rt":1226.5,"correct":false,"confidence":1},{"trial_n":114,"n_dots":2.35,"target":"right","response":"left","rt":1054.3999996185,"correct":false,"confidence":2},{"trial_n":115,"n_dots":2.45,"target":"right","response":"right","rt":1114,"correct":true,"confidence":3},{"trial_n":116,"n_dots":2.45,"target":"right","response":"right","rt":1104.6999998093,"correct":true,"confidence":3},{"trial_n":117,"n_dots":2.35,"target":"right","response":"left","rt":738,"correct":false,"confidence":2},{"trial_n":118,"n_dots":2.45,"target":"left","response":"left","rt":504.70000076294,"correct":true,"confidence":4},{"trial_n":119,"n_dots":2.45,"target":"right","response":"left","rt":954.69999980927,"correct":false,"confidence":3},{"trial_n":120,"n_dots":2.55,"target":"left","response":"left","rt":524,"correct":true,"confidence":4}]