[{"trial_n":1,"n_dots":4.25,"target":"left","response":"right","rt":3645,"correct":false,"confidence":-1},{"trial_n":2,"n_dots":4.25,"target":"left","response":"left","rt":762,"correct":true,"confidence":-1},{"trial_n":3,"n_dots":4.25,"target":"left","response":"right","rt":324.00000000001,"correct":false,"confidence":-1},{"trial_n":4,"n_dots":4.65,"target":"left","response":"left","rt":513,"correct":true,"confidence":-1},{"trial_n":5,"n_dots":4.65,"target":"left","response":"left","rt":492.00000000001,"correct":true,"confidence":-1},{"trial_n":6,"n_dots":4.25,"target":"right","response":"right","rt":125,"correct":true,"confidence":-1},{"trial_n":7,"n_dots":4.25,"target":"right","response":"right","rt":274.99999999999,"correct":true,"confidence":-1},{"trial_n":8,"n_dots":4.05,"target":"left","response":"right","rt":744,"correct":false,"confidence":-1},{"trial_n":9,"n_dots":4.25,"target":"left","response":"left","rt":439.99999999999,"correct":true,"confidence":-1},{"trial_n":10,"n_dots":4.25,"target":"left","response":"left","rt":676,"correct":true,"confidence":-1},{"trial_n":11,"n_dots":4.05,"target":"left","response":"left","rt":257.99999999999,"correct":true,"confidence":-1},{"trial_n":12,"n_dots":4.05,"target":"left","response":"left","rt":823,"correct":true,"confidence":-1},{"trial_n":13,"n_dots":3.95,"target":"left","response":"left","rt":96,"correct":true,"confidence":-1},{"trial_n":14,"n_dots":3.95,"target":"right","response":"left","rt":2223,"correct":false,"confidence":-1},{"trial_n":15,"n_dots":4.05,"target":"left","response":"right","rt":212,"correct":false,"confidence":-1},{"trial_n":16,"n_dots":4.15,"target":"left","response":"left","rt":473,"correct":true,"confidence":-1},{"trial_n":17,"n_dots":4.15,"target":"right","response":"left","rt":-110505,"correct":false,"confidence":-1},{"trial_n":18,"n_dots":4.25,"target":"right","response":"right","rt":-115624,"correct":true,"confidence":-1},{"trial_n":19,"n_dots":4.25,"target":"right","response":"right","rt":-117806,"correct":true,"confidence":-1},{"trial_n":20,"n_dots":4.15,"target":"left","response":"left","rt":-120376,"correct":true,"confidence":-1},{"trial_n":21,"n_dots":4.15,"target":"right","response":"right","rt":-124408,"correct":true,"confidence":1},{"trial_n":22,"n_dots":4.05,"target":"right","response":"right","rt":-129276,"correct":true,"confidence":1},{"trial_n":23,"n_dots":4.05,"target":"right","response":"right","rt":-131653,"correct":true,"confidence":1},{"trial_n":24,"n_dots":3.95,"target":"left","response":"left","rt":-134059,"correct":true,"confidence":1},{"trial_n":25,"n_dots":3.95,"target":"left","response":"left","rt":-136720,"correct":true,"confidence":1},{"trial_n":26,"n_dots":3.85,"target":"right","response":"right","rt":-139503,"correct":true,"confidence":1},{"trial_n":27,"n_dots":3.85,"target":"left","response":"left","rt":-142420,"correct":true,"confidence":1},{"trial_n":28,"n_dots":3.75,"target":"left","response":"right","rt":-144871,"correct":false,"confidence":1},{"trial_n":29,"n_dots":3.85,"target":"left","response":"left","rt":-147419,"correct":true,"confidence":1},{"trial_n":30,"n_dots":3.85,"target":"left","response":"left","rt":-149902,"correct":true,"confidence":1},{"trial_n":31,"n_dots":3.75,"target":"right","response":"right","rt":-152421,"correct":true,"confidence":1},{"trial_n":32,"n_dots":3.75,"target":"right","response":"right","rt":-154618,"correct":true,"confidence":1},{"trial_n":33,"n_dots":3.65,"target":"right","response":"right","rt":-157693,"correct":true,"confidence":1},{"trial_n":34,"n_dots":3.65,"target":"right","response":"right","rt":-160368,"correct":true,"confidence":1},{"trial_n":35,"n_dots":3.55,"target":"right","response":"left","rt":-162803,"correct":false,"confidence":1},{"trial_n":36,"n_dots":3.65,"target":"right","response":"right","rt":-165351,"correct":true,"confidence":1},{"trial_n":37,"n_dots":3.65,"target":"left","response":"left","rt":-167557,"correct":true,"confidence":1},{"trial_n":38,"n_dots":3.55,"target":"left","response":"left","rt":-170257,"correct":true,"confidence":1},{"trial_n":39,"n_dots":3.55,"target":"left","response":"right","rt":-172767,"correct":false,"confidence":1},{"trial_n":40,"n_dots":3.65,"target":"right","response":"right","rt":-175350,"correct":true,"confidence":1},{"trial_n":41,"n_dots":3.65,"target":"right","response":"right","rt":-180292,"correct":true,"confidence":1},{"trial_n":42,"n_dots":3.55,"target":"right","response":"right","rt":-182555,"correct":true,"confidence":1},{"trial_n":43,"n_dots":3.55,"target":"left","response":"left","rt":-185568,"correct":true,"confidence":1},{"trial_n":44,"n_dots":3.45,"target":"left","response":"left","rt":-188026,"correct":true,"confidence":1},{"trial_n":45,"n_dots":3.45,"target":"right","response":"right","rt":-193336,"correct":true,"confidence":1},{"trial_n":46,"n_dots":3.35,"target":"left","response":"right","rt":-195588,"correct":false,"confidence":1},{"trial_n":47,"n_dots":3.45,"target":"left","response":"left","rt":-197681,"correct":true,"confidence":1},{"trial_n":48,"n_dots":3.45,"target":"left","response":"left","rt":-200600,"correct":true,"confidence":1},{"trial_n":49,"n_dots":3.35,"target":"right","response":"right","rt":-203566,"correct":true,"confidence":1},{"trial_n":50,"n_dots":3.35,"target":"left","response":"left","rt":-206022,"correct":true,"confidence":1},{"trial_n":51,"n_dots":3.25,"target":"right","response":"left","rt":-208397,"correct":false,"confidence":1},{"trial_n":52,"n_dots":3.35,"target":"left","response":"left","rt":-210864,"correct":true,"confidence":1},{"trial_n":53,"n_dots":3.35,"target":"right","response":"right","rt":-213000,"correct":true,"confidence":1},{"trial_n":54,"n_dots":3.25,"target":"right","response":"left","rt":-216130,"correct":false,"confidence":1},{"trial_n":55,"n_dots":3.35,"target":"right","response":"right","rt":-218565,"correct":true,"confidence":1},{"trial_n":56,"n_dots":3.35,"target":"left","response":"left","rt":-221360,"correct":true,"confidence":1},{"trial_n":57,"n_dots":3.25,"target":"right","response":"left","rt":-223580,"correct":false,"confidence":1},{"trial_n":58,"n_dots":3.35,"target":"right","response":"right","rt":-225688,"correct":true,"confidence":1},{"trial_n":59,"n_dots":3.35,"target":"right","response":"left","rt":-228253,"correct":false,"confidence":1},{"trial_n":60,"n_dots":3.45,"target":"right","response":"right","rt":-230747,"correct":true,"confidence":1},{"trial_n":61,"n_dots":3.45,"target":"right","response":"right","rt":-235615,"correct":true,"confidence":1},{"trial_n":62,"n_dots":3.35,"target":"left","response":"left","rt":-238412,"correct":true,"confidence":1},{"trial_n":63,"n_dots":3.35,"target":"right","response":"right","rt":-240865,"correct":true,"confidence":1},{"trial_n":64,"n_dots":3.25,"target":"right","response":"right","rt":-243277,"correct":true,"confidence":1},{"trial_n":65,"n_dots":3.25,"target":"right","response":"right","rt":-246060,"correct":true,"confidence":1},{"trial_n":66,"n_dots":3.15,"target":"right","response":"left","rt":-248518,"correct":false,"confidence":1},{"trial_n":67,"n_dots":3.25,"target":"left","response":"left","rt":-250950,"correct":true,"confidence":1},{"trial_n":68,"n_dots":3.25,"target":"left","response":"left","rt":-253444,"correct":true,"confidence":1},{"trial_n":69,"n_dots":3.15,"target":"left","response":"left","rt":-256143,"correct":true,"confidence":1},{"trial_n":70,"n_dots":3.15,"target":"left","response":"right","rt":-258799,"correct":false,"confidence":1},{"trial_n":71,"n_dots":3.25,"target":"right","response":"right","rt":-261659,"correct":true,"confidence":1},{"trial_n":72,"n_dots":3.25,"target":"right","response":"right","rt":-264233,"correct":true,"confidence":1},{"trial_n":73,"n_dots":3.15,"target":"right","response":"right","rt":-266468,"correct":true,"confidence":1},{"trial_n":74,"n_dots":3.15,"target":"left","response":"left","rt":-269397,"correct":true,"confidence":1},{"trial_n":75,"n_dots":3.05,"target":"left","response":"left","rt":-271675,"correct":true,"confidence":1},{"trial_n":76,"n_dots":3.05,"target":"left","response":"right","rt":-274043,"correct":false,"confidence":1},{"trial_n":77,"n_dots":3.15,"target":"right","response":"right","rt":-276576,"correct":true,"confidence":1},{"trial_n":78,"n_dots":3.15,"target":"right","response":"left","rt":-279094,"correct":false,"confidence":1},{"trial_n":79,"n_dots":3.25,"target":"left","response":"left","rt":-281608,"correct":true,"confidence":1},{"trial_n":80,"n_dots":3.25,"target":"left","response":"left","rt":-284028,"correct":true,"confidence":1},{"trial_n":81,"n_dots":3.15,"target":"left","response":"right","rt":-287792,"correct":false,"confidence":1},{"trial_n":82,"n_dots":3.25,"target":"left","response":"right","rt":-290291,"correct":false,"confidence":1},{"trial_n":83,"n_dots":3.35,"target":"left","response":"left","rt":-292722,"correct":true,"confidence":1},{"trial_n":84,"n_dots":3.35,"target":"left","response":"left","rt":-295089,"correct":true,"confidence":1},{"trial_n":85,"n_dots":3.25,"target":"left","response":"left","rt":-297560,"correct":true,"confidence":1},{"trial_n":86,"n_dots":3.25,"target":"right","response":"left","rt":-299723,"correct":false,"confidence":1},{"trial_n":87,"n_dots":3.35,"target":"left","response":"left","rt":-302057,"correct":true,"confidence":1},{"trial_n":88,"n_dots":3.35,"target":"right","response":"right","rt":-304356,"correct":true,"confidence":1},{"trial_n":89,"n_dots":3.25,"target":"left","response":"left","rt":-306693,"correct":true,"confidence":1},{"trial_n":90,"n_dots":3.25,"target":"right","response":"left","rt":-309161,"correct":false,"confidence":1},{"trial_n":91,"n_dots":3.35,"target":"left","response":"right","rt":-311291,"correct":false,"confidence":1},{"trial_n":92,"n_dots":3.45,"target":"right","response":"right","rt":-313839,"correct":true,"confidence":1},{"trial_n":93,"n_dots":3.45,"target":"right","response":"left","rt":-316155,"correct":false,"confidence":1},{"trial_n":94,"n_dots":3.55,"target":"right","response":"right","rt":-318358,"correct":true,"confidence":1},{"trial_n":95,"n_dots":3.55,"target":"left","response":"right","rt":-320663,"correct":false,"confidence":1},{"trial_n":96,"n_dots":3.65,"target":"right","response":"right","rt":-323579,"correct":true,"confidence":1},{"trial_n":97,"n_dots":3.65,"target":"left","response":"left","rt":-326179,"correct":true,"confidence":1},{"trial_n":98,"n_dots":3.55,"target":"right","response":"right","rt":-328304,"correct":true,"confidence":1},{"trial_n":99,"n_dots":3.55,"target":"right","response":"right","rt":-330638,"correct":true,"confidence":1},{"trial_n":100,"n_dots":3.45,"target":"right","response":"right","rt":-333437,"correct":true,"confidence":1},{"trial_n":101,"n_dots":3.45,"target":"left","response":"left","rt":-349188,"correct":true,"confidence":1},{"trial_n":102,"n_dots":3.35,"target":"right","response":"right","rt":-351503,"correct":true,"confidence":1},{"trial_n":103,"n_dots":3.35,"target":"right","response":"right","rt":-353825,"correct":true,"confidence":1},{"trial_n":104,"n_dots":3.25,"target":"left","response":"left","rt":-356211,"correct":true,"confidence":1},{"trial_n":105,"n_dots":3.25,"target":"right","response":"left","rt":-358642,"correct":false,"confidence":1},{"trial_n":106,"n_dots":3.35,"target":"left","response":"left","rt":-361289,"correct":true,"confidence":1},{"trial_n":107,"n_dots":3.35,"target":"right","response":"right","rt":-363668,"correct":true,"confidence":1},{"trial_n":108,"n_dots":3.25,"target":"right","response":"left","rt":-366422,"correct":false,"confidence":1},{"trial_n":109,"n_dots":3.35,"target":"right","response":"right","rt":-368868,"correct":true,"confidence":1},{"trial_n":110,"n_dots":3.35,"target":"left","response":"left","rt":-371754,"correct":true,"confidence":1},{"trial_n":111,"n_dots":3.25,"target":"left","response":"left","rt":-374302,"correct":true,"confidence":1},{"trial_n":112,"n_dots":3.25,"target":"left","response":"left","rt":-376768,"correct":true,"confidence":1},{"trial_n":113,"n_dots":3.15,"target":"left","response":"right","rt":-379201,"correct":false,"confidence":1},{"trial_n":114,"n_dots":3.25,"target":"right","response":"left","rt":-381586,"correct":false,"confidence":1},{"trial_n":115,"n_dots":3.35,"target":"left","response":"left","rt":-384017,"correct":true,"confidence":1},{"trial_n":116,"n_dots":3.35,"target":"right","response":"right","rt":-386583,"correct":true,"confidence":1},{"trial_n":117,"n_dots":3.25,"target":"left","response":"right","rt":-388853,"correct":false,"confidence":1},{"trial_n":118,"n_dots":3.35,"target":"right","response":"right","rt":-391334,"correct":true,"confidence":1},{"trial_n":119,"n_dots":3.35,"target":"right","response":"left","rt":-393556,"correct":false,"confidence":1},{"trial_n":120,"n_dots":3.45,"target":"right","response":"right","rt":-396485,"correct":true,"confidence":1}]