[{"trial_n":1,"span":8,"encoder":"64620784","distractor":"64620724","target":"present","response":"present","rt":"5338","correct":true,"confidence":-1},{"trial_n":2,"span":8,"encoder":"53588835","distractor":"53518835","target":"present","response":"present","rt":"-196559","correct":true,"confidence":-1},{"trial_n":3,"span":10,"encoder":"1388284571","distractor":"1318284571","target":"absent","response":"absent","rt":"-204185","correct":true,"confidence":-1},{"trial_n":4,"span":10,"encoder":"9779593507","distractor":"9779593537","target":"absent","response":"present","rt":"-212768","correct":false,"confidence":-1},{"trial_n":5,"span":8,"encoder":"86815027","distractor":"86015027","target":"present","response":"present","rt":"-217949","correct":true,"confidence":-1},{"trial_n":6,"span":8,"encoder":"96103265","distractor":"56103265","target":"present","response":"absent","rt":"-223103","correct":false,"confidence":-1},{"trial_n":7,"span":6,"encoder":"976082","distractor":"776082","target":"absent","response":"present","rt":"-226805","correct":false,"confidence":-1},{"trial_n":8,"span":4,"encoder":"6136","distractor":"6736","target":"present","response":"present","rt":"-229564","correct":true,"confidence":-1},{"trial_n":9,"span":4,"encoder":"5720","distractor":"5700","target":"present","response":"present","rt":"-232662","correct":true,"confidence":-1},{"trial_n":10,"span":6,"encoder":"453886","distractor":"453686","target":"absent","response":"present","rt":"-236639","correct":false,"confidence":-1},{"trial_n":11,"span":4,"encoder":"4217","distractor":"4257","target":"absent","response":"absent","rt":"-239280","correct":true,"confidence":-1},{"trial_n":12,"span":4,"encoder":"4912","distractor":"1912","target":"absent","response":"present","rt":"-241977","correct":false,"confidence":-1},{"trial_n":13,"span":3,"encoder":"005","distractor":"007","target":"absent","response":"absent","rt":"-244149","correct":true,"confidence":-1},{"trial_n":14,"span":3,"encoder":"196","distractor":"996","target":"absent","response":"present","rt":"-246981","correct":false,"confidence":-1},{"trial_n":15,"span":2,"encoder":"69","distractor":"79","target":"absent","response":"absent","rt":"-249786","correct":true,"confidence":-1},{"trial_n":16,"span":2,"encoder":"15","distractor":"95","target":"absent","response":"absent","rt":"-253119","correct":true,"confidence":-1},{"trial_n":17,"span":3,"encoder":"507","distractor":"505","target":"absent","response":"present","rt":"-256081","correct":false,"confidence":-1},{"trial_n":18,"span":2,"encoder":"27","distractor":"28","target":"present","response":"absent","rt":"-258002","correct":false,"confidence":-1},{"trial_n":19,"span":2,"encoder":"53","distractor":"55","target":"present","response":"present","rt":"-259857","correct":true,"confidence":-1},{"trial_n":20,"span":2,"encoder":"80","distractor":"20","target":"absent","response":"absent","rt":"-261472","correct":true,"confidence":-1},{"trial_n":21,"span":3,"encoder":"148","distractor":"158","target":"absent","response":"absent","rt":"1896.9999999999","correct":true,"confidence":5},{"trial_n":22,"span":3,"encoder":"422","distractor":"427","target":"absent","response":"absent","rt":"1508","correct":true,"confidence":5},{"trial_n":23,"span":4,"encoder":"5068","distractor":"5088","target":"absent","response":"absent","rt":"2826","correct":true,"confidence":5},{"trial_n":24,"span":4,"encoder":"1103","distractor":"1163","target":"absent","response":"absent","rt":"1580","correct":true,"confidence":5},{"trial_n":25,"span":5,"encoder":"53174","distractor":"53874","target":"present","response":"present","rt":"1848","correct":true,"confidence":5},{"trial_n":26,"span":5,"encoder":"99124","distractor":"99824","target":"present","response":"present","rt":"1879","correct":true,"confidence":5},{"trial_n":27,"span":6,"encoder":"749563","distractor":"749569","target":"absent","response":"absent","rt":"3522","correct":true,"confidence":5},{"trial_n":28,"span":6,"encoder":"242807","distractor":"242802","target":"absent","response":"absent","rt":"2587","correct":true,"confidence":5},{"trial_n":29,"span":7,"encoder":"6135193","distractor":"6135093","target":"present","response":"absent","rt":"3841.0000000001","correct":false,"confidence":1},{"trial_n":30,"span":6,"encoder":"630718","distractor":"930718","target":"present","response":"present","rt":"1936","correct":true,"confidence":4},{"trial_n":31,"span":6,"encoder":"365030","distractor":"364030","target":"absent","response":"absent","rt":"2242","correct":true,"confidence":4},{"trial_n":32,"span":7,"encoder":"0142022","distractor":"8142022","target":"present","response":"present","rt":"2943","correct":true,"confidence":4},{"trial_n":33,"span":7,"encoder":"4911666","distractor":"4951666","target":"present","response":"absent","rt":"6257","correct":false,"confidence":2},{"trial_n":34,"span":6,"encoder":"239525","distractor":"239555","target":"present","response":"absent","rt":"16937","correct":false,"confidence":1},{"trial_n":35,"span":5,"encoder":"64642","distractor":"61642","target":"present","response":"present","rt":"1854","correct":true,"confidence":3},{"trial_n":36,"span":5,"encoder":"72480","distractor":"72580","target":"present","response":"present","rt":"3549.0000000001","correct":true,"confidence":2},{"trial_n":37,"span":6,"encoder":"833275","distractor":"333275","target":"absent","response":"absent","rt":"1519","correct":true,"confidence":5},{"trial_n":38,"span":6,"encoder":"536046","distractor":"536846","target":"present","response":"present","rt":"1937","correct":true,"confidence":2},{"trial_n":39,"span":7,"encoder":"2876724","distractor":"2856724","target":"absent","response":"absent","rt":"3991","correct":true,"confidence":1},{"trial_n":40,"span":7,"encoder":"8897508","distractor":"8697508","target":"present","response":"absent","rt":"3341","correct":false,"confidence":2},{"trial_n":41,"span":6,"encoder":"846403","distractor":"806403","target":"present","response":"present","rt":"2005.9999999999","correct":true,"confidence":3},{"trial_n":42,"span":6,"encoder":"704768","distractor":"774768","target":"absent","response":"present","rt":"1668","correct":false,"confidence":2},{"trial_n":43,"span":5,"encoder":"64236","distractor":"34236","target":"present","response":"present","rt":"1883","correct":true,"confidence":3},{"trial_n":44,"span":5,"encoder":"91217","distractor":"91297","target":"absent","response":"present","rt":"1749","correct":false,"confidence":5},{"trial_n":45,"span":4,"encoder":"7048","distractor":"7148","target":"absent","response":"absent","rt":"1796","correct":true,"confidence":5},{"trial_n":46,"span":4,"encoder":"9142","distractor":"9144","target":"absent","response":"absent","rt":"1463","correct":true,"confidence":5},{"trial_n":47,"span":5,"encoder":"85783","distractor":"25783","target":"absent","response":"absent","rt":"1585","correct":true,"confidence":5},{"trial_n":48,"span":5,"encoder":"19137","distractor":"19037","target":"present","response":"present","rt":"1779","correct":true,"confidence":2},{"trial_n":49,"span":6,"encoder":"238669","distractor":"238649","target":"absent","response":"absent","rt":"3002","correct":true,"confidence":3},{"trial_n":50,"span":6,"encoder":"411415","distractor":"401415","target":"present","response":"present","rt":"2617","correct":true,"confidence":2},{"trial_n":51,"span":7,"encoder":"9494163","distractor":"8494163","target":"absent","response":"present","rt":"2943.0000000001","correct":false,"confidence":3},{"trial_n":52,"span":6,"encoder":"785887","distractor":"085887","target":"absent","response":"absent","rt":"1770.0000000001","correct":true,"confidence":3},{"trial_n":53,"span":6,"encoder":"505232","distractor":"505235","target":"present","response":"present","rt":"2154","correct":true,"confidence":2},{"trial_n":54,"span":7,"encoder":"8749475","distractor":"8741475","target":"absent","response":"absent","rt":"1906.9999999999","correct":true,"confidence":3},{"trial_n":55,"span":7,"encoder":"8033786","distractor":"8033780","target":"present","response":"absent","rt":"4506","correct":false,"confidence":2},{"trial_n":56,"span":6,"encoder":"962610","distractor":"992610","target":"present","response":"present","rt":"2142","correct":true,"confidence":3},{"trial_n":57,"span":6,"encoder":"545784","distractor":"245784","target":"absent","response":"present","rt":"1568","correct":false,"confidence":3},{"trial_n":58,"span":5,"encoder":"72399","distractor":"72349","target":"present","response":"present","rt":"1866","correct":true,"confidence":4},{"trial_n":59,"span":5,"encoder":"88926","distractor":"86926","target":"present","response":"present","rt":"2166","correct":true,"confidence":4},{"trial_n":60,"span":6,"encoder":"063384","distractor":"063324","target":"absent","response":"absent","rt":"2287.0000000001","correct":true,"confidence":3},{"trial_n":61,"span":6,"encoder":"156348","distractor":"156948","target":"present","response":"present","rt":"3046.0000000001","correct":true,"confidence":2},{"trial_n":62,"span":7,"encoder":"9001533","distractor":"9001535","target":"present","response":"present","rt":"1861","correct":true,"confidence":3},{"trial_n":63,"span":7,"encoder":"9165688","distractor":"9165658","target":"absent","response":"present","rt":"2126","correct":false,"confidence":3},{"trial_n":64,"span":6,"encoder":"546341","distractor":"543341","target":"present","response":"absent","rt":"3587","correct":false,"confidence":3},{"trial_n":65,"span":5,"encoder":"94725","distractor":"94775","target":"present","response":"present","rt":"3197.9999999999","correct":true,"confidence":3},{"trial_n":66,"span":5,"encoder":"77193","distractor":"27193","target":"absent","response":"absent","rt":"1619.0000000001","correct":true,"confidence":3},{"trial_n":67,"span":6,"encoder":"762496","distractor":"162496","target":"present","response":"present","rt":"2821","correct":true,"confidence":3},{"trial_n":68,"span":6,"encoder":"051059","distractor":"081059","target":"present","response":"present","rt":"2319.9999999999","correct":true,"confidence":4},{"trial_n":69,"span":7,"encoder":"1772821","distractor":"1782821","target":"present","response":"absent","rt":"2641.9999999999","correct":false,"confidence":1},{"trial_n":70,"span":6,"encoder":"071427","distractor":"071487","target":"present","response":"present","rt":"1737.9999999999","correct":true,"confidence":2},{"trial_n":71,"span":8,"encoder":"37250704","distractor":"32250704","target":"present","response":"present","rt":"3151.0000000001","correct":true,"confidence":-1},{"trial_n":72,"span":8,"encoder":"96914436","distractor":"96714436","target":"present","response":"present","rt":"3478","correct":true,"confidence":-1},{"trial_n":73,"span":9,"encoder":"897921491","distractor":"897931491","target":"absent","response":"absent","rt":"1868","correct":true,"confidence":-1},{"trial_n":74,"span":9,"encoder":"460993684","distractor":"480993684","target":"absent","response":"present","rt":"3116","correct":false,"confidence":-1},{"trial_n":75,"span":8,"encoder":"93670992","distractor":"93770992","target":"present","response":"present","rt":"3213","correct":true,"confidence":-1},{"trial_n":76,"span":8,"encoder":"64098223","distractor":"65098223","target":"absent","response":"present","rt":"4879","correct":false,"confidence":-1},{"trial_n":77,"span":7,"encoder":"1721464","distractor":"1722464","target":"absent","response":"present","rt":"1217","correct":false,"confidence":-1},{"trial_n":78,"span":6,"encoder":"585470","distractor":"585471","target":"present","response":"present","rt":"492","correct":true,"confidence":-1},{"trial_n":79,"span":6,"encoder":"296974","distractor":"296971","target":"present","response":"present","rt":"819","correct":true,"confidence":-1},{"trial_n":80,"span":7,"encoder":"0925264","distractor":"6925264","target":"absent","response":"present","rt":"623.00000000012","correct":false,"confidence":-1},{"trial_n":81,"span":6,"encoder":"899952","distractor":"809952","target":"absent","response":"present","rt":"935","correct":false,"confidence":-1},{"trial_n":82,"span":5,"encoder":"45014","distractor":"95014","target":"present","response":"absent","rt":"914","correct":false,"confidence":-1},{"trial_n":83,"span":4,"encoder":"9566","distractor":"9569","target":"present","response":"present","rt":"1078.0000000001","correct":true,"confidence":-1},{"trial_n":84,"span":4,"encoder":"6223","distractor":"6423","target":"absent","response":"absent","rt":"1712","correct":true,"confidence":-1},{"trial_n":85,"span":5,"encoder":"19526","distractor":"19726","target":"present","response":"present","rt":"2033","correct":true,"confidence":-1},{"trial_n":86,"span":5,"encoder":"10236","distractor":"30236","target":"present","response":"present","rt":"1450","correct":true,"confidence":-1},{"trial_n":87,"span":6,"encoder":"411241","distractor":"411281","target":"absent","response":"absent","rt":"3255","correct":true,"confidence":-1},{"trial_n":88,"span":6,"encoder":"395163","distractor":"195163","target":"absent","response":"absent","rt":"1767","correct":true,"confidence":-1},{"trial_n":89,"span":7,"encoder":"1434145","distractor":"1434147","target":"absent","response":"absent","rt":"2372","correct":true,"confidence":-1},{"trial_n":90,"span":7,"encoder":"1239248","distractor":"1239242","target":"present","response":"present","rt":"1958.0000000001","correct":true,"confidence":-1},{"trial_n":91,"span":8,"encoder":"99815121","distractor":"99815161","target":"absent","response":"absent","rt":"3014.9999999998","correct":true,"confidence":3},{"trial_n":92,"span":8,"encoder":"43193225","distractor":"43193725","target":"present","response":"present","rt":"2728","correct":true,"confidence":1},{"trial_n":93,"span":9,"encoder":"649257934","distractor":"641257934","target":"present","response":"present","rt":"1684","correct":true,"confidence":1},{"trial_n":94,"span":9,"encoder":"131171631","distractor":"171171631","target":"absent","response":"present","rt":"3051","correct":false,"confidence":1},{"trial_n":95,"span":8,"encoder":"81598758","distractor":"81498758","target":"present","response":"present","rt":"2726","correct":true,"confidence":1},{"trial_n":96,"span":8,"encoder":"18550185","distractor":"18550184","target":"absent","response":"absent","rt":"1530","correct":true,"confidence":1},{"trial_n":97,"span":9,"encoder":"572993738","distractor":"572997738","target":"absent","response":"present","rt":"4099.9999999998","correct":false,"confidence":1},{"trial_n":98,"span":8,"encoder":"12814783","distractor":"17814783","target":"present","response":"present","rt":"2979","correct":true,"confidence":1},{"trial_n":99,"span":8,"encoder":"20235319","distractor":"20235313","target":"present","response":"present","rt":"4912","correct":true,"confidence":1},{"trial_n":100,"span":9,"encoder":"458577746","distractor":"458574746","target":"present","response":"present","rt":"1882","correct":true,"confidence":1},{"trial_n":101,"span":9,"encoder":"503490087","distractor":"503890087","target":"present","response":"present","rt":"1237.9999999998","correct":true,"confidence":1},{"trial_n":102,"span":10,"encoder":"1512263708","distractor":"1512260708","target":"present","response":"present","rt":"1971","correct":true,"confidence":1},{"trial_n":103,"span":10,"encoder":"3425683209","distractor":"3425682209","target":"absent","response":"absent","rt":"2386","correct":true,"confidence":1},{"trial_n":104,"span":11,"encoder":"06612056292","distractor":"06012056292","target":"present","response":"present","rt":"13195","correct":true,"confidence":1},{"trial_n":105,"span":11,"encoder":"22738165272","distractor":"22738165274","target":"absent","response":"absent","rt":"1826","correct":true,"confidence":1},{"trial_n":106,"span":12,"encoder":"527809217317","distractor":"557809217317","target":"present","response":"present","rt":"3761","correct":true,"confidence":1},{"trial_n":107,"span":12,"encoder":"965429549498","distractor":"565429549498","target":"present","response":"present","rt":"4628","correct":true,"confidence":1},{"trial_n":108,"span":13,"encoder":"2410811430065","distractor":"2417811430065","target":"absent","response":"present","rt":"5586","correct":false,"confidence":1},{"trial_n":109,"span":12,"encoder":"233401610488","distractor":"233401614488","target":"absent","response":"present","rt":"1646","correct":false,"confidence":1},{"trial_n":110,"span":11,"encoder":"92220743116","distractor":"92220743106","target":"present","response":"absent","rt":"1107.0000000002","correct":false,"confidence":1},{"trial_n":111,"span":10,"encoder":"3956269849","distractor":"3956569849","target":"absent","response":"present","rt":"1208","correct":false,"confidence":1},{"trial_n":112,"span":9,"encoder":"487341757","distractor":"487340757","target":"absent","response":"present","rt":"933","correct":false,"confidence":1},{"trial_n":113,"span":8,"encoder":"10723321","distractor":"10723325","target":"absent","response":"absent","rt":"1579","correct":true,"confidence":1},{"trial_n":114,"span":8,"encoder":"96170302","distractor":"92170302","target":"present","response":"present","rt":"1679","correct":true,"confidence":1},{"trial_n":115,"span":9,"encoder":"308461566","distractor":"708461566","target":"absent","response":"present","rt":"2633","correct":false,"confidence":1},{"trial_n":116,"span":8,"encoder":"71390063","distractor":"71390062","target":"absent","response":"absent","rt":"1912","correct":true,"confidence":1},{"trial_n":117,"span":8,"encoder":"21600185","distractor":"27600185","target":"present","response":"present","rt":"1779","correct":true,"confidence":1},{"trial_n":118,"span":9,"encoder":"871647507","distractor":"871648507","target":"absent","response":"present","rt":"2978","correct":false,"confidence":1},{"trial_n":119,"span":8,"encoder":"80354202","distractor":"80354282","target":"absent","response":"absent","rt":"2049","correct":true,"confidence":1},{"trial_n":120,"span":8,"encoder":"41659656","distractor":"41659606","target":"absent","response":"absent","rt":"6827","correct":true,"confidence":1},{"trial_n":121,"span":9,"encoder":"786923086","distractor":"386923086","target":"present","response":"present","rt":"2200","correct":true,"confidence":1},{"trial_n":122,"span":9,"encoder":"956827483","distractor":"976827483","target":"absent","response":"present","rt":"2882.0000000002","correct":false,"confidence":1},{"trial_n":123,"span":8,"encoder":"80850735","distractor":"80800735","target":"absent","response":"absent","rt":"1312","correct":true,"confidence":1},{"trial_n":124,"span":8,"encoder":"58832431","distractor":"55832431","target":"present","response":"present","rt":"4361","correct":true,"confidence":1},{"trial_n":125,"span":9,"encoder":"183843480","distractor":"183848480","target":"present","response":"present","rt":"1683","correct":true,"confidence":1},{"trial_n":126,"span":9,"encoder":"808974600","distractor":"908974600","target":"absent","response":"present","rt":"2082.0000000002","correct":false,"confidence":1},{"trial_n":127,"span":8,"encoder":"37345444","distractor":"37325444","target":"present","response":"absent","rt":"930","correct":false,"confidence":1},{"trial_n":128,"span":7,"encoder":"7970825","distractor":"7950825","target":"present","response":"present","rt":"1074.9999999998","correct":true,"confidence":1},{"trial_n":129,"span":7,"encoder":"7992509","distractor":"7992309","target":"present","response":"present","rt":"1722.9999999998","correct":true,"confidence":1},{"trial_n":130,"span":8,"encoder":"22030673","distractor":"22000673","target":"present","response":"present","rt":"875","correct":true,"confidence":1},{"trial_n":131,"span":8,"encoder":"30267467","distractor":"60267467","target":"absent","response":"present","rt":"2218","correct":false,"confidence":1},{"trial_n":132,"span":7,"encoder":"8193006","distractor":"8193086","target":"present","response":"present","rt":"2091","correct":true,"confidence":1},{"trial_n":133,"span":7,"encoder":"3818683","distractor":"3818684","target":"absent","response":"absent","rt":"2205","correct":true,"confidence":1},{"trial_n":134,"span":8,"encoder":"32528105","distractor":"32528104","target":"absent","response":"absent","rt":"2311","correct":true,"confidence":1},{"trial_n":135,"span":8,"encoder":"23453553","distractor":"23459553","target":"present","response":"present","rt":"4893","correct":true,"confidence":1},{"trial_n":136,"span":9,"encoder":"597271577","distractor":"592271577","target":"present","response":"present","rt":"6815","correct":true,"confidence":1},{"trial_n":137,"span":9,"encoder":"673718344","distractor":"673717344","target":"present","response":"present","rt":"1467","correct":true,"confidence":1},{"trial_n":138,"span":10,"encoder":"8635843984","distractor":"6635843984","target":"absent","response":"present","rt":"2286.0000000002","correct":false,"confidence":1},{"trial_n":139,"span":9,"encoder":"001007330","distractor":"001107330","target":"present","response":"absent","rt":"4365","correct":false,"confidence":1},{"trial_n":140,"span":8,"encoder":"96644186","distractor":"96604186","target":"absent","response":"present","rt":"2026","correct":false,"confidence":1}]