[{"trial_n":1,"span":8,"encoder":"52060990","distractor":"52070990","target":"present","response":"absent","rt":"3066","correct":false,"confidence":-1},{"trial_n":2,"span":6,"encoder":"365677","distractor":"365672","target":"present","response":"present","rt":"2467","correct":true,"confidence":-1},{"trial_n":3,"span":6,"encoder":"016400","distractor":"014400","target":"absent","response":"absent","rt":"2699.1999999881","correct":true,"confidence":-1},{"trial_n":4,"span":8,"encoder":"92715027","distractor":"92765027","target":"absent","response":"present","rt":"1548.700000003","correct":false,"confidence":-1},{"trial_n":5,"span":6,"encoder":"077658","distractor":"047658","target":"present","response":"absent","rt":"2382.5","correct":false,"confidence":-1},{"trial_n":6,"span":4,"encoder":"2777","distractor":"2877","target":"present","response":"present","rt":"1882.6999999881","correct":true,"confidence":-1},{"trial_n":7,"span":4,"encoder":"0203","distractor":"2203","target":"absent","response":"absent","rt":"2299.099999994","correct":true,"confidence":-1},{"trial_n":8,"span":6,"encoder":"731125","distractor":"031125","target":"absent","response":"present","rt":"1633.400000006","correct":false,"confidence":-1},{"trial_n":9,"span":4,"encoder":"6941","distractor":"6541","target":"absent","response":"present","rt":"1517.6000000089","correct":false,"confidence":-1},{"trial_n":10,"span":2,"encoder":"56","distractor":"59","target":"absent","response":"absent","rt":"1605.5","correct":true,"confidence":-1},{"trial_n":11,"span":2,"encoder":"29","distractor":"39","target":"present","response":"present","rt":"1294.8999999911","correct":true,"confidence":-1},{"trial_n":12,"span":3,"encoder":"017","distractor":"067","target":"absent","response":"absent","rt":"1907.1000000089","correct":true,"confidence":-1},{"trial_n":13,"span":3,"encoder":"746","distractor":"747","target":"absent","response":"absent","rt":"2118.900000006","correct":true,"confidence":-1},{"trial_n":14,"span":4,"encoder":"2899","distractor":"3899","target":"absent","response":"absent","rt":"1823","correct":true,"confidence":-1},{"trial_n":15,"span":4,"encoder":"4302","distractor":"4303","target":"absent","response":"absent","rt":"2080.400000006","correct":true,"confidence":-1},{"trial_n":16,"span":5,"encoder":"65397","distractor":"05397","target":"present","response":"absent","rt":"2376.900000006","correct":false,"confidence":-1},{"trial_n":17,"span":4,"encoder":"3191","distractor":"3181","target":"present","response":"present","rt":"1533.5","correct":true,"confidence":-1},{"trial_n":18,"span":4,"encoder":"5675","distractor":"5635","target":"present","response":"present","rt":"2783.200000003","correct":true,"confidence":-1},{"trial_n":19,"span":5,"encoder":"30361","distractor":"90361","target":"present","response":"present","rt":"1805.200000003","correct":true,"confidence":-1},{"trial_n":20,"span":5,"encoder":"78735","distractor":"78725","target":"present","response":"present","rt":"1803.299999997","correct":true,"confidence":-1},{"trial_n":21,"span":6,"encoder":"356321","distractor":"956321","target":"absent","response":"absent","rt":"3108.599999994","correct":true,"confidence":4},{"trial_n":22,"span":6,"encoder":"761990","distractor":"761930","target":"present","response":"present","rt":"2278.6000000089","correct":true,"confidence":4},{"trial_n":23,"span":7,"encoder":"7828093","distractor":"7868093","target":"present","response":"present","rt":"4569.3999999911","correct":true,"confidence":3},{"trial_n":24,"span":7,"encoder":"0852982","distractor":"0872982","target":"absent","response":"absent","rt":"3082.099999994","correct":true,"confidence":3},{"trial_n":25,"span":8,"encoder":"84625183","distractor":"84825183","target":"absent","response":"absent","rt":"2349.200000003","correct":true,"confidence":4},{"trial_n":26,"span":8,"encoder":"85550655","distractor":"84550655","target":"absent","response":"absent","rt":"4098.799999997","correct":true,"confidence":3},{"trial_n":27,"span":9,"encoder":"210198017","distractor":"210198011","target":"present","response":"present","rt":"2577.700000003","correct":true,"confidence":3},{"trial_n":28,"span":9,"encoder":"708319346","distractor":"708719346","target":"absent","response":"present","rt":"1500.299999997","correct":false,"confidence":4},{"trial_n":29,"span":8,"encoder":"79089400","distractor":"49089400","target":"present","response":"present","rt":"3200.799999997","correct":true,"confidence":3},{"trial_n":30,"span":8,"encoder":"43948603","distractor":"44948603","target":"present","response":"absent","rt":"5613.700000003","correct":false,"confidence":3},{"trial_n":31,"span":7,"encoder":"7226451","distractor":"7222451","target":"present","response":"present","rt":"1780.700000003","correct":true,"confidence":4},{"trial_n":32,"span":7,"encoder":"1552101","distractor":"9552101","target":"absent","response":"present","rt":"6077.799999997","correct":false,"confidence":3},{"trial_n":33,"span":6,"encoder":"775427","distractor":"795427","target":"absent","response":"absent","rt":"1636.200000003","correct":true,"confidence":5},{"trial_n":34,"span":6,"encoder":"205538","distractor":"205578","target":"absent","response":"present","rt":"1917.1000000089","correct":false,"confidence":4},{"trial_n":35,"span":5,"encoder":"67411","distractor":"60411","target":"absent","response":"absent","rt":"1930.700000003","correct":true,"confidence":5},{"trial_n":36,"span":5,"encoder":"87451","distractor":"81451","target":"present","response":"present","rt":"3451.6000000089","correct":true,"confidence":2},{"trial_n":37,"span":6,"encoder":"791945","distractor":"791975","target":"present","response":"present","rt":"2913.5","correct":true,"confidence":4},{"trial_n":38,"span":6,"encoder":"684125","distractor":"624125","target":"present","response":"present","rt":"3533.3999999911","correct":true,"confidence":5},{"trial_n":39,"span":7,"encoder":"1265288","distractor":"1265298","target":"absent","response":"absent","rt":"4933.8999999911","correct":true,"confidence":5},{"trial_n":40,"span":7,"encoder":"8096868","distractor":"8596868","target":"present","response":"present","rt":"6929.599999994","correct":true,"confidence":3},{"trial_n":41,"span":8,"encoder":"96447201","distractor":"96447271","target":"absent","response":"absent","rt":"1632.5","correct":true,"confidence":5},{"trial_n":42,"span":8,"encoder":"53601832","distractor":"03601832","target":"present","response":"present","rt":"2449.700000003","correct":true,"confidence":5},{"trial_n":43,"span":9,"encoder":"967527945","distractor":"967529945","target":"present","response":"absent","rt":"6680.700000003","correct":false,"confidence":4},{"trial_n":44,"span":8,"encoder":"29391007","distractor":"29391017","target":"absent","response":"absent","rt":"2713.400000006","correct":true,"confidence":5},{"trial_n":45,"span":8,"encoder":"48822200","distractor":"49822200","target":"present","response":"present","rt":"3864.299999997","correct":true,"confidence":5},{"trial_n":46,"span":9,"encoder":"792720265","distractor":"792750265","target":"absent","response":"absent","rt":"8365.599999994","correct":true,"confidence":4},{"trial_n":47,"span":9,"encoder":"154481328","distractor":"154461328","target":"present","response":"present","rt":"5219.1999999881","correct":true,"confidence":3},{"trial_n":48,"span":10,"encoder":"1539365896","distractor":"1339365896","target":"present","response":"present","rt":"3633.1000000089","correct":true,"confidence":4},{"trial_n":49,"span":10,"encoder":"3105405686","distractor":"3105403686","target":"absent","response":"absent","rt":"4848.200000003","correct":true,"confidence":3},{"trial_n":50,"span":11,"encoder":"70672751569","distractor":"70672751069","target":"present","response":"present","rt":"2615.6999999881","correct":true,"confidence":3},{"trial_n":51,"span":11,"encoder":"19200807087","distractor":"99200807087","target":"absent","response":"absent","rt":"3598.700000003","correct":true,"confidence":5},{"trial_n":52,"span":12,"encoder":"101140198489","distractor":"101130198489","target":"absent","response":"present","rt":"2118.1999999881","correct":false,"confidence":3},{"trial_n":53,"span":11,"encoder":"50387169174","distractor":"50487169174","target":"present","response":"present","rt":"4498.900000006","correct":true,"confidence":4},{"trial_n":54,"span":11,"encoder":"96970834644","distractor":"96920834644","target":"present","response":"present","rt":"2299.200000003","correct":true,"confidence":4},{"trial_n":55,"span":12,"encoder":"726350345454","distractor":"726355345454","target":"present","response":"present","rt":"7164.200000003","correct":true,"confidence":3},{"trial_n":56,"span":12,"encoder":"173426560403","distractor":"173426060403","target":"present","response":"present","rt":"4414.5","correct":true,"confidence":3},{"trial_n":57,"span":13,"encoder":"1124967501496","distractor":"1124961501496","target":"present","response":"present","rt":"2733.099999994","correct":true,"confidence":3},{"trial_n":58,"span":13,"encoder":"6563105042645","distractor":"6563105042642","target":"present","response":"present","rt":"2248.700000003","correct":true,"confidence":2},{"trial_n":59,"span":14,"encoder":"19161767218535","distractor":"19161767218635","target":"absent","response":"present","rt":"3649.1000000089","correct":false,"confidence":3},{"trial_n":60,"span":13,"encoder":"3289386811372","distractor":"3289386811379","target":"absent","response":"absent","rt":"3536.1000000089","correct":true,"confidence":3},{"trial_n":61,"span":13,"encoder":"0489886939253","distractor":"2489886939253","target":"absent","response":"absent","rt":"3964.400000006","correct":true,"confidence":5},{"trial_n":62,"span":14,"encoder":"91373744497452","distractor":"91373444497452","target":"present","response":"present","rt":"5682.299999997","correct":true,"confidence":3},{"trial_n":63,"span":14,"encoder":"88314322323860","distractor":"88914322323860","target":"absent","response":"present","rt":"3481.799999997","correct":false,"confidence":3},{"trial_n":64,"span":13,"encoder":"2135240635936","distractor":"1135240635936","target":"present","response":"present","rt":"8415.5","correct":true,"confidence":3},{"trial_n":65,"span":13,"encoder":"3526881850100","distractor":"3596881850100","target":"absent","response":"absent","rt":"3298.3999999911","correct":true,"confidence":2},{"trial_n":66,"span":14,"encoder":"06868474834682","distractor":"06868476834682","target":"present","response":"present","rt":"3732.299999997","correct":true,"confidence":3},{"trial_n":67,"span":14,"encoder":"05226288885271","distractor":"05227288885271","target":"absent","response":"present","rt":"7532","correct":false,"confidence":2},{"trial_n":68,"span":13,"encoder":"9397317971916","distractor":"9397317979916","target":"absent","response":"present","rt":"1915.799999997","correct":false,"confidence":3},{"trial_n":69,"span":12,"encoder":"241919252413","distractor":"241959252413","target":"present","response":"present","rt":"5398.5","correct":true,"confidence":4},{"trial_n":70,"span":12,"encoder":"357111319409","distractor":"355111319409","target":"absent","response":"absent","rt":"2697.700000003","correct":true,"confidence":3},{"trial_n":71,"span":8,"encoder":"12502983","distractor":"12502989","target":"present","response":"present","rt":"4282.299999997","correct":true,"confidence":-1},{"trial_n":72,"span":8,"encoder":"82363115","distractor":"82313115","target":"present","response":"present","rt":"3148.799999997","correct":true,"confidence":-1},{"trial_n":73,"span":9,"encoder":"258803311","distractor":"253803311","target":"absent","response":"absent","rt":"3449.3999999911","correct":true,"confidence":-1},{"trial_n":74,"span":9,"encoder":"779297045","distractor":"779257045","target":"absent","response":"present","rt":"5948.6000000089","correct":false,"confidence":-1},{"trial_n":75,"span":8,"encoder":"32822010","distractor":"32422010","target":"present","response":"present","rt":"4183.8999999911","correct":true,"confidence":-1},{"trial_n":76,"span":8,"encoder":"98775481","distractor":"98775381","target":"present","response":"present","rt":"2481.900000006","correct":true,"confidence":-1},{"trial_n":77,"span":9,"encoder":"510001901","distractor":"510001401","target":"absent","response":"absent","rt":"2732","correct":true,"confidence":-1},{"trial_n":78,"span":9,"encoder":"005591528","distractor":"805591528","target":"absent","response":"absent","rt":"3565.5","correct":true,"confidence":-1},{"trial_n":79,"span":10,"encoder":"1273133471","distractor":"1273733471","target":"absent","response":"absent","rt":"7264.599999994","correct":true,"confidence":-1},{"trial_n":80,"span":10,"encoder":"7988227263","distractor":"7983227263","target":"present","response":"present","rt":"5316.1000000089","correct":true,"confidence":-1},{"trial_n":81,"span":11,"encoder":"45704680834","distractor":"45704680034","target":"absent","response":"absent","rt":"2947.8000000119","correct":true,"confidence":-1},{"trial_n":82,"span":11,"encoder":"98061910578","distractor":"98661910578","target":"absent","response":"absent","rt":"5715.599999994","correct":true,"confidence":-1},{"trial_n":83,"span":12,"encoder":"032956486342","distractor":"032956486341","target":"present","response":"absent","rt":"2798.200000003","correct":false,"confidence":-1},{"trial_n":84,"span":11,"encoder":"15294798315","distractor":"15295798315","target":"absent","response":"absent","rt":"3616.700000003","correct":true,"confidence":-1},{"trial_n":85,"span":11,"encoder":"39309615453","distractor":"38309615453","target":"absent","response":"absent","rt":"5581.5","correct":true,"confidence":-1},{"trial_n":86,"span":12,"encoder":"540921257451","distractor":"540921557451","target":"present","response":"absent","rt":"6066.5","correct":false,"confidence":-1},{"trial_n":87,"span":11,"encoder":"87780030652","distractor":"87780038652","target":"present","response":"present","rt":"5815","correct":true,"confidence":-1},{"trial_n":88,"span":11,"encoder":"49574300030","distractor":"49594300030","target":"absent","response":"present","rt":"6929.299999997","correct":false,"confidence":-1},{"trial_n":89,"span":10,"encoder":"6683855101","distractor":"6683855108","target":"absent","response":"absent","rt":"2198.799999997","correct":true,"confidence":-1},{"trial_n":90,"span":10,"encoder":"0196658573","distractor":"0192658573","target":"absent","response":"absent","rt":"3650","correct":true,"confidence":-1},{"trial_n":91,"span":11,"encoder":"86509053855","distractor":"86505053855","target":"present","response":"present","rt":"5280.8999999911","correct":true,"confidence":4},{"trial_n":92,"span":11,"encoder":"46904502628","distractor":"46904502638","target":"present","response":"present","rt":"7130.1000000089","correct":true,"confidence":4},{"trial_n":93,"span":12,"encoder":"552963550715","distractor":"552963520715","target":"present","response":"present","rt":"14362.700000003","correct":true,"confidence":3},{"trial_n":94,"span":12,"encoder":"193188712994","distractor":"193188012994","target":"absent","response":"absent","rt":"6997.900000006","correct":true,"confidence":4},{"trial_n":95,"span":13,"encoder":"6477638340751","distractor":"6477638346751","target":"absent","response":"absent","rt":"2933.200000003","correct":true,"confidence":5},{"trial_n":96,"span":13,"encoder":"6551492482782","distractor":"6951492482782","target":"present","response":"absent","rt":"18146.699999988","correct":false,"confidence":2},{"trial_n":97,"span":12,"encoder":"547797877815","distractor":"847797877815","target":"absent","response":"absent","rt":"3473.5","correct":true,"confidence":5},{"trial_n":98,"span":12,"encoder":"021154612238","distractor":"021194612238","target":"absent","response":"absent","rt":"7902.5","correct":true,"confidence":1},{"trial_n":99,"span":13,"encoder":"2826480941558","distractor":"2826481941558","target":"absent","response":"absent","rt":"10414.799999997","correct":true,"confidence":5},{"trial_n":100,"span":13,"encoder":"7204214373012","distractor":"7204214373052","target":"present","response":"present","rt":"2316.5","correct":true,"confidence":5},{"trial_n":101,"span":14,"encoder":"84017965515243","distractor":"84013965515243","target":"present","response":"present","rt":"17896.600000009","correct":true,"confidence":2},{"trial_n":102,"span":14,"encoder":"00937017351390","distractor":"00937047351390","target":"present","response":"present","rt":"4349.200000003","correct":true,"confidence":4},{"trial_n":103,"span":15,"encoder":"261292358747667","distractor":"261292358847667","target":"present","response":"absent","rt":"16714.399999991","correct":false,"confidence":2},{"trial_n":104,"span":14,"encoder":"13559335564479","distractor":"13559335564449","target":"present","response":"present","rt":"3166.1999999881","correct":true,"confidence":4},{"trial_n":105,"span":14,"encoder":"60155068650497","distractor":"60155068650397","target":"present","response":"present","rt":"3516","correct":true,"confidence":4},{"trial_n":106,"span":15,"encoder":"645843955289461","distractor":"665843955289461","target":"absent","response":"present","rt":"3168","correct":false,"confidence":3},{"trial_n":107,"span":14,"encoder":"91013804860716","distractor":"91013804850716","target":"present","response":"present","rt":"17146.5","correct":true,"confidence":3},{"trial_n":108,"span":14,"encoder":"65759843289490","distractor":"65559843289490","target":"present","response":"present","rt":"15713.200000003","correct":true,"confidence":3},{"trial_n":109,"span":15,"encoder":"446212864471558","distractor":"446212860471558","target":"present","response":"present","rt":"3147.099999994","correct":true,"confidence":4},{"trial_n":110,"span":15,"encoder":"957184516028249","distractor":"957188516028249","target":"present","response":"absent","rt":"10362.600000009","correct":false,"confidence":2},{"trial_n":111,"span":14,"encoder":"86238917239220","distractor":"86238917239260","target":"absent","response":"absent","rt":"24463.200000003","correct":true,"confidence":5},{"trial_n":112,"span":14,"encoder":"64447447562802","distractor":"24447447562802","target":"absent","response":"absent","rt":"10580.899999991","correct":true,"confidence":4},{"trial_n":113,"span":15,"encoder":"229997827228135","distractor":"229997327228135","target":"absent","response":"absent","rt":"11564.400000006","correct":true,"confidence":4},{"trial_n":114,"span":15,"encoder":"695308716585711","distractor":"695308716585781","target":"present","response":"present","rt":"1549.900000006","correct":true,"confidence":5},{"trial_n":115,"span":16,"encoder":"3687750339983283","distractor":"3687753339983283","target":"absent","response":"absent","rt":"2548.799999997","correct":true,"confidence":5},{"trial_n":116,"span":16,"encoder":"9749343881376000","distractor":"9749363881376000","target":"present","response":"present","rt":"13497","correct":true,"confidence":3},{"trial_n":117,"span":17,"encoder":"05019096128108557","distractor":"05019996128108557","target":"present","response":"present","rt":"5714.900000006","correct":true,"confidence":4},{"trial_n":118,"span":17,"encoder":"45395396606834507","distractor":"45395356606834507","target":"absent","response":"absent","rt":"20764.200000003","correct":true,"confidence":3},{"trial_n":119,"span":18,"encoder":"679552935740454264","distractor":"679552933740454264","target":"present","response":"absent","rt":"11617.099999994","correct":false,"confidence":2},{"trial_n":120,"span":17,"encoder":"52876638921484243","distractor":"92876638921484243","target":"present","response":"absent","rt":"8980.6000000089","correct":false,"confidence":2},{"trial_n":121,"span":16,"encoder":"1196494523421315","distractor":"1196194523421315","target":"present","response":"present","rt":"19761.599999994","correct":true,"confidence":4},{"trial_n":122,"span":16,"encoder":"6980252463251865","distractor":"6980252468251865","target":"absent","response":"present","rt":"17980.299999997","correct":false,"confidence":2},{"trial_n":123,"span":15,"encoder":"774495165048433","distractor":"774491165048433","target":"absent","response":"absent","rt":"144346.5","correct":true,"confidence":1},{"trial_n":124,"span":15,"encoder":"982348565250617","distractor":"982348565250687","target":"present","response":"present","rt":"13249.199999988","correct":true,"confidence":2},{"trial_n":125,"span":16,"encoder":"1372386954612247","distractor":"1372386954619247","target":"absent","response":"absent","rt":"4697.599999994","correct":true,"confidence":3},{"trial_n":126,"span":16,"encoder":"5971590657049932","distractor":"5971590957049932","target":"absent","response":"absent","rt":"20747.299999997","correct":true,"confidence":2},{"trial_n":127,"span":17,"encoder":"89883350543125571","distractor":"89883350543125511","target":"absent","response":"absent","rt":"5366.700000003","correct":true,"confidence":5},{"trial_n":128,"span":17,"encoder":"70222922749273466","distractor":"70222922749173466","target":"present","response":"present","rt":"21979.299999997","correct":true,"confidence":2},{"trial_n":129,"span":18,"encoder":"584279456284591463","distractor":"584379456284591463","target":"absent","response":"absent","rt":"6783.1000000089","correct":true,"confidence":4},{"trial_n":130,"span":18,"encoder":"843022738094002401","distractor":"843022738094002400","target":"absent","response":"absent","rt":"3965.700000003","correct":true,"confidence":5},{"trial_n":131,"span":19,"encoder":"6506564323177646984","distractor":"6506564323077646984","target":"present","response":"absent","rt":"39076.5","correct":false,"confidence":4},{"trial_n":132,"span":18,"encoder":"404841235734776834","distractor":"404841235734776874","target":"present","response":"absent","rt":"2748.799999997","correct":false,"confidence":5},{"trial_n":133,"span":17,"encoder":"07522130035234023","distractor":"07522190035234023","target":"absent","response":"absent","rt":"10653","correct":true,"confidence":2},{"trial_n":134,"span":17,"encoder":"53788290405269724","distractor":"53788290401269724","target":"present","response":"present","rt":"13631.099999994","correct":true,"confidence":3},{"trial_n":135,"span":18,"encoder":"717177647744434287","distractor":"717177647744434987","target":"present","response":"absent","rt":"28163.299999997","correct":false,"confidence":2},{"trial_n":136,"span":17,"encoder":"53042397273735727","distractor":"53042337273735727","target":"present","response":"present","rt":"22796.100000009","correct":true,"confidence":2},{"trial_n":137,"span":17,"encoder":"80274669256250267","distractor":"80574669256250267","target":"absent","response":"absent","rt":"9366.599999994","correct":true,"confidence":2},{"trial_n":138,"span":18,"encoder":"570641705341146808","distractor":"570641705341446808","target":"absent","response":"absent","rt":"8266","correct":true,"confidence":4},{"trial_n":139,"span":18,"encoder":"917643252229039192","distractor":"917643252229039195","target":"absent","response":"absent","rt":"2315.799999997","correct":true,"confidence":5},{"trial_n":140,"span":19,"encoder":"5761210188772532721","distractor":"5760210188772532721","target":"present","response":"present","rt":"23714","correct":true,"confidence":3}]