[{"trial_n":1,"n_dots":4.25,"target":"left","response":"left","rt":6263,"correct":true,"confidence":-1},{"trial_n":2,"n_dots":4.25,"target":"left","response":"left","rt":1526,"correct":true,"confidence":-1},{"trial_n":3,"n_dots":3.85,"target":"right","response":"left","rt":1496,"correct":false,"confidence":-1},{"trial_n":4,"n_dots":4.25,"target":"right","response":"right","rt":1156,"correct":true,"confidence":-1},{"trial_n":5,"n_dots":4.25,"target":"right","response":"left","rt":718,"correct":false,"confidence":-1},{"trial_n":6,"n_dots":4.65,"target":"right","response":"right","rt":640.99999999999,"correct":true,"confidence":-1},{"trial_n":7,"n_dots":4.65,"target":"right","response":"right","rt":761,"correct":true,"confidence":-1},{"trial_n":8,"n_dots":4.45,"target":"right","response":"right","rt":615,"correct":true,"confidence":-1},{"trial_n":9,"n_dots":4.45,"target":"right","response":"left","rt":785,"correct":false,"confidence":-1},{"trial_n":10,"n_dots":4.65,"target":"right","response":"left","rt":771,"correct":false,"confidence":-1},{"trial_n":11,"n_dots":4.85,"target":"left","response":"left","rt":343,"correct":true,"confidence":-1},{"trial_n":12,"n_dots":4.85,"target":"right","response":"right","rt":352.99999999999,"correct":true,"confidence":-1},{"trial_n":13,"n_dots":4.75,"target":"left","response":"left","rt":345,"correct":true,"confidence":-1},{"trial_n":14,"n_dots":4.75,"target":"right","response":"right","rt":284.00000000001,"correct":true,"confidence":-1},{"trial_n":15,"n_dots":4.65,"target":"left","response":"left","rt":313,"correct":true,"confidence":-1},{"trial_n":16,"n_dots":4.65,"target":"right","response":"right","rt":210.99999999999,"correct":true,"confidence":-1},{"trial_n":17,"n_dots":4.55,"target":"right","response":"right","rt":295.99999999999,"correct":true,"confidence":-1},{"trial_n":18,"n_dots":4.55,"target":"right","response":"left","rt":354,"correct":false,"confidence":-1},{"trial_n":19,"n_dots":4.65,"target":"right","response":"right","rt":282,"correct":true,"confidence":-1},{"trial_n":20,"n_dots":4.65,"target":"right","response":"right","rt":201.00000000001,"correct":true,"confidence":-1},{"trial_n":21,"n_dots":4.55,"target":"left","response":"left","rt":337,"correct":true,"confidence":5},{"trial_n":22,"n_dots":4.55,"target":"left","response":"left","rt":438,"correct":true,"confidence":5},{"trial_n":23,"n_dots":4.45,"target":"left","response":"left","rt":1488,"correct":true,"confidence":5},{"trial_n":24,"n_dots":4.45,"target":"left","response":"left","rt":460,"correct":true,"confidence":5},{"trial_n":25,"n_dots":4.35,"target":"right","response":"right","rt":1282,"correct":true,"confidence":4},{"trial_n":26,"n_dots":4.35,"target":"left","response":"left","rt":670.00000000003,"correct":true,"confidence":4},{"trial_n":27,"n_dots":4.25,"target":"left","response":"left","rt":806,"correct":true,"confidence":4},{"trial_n":28,"n_dots":4.25,"target":"left","response":"left","rt":451,"correct":true,"confidence":4},{"trial_n":29,"n_dots":4.15,"target":"right","response":"right","rt":1747,"correct":true,"confidence":2},{"trial_n":30,"n_dots":4.15,"target":"right","response":"right","rt":1099,"correct":true,"confidence":2},{"trial_n":31,"n_dots":4.05,"target":"left","response":"left","rt":471.99999999997,"correct":true,"confidence":3},{"trial_n":32,"n_dots":4.05,"target":"left","response":"left","rt":379.99999999997,"correct":true,"confidence":3},{"trial_n":33,"n_dots":3.95,"target":"left","response":"left","rt":397,"correct":true,"confidence":4},{"trial_n":34,"n_dots":3.95,"target":"right","response":"left","rt":1097,"correct":false,"confidence":3},{"trial_n":35,"n_dots":4.05,"target":"right","response":"left","rt":1089,"correct":false,"confidence":3},{"trial_n":36,"n_dots":4.15,"target":"right","response":"right","rt":562,"correct":true,"confidence":2},{"trial_n":37,"n_dots":4.15,"target":"right","response":"right","rt":474,"correct":true,"confidence":2},{"trial_n":38,"n_dots":4.05,"target":"left","response":"left","rt":426.99999999997,"correct":true,"confidence":3},{"trial_n":39,"n_dots":4.05,"target":"right","response":"left","rt":685,"correct":false,"confidence":2},{"trial_n":40,"n_dots":4.15,"target":"left","response":"left","rt":345,"correct":true,"confidence":2},{"trial_n":41,"n_dots":4.15,"target":"right","response":"right","rt":1913,"correct":true,"confidence":2},{"trial_n":42,"n_dots":4.05,"target":"left","response":"left","rt":410,"correct":true,"confidence":2},{"trial_n":43,"n_dots":4.05,"target":"right","response":"right","rt":468.99999999997,"correct":true,"confidence":3},{"trial_n":44,"n_dots":3.95,"target":"right","response":"right","rt":599,"correct":true,"confidence":2},{"trial_n":45,"n_dots":3.95,"target":"left","response":"left","rt":564,"correct":true,"confidence":2},{"trial_n":46,"n_dots":3.85,"target":"right","response":"right","rt":345,"correct":true,"confidence":3},{"trial_n":47,"n_dots":3.85,"target":"right","response":"right","rt":804,"correct":true,"confidence":3},{"trial_n":48,"n_dots":3.75,"target":"left","response":"left","rt":817,"correct":true,"confidence":2},{"trial_n":49,"n_dots":3.75,"target":"left","response":"left","rt":735.99999999994,"correct":true,"confidence":2},{"trial_n":50,"n_dots":3.65,"target":"left","response":"left","rt":572,"correct":true,"confidence":1},{"trial_n":51,"n_dots":3.65,"target":"left","response":"left","rt":685,"correct":true,"confidence":1},{"trial_n":52,"n_dots":3.55,"target":"left","response":"right","rt":746,"correct":false,"confidence":2},{"trial_n":53,"n_dots":3.65,"target":"right","response":"right","rt":733.00000000006,"correct":true,"confidence":1},{"trial_n":54,"n_dots":3.65,"target":"right","response":"right","rt":916,"correct":true,"confidence":1},{"trial_n":55,"n_dots":3.55,"target":"right","response":"right","rt":1559,"correct":true,"confidence":2},{"trial_n":56,"n_dots":3.55,"target":"left","response":"left","rt":627,"correct":true,"confidence":2},{"trial_n":57,"n_dots":3.45,"target":"left","response":"left","rt":388,"correct":true,"confidence":3},{"trial_n":58,"n_dots":3.45,"target":"right","response":"right","rt":1285.0000000001,"correct":true,"confidence":1},{"trial_n":59,"n_dots":3.35,"target":"right","response":"right","rt":601,"correct":true,"confidence":1},{"trial_n":60,"n_dots":3.35,"target":"left","response":"left","rt":429,"correct":true,"confidence":1},{"trial_n":61,"n_dots":3.25,"target":"left","response":"left","rt":2145,"correct":true,"confidence":4},{"trial_n":62,"n_dots":3.25,"target":"left","response":"left","rt":460,"correct":true,"confidence":3},{"trial_n":63,"n_dots":3.15,"target":"left","response":"left","rt":519,"correct":true,"confidence":3},{"trial_n":64,"n_dots":3.15,"target":"right","response":"right","rt":866,"correct":true,"confidence":2},{"trial_n":65,"n_dots":3.05,"target":"right","response":"left","rt":1482,"correct":false,"confidence":3},{"trial_n":66,"n_dots":3.15,"target":"left","response":"left","rt":323.00000000006,"correct":true,"confidence":3},{"trial_n":67,"n_dots":3.15,"target":"left","response":"left","rt":288,"correct":true,"confidence":4},{"trial_n":68,"n_dots":3.05,"target":"left","response":"left","rt":281,"correct":true,"confidence":4},{"trial_n":69,"n_dots":3.05,"target":"left","response":"left","rt":773,"correct":true,"confidence":3},{"trial_n":70,"n_dots":2.95,"target":"right","response":"left","rt":545,"correct":false,"confidence":2},{"trial_n":71,"n_dots":3.05,"target":"left","response":"left","rt":261,"correct":true,"confidence":4},{"trial_n":72,"n_dots":3.05,"target":"left","response":"left","rt":338,"correct":true,"confidence":2},{"trial_n":73,"n_dots":2.95,"target":"right","response":"left","rt":1381,"correct":false,"confidence":1},{"trial_n":74,"n_dots":3.05,"target":"left","response":"left","rt":281,"correct":true,"confidence":3},{"trial_n":75,"n_dots":3.05,"target":"left","response":"left","rt":395,"correct":true,"confidence":3},{"trial_n":76,"n_dots":2.95,"target":"left","response":"left","rt":754,"correct":true,"confidence":2},{"trial_n":77,"n_dots":2.95,"target":"left","response":"right","rt":562,"correct":false,"confidence":2},{"trial_n":78,"n_dots":3.05,"target":"right","response":"right","rt":620,"correct":true,"confidence":1},{"trial_n":79,"n_dots":3.05,"target":"right","response":"left","rt":1261,"correct":false,"confidence":2},{"trial_n":80,"n_dots":3.15,"target":"right","response":"right","rt":517,"correct":true,"confidence":2},{"trial_n":81,"n_dots":3.15,"target":"left","response":"left","rt":525,"correct":true,"confidence":2},{"trial_n":82,"n_dots":3.05,"target":"right","response":"right","rt":906,"correct":true,"confidence":2},{"trial_n":83,"n_dots":3.05,"target":"right","response":"right","rt":319.99999999994,"correct":true,"confidence":2},{"trial_n":84,"n_dots":2.95,"target":"right","response":"left","rt":1355,"correct":false,"confidence":1},{"trial_n":85,"n_dots":3.05,"target":"right","response":"left","rt":895,"correct":false,"confidence":1},{"trial_n":86,"n_dots":3.15,"target":"left","response":"left","rt":427,"correct":true,"confidence":2},{"trial_n":87,"n_dots":3.15,"target":"left","response":"left","rt":489,"correct":true,"confidence":1},{"trial_n":88,"n_dots":3.05,"target":"right","response":"left","rt":653,"correct":false,"confidence":1},{"trial_n":89,"n_dots":3.15,"target":"right","response":"right","rt":250,"correct":true,"confidence":2},{"trial_n":90,"n_dots":3.15,"target":"right","response":"left","rt":625,"correct":false,"confidence":1},{"trial_n":91,"n_dots":3.25,"target":"right","response":"right","rt":589,"correct":true,"confidence":1},{"trial_n":92,"n_dots":3.25,"target":"left","response":"left","rt":934,"correct":true,"confidence":2},{"trial_n":93,"n_dots":3.15,"target":"left","response":"left","rt":860,"correct":true,"confidence":1},{"trial_n":94,"n_dots":3.15,"target":"right","response":"left","rt":570.00000000006,"correct":false,"confidence":3},{"trial_n":95,"n_dots":3.25,"target":"right","response":"right","rt":1039,"correct":true,"confidence":3},{"trial_n":96,"n_dots":3.25,"target":"right","response":"left","rt":2067,"correct":false,"confidence":1},{"trial_n":97,"n_dots":3.35,"target":"left","response":"left","rt":453,"correct":true,"confidence":4},{"trial_n":98,"n_dots":3.35,"target":"right","response":"right","rt":640,"correct":true,"confidence":2},{"trial_n":99,"n_dots":3.25,"target":"left","response":"left","rt":272.99999999988,"correct":true,"confidence":4},{"trial_n":100,"n_dots":3.25,"target":"right","response":"left","rt":403,"correct":false,"confidence":4},{"trial_n":101,"n_dots":3.35,"target":"left","response":"left","rt":383,"correct":true,"confidence":3},{"trial_n":102,"n_dots":3.35,"target":"right","response":"left","rt":1183.0000000001,"correct":false,"confidence":1},{"trial_n":103,"n_dots":3.45,"target":"left","response":"left","rt":779,"correct":true,"confidence":4},{"trial_n":104,"n_dots":3.45,"target":"left","response":"left","rt":718,"correct":true,"confidence":4},{"trial_n":105,"n_dots":3.35,"target":"left","response":"left","rt":447,"correct":true,"confidence":3},{"trial_n":106,"n_dots":3.35,"target":"right","response":"left","rt":663,"correct":false,"confidence":2},{"trial_n":107,"n_dots":3.45,"target":"left","response":"left","rt":266,"correct":true,"confidence":1},{"trial_n":108,"n_dots":3.45,"target":"left","response":"left","rt":652,"correct":true,"confidence":2},{"trial_n":109,"n_dots":3.35,"target":"left","response":"left","rt":423,"correct":true,"confidence":2},{"trial_n":110,"n_dots":3.35,"target":"right","response":"left","rt":394,"correct":false,"confidence":2},{"trial_n":111,"n_dots":3.45,"target":"left","response":"left","rt":1067,"correct":true,"confidence":2},{"trial_n":112,"n_dots":3.45,"target":"right","response":"left","rt":495,"correct":false,"confidence":2},{"trial_n":113,"n_dots":3.55,"target":"right","response":"left","rt":419,"correct":false,"confidence":2},{"trial_n":114,"n_dots":3.65,"target":"left","response":"left","rt":381,"correct":true,"confidence":3},{"trial_n":115,"n_dots":3.65,"target":"left","response":"left","rt":363,"correct":true,"confidence":3},{"trial_n":116,"n_dots":3.55,"target":"right","response":"left","rt":274,"correct":false,"confidence":2},{"trial_n":117,"n_dots":3.65,"target":"left","response":"left","rt":325,"correct":true,"confidence":3},{"trial_n":118,"n_dots":3.65,"target":"left","response":"left","rt":642,"correct":true,"confidence":1},{"trial_n":119,"n_dots":3.55,"target":"left","response":"left","rt":283,"correct":true,"confidence":1},{"trial_n":120,"n_dots":3.55,"target":"right","response":"left","rt":220,"correct":false,"confidence":1}]