[{"trial_n":1,"span":8,"encoder":"36989228","distractor":"36919228","target":"present","response":"present","rt":"5168","correct":true,"confidence":-1},{"trial_n":2,"span":8,"encoder":"35785817","distractor":"35785837","target":"present","response":"present","rt":"1675","correct":true,"confidence":-1},{"trial_n":3,"span":10,"encoder":"7197197905","distractor":"7197197915","target":"absent","response":"present","rt":"5815","correct":false,"confidence":-1},{"trial_n":4,"span":8,"encoder":"16099213","distractor":"16099013","target":"absent","response":"absent","rt":"2070","correct":true,"confidence":-1},{"trial_n":5,"span":8,"encoder":"97475356","distractor":"97472356","target":"present","response":"present","rt":"2673","correct":true,"confidence":-1},{"trial_n":6,"span":10,"encoder":"1616728894","distractor":"1616726894","target":"present","response":"present","rt":"5883","correct":true,"confidence":-1},{"trial_n":7,"span":10,"encoder":"7202365367","distractor":"6202365367","target":"present","response":"present","rt":"3303","correct":true,"confidence":-1},{"trial_n":8,"span":12,"encoder":"500449174361","distractor":"500449174561","target":"absent","response":"absent","rt":"1727","correct":true,"confidence":-1},{"trial_n":9,"span":12,"encoder":"454140327891","distractor":"454340327891","target":"present","response":"present","rt":"1493","correct":true,"confidence":-1},{"trial_n":10,"span":14,"encoder":"63468742162773","distractor":"63468742162873","target":"present","response":"present","rt":"1614","correct":true,"confidence":-1},{"trial_n":11,"span":14,"encoder":"48241718692192","distractor":"78241718692192","target":"absent","response":"absent","rt":"2387","correct":true,"confidence":-1},{"trial_n":12,"span":15,"encoder":"153003836454023","distractor":"153003836451023","target":"present","response":"absent","rt":"2399","correct":false,"confidence":-1},{"trial_n":13,"span":14,"encoder":"52006906221926","distractor":"52006906226926","target":"absent","response":"present","rt":"2417","correct":false,"confidence":-1},{"trial_n":14,"span":13,"encoder":"3337931612313","distractor":"3337941612313","target":"present","response":"present","rt":"1833","correct":true,"confidence":-1},{"trial_n":15,"span":13,"encoder":"9844710116318","distractor":"9844710116315","target":"absent","response":"absent","rt":"2215","correct":true,"confidence":-1},{"trial_n":16,"span":14,"encoder":"68982604055742","distractor":"68982604055782","target":"absent","response":"present","rt":"2039.0000000001","correct":false,"confidence":-1},{"trial_n":17,"span":13,"encoder":"0535630862145","distractor":"4535630862145","target":"absent","response":"present","rt":"2245.9999999999","correct":false,"confidence":-1},{"trial_n":18,"span":12,"encoder":"011332973652","distractor":"011333973652","target":"absent","response":"absent","rt":"3695","correct":true,"confidence":-1},{"trial_n":19,"span":12,"encoder":"310138077915","distractor":"310138077615","target":"absent","response":"present","rt":"2124","correct":false,"confidence":-1},{"trial_n":20,"span":11,"encoder":"33787382408","distractor":"38787382408","target":"present","response":"absent","rt":"2224","correct":false,"confidence":-1},{"trial_n":21,"span":10,"encoder":"9769468805","distractor":"6769468805","target":"present","response":"present","rt":"4237.0000000037","correct":true,"confidence":3},{"trial_n":22,"span":10,"encoder":"9196483414","distractor":"9196486414","target":"present","response":"present","rt":"2814","correct":true,"confidence":3},{"trial_n":23,"span":11,"encoder":"18894541995","distractor":"18894541095","target":"present","response":"present","rt":"3250","correct":true,"confidence":3},{"trial_n":24,"span":11,"encoder":"48662472745","distractor":"48662471745","target":"absent","response":"present","rt":"2313","correct":false,"confidence":3},{"trial_n":25,"span":10,"encoder":"9775417601","distractor":"9705417601","target":"absent","response":"absent","rt":"8802","correct":true,"confidence":4},{"trial_n":26,"span":10,"encoder":"3900480073","distractor":"3900485073","target":"absent","response":"present","rt":"2742","correct":false,"confidence":3},{"trial_n":27,"span":9,"encoder":"534871933","distractor":"534271933","target":"present","response":"present","rt":"2395","correct":true,"confidence":4},{"trial_n":28,"span":9,"encoder":"854024727","distractor":"854124727","target":"present","response":"present","rt":"2587","correct":true,"confidence":4},{"trial_n":29,"span":10,"encoder":"0933603913","distractor":"0933623913","target":"absent","response":"absent","rt":"3365.0000000037","correct":true,"confidence":4},{"trial_n":30,"span":10,"encoder":"6912008008","distractor":"6912008006","target":"absent","response":"present","rt":"7715","correct":false,"confidence":3},{"trial_n":31,"span":9,"encoder":"335314516","distractor":"355314516","target":"absent","response":"absent","rt":"4540","correct":true,"confidence":3},{"trial_n":32,"span":9,"encoder":"371042113","distractor":"371042193","target":"absent","response":"absent","rt":"2426","correct":true,"confidence":5},{"trial_n":33,"span":10,"encoder":"4262197344","distractor":"4266197344","target":"present","response":"present","rt":"2940","correct":true,"confidence":4},{"trial_n":34,"span":10,"encoder":"8265541591","distractor":"8265531591","target":"absent","response":"absent","rt":"4355","correct":true,"confidence":3},{"trial_n":35,"span":11,"encoder":"41737653439","distractor":"41737659439","target":"present","response":"present","rt":"3154","correct":true,"confidence":3},{"trial_n":36,"span":11,"encoder":"74419998867","distractor":"75419998867","target":"present","response":"present","rt":"3035","correct":true,"confidence":3},{"trial_n":37,"span":12,"encoder":"965930493963","distractor":"965930491963","target":"present","response":"present","rt":"2668","correct":true,"confidence":3},{"trial_n":38,"span":12,"encoder":"803848758492","distractor":"803048758492","target":"present","response":"absent","rt":"4856","correct":false,"confidence":2},{"trial_n":39,"span":11,"encoder":"62131081159","distractor":"62131081151","target":"absent","response":"absent","rt":"1976","correct":true,"confidence":5},{"trial_n":40,"span":11,"encoder":"83915738392","distractor":"83915738362","target":"absent","response":"present","rt":"2888","correct":false,"confidence":4},{"trial_n":41,"span":10,"encoder":"1826177941","distractor":"1826177945","target":"present","response":"present","rt":"2786.9999999963","correct":true,"confidence":4},{"trial_n":42,"span":10,"encoder":"0390606650","distractor":"0390686650","target":"present","response":"present","rt":"2248.9999999963","correct":true,"confidence":4},{"trial_n":43,"span":11,"encoder":"93676430209","distractor":"93676430229","target":"absent","response":"absent","rt":"4860","correct":true,"confidence":4},{"trial_n":44,"span":11,"encoder":"18161573623","distractor":"18169573623","target":"absent","response":"absent","rt":"3873","correct":true,"confidence":4},{"trial_n":45,"span":12,"encoder":"964265908724","distractor":"964265608724","target":"present","response":"present","rt":"3021.9999999963","correct":true,"confidence":3},{"trial_n":46,"span":12,"encoder":"884397657038","distractor":"882397657038","target":"present","response":"present","rt":"2343.0000000037","correct":true,"confidence":3},{"trial_n":47,"span":13,"encoder":"0275464853528","distractor":"0275464853558","target":"present","response":"present","rt":"4254.9999999963","correct":true,"confidence":4},{"trial_n":48,"span":13,"encoder":"3101678461871","distractor":"3101678461771","target":"present","response":"present","rt":"4000","correct":true,"confidence":2},{"trial_n":49,"span":14,"encoder":"71146738042922","distractor":"71146728042922","target":"absent","response":"present","rt":"3422","correct":false,"confidence":3},{"trial_n":50,"span":13,"encoder":"6773361817110","distractor":"6774361817110","target":"absent","response":"absent","rt":"4353","correct":true,"confidence":3},{"trial_n":51,"span":13,"encoder":"1564100817437","distractor":"1564100818437","target":"absent","response":"present","rt":"3283","correct":false,"confidence":2},{"trial_n":52,"span":12,"encoder":"690261702457","distractor":"680261702457","target":"present","response":"present","rt":"2951","correct":true,"confidence":3},{"trial_n":53,"span":12,"encoder":"295684235447","distractor":"695684235447","target":"present","response":"present","rt":"3057","correct":true,"confidence":4},{"trial_n":54,"span":13,"encoder":"8686748253697","distractor":"8686948253697","target":"present","response":"present","rt":"2330","correct":true,"confidence":3},{"trial_n":55,"span":13,"encoder":"1401621174855","distractor":"3401621174855","target":"present","response":"present","rt":"3087","correct":true,"confidence":3},{"trial_n":56,"span":14,"encoder":"79433544845337","distractor":"89433544845337","target":"present","response":"present","rt":"2733","correct":true,"confidence":3},{"trial_n":57,"span":14,"encoder":"18233696587247","distractor":"78233696587247","target":"present","response":"present","rt":"2995","correct":true,"confidence":4},{"trial_n":58,"span":15,"encoder":"852843627356971","distractor":"852843627356931","target":"present","response":"present","rt":"2522","correct":true,"confidence":2},{"trial_n":59,"span":15,"encoder":"284019446020780","distractor":"884019446020780","target":"present","response":"present","rt":"3522","correct":true,"confidence":3},{"trial_n":60,"span":16,"encoder":"0022625613135775","distractor":"0022625613136775","target":"absent","response":"present","rt":"4339","correct":false,"confidence":2},{"trial_n":61,"span":15,"encoder":"294608479791727","distractor":"594608479791727","target":"absent","response":"absent","rt":"3105","correct":true,"confidence":5},{"trial_n":62,"span":15,"encoder":"541148510092868","distractor":"541148510095868","target":"absent","response":"present","rt":"2780","correct":false,"confidence":3},{"trial_n":63,"span":14,"encoder":"13877069835244","distractor":"13877069834244","target":"absent","response":"present","rt":"3380.0000000037","correct":false,"confidence":3},{"trial_n":64,"span":13,"encoder":"7237821297181","distractor":"7237821297189","target":"absent","response":"absent","rt":"2427","correct":true,"confidence":5},{"trial_n":65,"span":13,"encoder":"0849522704416","distractor":"0846522704416","target":"present","response":"absent","rt":"2916","correct":false,"confidence":3},{"trial_n":66,"span":12,"encoder":"640555112725","distractor":"640555912725","target":"absent","response":"present","rt":"2697","correct":false,"confidence":3},{"trial_n":67,"span":11,"encoder":"17519082403","distractor":"19519082403","target":"absent","response":"absent","rt":"3254","correct":true,"confidence":5},{"trial_n":68,"span":11,"encoder":"39602051572","distractor":"39602051072","target":"absent","response":"present","rt":"3508","correct":false,"confidence":3},{"trial_n":69,"span":10,"encoder":"9433784100","distractor":"9433584100","target":"absent","response":"absent","rt":"4299","correct":true,"confidence":5},{"trial_n":70,"span":10,"encoder":"5872096520","distractor":"5872196520","target":"present","response":"present","rt":"2353","correct":true,"confidence":4},{"trial_n":71,"span":8,"encoder":"49698137","distractor":"49608137","target":"present","response":"present","rt":"5104","correct":true,"confidence":-1},{"trial_n":72,"span":8,"encoder":"57682819","distractor":"57622819","target":"present","response":"present","rt":"3933","correct":true,"confidence":-1},{"trial_n":73,"span":9,"encoder":"434521096","distractor":"434521095","target":"absent","response":"absent","rt":"2090","correct":true,"confidence":-1},{"trial_n":74,"span":9,"encoder":"353989247","distractor":"353985247","target":"absent","response":"absent","rt":"1940","correct":true,"confidence":-1},{"trial_n":75,"span":10,"encoder":"3091626854","distractor":"3091626054","target":"present","response":"absent","rt":"4272","correct":false,"confidence":-1},{"trial_n":76,"span":9,"encoder":"589436250","distractor":"559436250","target":"present","response":"present","rt":"2399","correct":true,"confidence":-1},{"trial_n":77,"span":9,"encoder":"906517505","distractor":"904517505","target":"present","response":"present","rt":"4971","correct":true,"confidence":-1},{"trial_n":78,"span":10,"encoder":"6734492945","distractor":"6634492945","target":"absent","response":"absent","rt":"2278","correct":true,"confidence":-1},{"trial_n":79,"span":10,"encoder":"2334774527","distractor":"2394774527","target":"absent","response":"absent","rt":"1994","correct":true,"confidence":-1},{"trial_n":80,"span":11,"encoder":"11874932081","distractor":"11875932081","target":"absent","response":"absent","rt":"3400","correct":true,"confidence":-1},{"trial_n":81,"span":11,"encoder":"56226635354","distractor":"56226685354","target":"absent","response":"present","rt":"9520.0000000037","correct":false,"confidence":-1},{"trial_n":82,"span":10,"encoder":"3944862050","distractor":"3974862050","target":"present","response":"absent","rt":"2916","correct":false,"confidence":-1},{"trial_n":83,"span":9,"encoder":"477800296","distractor":"473800296","target":"present","response":"present","rt":"2674","correct":true,"confidence":-1},{"trial_n":84,"span":9,"encoder":"069724007","distractor":"065724007","target":"present","response":"present","rt":"2471.0000000037","correct":true,"confidence":-1},{"trial_n":85,"span":10,"encoder":"7015600816","distractor":"7015690816","target":"absent","response":"present","rt":"4413.0000000037","correct":false,"confidence":-1},{"trial_n":86,"span":9,"encoder":"953668767","distractor":"953638767","target":"absent","response":"absent","rt":"2682","correct":true,"confidence":-1},{"trial_n":87,"span":9,"encoder":"991274337","distractor":"991274307","target":"absent","response":"present","rt":"5949.0000000037","correct":false,"confidence":-1},{"trial_n":88,"span":8,"encoder":"30357843","distractor":"30357840","target":"present","response":"present","rt":"1878","correct":true,"confidence":-1},{"trial_n":89,"span":8,"encoder":"64005930","distractor":"64005938","target":"present","response":"present","rt":"3748","correct":true,"confidence":-1},{"trial_n":90,"span":9,"encoder":"096546565","distractor":"096546545","target":"absent","response":"absent","rt":"3062.0000000037","correct":true,"confidence":-1},{"trial_n":91,"span":9,"encoder":"510921256","distractor":"510921226","target":"present","response":"present","rt":"5775.0000000037","correct":true,"confidence":5},{"trial_n":92,"span":10,"encoder":"5728823479","distractor":"5778823479","target":"present","response":"present","rt":"4108","correct":true,"confidence":1},{"trial_n":93,"span":10,"encoder":"7992083615","distractor":"4992083615","target":"absent","response":"absent","rt":"8106","correct":true,"confidence":5},{"trial_n":94,"span":11,"encoder":"73712953805","distractor":"73792953805","target":"present","response":"present","rt":"7118.0000000037","correct":true,"confidence":4},{"trial_n":95,"span":11,"encoder":"71228858254","distractor":"71228358254","target":"present","response":"present","rt":"5870","correct":true,"confidence":2},{"trial_n":96,"span":12,"encoder":"763341630191","distractor":"733341630191","target":"absent","response":"absent","rt":"3422","correct":true,"confidence":5},{"trial_n":97,"span":12,"encoder":"679747865941","distractor":"679747865946","target":"present","response":"present","rt":"2199","correct":true,"confidence":5},{"trial_n":98,"span":13,"encoder":"4534594164806","distractor":"4564594164806","target":"absent","response":"absent","rt":"4280","correct":true,"confidence":4},{"trial_n":99,"span":13,"encoder":"4129691676268","distractor":"4129791676268","target":"present","response":"present","rt":"7554","correct":true,"confidence":1},{"trial_n":100,"span":14,"encoder":"01519776528984","distractor":"01519376528984","target":"present","response":"absent","rt":"2979","correct":false,"confidence":2},{"trial_n":101,"span":13,"encoder":"2506277291947","distractor":"2506277291447","target":"present","response":"present","rt":"4351","correct":true,"confidence":1},{"trial_n":102,"span":13,"encoder":"3996660796398","distractor":"3996660596398","target":"absent","response":"absent","rt":"4017","correct":true,"confidence":1},{"trial_n":103,"span":14,"encoder":"38657031170410","distractor":"38654031170410","target":"present","response":"absent","rt":"1820","correct":false,"confidence":1},{"trial_n":104,"span":13,"encoder":"2300782439449","distractor":"2300782449449","target":"absent","response":"absent","rt":"4406","correct":true,"confidence":1},{"trial_n":105,"span":13,"encoder":"7053703342286","distractor":"7053703042286","target":"absent","response":"absent","rt":"3499","correct":true,"confidence":1},{"trial_n":106,"span":14,"encoder":"10122212561859","distractor":"10152212561859","target":"absent","response":"absent","rt":"5112","correct":true,"confidence":4},{"trial_n":107,"span":14,"encoder":"69085769760268","distractor":"69085769060268","target":"present","response":"present","rt":"17427","correct":true,"confidence":4},{"trial_n":108,"span":15,"encoder":"675850046772361","distractor":"675850046772371","target":"absent","response":"absent","rt":"6444","correct":true,"confidence":5},{"trial_n":109,"span":15,"encoder":"771000865506767","distractor":"771000865506762","target":"present","response":"present","rt":"2765","correct":true,"confidence":5},{"trial_n":110,"span":16,"encoder":"6158780410650458","distractor":"6158780410659458","target":"absent","response":"absent","rt":"4453","correct":true,"confidence":2},{"trial_n":111,"span":16,"encoder":"6302110736063060","distractor":"6302110736068060","target":"present","response":"present","rt":"2869","correct":true,"confidence":2},{"trial_n":112,"span":17,"encoder":"76457419844366534","distractor":"76057419844366534","target":"absent","response":"present","rt":"9619.9999999963","correct":false,"confidence":1},{"trial_n":113,"span":16,"encoder":"8632041557306005","distractor":"8634041557306005","target":"present","response":"present","rt":"11077","correct":true,"confidence":1},{"trial_n":114,"span":16,"encoder":"7893513277888948","distractor":"7893313277888948","target":"absent","response":"absent","rt":"4407","correct":true,"confidence":5},{"trial_n":115,"span":17,"encoder":"57389946386269205","distractor":"57369946386269205","target":"absent","response":"absent","rt":"7413.9999999963","correct":true,"confidence":5},{"trial_n":116,"span":17,"encoder":"02008383263140243","distractor":"52008383263140243","target":"absent","response":"absent","rt":"3567","correct":true,"confidence":5},{"trial_n":117,"span":18,"encoder":"866344037297487269","distractor":"866344037293487269","target":"present","response":"present","rt":"5462","correct":true,"confidence":1},{"trial_n":118,"span":18,"encoder":"215517883483811581","distractor":"915517883483811581","target":"present","response":"present","rt":"3412","correct":true,"confidence":5},{"trial_n":119,"span":19,"encoder":"2060757044329062155","distractor":"2060757044329062157","target":"present","response":"present","rt":"4619.0000000037","correct":true,"confidence":1},{"trial_n":120,"span":19,"encoder":"0821095147583265092","distractor":"0821095147553265092","target":"absent","response":"absent","rt":"10002","correct":true,"confidence":1},{"trial_n":121,"span":20,"encoder":"13069798957350416978","distractor":"13069798357350416978","target":"absent","response":"present","rt":"3874","correct":false,"confidence":1},{"trial_n":122,"span":19,"encoder":"4712098922672885411","distractor":"4711098922672885411","target":"absent","response":"present","rt":"4213","correct":false,"confidence":1},{"trial_n":123,"span":18,"encoder":"984442791091750301","distractor":"984142791091750301","target":"present","response":"absent","rt":"3268.9999999963","correct":false,"confidence":1},{"trial_n":124,"span":17,"encoder":"10078369191237412","distractor":"10078369191937412","target":"absent","response":"absent","rt":"4940.9999999963","correct":true,"confidence":5},{"trial_n":125,"span":17,"encoder":"63088294120574937","distractor":"63088294120574938","target":"present","response":"present","rt":"10283","correct":true,"confidence":2},{"trial_n":126,"span":18,"encoder":"839648267576773662","distractor":"839648267176773662","target":"present","response":"present","rt":"7826.0000000037","correct":true,"confidence":5},{"trial_n":127,"span":18,"encoder":"517978900288083634","distractor":"517978900228083634","target":"present","response":"absent","rt":"10349","correct":false,"confidence":4},{"trial_n":128,"span":17,"encoder":"42888725720716103","distractor":"42888728720716103","target":"absent","response":"absent","rt":"3583","correct":true,"confidence":1},{"trial_n":129,"span":17,"encoder":"83038621030884602","distractor":"83038621030084602","target":"present","response":"present","rt":"3558","correct":true,"confidence":5},{"trial_n":130,"span":18,"encoder":"075589451190274035","distractor":"075189451190274035","target":"present","response":"absent","rt":"2890.0000000037","correct":false,"confidence":1},{"trial_n":131,"span":17,"encoder":"53349486177511420","distractor":"53349686177511420","target":"present","response":"absent","rt":"3870","correct":false,"confidence":1},{"trial_n":132,"span":16,"encoder":"6946217536864374","distractor":"6946217336864374","target":"present","response":"absent","rt":"9623","correct":false,"confidence":1},{"trial_n":133,"span":15,"encoder":"377125883861099","distractor":"477125883861099","target":"absent","response":"present","rt":"6600","correct":false,"confidence":1},{"trial_n":134,"span":14,"encoder":"33924172036564","distractor":"33924572036564","target":"absent","response":"absent","rt":"5215.9999999963","correct":true,"confidence":5},{"trial_n":135,"span":14,"encoder":"85501445520764","distractor":"85501445520794","target":"absent","response":"absent","rt":"4894","correct":true,"confidence":1},{"trial_n":136,"span":15,"encoder":"885094927612712","distractor":"885094927614712","target":"present","response":"present","rt":"3248.0000000037","correct":true,"confidence":1},{"trial_n":137,"span":15,"encoder":"128637095351257","distractor":"128637095311257","target":"absent","response":"absent","rt":"1681","correct":true,"confidence":1},{"trial_n":138,"span":16,"encoder":"5396280801054261","distractor":"5396280851054261","target":"present","response":"absent","rt":"1952.9999999963","correct":false,"confidence":1},{"trial_n":139,"span":15,"encoder":"614511447380443","distractor":"614511447380441","target":"absent","response":"absent","rt":"2206","correct":true,"confidence":5},{"trial_n":140,"span":15,"encoder":"202579875075726","distractor":"202779875075726","target":"absent","response":"present","rt":"6994.9999999963","correct":false,"confidence":1}]