[{"trial_n":1,"n_dots":4.25,"target":"right","response":"right","rt":6913,"correct":true,"confidence":-1},{"trial_n":2,"n_dots":4.25,"target":"right","response":"right","rt":490,"correct":true,"confidence":-1},{"trial_n":3,"n_dots":3.85,"target":"right","response":"right","rt":656,"correct":true,"confidence":-1},{"trial_n":4,"n_dots":3.85,"target":"left","response":"left","rt":461,"correct":true,"confidence":-1},{"trial_n":5,"n_dots":3.45,"target":"left","response":"left","rt":446,"correct":true,"confidence":-1},{"trial_n":6,"n_dots":3.45,"target":"left","response":"left","rt":602,"correct":true,"confidence":-1},{"trial_n":7,"n_dots":3.05,"target":"left","response":"left","rt":109,"correct":true,"confidence":-1},{"trial_n":8,"n_dots":3.05,"target":"right","response":"left","rt":102,"correct":false,"confidence":-1},{"trial_n":9,"n_dots":3.25,"target":"right","response":"right","rt":490,"correct":true,"confidence":-1},{"trial_n":10,"n_dots":3.25,"target":"left","response":"right","rt":456,"correct":false,"confidence":-1},{"trial_n":11,"n_dots":3.45,"target":"right","response":"right","rt":157,"correct":true,"confidence":-1},{"trial_n":12,"n_dots":3.45,"target":"right","response":"left","rt":427,"correct":false,"confidence":-1},{"trial_n":13,"n_dots":3.55,"target":"right","response":"right","rt":2775,"correct":true,"confidence":-1},{"trial_n":14,"n_dots":3.55,"target":"right","response":"left","rt":128.99999999999,"correct":false,"confidence":-1},{"trial_n":15,"n_dots":3.65,"target":"left","response":"left","rt":44,"correct":true,"confidence":-1},{"trial_n":16,"n_dots":3.65,"target":"right","response":"right","rt":42,"correct":true,"confidence":-1},{"trial_n":17,"n_dots":3.55,"target":"left","response":"right","rt":90,"correct":false,"confidence":-1},{"trial_n":18,"n_dots":3.65,"target":"right","response":"right","rt":412,"correct":true,"confidence":-1},{"trial_n":19,"n_dots":3.65,"target":"right","response":"right","rt":457.99999999999,"correct":true,"confidence":-1},{"trial_n":20,"n_dots":3.55,"target":"right","response":"right","rt":780,"correct":true,"confidence":-1},{"trial_n":21,"n_dots":3.55,"target":"left","response":"left","rt":363,"correct":true,"confidence":4},{"trial_n":22,"n_dots":3.45,"target":"left","response":"left","rt":163,"correct":true,"confidence":3},{"trial_n":23,"n_dots":3.45,"target":"left","response":"left","rt":365,"correct":true,"confidence":3},{"trial_n":24,"n_dots":3.35,"target":"right","response":"left","rt":405,"correct":false,"confidence":2},{"trial_n":25,"n_dots":3.45,"target":"right","response":"right","rt":192.00000000001,"correct":true,"confidence":4},{"trial_n":26,"n_dots":3.45,"target":"right","response":"right","rt":3353,"correct":true,"confidence":2},{"trial_n":27,"n_dots":3.35,"target":"left","response":"left","rt":1215,"correct":true,"confidence":4},{"trial_n":28,"n_dots":3.35,"target":"right","response":"right","rt":1644,"correct":true,"confidence":1},{"trial_n":29,"n_dots":3.25,"target":"left","response":"left","rt":981,"correct":true,"confidence":4},{"trial_n":30,"n_dots":3.25,"target":"left","response":"left","rt":224,"correct":true,"confidence":3},{"trial_n":31,"n_dots":3.15,"target":"right","response":"left","rt":591,"correct":false,"confidence":3},{"trial_n":32,"n_dots":3.25,"target":"left","response":"left","rt":30,"correct":true,"confidence":3},{"trial_n":33,"n_dots":3.25,"target":"right","response":"right","rt":509,"correct":true,"confidence":3},{"trial_n":34,"n_dots":3.15,"target":"right","response":"right","rt":1336,"correct":true,"confidence":3},{"trial_n":35,"n_dots":3.15,"target":"right","response":"left","rt":1116,"correct":false,"confidence":2},{"trial_n":36,"n_dots":3.25,"target":"left","response":"left","rt":1137,"correct":true,"confidence":5},{"trial_n":37,"n_dots":3.25,"target":"left","response":"left","rt":89.999999999971,"correct":true,"confidence":5},{"trial_n":38,"n_dots":3.15,"target":"right","response":"left","rt":1318,"correct":false,"confidence":2},{"trial_n":39,"n_dots":3.25,"target":"right","response":"left","rt":1208,"correct":false,"confidence":2},{"trial_n":40,"n_dots":3.35,"target":"right","response":"right","rt":416,"correct":true,"confidence":4},{"trial_n":41,"n_dots":3.35,"target":"left","response":"left","rt":602,"correct":true,"confidence":4},{"trial_n":42,"n_dots":3.25,"target":"right","response":"right","rt":365,"correct":true,"confidence":4},{"trial_n":43,"n_dots":3.25,"target":"left","response":"left","rt":695.99999999997,"correct":true,"confidence":2},{"trial_n":44,"n_dots":3.15,"target":"left","response":"right","rt":2258,"correct":false,"confidence":4},{"trial_n":45,"n_dots":3.25,"target":"left","response":"left","rt":825,"correct":true,"confidence":2},{"trial_n":46,"n_dots":3.25,"target":"right","response":"right","rt":286,"correct":true,"confidence":4},{"trial_n":47,"n_dots":3.15,"target":"right","response":"right","rt":625,"correct":true,"confidence":4},{"trial_n":48,"n_dots":3.15,"target":"left","response":"left","rt":1513,"correct":true,"confidence":2},{"trial_n":49,"n_dots":3.05,"target":"left","response":"left","rt":1023,"correct":true,"confidence":2},{"trial_n":50,"n_dots":3.05,"target":"right","response":"left","rt":1639,"correct":false,"confidence":3},{"trial_n":51,"n_dots":3.15,"target":"right","response":"right","rt":1221,"correct":true,"confidence":3},{"trial_n":52,"n_dots":3.15,"target":"left","response":"left","rt":616.99999999997,"correct":true,"confidence":3},{"trial_n":53,"n_dots":3.05,"target":"right","response":"right","rt":1064,"correct":true,"confidence":2},{"trial_n":54,"n_dots":3.05,"target":"right","response":"left","rt":199,"correct":false,"confidence":2},{"trial_n":55,"n_dots":3.15,"target":"left","response":"right","rt":1379,"correct":false,"confidence":3},{"trial_n":56,"n_dots":3.25,"target":"left","response":"left","rt":796,"correct":true,"confidence":3},{"trial_n":57,"n_dots":3.25,"target":"left","response":"left","rt":1497,"correct":true,"confidence":4},{"trial_n":58,"n_dots":3.15,"target":"left","response":"right","rt":756,"correct":false,"confidence":2},{"trial_n":59,"n_dots":3.25,"target":"left","response":"left","rt":1309,"correct":true,"confidence":1},{"trial_n":60,"n_dots":3.25,"target":"left","response":"right","rt":525,"correct":false,"confidence":3},{"trial_n":61,"n_dots":3.35,"target":"right","response":"left","rt":1222,"correct":false,"confidence":1},{"trial_n":62,"n_dots":3.45,"target":"left","response":"right","rt":716,"correct":false,"confidence":2},{"trial_n":63,"n_dots":3.55,"target":"left","response":"left","rt":723,"correct":true,"confidence":3},{"trial_n":64,"n_dots":3.55,"target":"right","response":"right","rt":1456,"correct":true,"confidence":4},{"trial_n":65,"n_dots":3.45,"target":"left","response":"left","rt":2189,"correct":true,"confidence":1},{"trial_n":66,"n_dots":3.45,"target":"right","response":"right","rt":71,"correct":true,"confidence":3},{"trial_n":67,"n_dots":3.35,"target":"right","response":"right","rt":105.00000000003,"correct":true,"confidence":3},{"trial_n":68,"n_dots":3.35,"target":"right","response":"right","rt":2015,"correct":true,"confidence":3},{"trial_n":69,"n_dots":3.25,"target":"left","response":"right","rt":299,"correct":false,"confidence":2},{"trial_n":70,"n_dots":3.35,"target":"right","response":"right","rt":349,"correct":true,"confidence":2},{"trial_n":71,"n_dots":3.35,"target":"right","response":"right","rt":194.00000000003,"correct":true,"confidence":1},{"trial_n":72,"n_dots":3.25,"target":"left","response":"right","rt":875,"correct":false,"confidence":1},{"trial_n":73,"n_dots":3.35,"target":"right","response":"right","rt":560.99999999997,"correct":true,"confidence":2},{"trial_n":74,"n_dots":3.35,"target":"left","response":"left","rt":793.99999999997,"correct":true,"confidence":3},{"trial_n":75,"n_dots":3.25,"target":"right","response":"left","rt":1144,"correct":false,"confidence":3},{"trial_n":76,"n_dots":3.35,"target":"left","response":"left","rt":912,"correct":true,"confidence":3},{"trial_n":77,"n_dots":3.35,"target":"left","response":"left","rt":463,"correct":true,"confidence":3},{"trial_n":78,"n_dots":3.25,"target":"left","response":"left","rt":856.00000000006,"correct":true,"confidence":4},{"trial_n":79,"n_dots":3.25,"target":"left","response":"left","rt":799.99999999994,"correct":true,"confidence":3},{"trial_n":80,"n_dots":3.15,"target":"left","response":"left","rt":1074,"correct":true,"confidence":1},{"trial_n":81,"n_dots":3.15,"target":"left","response":"left","rt":1170,"correct":true,"confidence":4},{"trial_n":82,"n_dots":3.05,"target":"right","response":"right","rt":1825,"correct":true,"confidence":3},{"trial_n":83,"n_dots":3.05,"target":"left","response":"left","rt":828,"correct":true,"confidence":4},{"trial_n":84,"n_dots":2.95,"target":"left","response":"left","rt":970,"correct":true,"confidence":3},{"trial_n":85,"n_dots":2.95,"target":"left","response":"left","rt":2129,"correct":true,"confidence":1},{"trial_n":86,"n_dots":2.85,"target":"right","response":"right","rt":350,"correct":true,"confidence":4},{"trial_n":87,"n_dots":2.85,"target":"right","response":"left","rt":1444.9999999999,"correct":false,"confidence":1},{"trial_n":88,"n_dots":2.95,"target":"right","response":"right","rt":611.99999999994,"correct":true,"confidence":3},{"trial_n":89,"n_dots":2.95,"target":"right","response":"left","rt":873,"correct":false,"confidence":3},{"trial_n":90,"n_dots":3.05,"target":"right","response":"right","rt":111.99999999994,"correct":true,"confidence":3},{"trial_n":91,"n_dots":3.05,"target":"left","response":"left","rt":236,"correct":true,"confidence":3},{"trial_n":92,"n_dots":2.95,"target":"left","response":"left","rt":752,"correct":true,"confidence":4},{"trial_n":93,"n_dots":2.95,"target":"right","response":"right","rt":77,"correct":true,"confidence":5},{"trial_n":94,"n_dots":2.85,"target":"right","response":"right","rt":1515,"correct":true,"confidence":3},{"trial_n":95,"n_dots":2.85,"target":"right","response":"right","rt":659,"correct":true,"confidence":4},{"trial_n":96,"n_dots":2.75,"target":"left","response":"left","rt":2012,"correct":true,"confidence":1},{"trial_n":97,"n_dots":2.75,"target":"left","response":"right","rt":1786,"correct":false,"confidence":4},{"trial_n":98,"n_dots":2.85,"target":"right","response":"right","rt":1234,"correct":true,"confidence":4},{"trial_n":99,"n_dots":2.85,"target":"right","response":"right","rt":844,"correct":true,"confidence":1},{"trial_n":100,"n_dots":2.75,"target":"right","response":"right","rt":1107,"correct":true,"confidence":4},{"trial_n":101,"n_dots":2.75,"target":"left","response":"left","rt":1342.9999999999,"correct":true,"confidence":1},{"trial_n":102,"n_dots":2.65,"target":"right","response":"right","rt":362,"correct":true,"confidence":2},{"trial_n":103,"n_dots":2.65,"target":"left","response":"right","rt":1228,"correct":false,"confidence":3},{"trial_n":104,"n_dots":2.75,"target":"right","response":"right","rt":326,"correct":true,"confidence":3},{"trial_n":105,"n_dots":2.75,"target":"left","response":"right","rt":1016,"correct":false,"confidence":1},{"trial_n":106,"n_dots":2.85,"target":"right","response":"right","rt":202,"correct":true,"confidence":3},{"trial_n":107,"n_dots":2.85,"target":"left","response":"left","rt":944,"correct":true,"confidence":2},{"trial_n":108,"n_dots":2.75,"target":"right","response":"right","rt":329,"correct":true,"confidence":3},{"trial_n":109,"n_dots":2.75,"target":"right","response":"right","rt":338.00000000006,"correct":true,"confidence":3},{"trial_n":110,"n_dots":2.65,"target":"left","response":"right","rt":82.999999999942,"correct":false,"confidence":3},{"trial_n":111,"n_dots":2.75,"target":"right","response":"right","rt":1054,"correct":true,"confidence":4},{"trial_n":112,"n_dots":2.75,"target":"left","response":"right","rt":452,"correct":false,"confidence":4},{"trial_n":113,"n_dots":2.85,"target":"right","response":"right","rt":55.000000000058,"correct":true,"confidence":4},{"trial_n":114,"n_dots":2.85,"target":"left","response":"right","rt":714.99999999994,"correct":false,"confidence":3},{"trial_n":115,"n_dots":2.95,"target":"left","response":"left","rt":866,"correct":true,"confidence":1},{"trial_n":116,"n_dots":2.95,"target":"right","response":"right","rt":802,"correct":true,"confidence":4},{"trial_n":117,"n_dots":2.85,"target":"left","response":"left","rt":1130,"correct":true,"confidence":3},{"trial_n":118,"n_dots":2.85,"target":"left","response":"right","rt":656,"correct":false,"confidence":3},{"trial_n":119,"n_dots":2.95,"target":"left","response":"left","rt":515,"correct":true,"confidence":3},{"trial_n":120,"n_dots":2.95,"target":"left","response":"left","rt":235,"correct":true,"confidence":3}]