[{"trial_n":1,"min":25,"max":230,"target":"present","response":"absent","rt":22237.599999994,"correct":false,"confidence":-1},{"trial_n":2,"min":25,"max":230,"target":"present","response":"absent","rt":8520.099999994,"correct":false,"confidence":-1},{"trial_n":3,"min":9,"max":246,"target":"absent","response":"present","rt":3016.099999994,"correct":false,"confidence":-1},{"trial_n":4,"min":0,"max":255,"target":"absent","response":"present","rt":1706.700000003,"correct":false,"confidence":-1},{"trial_n":5,"min":0,"max":255,"target":"present","response":"present","rt":3612.3000000119,"correct":true,"confidence":-1},{"trial_n":6,"min":0,"max":255,"target":"absent","response":"absent","rt":704.79999999702,"correct":true,"confidence":-1},{"trial_n":7,"min":16,"max":239,"target":"present","response":"present","rt":242.09999999404,"correct":true,"confidence":-1},{"trial_n":8,"min":16,"max":239,"target":"absent","response":"absent","rt":344.29999999702,"correct":true,"confidence":-1},{"trial_n":9,"min":32,"max":223,"target":"absent","response":"absent","rt":350.40000000596,"correct":true,"confidence":-1},{"trial_n":10,"min":32,"max":223,"target":"absent","response":"absent","rt":212.10000000894,"correct":true,"confidence":-1},{"trial_n":11,"min":40,"max":215,"target":"absent","response":"absent","rt":122.60000000894,"correct":true,"confidence":-1},{"trial_n":12,"min":40,"max":215,"target":"absent","response":"absent","rt":56,"correct":true,"confidence":-1},{"trial_n":13,"min":48,"max":207,"target":"absent","response":"absent","rt":1484.3000000119,"correct":true,"confidence":-1},{"trial_n":14,"min":48,"max":207,"target":"present","response":"present","rt":251.40000000596,"correct":true,"confidence":-1},{"trial_n":15,"min":56,"max":199,"target":"present","response":"present","rt":439.90000000596,"correct":true,"confidence":-1},{"trial_n":16,"min":56,"max":199,"target":"absent","response":"absent","rt":318.40000000596,"correct":true,"confidence":-1},{"trial_n":17,"min":64,"max":191,"target":"present","response":"present","rt":323,"correct":true,"confidence":-1},{"trial_n":18,"min":64,"max":191,"target":"present","response":"present","rt":382.70000000298,"correct":true,"confidence":-1},{"trial_n":19,"min":72,"max":183,"target":"present","response":"present","rt":573.29999999702,"correct":true,"confidence":-1},{"trial_n":20,"min":72,"max":183,"target":"absent","response":"absent","rt":433.09999999404,"correct":true,"confidence":-1},{"trial_n":21,"min":76,"max":179,"target":"absent","response":"absent","rt":643.79999999702,"correct":true,"confidence":3},{"trial_n":22,"min":76,"max":179,"target":"present","response":"absent","rt":1102,"correct":false,"confidence":3},{"trial_n":23,"min":72,"max":183,"target":"present","response":"present","rt":2104.200000003,"correct":true,"confidence":4},{"trial_n":24,"min":72,"max":183,"target":"absent","response":"absent","rt":897.89999999106,"correct":true,"confidence":4},{"trial_n":25,"min":76,"max":179,"target":"absent","response":"present","rt":4238.5,"correct":false,"confidence":2},{"trial_n":26,"min":72,"max":183,"target":"present","response":"present","rt":1418.400000006,"correct":true,"confidence":3},{"trial_n":27,"min":72,"max":183,"target":"present","response":"present","rt":1488.200000003,"correct":true,"confidence":3},{"trial_n":28,"min":76,"max":179,"target":"absent","response":"absent","rt":1936.599999994,"correct":true,"confidence":5},{"trial_n":29,"min":76,"max":179,"target":"present","response":"present","rt":1386.900000006,"correct":true,"confidence":4},{"trial_n":30,"min":80,"max":175,"target":"absent","response":"absent","rt":1168.8999999911,"correct":true,"confidence":5},{"trial_n":31,"min":80,"max":175,"target":"absent","response":"absent","rt":5086.799999997,"correct":true,"confidence":2},{"trial_n":32,"min":82,"max":173,"target":"absent","response":"absent","rt":1454,"correct":true,"confidence":3},{"trial_n":33,"min":82,"max":173,"target":"present","response":"present","rt":1319.799999997,"correct":true,"confidence":4},{"trial_n":34,"min":84,"max":171,"target":"present","response":"absent","rt":1805.099999994,"correct":false,"confidence":2},{"trial_n":35,"min":82,"max":173,"target":"absent","response":"absent","rt":2158,"correct":true,"confidence":3},{"trial_n":36,"min":82,"max":173,"target":"present","response":"absent","rt":2537.900000006,"correct":false,"confidence":3},{"trial_n":37,"min":80,"max":175,"target":"present","response":"present","rt":1436.6000000089,"correct":true,"confidence":3},{"trial_n":38,"min":80,"max":175,"target":"present","response":"present","rt":1321.400000006,"correct":true,"confidence":3},{"trial_n":39,"min":82,"max":173,"target":"present","response":"present","rt":1437.099999994,"correct":true,"confidence":3},{"trial_n":40,"min":82,"max":173,"target":"present","response":"absent","rt":1380.6000000089,"correct":false,"confidence":3},{"trial_n":41,"min":81,"max":174,"target":"present","response":"present","rt":1320.299999997,"correct":true,"confidence":4},{"trial_n":42,"min":81,"max":174,"target":"absent","response":"absent","rt":1174.1000000089,"correct":true,"confidence":5},{"trial_n":43,"min":82,"max":173,"target":"present","response":"present","rt":1886.700000003,"correct":true,"confidence":5},{"trial_n":44,"min":82,"max":173,"target":"present","response":"absent","rt":1221,"correct":false,"confidence":4},{"trial_n":45,"min":81,"max":174,"target":"absent","response":"absent","rt":1440.900000006,"correct":true,"confidence":4},{"trial_n":46,"min":81,"max":174,"target":"present","response":"present","rt":1354.5,"correct":true,"confidence":3},{"trial_n":47,"min":82,"max":173,"target":"present","response":"present","rt":1938.599999994,"correct":true,"confidence":2},{"trial_n":48,"min":82,"max":173,"target":"absent","response":"absent","rt":1522.099999994,"correct":true,"confidence":5},{"trial_n":49,"min":83,"max":172,"target":"present","response":"present","rt":1187.8999999911,"correct":true,"confidence":5},{"trial_n":50,"min":83,"max":172,"target":"present","response":"absent","rt":1604.5,"correct":false,"confidence":3},{"trial_n":51,"min":82,"max":173,"target":"present","response":"present","rt":1252.900000006,"correct":true,"confidence":5},{"trial_n":52,"min":82,"max":173,"target":"absent","response":"absent","rt":1503.799999997,"correct":true,"confidence":4},{"trial_n":53,"min":83,"max":172,"target":"absent","response":"absent","rt":1120.299999997,"correct":true,"confidence":5},{"trial_n":54,"min":83,"max":172,"target":"present","response":"absent","rt":2770.099999994,"correct":false,"confidence":2},{"trial_n":55,"min":82,"max":173,"target":"absent","response":"absent","rt":2585.900000006,"correct":true,"confidence":5},{"trial_n":56,"min":82,"max":173,"target":"present","response":"present","rt":1135.1999999881,"correct":true,"confidence":4},{"trial_n":57,"min":83,"max":172,"target":"present","response":"present","rt":2318.5,"correct":true,"confidence":2},{"trial_n":58,"min":83,"max":172,"target":"present","response":"present","rt":968.40000000596,"correct":true,"confidence":3},{"trial_n":59,"min":84,"max":171,"target":"present","response":"absent","rt":688.80000001192,"correct":false,"confidence":5},{"trial_n":60,"min":83,"max":172,"target":"present","response":"absent","rt":678.5,"correct":false,"confidence":5},{"trial_n":61,"min":82,"max":173,"target":"absent","response":"present","rt":1531.599999994,"correct":false,"confidence":2},{"trial_n":62,"min":81,"max":174,"target":"absent","response":"absent","rt":1016.200000003,"correct":true,"confidence":4},{"trial_n":63,"min":81,"max":174,"target":"absent","response":"absent","rt":966.5,"correct":true,"confidence":4},{"trial_n":64,"min":82,"max":173,"target":"absent","response":"absent","rt":810.40000000596,"correct":true,"confidence":4},{"trial_n":65,"min":82,"max":173,"target":"absent","response":"absent","rt":756.10000000894,"correct":true,"confidence":4},{"trial_n":66,"min":83,"max":172,"target":"absent","response":"absent","rt":814.59999999404,"correct":true,"confidence":5},{"trial_n":67,"min":83,"max":172,"target":"absent","response":"absent","rt":780.70000000298,"correct":true,"confidence":5},{"trial_n":68,"min":84,"max":171,"target":"absent","response":"absent","rt":833.79999999702,"correct":true,"confidence":5},{"trial_n":69,"min":84,"max":171,"target":"present","response":"present","rt":811.29999999702,"correct":true,"confidence":3},{"trial_n":70,"min":85,"max":170,"target":"absent","response":"absent","rt":867.09999999404,"correct":true,"confidence":4},{"trial_n":71,"min":41,"max":214,"target":"present","response":"present","rt":3614.6999999881,"correct":true,"confidence":-1},{"trial_n":72,"min":41,"max":214,"target":"present","response":"present","rt":948.09999999404,"correct":true,"confidence":-1},{"trial_n":73,"min":57,"max":198,"target":"absent","response":"absent","rt":1415,"correct":true,"confidence":-1},{"trial_n":74,"min":57,"max":198,"target":"absent","response":"absent","rt":1381.299999997,"correct":true,"confidence":-1},{"trial_n":75,"min":73,"max":182,"target":"present","response":"present","rt":2064.5,"correct":true,"confidence":-1},{"trial_n":76,"min":73,"max":182,"target":"present","response":"present","rt":2281.6000000089,"correct":true,"confidence":-1},{"trial_n":77,"min":89,"max":166,"target":"present","response":"present","rt":877.5,"correct":true,"confidence":-1},{"trial_n":78,"min":89,"max":166,"target":"present","response":"present","rt":697.69999998808,"correct":true,"confidence":-1},{"trial_n":79,"min":105,"max":150,"target":"absent","response":"present","rt":830.90000000596,"correct":false,"confidence":-1},{"trial_n":80,"min":89,"max":166,"target":"absent","response":"present","rt":1766.099999994,"correct":false,"confidence":-1},{"trial_n":81,"min":81,"max":174,"target":"present","response":"present","rt":1180.799999997,"correct":true,"confidence":-1},{"trial_n":82,"min":81,"max":174,"target":"present","response":"present","rt":814.60000000894,"correct":true,"confidence":-1},{"trial_n":83,"min":89,"max":166,"target":"present","response":"present","rt":1716.200000003,"correct":true,"confidence":-1},{"trial_n":84,"min":89,"max":166,"target":"absent","response":"present","rt":947.80000001192,"correct":false,"confidence":-1},{"trial_n":85,"min":81,"max":174,"target":"present","response":"present","rt":1180.200000003,"correct":true,"confidence":-1},{"trial_n":86,"min":81,"max":174,"target":"present","response":"present","rt":747.79999999702,"correct":true,"confidence":-1},{"trial_n":87,"min":89,"max":166,"target":"absent","response":"present","rt":698.29999999702,"correct":false,"confidence":-1},{"trial_n":88,"min":81,"max":174,"target":"present","response":"present","rt":912.20000000298,"correct":true,"confidence":-1},{"trial_n":89,"min":81,"max":174,"target":"present","response":"present","rt":2016.6000000089,"correct":true,"confidence":-1},{"trial_n":90,"min":89,"max":166,"target":"absent","response":"present","rt":816.70000000298,"correct":false,"confidence":-1},{"trial_n":91,"min":85,"max":170,"target":"absent","response":"present","rt":1597.400000006,"correct":false,"confidence":5},{"trial_n":92,"min":81,"max":174,"target":"absent","response":"present","rt":1564.299999997,"correct":false,"confidence":3},{"trial_n":93,"min":77,"max":178,"target":"absent","response":"absent","rt":1333.5,"correct":true,"confidence":4},{"trial_n":94,"min":77,"max":178,"target":"absent","response":"absent","rt":1564,"correct":true,"confidence":2},{"trial_n":95,"min":81,"max":174,"target":"absent","response":"absent","rt":1545.799999997,"correct":true,"confidence":3},{"trial_n":96,"min":81,"max":174,"target":"present","response":"present","rt":1197.3999999911,"correct":true,"confidence":5},{"trial_n":97,"min":85,"max":170,"target":"present","response":"present","rt":1781.5,"correct":true,"confidence":5},{"trial_n":98,"min":85,"max":170,"target":"present","response":"present","rt":1297.3999999911,"correct":true,"confidence":5},{"trial_n":99,"min":89,"max":166,"target":"absent","response":"absent","rt":1415.5,"correct":true,"confidence":3},{"trial_n":100,"min":89,"max":166,"target":"absent","response":"present","rt":1132.400000006,"correct":false,"confidence":3},{"trial_n":101,"min":87,"max":168,"target":"present","response":"present","rt":1131.099999994,"correct":true,"confidence":5},{"trial_n":102,"min":87,"max":168,"target":"present","response":"present","rt":1247.799999997,"correct":true,"confidence":5},{"trial_n":103,"min":89,"max":166,"target":"present","response":"present","rt":1197.6000000089,"correct":true,"confidence":5},{"trial_n":104,"min":89,"max":166,"target":"absent","response":"present","rt":1447.299999997,"correct":false,"confidence":4},{"trial_n":105,"min":87,"max":168,"target":"present","response":"present","rt":1263.5,"correct":true,"confidence":5},{"trial_n":106,"min":87,"max":168,"target":"absent","response":"present","rt":1765.799999997,"correct":false,"confidence":3},{"trial_n":107,"min":85,"max":170,"target":"present","response":"present","rt":1031.599999994,"correct":true,"confidence":3},{"trial_n":108,"min":85,"max":170,"target":"present","response":"present","rt":1347.5,"correct":true,"confidence":4},{"trial_n":109,"min":87,"max":168,"target":"present","response":"present","rt":1162.599999994,"correct":true,"confidence":4},{"trial_n":110,"min":87,"max":168,"target":"absent","response":"absent","rt":1881.5,"correct":true,"confidence":2},{"trial_n":111,"min":88,"max":167,"target":"present","response":"present","rt":1129.400000006,"correct":true,"confidence":5},{"trial_n":112,"min":88,"max":167,"target":"present","response":"present","rt":1313,"correct":true,"confidence":5},{"trial_n":113,"min":89,"max":166,"target":"present","response":"present","rt":1380.3999999911,"correct":true,"confidence":4},{"trial_n":114,"min":89,"max":166,"target":"absent","response":"present","rt":1449.599999994,"correct":false,"confidence":3},{"trial_n":115,"min":88,"max":167,"target":"absent","response":"present","rt":1598,"correct":false,"confidence":4},{"trial_n":116,"min":87,"max":168,"target":"present","response":"present","rt":1814.799999997,"correct":true,"confidence":3},{"trial_n":117,"min":87,"max":168,"target":"present","response":"present","rt":1631.1999999881,"correct":true,"confidence":4},{"trial_n":118,"min":88,"max":167,"target":"present","response":"present","rt":1111.200000003,"correct":true,"confidence":4},{"trial_n":119,"min":88,"max":167,"target":"absent","response":"absent","rt":2364.6000000089,"correct":true,"confidence":3},{"trial_n":120,"min":89,"max":166,"target":"absent","response":"present","rt":1680.799999997,"correct":false,"confidence":2},{"trial_n":121,"min":88,"max":167,"target":"present","response":"present","rt":1132,"correct":true,"confidence":4},{"trial_n":122,"min":88,"max":167,"target":"absent","response":"present","rt":1364.3999999911,"correct":false,"confidence":3},{"trial_n":123,"min":87,"max":168,"target":"absent","response":"present","rt":1198.299999997,"correct":false,"confidence":1},{"trial_n":124,"min":86,"max":169,"target":"absent","response":"present","rt":1378.299999997,"correct":false,"confidence":2},{"trial_n":125,"min":85,"max":170,"target":"absent","response":"present","rt":2030.6999999881,"correct":false,"confidence":2},{"trial_n":126,"min":84,"max":171,"target":"absent","response":"absent","rt":1680.1000000089,"correct":true,"confidence":2},{"trial_n":127,"min":84,"max":171,"target":"present","response":"present","rt":1179.599999994,"correct":true,"confidence":4},{"trial_n":128,"min":85,"max":170,"target":"absent","response":"present","rt":2082.5,"correct":false,"confidence":2},{"trial_n":129,"min":84,"max":171,"target":"present","response":"present","rt":1063.400000006,"correct":true,"confidence":4},{"trial_n":130,"min":84,"max":171,"target":"absent","response":"present","rt":2430.299999997,"correct":false,"confidence":3},{"trial_n":131,"min":83,"max":172,"target":"absent","response":"present","rt":1249.5,"correct":false,"confidence":3},{"trial_n":132,"min":82,"max":173,"target":"absent","response":"absent","rt":1762.3999999911,"correct":true,"confidence":3},{"trial_n":133,"min":82,"max":173,"target":"present","response":"present","rt":1062.200000003,"correct":true,"confidence":3},{"trial_n":134,"min":83,"max":172,"target":"absent","response":"absent","rt":1363.599999994,"correct":true,"confidence":3},{"trial_n":135,"min":83,"max":172,"target":"absent","response":"present","rt":1199.799999997,"correct":false,"confidence":3},{"trial_n":136,"min":82,"max":173,"target":"absent","response":"absent","rt":1398.3000000119,"correct":true,"confidence":3},{"trial_n":137,"min":82,"max":173,"target":"present","response":"present","rt":1514,"correct":true,"confidence":4},{"trial_n":138,"min":83,"max":172,"target":"present","response":"present","rt":1283.299999997,"correct":true,"confidence":4},{"trial_n":139,"min":83,"max":172,"target":"absent","response":"present","rt":1431.3000000119,"correct":false,"confidence":3},{"trial_n":140,"min":82,"max":173,"target":"present","response":"present","rt":1480.299999997,"correct":true,"confidence":3}]