[{"trial_n":1,"min":25,"max":230,"target":"present","response":"present","rt":2821,"correct":true,"confidence":-1},{"trial_n":2,"min":25,"max":230,"target":"present","response":"present","rt":807,"correct":true,"confidence":-1},{"trial_n":3,"min":41,"max":214,"target":"absent","response":"absent","rt":1495,"correct":true,"confidence":-1},{"trial_n":4,"min":41,"max":214,"target":"absent","response":"absent","rt":753,"correct":true,"confidence":-1},{"trial_n":5,"min":57,"max":198,"target":"present","response":"present","rt":819,"correct":true,"confidence":-1},{"trial_n":6,"min":57,"max":198,"target":"absent","response":"absent","rt":1060,"correct":true,"confidence":-1},{"trial_n":7,"min":73,"max":182,"target":"absent","response":"present","rt":1092,"correct":false,"confidence":-1},{"trial_n":8,"min":57,"max":198,"target":"present","response":"present","rt":514,"correct":true,"confidence":-1},{"trial_n":9,"min":57,"max":198,"target":"absent","response":"absent","rt":932,"correct":true,"confidence":-1},{"trial_n":10,"min":73,"max":182,"target":"absent","response":"absent","rt":393,"correct":true,"confidence":-1},{"trial_n":11,"min":73,"max":182,"target":"absent","response":"absent","rt":441,"correct":true,"confidence":-1},{"trial_n":12,"min":81,"max":174,"target":"absent","response":"absent","rt":356,"correct":true,"confidence":-1},{"trial_n":13,"min":81,"max":174,"target":"absent","response":"absent","rt":343,"correct":true,"confidence":-1},{"trial_n":14,"min":89,"max":166,"target":"present","response":"absent","rt":352,"correct":false,"confidence":-1},{"trial_n":15,"min":81,"max":174,"target":"absent","response":"absent","rt":605,"correct":true,"confidence":-1},{"trial_n":16,"min":81,"max":174,"target":"absent","response":"absent","rt":376,"correct":true,"confidence":-1},{"trial_n":17,"min":89,"max":166,"target":"absent","response":"present","rt":938,"correct":false,"confidence":-1},{"trial_n":18,"min":81,"max":174,"target":"absent","response":"absent","rt":391,"correct":true,"confidence":-1},{"trial_n":19,"min":81,"max":174,"target":"absent","response":"absent","rt":386,"correct":true,"confidence":-1},{"trial_n":20,"min":89,"max":166,"target":"present","response":"absent","rt":421.99999999999,"correct":false,"confidence":-1},{"trial_n":21,"min":85,"max":170,"target":"absent","response":"absent","rt":1241,"correct":true,"confidence":3},{"trial_n":22,"min":85,"max":170,"target":"present","response":"absent","rt":604.99999999999,"correct":false,"confidence":4},{"trial_n":23,"min":81,"max":174,"target":"present","response":"absent","rt":623.99999999999,"correct":false,"confidence":3},{"trial_n":24,"min":77,"max":178,"target":"present","response":"present","rt":1004,"correct":true,"confidence":3},{"trial_n":25,"min":77,"max":178,"target":"present","response":"present","rt":739,"correct":true,"confidence":4},{"trial_n":26,"min":81,"max":174,"target":"present","response":"absent","rt":958,"correct":false,"confidence":3},{"trial_n":27,"min":77,"max":178,"target":"present","response":"present","rt":964,"correct":true,"confidence":4},{"trial_n":28,"min":77,"max":178,"target":"present","response":"present","rt":820,"correct":true,"confidence":4},{"trial_n":29,"min":81,"max":174,"target":"present","response":"present","rt":1034,"correct":true,"confidence":4},{"trial_n":30,"min":81,"max":174,"target":"present","response":"present","rt":960,"correct":true,"confidence":4},{"trial_n":31,"min":83,"max":172,"target":"present","response":"present","rt":965,"correct":true,"confidence":4},{"trial_n":32,"min":83,"max":172,"target":"present","response":"absent","rt":1159,"correct":false,"confidence":2},{"trial_n":33,"min":81,"max":174,"target":"present","response":"present","rt":873,"correct":true,"confidence":4},{"trial_n":34,"min":81,"max":174,"target":"present","response":"present","rt":784,"correct":true,"confidence":4},{"trial_n":35,"min":83,"max":172,"target":"present","response":"absent","rt":743,"correct":false,"confidence":3},{"trial_n":36,"min":81,"max":174,"target":"absent","response":"absent","rt":789,"correct":true,"confidence":4},{"trial_n":37,"min":81,"max":174,"target":"present","response":"absent","rt":1428,"correct":false,"confidence":2},{"trial_n":38,"min":79,"max":176,"target":"present","response":"present","rt":669,"correct":true,"confidence":3},{"trial_n":39,"min":79,"max":176,"target":"present","response":"present","rt":673,"correct":true,"confidence":3},{"trial_n":40,"min":81,"max":174,"target":"absent","response":"absent","rt":1135,"correct":true,"confidence":3},{"trial_n":41,"min":81,"max":174,"target":"absent","response":"absent","rt":1241,"correct":true,"confidence":4},{"trial_n":42,"min":82,"max":173,"target":"present","response":"absent","rt":566,"correct":false,"confidence":4},{"trial_n":43,"min":81,"max":174,"target":"absent","response":"absent","rt":595,"correct":true,"confidence":4},{"trial_n":44,"min":81,"max":174,"target":"absent","response":"absent","rt":523,"correct":true,"confidence":4},{"trial_n":45,"min":82,"max":173,"target":"absent","response":"absent","rt":640,"correct":true,"confidence":5},{"trial_n":46,"min":82,"max":173,"target":"absent","response":"absent","rt":861,"correct":true,"confidence":4},{"trial_n":47,"min":83,"max":172,"target":"present","response":"absent","rt":859,"correct":false,"confidence":3},{"trial_n":48,"min":82,"max":173,"target":"absent","response":"absent","rt":722.99999999999,"correct":true,"confidence":4},{"trial_n":49,"min":82,"max":173,"target":"absent","response":"absent","rt":804,"correct":true,"confidence":4},{"trial_n":50,"min":83,"max":172,"target":"present","response":"absent","rt":602,"correct":false,"confidence":4},{"trial_n":51,"min":82,"max":173,"target":"present","response":"present","rt":820.99999999999,"correct":true,"confidence":4},{"trial_n":52,"min":82,"max":173,"target":"absent","response":"absent","rt":570.00000000003,"correct":true,"confidence":4},{"trial_n":53,"min":83,"max":172,"target":"present","response":"present","rt":1322,"correct":true,"confidence":2},{"trial_n":54,"min":83,"max":172,"target":"absent","response":"absent","rt":677,"correct":true,"confidence":4},{"trial_n":55,"min":84,"max":171,"target":"present","response":"absent","rt":649,"correct":false,"confidence":4},{"trial_n":56,"min":83,"max":172,"target":"present","response":"absent","rt":669,"correct":false,"confidence":4},{"trial_n":57,"min":82,"max":173,"target":"present","response":"absent","rt":1458,"correct":false,"confidence":2},{"trial_n":58,"min":81,"max":174,"target":"present","response":"present","rt":780.99999999997,"correct":true,"confidence":4},{"trial_n":59,"min":81,"max":174,"target":"present","response":"absent","rt":1398,"correct":false,"confidence":3},{"trial_n":60,"min":80,"max":175,"target":"absent","response":"absent","rt":654.00000000003,"correct":true,"confidence":4},{"trial_n":61,"min":80,"max":175,"target":"absent","response":"absent","rt":976,"correct":true,"confidence":5},{"trial_n":62,"min":81,"max":174,"target":"present","response":"absent","rt":713,"correct":false,"confidence":4},{"trial_n":63,"min":80,"max":175,"target":"present","response":"absent","rt":606,"correct":false,"confidence":5},{"trial_n":64,"min":79,"max":176,"target":"absent","response":"absent","rt":631,"correct":true,"confidence":5},{"trial_n":65,"min":79,"max":176,"target":"absent","response":"absent","rt":535,"correct":true,"confidence":5},{"trial_n":66,"min":80,"max":175,"target":"absent","response":"absent","rt":499,"correct":true,"confidence":5},{"trial_n":67,"min":80,"max":175,"target":"absent","response":"absent","rt":533,"correct":true,"confidence":5},{"trial_n":68,"min":81,"max":174,"target":"present","response":"absent","rt":859.99999999997,"correct":false,"confidence":3},{"trial_n":69,"min":80,"max":175,"target":"absent","response":"absent","rt":573,"correct":true,"confidence":3},{"trial_n":70,"min":80,"max":175,"target":"absent","response":"absent","rt":577.00000000003,"correct":true,"confidence":4},{"trial_n":71,"min":41,"max":214,"target":"present","response":"absent","rt":5648,"correct":false,"confidence":-1},{"trial_n":72,"min":41,"max":214,"target":"present","response":"present","rt":1459,"correct":true,"confidence":-1},{"trial_n":73,"min":41,"max":214,"target":"absent","response":"absent","rt":531,"correct":true,"confidence":-1},{"trial_n":74,"min":57,"max":198,"target":"absent","response":"absent","rt":442,"correct":true,"confidence":-1},{"trial_n":75,"min":57,"max":198,"target":"present","response":"present","rt":532,"correct":true,"confidence":-1},{"trial_n":76,"min":73,"max":182,"target":"absent","response":"absent","rt":488,"correct":true,"confidence":-1},{"trial_n":77,"min":73,"max":182,"target":"absent","response":"absent","rt":1085,"correct":true,"confidence":-1},{"trial_n":78,"min":89,"max":166,"target":"present","response":"present","rt":953,"correct":true,"confidence":-1},{"trial_n":79,"min":89,"max":166,"target":"absent","response":"absent","rt":531.99999999997,"correct":true,"confidence":-1},{"trial_n":80,"min":105,"max":150,"target":"absent","response":"present","rt":495.99999999997,"correct":false,"confidence":-1},{"trial_n":81,"min":97,"max":158,"target":"present","response":"absent","rt":680,"correct":false,"confidence":-1},{"trial_n":82,"min":89,"max":166,"target":"absent","response":"present","rt":500,"correct":false,"confidence":-1},{"trial_n":83,"min":81,"max":174,"target":"present","response":"present","rt":567.00000000003,"correct":true,"confidence":-1},{"trial_n":84,"min":81,"max":174,"target":"absent","response":"present","rt":579,"correct":false,"confidence":-1},{"trial_n":85,"min":73,"max":182,"target":"absent","response":"absent","rt":381,"correct":true,"confidence":-1},{"trial_n":86,"min":73,"max":182,"target":"present","response":"present","rt":304,"correct":true,"confidence":-1},{"trial_n":87,"min":81,"max":174,"target":"present","response":"present","rt":343.99999999997,"correct":true,"confidence":-1},{"trial_n":88,"min":81,"max":174,"target":"absent","response":"absent","rt":391,"correct":true,"confidence":-1},{"trial_n":89,"min":89,"max":166,"target":"absent","response":"present","rt":438,"correct":false,"confidence":-1},{"trial_n":90,"min":81,"max":174,"target":"absent","response":"absent","rt":411,"correct":true,"confidence":-1},{"trial_n":91,"min":81,"max":174,"target":"present","response":"present","rt":998,"correct":true,"confidence":2},{"trial_n":92,"min":85,"max":170,"target":"present","response":"absent","rt":753,"correct":false,"confidence":2},{"trial_n":93,"min":81,"max":174,"target":"present","response":"present","rt":557,"correct":true,"confidence":4},{"trial_n":94,"min":81,"max":174,"target":"present","response":"present","rt":991,"correct":true,"confidence":2},{"trial_n":95,"min":85,"max":170,"target":"absent","response":"present","rt":1047,"correct":false,"confidence":1},{"trial_n":96,"min":81,"max":174,"target":"absent","response":"present","rt":919,"correct":false,"confidence":1},{"trial_n":97,"min":77,"max":178,"target":"present","response":"present","rt":634,"correct":true,"confidence":5},{"trial_n":98,"min":77,"max":178,"target":"absent","response":"absent","rt":850.99999999997,"correct":true,"confidence":4},{"trial_n":99,"min":81,"max":174,"target":"absent","response":"present","rt":883.99999999997,"correct":false,"confidence":1},{"trial_n":100,"min":77,"max":178,"target":"present","response":"present","rt":601,"correct":true,"confidence":3},{"trial_n":101,"min":77,"max":178,"target":"absent","response":"present","rt":638,"correct":false,"confidence":1},{"trial_n":102,"min":75,"max":180,"target":"absent","response":"present","rt":405,"correct":false,"confidence":1},{"trial_n":103,"min":73,"max":182,"target":"absent","response":"present","rt":776,"correct":false,"confidence":3},{"trial_n":104,"min":71,"max":184,"target":"present","response":"present","rt":458,"correct":true,"confidence":4},{"trial_n":105,"min":71,"max":184,"target":"present","response":"present","rt":446.99999999997,"correct":true,"confidence":4},{"trial_n":106,"min":73,"max":182,"target":"absent","response":"present","rt":976,"correct":false,"confidence":1},{"trial_n":107,"min":71,"max":184,"target":"absent","response":"present","rt":625.99999999997,"correct":false,"confidence":1},{"trial_n":108,"min":69,"max":186,"target":"present","response":"present","rt":1236,"correct":true,"confidence":3},{"trial_n":109,"min":69,"max":186,"target":"absent","response":"absent","rt":858,"correct":true,"confidence":5},{"trial_n":110,"min":71,"max":184,"target":"absent","response":"present","rt":826,"correct":false,"confidence":1},{"trial_n":111,"min":70,"max":185,"target":"present","response":"present","rt":515,"correct":true,"confidence":5},{"trial_n":112,"min":70,"max":185,"target":"absent","response":"absent","rt":615.00000000006,"correct":true,"confidence":3},{"trial_n":113,"min":71,"max":184,"target":"present","response":"present","rt":397,"correct":true,"confidence":3},{"trial_n":114,"min":71,"max":184,"target":"present","response":"present","rt":464,"correct":true,"confidence":3},{"trial_n":115,"min":72,"max":183,"target":"absent","response":"absent","rt":822,"correct":true,"confidence":1},{"trial_n":116,"min":72,"max":183,"target":"present","response":"present","rt":540,"correct":true,"confidence":4},{"trial_n":117,"min":73,"max":182,"target":"present","response":"present","rt":292,"correct":true,"confidence":5},{"trial_n":118,"min":73,"max":182,"target":"absent","response":"absent","rt":638,"correct":true,"confidence":3},{"trial_n":119,"min":74,"max":181,"target":"present","response":"present","rt":453,"correct":true,"confidence":3},{"trial_n":120,"min":74,"max":181,"target":"present","response":"present","rt":408,"correct":true,"confidence":4},{"trial_n":121,"min":75,"max":180,"target":"present","response":"present","rt":472,"correct":true,"confidence":4},{"trial_n":122,"min":75,"max":180,"target":"absent","response":"absent","rt":1067.0000000001,"correct":true,"confidence":4},{"trial_n":123,"min":76,"max":179,"target":"present","response":"present","rt":370,"correct":true,"confidence":3},{"trial_n":124,"min":76,"max":179,"target":"present","response":"present","rt":466,"correct":true,"confidence":4},{"trial_n":125,"min":77,"max":178,"target":"present","response":"present","rt":562,"correct":true,"confidence":4},{"trial_n":126,"min":77,"max":178,"target":"absent","response":"absent","rt":611.99999999994,"correct":true,"confidence":4},{"trial_n":127,"min":78,"max":177,"target":"present","response":"present","rt":417,"correct":true,"confidence":4},{"trial_n":128,"min":78,"max":177,"target":"present","response":"present","rt":794,"correct":true,"confidence":1},{"trial_n":129,"min":79,"max":176,"target":"absent","response":"present","rt":534,"correct":false,"confidence":1},{"trial_n":130,"min":78,"max":177,"target":"absent","response":"present","rt":519.99999999994,"correct":false,"confidence":1},{"trial_n":131,"min":77,"max":178,"target":"present","response":"present","rt":582,"correct":true,"confidence":1},{"trial_n":132,"min":77,"max":178,"target":"present","response":"present","rt":553,"correct":true,"confidence":1},{"trial_n":133,"min":78,"max":177,"target":"absent","response":"absent","rt":1563.0000000001,"correct":true,"confidence":3},{"trial_n":134,"min":78,"max":177,"target":"present","response":"present","rt":512,"correct":true,"confidence":4},{"trial_n":135,"min":79,"max":176,"target":"present","response":"present","rt":755,"correct":true,"confidence":1},{"trial_n":136,"min":79,"max":176,"target":"present","response":"present","rt":633,"correct":true,"confidence":4},{"trial_n":137,"min":80,"max":175,"target":"absent","response":"present","rt":474.99999999994,"correct":false,"confidence":1},{"trial_n":138,"min":79,"max":176,"target":"absent","response":"present","rt":333,"correct":false,"confidence":1},{"trial_n":139,"min":78,"max":177,"target":"present","response":"present","rt":468,"correct":true,"confidence":1},{"trial_n":140,"min":78,"max":177,"target":"absent","response":"present","rt":532,"correct":false,"confidence":1}]