[{"trial_n":1,"n_dots":4.25,"target":"left","response":"left","rt":13412.400000002,"correct":true,"confidence":-1},{"trial_n":2,"n_dots":4.25,"target":"left","response":"left","rt":699.5,"correct":true,"confidence":-1},{"trial_n":3,"n_dots":3.85,"target":"left","response":"right","rt":414,"correct":false,"confidence":-1},{"trial_n":4,"n_dots":4.25,"target":"right","response":"right","rt":197.89999999851,"correct":true,"confidence":-1},{"trial_n":5,"n_dots":4.25,"target":"left","response":"left","rt":527.39999999851,"correct":true,"confidence":-1},{"trial_n":6,"n_dots":3.85,"target":"right","response":"right","rt":766.30000000075,"correct":true,"confidence":-1},{"trial_n":7,"n_dots":3.85,"target":"left","response":"left","rt":408.29999999702,"correct":true,"confidence":-1},{"trial_n":8,"n_dots":3.65,"target":"right","response":"right","rt":518.5,"correct":true,"confidence":-1},{"trial_n":9,"n_dots":3.65,"target":"left","response":"left","rt":615.89999999851,"correct":true,"confidence":-1},{"trial_n":10,"n_dots":3.45,"target":"right","response":"right","rt":176,"correct":true,"confidence":-1},{"trial_n":11,"n_dots":3.45,"target":"right","response":"left","rt":494.90000000224,"correct":false,"confidence":-1},{"trial_n":12,"n_dots":3.65,"target":"right","response":"right","rt":265.19999999925,"correct":true,"confidence":-1},{"trial_n":13,"n_dots":3.65,"target":"left","response":"left","rt":388.69999999925,"correct":true,"confidence":-1},{"trial_n":14,"n_dots":3.55,"target":"right","response":"right","rt":333.79999999702,"correct":true,"confidence":-1},{"trial_n":15,"n_dots":3.55,"target":"left","response":"left","rt":232.09999999776,"correct":true,"confidence":-1},{"trial_n":16,"n_dots":3.45,"target":"left","response":"left","rt":334.59999999776,"correct":true,"confidence":-1},{"trial_n":17,"n_dots":3.45,"target":"left","response":"left","rt":595,"correct":true,"confidence":-1},{"trial_n":18,"n_dots":3.35,"target":"right","response":"right","rt":386.30000000075,"correct":true,"confidence":-1},{"trial_n":19,"n_dots":3.35,"target":"right","response":"right","rt":292.89999999851,"correct":true,"confidence":-1},{"trial_n":20,"n_dots":3.25,"target":"left","response":"left","rt":267.90000000224,"correct":true,"confidence":-1},{"trial_n":21,"n_dots":3.25,"target":"right","response":"right","rt":383.89999999851,"correct":true,"confidence":3},{"trial_n":22,"n_dots":3.15,"target":"right","response":"right","rt":1085.299999997,"correct":true,"confidence":4},{"trial_n":23,"n_dots":3.15,"target":"left","response":"right","rt":1478.3000000007,"correct":false,"confidence":3},{"trial_n":24,"n_dots":3.25,"target":"right","response":"right","rt":817.5,"correct":true,"confidence":3},{"trial_n":25,"n_dots":3.25,"target":"right","response":"right","rt":1263.5,"correct":true,"confidence":3},{"trial_n":26,"n_dots":3.15,"target":"left","response":"left","rt":2149.8000000007,"correct":true,"confidence":3},{"trial_n":27,"n_dots":3.15,"target":"right","response":"right","rt":575.39999999851,"correct":true,"confidence":3},{"trial_n":28,"n_dots":3.05,"target":"right","response":"right","rt":740.69999999925,"correct":true,"confidence":3},{"trial_n":29,"n_dots":3.05,"target":"left","response":"left","rt":1895.5999999978,"correct":true,"confidence":2},{"trial_n":30,"n_dots":2.95,"target":"right","response":"right","rt":704.69999999925,"correct":true,"confidence":3},{"trial_n":31,"n_dots":2.95,"target":"left","response":"left","rt":1615.799999997,"correct":true,"confidence":2},{"trial_n":32,"n_dots":2.85,"target":"right","response":"right","rt":1371.5,"correct":true,"confidence":2},{"trial_n":33,"n_dots":2.85,"target":"right","response":"left","rt":1713.3999999985,"correct":false,"confidence":3},{"trial_n":34,"n_dots":2.95,"target":"left","response":"right","rt":3153.3000000007,"correct":false,"confidence":3},{"trial_n":35,"n_dots":3.05,"target":"left","response":"left","rt":1745.6999999993,"correct":true,"confidence":3},{"trial_n":36,"n_dots":3.05,"target":"left","response":"left","rt":626.19999999925,"correct":true,"confidence":3},{"trial_n":37,"n_dots":2.95,"target":"left","response":"left","rt":647.30000000075,"correct":true,"confidence":3},{"trial_n":38,"n_dots":2.95,"target":"left","response":"left","rt":1508.1999999993,"correct":true,"confidence":3},{"trial_n":39,"n_dots":2.85,"target":"right","response":"right","rt":1641.1999999993,"correct":true,"confidence":2},{"trial_n":40,"n_dots":2.85,"target":"left","response":"left","rt":848.60000000149,"correct":true,"confidence":3},{"trial_n":41,"n_dots":2.75,"target":"left","response":"right","rt":1677.9000000022,"correct":false,"confidence":2},{"trial_n":42,"n_dots":2.85,"target":"left","response":"right","rt":1699,"correct":false,"confidence":2},{"trial_n":43,"n_dots":2.95,"target":"left","response":"right","rt":1513.8999999985,"correct":false,"confidence":2},{"trial_n":44,"n_dots":3.05,"target":"right","response":"right","rt":1303.1999999993,"correct":true,"confidence":3},{"trial_n":45,"n_dots":3.05,"target":"right","response":"right","rt":1434.1000000015,"correct":true,"confidence":3},{"trial_n":46,"n_dots":2.95,"target":"left","response":"right","rt":2218.1999999993,"correct":false,"confidence":2},{"trial_n":47,"n_dots":3.05,"target":"left","response":"left","rt":1111.6000000015,"correct":true,"confidence":3},{"trial_n":48,"n_dots":3.05,"target":"right","response":"left","rt":1214.1999999993,"correct":false,"confidence":2},{"trial_n":49,"n_dots":3.15,"target":"left","response":"left","rt":1606.9000000022,"correct":true,"confidence":3},{"trial_n":50,"n_dots":3.15,"target":"left","response":"left","rt":1233.1999999993,"correct":true,"confidence":4},{"trial_n":51,"n_dots":3.05,"target":"left","response":"left","rt":1644.1000000015,"correct":true,"confidence":3},{"trial_n":52,"n_dots":3.05,"target":"right","response":"left","rt":1718.6000000015,"correct":false,"confidence":3},{"trial_n":53,"n_dots":3.15,"target":"right","response":"right","rt":1060.9000000022,"correct":true,"confidence":3},{"trial_n":54,"n_dots":3.15,"target":"left","response":"right","rt":917,"correct":false,"confidence":3},{"trial_n":55,"n_dots":3.25,"target":"right","response":"right","rt":1314.8000000007,"correct":true,"confidence":3},{"trial_n":56,"n_dots":3.25,"target":"left","response":"left","rt":1245.8000000007,"correct":true,"confidence":3},{"trial_n":57,"n_dots":3.15,"target":"right","response":"right","rt":1132.9000000022,"correct":true,"confidence":3},{"trial_n":58,"n_dots":3.15,"target":"left","response":"left","rt":9970,"correct":true,"confidence":2},{"trial_n":59,"n_dots":3.05,"target":"right","response":"left","rt":1416.5999999978,"correct":false,"confidence":2},{"trial_n":60,"n_dots":3.15,"target":"left","response":"left","rt":1085.3999999985,"correct":true,"confidence":3},{"trial_n":61,"n_dots":3.15,"target":"right","response":"right","rt":1342.5999999978,"correct":true,"confidence":2},{"trial_n":62,"n_dots":3.05,"target":"right","response":"right","rt":1013.1999999993,"correct":true,"confidence":3},{"trial_n":63,"n_dots":3.05,"target":"left","response":"left","rt":927.5,"correct":true,"confidence":4},{"trial_n":64,"n_dots":2.95,"target":"right","response":"left","rt":967.19999999925,"correct":false,"confidence":4},{"trial_n":65,"n_dots":3.05,"target":"right","response":"right","rt":1566,"correct":true,"confidence":3},{"trial_n":66,"n_dots":3.05,"target":"left","response":"left","rt":1179.6999999993,"correct":true,"confidence":3},{"trial_n":67,"n_dots":2.95,"target":"left","response":"left","rt":895.69999999925,"correct":true,"confidence":4},{"trial_n":68,"n_dots":2.95,"target":"left","response":"left","rt":933,"correct":true,"confidence":3},{"trial_n":69,"n_dots":2.85,"target":"right","response":"left","rt":1746.8999999985,"correct":false,"confidence":2},{"trial_n":70,"n_dots":2.95,"target":"right","response":"left","rt":950.5,"correct":false,"confidence":4},{"trial_n":71,"n_dots":3.05,"target":"left","response":"left","rt":861.89999999851,"correct":true,"confidence":4},{"trial_n":72,"n_dots":3.05,"target":"right","response":"left","rt":1445.6999999993,"correct":false,"confidence":3},{"trial_n":73,"n_dots":3.15,"target":"left","response":"left","rt":851.20000000298,"correct":true,"confidence":5},{"trial_n":74,"n_dots":3.15,"target":"left","response":"left","rt":1064.3999999985,"correct":true,"confidence":4},{"trial_n":75,"n_dots":3.05,"target":"right","response":"right","rt":1066.700000003,"correct":true,"confidence":3},{"trial_n":76,"n_dots":3.05,"target":"right","response":"right","rt":1498.5,"correct":true,"confidence":2},{"trial_n":77,"n_dots":2.95,"target":"right","response":"right","rt":1151.1999999993,"correct":true,"confidence":3},{"trial_n":78,"n_dots":2.95,"target":"left","response":"left","rt":984.19999999925,"correct":true,"confidence":3},{"trial_n":79,"n_dots":2.85,"target":"left","response":"left","rt":904.10000000149,"correct":true,"confidence":3},{"trial_n":80,"n_dots":2.85,"target":"right","response":"left","rt":1118.3999999985,"correct":false,"confidence":3},{"trial_n":81,"n_dots":2.95,"target":"left","response":"left","rt":718.20000000298,"correct":true,"confidence":3},{"trial_n":82,"n_dots":2.95,"target":"right","response":"left","rt":1146.6000000015,"correct":false,"confidence":2},{"trial_n":83,"n_dots":3.05,"target":"right","response":"right","rt":778.10000000149,"correct":true,"confidence":2},{"trial_n":84,"n_dots":3.05,"target":"right","response":"left","rt":981.89999999851,"correct":false,"confidence":3},{"trial_n":85,"n_dots":3.15,"target":"right","response":"left","rt":1167.8000000007,"correct":false,"confidence":3},{"trial_n":86,"n_dots":3.25,"target":"right","response":"right","rt":982.30000000075,"correct":true,"confidence":2},{"trial_n":87,"n_dots":3.25,"target":"left","response":"left","rt":817.39999999851,"correct":true,"confidence":3},{"trial_n":88,"n_dots":3.15,"target":"left","response":"left","rt":1062.3999999985,"correct":true,"confidence":3},{"trial_n":89,"n_dots":3.15,"target":"left","response":"left","rt":1061,"correct":true,"confidence":3},{"trial_n":90,"n_dots":3.05,"target":"left","response":"left","rt":1080.6000000015,"correct":true,"confidence":3},{"trial_n":91,"n_dots":3.05,"target":"left","response":"left","rt":751.80000000075,"correct":true,"confidence":4},{"trial_n":92,"n_dots":2.95,"target":"left","response":"left","rt":830.89999999851,"correct":true,"confidence":3},{"trial_n":93,"n_dots":2.95,"target":"left","response":"left","rt":947.39999999851,"correct":true,"confidence":3},{"trial_n":94,"n_dots":2.85,"target":"right","response":"right","rt":1078.8999999985,"correct":true,"confidence":3},{"trial_n":95,"n_dots":2.85,"target":"right","response":"right","rt":1034.6999999993,"correct":true,"confidence":3},{"trial_n":96,"n_dots":2.75,"target":"right","response":"right","rt":1115.5,"correct":true,"confidence":3},{"trial_n":97,"n_dots":2.75,"target":"right","response":"right","rt":999.30000000075,"correct":true,"confidence":2},{"trial_n":98,"n_dots":2.65,"target":"right","response":"left","rt":1330.5,"correct":false,"confidence":2},{"trial_n":99,"n_dots":2.75,"target":"right","response":"right","rt":880.39999999851,"correct":true,"confidence":3},{"trial_n":100,"n_dots":2.75,"target":"left","response":"left","rt":847.69999999925,"correct":true,"confidence":4},{"trial_n":101,"n_dots":2.65,"target":"right","response":"left","rt":1326.6999999993,"correct":false,"confidence":2},{"trial_n":102,"n_dots":2.75,"target":"right","response":"right","rt":886.39999999851,"correct":true,"confidence":3},{"trial_n":103,"n_dots":2.75,"target":"right","response":"right","rt":762.40000000224,"correct":true,"confidence":3},{"trial_n":104,"n_dots":2.65,"target":"right","response":"left","rt":1164,"correct":false,"confidence":3},{"trial_n":105,"n_dots":2.75,"target":"left","response":"left","rt":1032,"correct":true,"confidence":3},{"trial_n":106,"n_dots":2.75,"target":"left","response":"left","rt":1080.9000000022,"correct":true,"confidence":3},{"trial_n":107,"n_dots":2.65,"target":"left","response":"left","rt":1001.700000003,"correct":true,"confidence":3},{"trial_n":108,"n_dots":2.65,"target":"right","response":"left","rt":1000.5,"correct":false,"confidence":2},{"trial_n":109,"n_dots":2.75,"target":"right","response":"right","rt":678.30000000075,"correct":true,"confidence":3},{"trial_n":110,"n_dots":2.75,"target":"left","response":"left","rt":1045.5999999978,"correct":true,"confidence":3},{"trial_n":111,"n_dots":2.65,"target":"right","response":"right","rt":892.89999999851,"correct":true,"confidence":3},{"trial_n":112,"n_dots":2.65,"target":"left","response":"left","rt":1044.299999997,"correct":true,"confidence":3},{"trial_n":113,"n_dots":2.55,"target":"right","response":"left","rt":1432.6999999993,"correct":false,"confidence":2},{"trial_n":114,"n_dots":2.65,"target":"left","response":"right","rt":1531.5999999978,"correct":false,"confidence":2},{"trial_n":115,"n_dots":2.75,"target":"right","response":"left","rt":967.69999999925,"correct":false,"confidence":2},{"trial_n":116,"n_dots":2.85,"target":"left","response":"left","rt":914.60000000149,"correct":true,"confidence":3},{"trial_n":117,"n_dots":2.85,"target":"left","response":"right","rt":1717.3000000007,"correct":false,"confidence":3},{"trial_n":118,"n_dots":2.95,"target":"right","response":"left","rt":1448.6999999993,"correct":false,"confidence":2},{"trial_n":119,"n_dots":3.05,"target":"left","response":"left","rt":1214.1000000015,"correct":true,"confidence":2},{"trial_n":120,"n_dots":3.05,"target":"right","response":"right","rt":947.39999999851,"correct":true,"confidence":2}]