[{"trial_n":1,"min":25,"max":230,"target":"present","response":"present","rt":7409,"correct":true,"confidence":-1},{"trial_n":2,"min":25,"max":230,"target":"present","response":"present","rt":1122,"correct":true,"confidence":-1},{"trial_n":3,"min":41,"max":214,"target":"absent","response":"absent","rt":2075,"correct":true,"confidence":-1},{"trial_n":4,"min":41,"max":214,"target":"absent","response":"absent","rt":537,"correct":true,"confidence":-1},{"trial_n":5,"min":57,"max":198,"target":"present","response":"present","rt":892,"correct":true,"confidence":-1},{"trial_n":6,"min":57,"max":198,"target":"present","response":"present","rt":2100,"correct":true,"confidence":-1},{"trial_n":7,"min":73,"max":182,"target":"present","response":"present","rt":920.00000000001,"correct":true,"confidence":-1},{"trial_n":8,"min":73,"max":182,"target":"absent","response":"absent","rt":1016,"correct":true,"confidence":-1},{"trial_n":9,"min":89,"max":166,"target":"absent","response":"absent","rt":596,"correct":true,"confidence":-1},{"trial_n":10,"min":89,"max":166,"target":"present","response":"absent","rt":510,"correct":false,"confidence":-1},{"trial_n":11,"min":81,"max":174,"target":"present","response":"present","rt":1275,"correct":true,"confidence":-1},{"trial_n":12,"min":81,"max":174,"target":"present","response":"present","rt":905,"correct":true,"confidence":-1},{"trial_n":13,"min":89,"max":166,"target":"absent","response":"absent","rt":593,"correct":true,"confidence":-1},{"trial_n":14,"min":89,"max":166,"target":"present","response":"absent","rt":827,"correct":false,"confidence":-1},{"trial_n":15,"min":81,"max":174,"target":"absent","response":"absent","rt":773,"correct":true,"confidence":-1},{"trial_n":16,"min":81,"max":174,"target":"present","response":"present","rt":476,"correct":true,"confidence":-1},{"trial_n":17,"min":89,"max":166,"target":"present","response":"absent","rt":577,"correct":false,"confidence":-1},{"trial_n":18,"min":81,"max":174,"target":"present","response":"present","rt":535,"correct":true,"confidence":-1},{"trial_n":19,"min":81,"max":174,"target":"absent","response":"present","rt":707,"correct":false,"confidence":-1},{"trial_n":20,"min":73,"max":182,"target":"absent","response":"present","rt":488,"correct":false,"confidence":-1},{"trial_n":21,"min":69,"max":186,"target":"absent","response":"present","rt":950,"correct":false,"confidence":3},{"trial_n":22,"min":65,"max":190,"target":"present","response":"present","rt":542,"correct":true,"confidence":4},{"trial_n":23,"min":65,"max":190,"target":"absent","response":"present","rt":2508,"correct":false,"confidence":4},{"trial_n":24,"min":61,"max":194,"target":"present","response":"present","rt":2227,"correct":true,"confidence":4},{"trial_n":25,"min":61,"max":194,"target":"present","response":"present","rt":1189,"correct":true,"confidence":4},{"trial_n":26,"min":65,"max":190,"target":"absent","response":"present","rt":986.99999999999,"correct":false,"confidence":4},{"trial_n":27,"min":61,"max":194,"target":"absent","response":"absent","rt":808,"correct":true,"confidence":3},{"trial_n":28,"min":61,"max":194,"target":"present","response":"present","rt":483,"correct":true,"confidence":5},{"trial_n":29,"min":65,"max":190,"target":"present","response":"present","rt":445,"correct":true,"confidence":5},{"trial_n":30,"min":65,"max":190,"target":"absent","response":"present","rt":2260,"correct":false,"confidence":3},{"trial_n":31,"min":63,"max":192,"target":"absent","response":"absent","rt":1902,"correct":true,"confidence":2},{"trial_n":32,"min":63,"max":192,"target":"present","response":"present","rt":485,"correct":true,"confidence":5},{"trial_n":33,"min":65,"max":190,"target":"absent","response":"absent","rt":713,"correct":true,"confidence":4},{"trial_n":34,"min":65,"max":190,"target":"present","response":"present","rt":366,"correct":true,"confidence":5},{"trial_n":35,"min":67,"max":188,"target":"absent","response":"absent","rt":690.99999999997,"correct":true,"confidence":3},{"trial_n":36,"min":67,"max":188,"target":"present","response":"present","rt":338.00000000003,"correct":true,"confidence":4},{"trial_n":37,"min":69,"max":186,"target":"present","response":"present","rt":313,"correct":true,"confidence":5},{"trial_n":38,"min":69,"max":186,"target":"present","response":"present","rt":632,"correct":true,"confidence":4},{"trial_n":39,"min":71,"max":184,"target":"absent","response":"absent","rt":582,"correct":true,"confidence":3},{"trial_n":40,"min":71,"max":184,"target":"absent","response":"absent","rt":1241,"correct":true,"confidence":2},{"trial_n":41,"min":72,"max":183,"target":"present","response":"present","rt":323.99999999997,"correct":true,"confidence":4},{"trial_n":42,"min":72,"max":183,"target":"absent","response":"present","rt":1153,"correct":false,"confidence":3},{"trial_n":43,"min":71,"max":184,"target":"present","response":"present","rt":321,"correct":true,"confidence":5},{"trial_n":44,"min":71,"max":184,"target":"present","response":"present","rt":336,"correct":true,"confidence":5},{"trial_n":45,"min":72,"max":183,"target":"present","response":"present","rt":741,"correct":true,"confidence":4},{"trial_n":46,"min":72,"max":183,"target":"present","response":"present","rt":486.00000000003,"correct":true,"confidence":3},{"trial_n":47,"min":73,"max":182,"target":"absent","response":"absent","rt":1422,"correct":true,"confidence":3},{"trial_n":48,"min":73,"max":182,"target":"absent","response":"absent","rt":842,"correct":true,"confidence":3},{"trial_n":49,"min":74,"max":181,"target":"present","response":"present","rt":2321,"correct":true,"confidence":3},{"trial_n":50,"min":74,"max":181,"target":"present","response":"absent","rt":605,"correct":false,"confidence":3},{"trial_n":51,"min":73,"max":182,"target":"present","response":"present","rt":2560,"correct":true,"confidence":3},{"trial_n":52,"min":73,"max":182,"target":"present","response":"present","rt":426.99999999997,"correct":true,"confidence":3},{"trial_n":53,"min":74,"max":181,"target":"absent","response":"absent","rt":400,"correct":true,"confidence":2},{"trial_n":54,"min":74,"max":181,"target":"present","response":"present","rt":670.00000000003,"correct":true,"confidence":2},{"trial_n":55,"min":75,"max":180,"target":"absent","response":"absent","rt":1307,"correct":true,"confidence":2},{"trial_n":56,"min":75,"max":180,"target":"present","response":"present","rt":389,"correct":true,"confidence":5},{"trial_n":57,"min":76,"max":179,"target":"absent","response":"present","rt":821,"correct":false,"confidence":3},{"trial_n":58,"min":75,"max":180,"target":"absent","response":"absent","rt":2453,"correct":true,"confidence":3},{"trial_n":59,"min":75,"max":180,"target":"present","response":"present","rt":358,"correct":true,"confidence":5},{"trial_n":60,"min":76,"max":179,"target":"absent","response":"absent","rt":860.99999999994,"correct":true,"confidence":3},{"trial_n":61,"min":76,"max":179,"target":"present","response":"present","rt":1413,"correct":true,"confidence":3},{"trial_n":62,"min":77,"max":178,"target":"absent","response":"absent","rt":460,"correct":true,"confidence":4},{"trial_n":63,"min":77,"max":178,"target":"absent","response":"absent","rt":7584,"correct":true,"confidence":3},{"trial_n":64,"min":78,"max":177,"target":"absent","response":"absent","rt":581,"correct":true,"confidence":4},{"trial_n":65,"min":78,"max":177,"target":"absent","response":"absent","rt":3720,"correct":true,"confidence":1},{"trial_n":66,"min":79,"max":176,"target":"absent","response":"absent","rt":524,"correct":true,"confidence":4},{"trial_n":67,"min":79,"max":176,"target":"absent","response":"absent","rt":554,"correct":true,"confidence":4},{"trial_n":68,"min":80,"max":175,"target":"present","response":"present","rt":453.00000000006,"correct":true,"confidence":4},{"trial_n":69,"min":80,"max":175,"target":"absent","response":"absent","rt":377,"correct":true,"confidence":4},{"trial_n":70,"min":81,"max":174,"target":"absent","response":"absent","rt":883,"correct":true,"confidence":5},{"trial_n":71,"min":41,"max":214,"target":"present","response":"present","rt":8138,"correct":true,"confidence":-1},{"trial_n":72,"min":41,"max":214,"target":"present","response":"present","rt":9027.0000000001,"correct":true,"confidence":-1},{"trial_n":73,"min":57,"max":198,"target":"absent","response":"present","rt":5335,"correct":false,"confidence":-1},{"trial_n":74,"min":41,"max":214,"target":"absent","response":"absent","rt":872,"correct":true,"confidence":-1},{"trial_n":75,"min":41,"max":214,"target":"present","response":"present","rt":531,"correct":true,"confidence":-1},{"trial_n":76,"min":57,"max":198,"target":"present","response":"absent","rt":597,"correct":false,"confidence":-1},{"trial_n":77,"min":41,"max":214,"target":"absent","response":"absent","rt":861,"correct":true,"confidence":-1},{"trial_n":78,"min":41,"max":214,"target":"absent","response":"absent","rt":1639,"correct":true,"confidence":-1},{"trial_n":79,"min":57,"max":198,"target":"present","response":"present","rt":610,"correct":true,"confidence":-1},{"trial_n":80,"min":57,"max":198,"target":"present","response":"present","rt":657,"correct":true,"confidence":-1},{"trial_n":81,"min":65,"max":190,"target":"absent","response":"absent","rt":546.99999999994,"correct":true,"confidence":-1},{"trial_n":82,"min":65,"max":190,"target":"absent","response":"present","rt":470,"correct":false,"confidence":-1},{"trial_n":83,"min":57,"max":198,"target":"absent","response":"absent","rt":540,"correct":true,"confidence":-1},{"trial_n":84,"min":57,"max":198,"target":"present","response":"present","rt":2564.9999999999,"correct":true,"confidence":-1},{"trial_n":85,"min":65,"max":190,"target":"present","response":"present","rt":474.00000000006,"correct":true,"confidence":-1},{"trial_n":86,"min":65,"max":190,"target":"absent","response":"absent","rt":512,"correct":true,"confidence":-1},{"trial_n":87,"min":73,"max":182,"target":"absent","response":"absent","rt":346,"correct":true,"confidence":-1},{"trial_n":88,"min":73,"max":182,"target":"absent","response":"present","rt":380,"correct":false,"confidence":-1},{"trial_n":89,"min":65,"max":190,"target":"present","response":"present","rt":921.99999999994,"correct":true,"confidence":-1},{"trial_n":90,"min":65,"max":190,"target":"present","response":"present","rt":567,"correct":true,"confidence":-1},{"trial_n":91,"min":69,"max":186,"target":"absent","response":"absent","rt":1118,"correct":true,"confidence":4},{"trial_n":92,"min":69,"max":186,"target":"present","response":"present","rt":1417,"correct":true,"confidence":5},{"trial_n":93,"min":73,"max":182,"target":"present","response":"present","rt":1200,"correct":true,"confidence":3},{"trial_n":94,"min":73,"max":182,"target":"present","response":"present","rt":352.99999999994,"correct":true,"confidence":5},{"trial_n":95,"min":77,"max":178,"target":"absent","response":"absent","rt":508,"correct":true,"confidence":3},{"trial_n":96,"min":77,"max":178,"target":"present","response":"present","rt":959,"correct":true,"confidence":4},{"trial_n":97,"min":81,"max":174,"target":"absent","response":"absent","rt":1685,"correct":true,"confidence":3},{"trial_n":98,"min":81,"max":174,"target":"present","response":"present","rt":944.99999999994,"correct":true,"confidence":4},{"trial_n":99,"min":85,"max":170,"target":"absent","response":"absent","rt":1932,"correct":true,"confidence":2},{"trial_n":100,"min":85,"max":170,"target":"absent","response":"present","rt":1061,"correct":false,"confidence":2},{"trial_n":101,"min":83,"max":172,"target":"absent","response":"absent","rt":839.99999999994,"correct":true,"confidence":1},{"trial_n":102,"min":83,"max":172,"target":"present","response":"present","rt":560,"correct":true,"confidence":4},{"trial_n":103,"min":85,"max":170,"target":"absent","response":"absent","rt":771,"correct":true,"confidence":3},{"trial_n":104,"min":85,"max":170,"target":"absent","response":"present","rt":402.99999999994,"correct":false,"confidence":2},{"trial_n":105,"min":83,"max":172,"target":"present","response":"present","rt":737,"correct":true,"confidence":2},{"trial_n":106,"min":83,"max":172,"target":"present","response":"present","rt":522.00000000006,"correct":true,"confidence":3},{"trial_n":107,"min":85,"max":170,"target":"present","response":"present","rt":441.99999999994,"correct":true,"confidence":3},{"trial_n":108,"min":85,"max":170,"target":"absent","response":"absent","rt":1282.9999999999,"correct":true,"confidence":1},{"trial_n":109,"min":87,"max":168,"target":"present","response":"present","rt":625,"correct":true,"confidence":2},{"trial_n":110,"min":87,"max":168,"target":"present","response":"present","rt":517.00000000006,"correct":true,"confidence":2},{"trial_n":111,"min":88,"max":167,"target":"absent","response":"present","rt":665,"correct":false,"confidence":2},{"trial_n":112,"min":87,"max":168,"target":"present","response":"present","rt":1025,"correct":true,"confidence":2},{"trial_n":113,"min":87,"max":168,"target":"absent","response":"absent","rt":959,"correct":true,"confidence":2},{"trial_n":114,"min":88,"max":167,"target":"present","response":"present","rt":521,"correct":true,"confidence":3},{"trial_n":115,"min":88,"max":167,"target":"absent","response":"present","rt":2368,"correct":false,"confidence":1},{"trial_n":116,"min":87,"max":168,"target":"absent","response":"present","rt":1310.9999999999,"correct":false,"confidence":2},{"trial_n":117,"min":86,"max":169,"target":"absent","response":"present","rt":2537,"correct":false,"confidence":2},{"trial_n":118,"min":85,"max":170,"target":"absent","response":"present","rt":495,"correct":false,"confidence":4},{"trial_n":119,"min":84,"max":171,"target":"present","response":"absent","rt":1609,"correct":false,"confidence":1},{"trial_n":120,"min":83,"max":172,"target":"present","response":"present","rt":535,"correct":true,"confidence":2},{"trial_n":121,"min":83,"max":172,"target":"present","response":"present","rt":2098.0000000001,"correct":true,"confidence":3},{"trial_n":122,"min":84,"max":171,"target":"absent","response":"present","rt":1757.0000000001,"correct":false,"confidence":1},{"trial_n":123,"min":83,"max":172,"target":"absent","response":"present","rt":858.00000000012,"correct":false,"confidence":3},{"trial_n":124,"min":82,"max":173,"target":"present","response":"present","rt":313,"correct":true,"confidence":4},{"trial_n":125,"min":82,"max":173,"target":"present","response":"present","rt":1238.0000000001,"correct":true,"confidence":4},{"trial_n":126,"min":83,"max":172,"target":"present","response":"present","rt":888,"correct":true,"confidence":5},{"trial_n":127,"min":83,"max":172,"target":"absent","response":"absent","rt":1395,"correct":true,"confidence":2},{"trial_n":128,"min":84,"max":171,"target":"present","response":"present","rt":391.99999999988,"correct":true,"confidence":3},{"trial_n":129,"min":84,"max":171,"target":"present","response":"present","rt":1039,"correct":true,"confidence":1},{"trial_n":130,"min":85,"max":170,"target":"present","response":"absent","rt":1577,"correct":false,"confidence":1},{"trial_n":131,"min":84,"max":171,"target":"absent","response":"absent","rt":923,"correct":true,"confidence":2},{"trial_n":132,"min":84,"max":171,"target":"present","response":"present","rt":905,"correct":true,"confidence":4},{"trial_n":133,"min":85,"max":170,"target":"absent","response":"absent","rt":700,"correct":true,"confidence":4},{"trial_n":134,"min":85,"max":170,"target":"present","response":"present","rt":304.99999999988,"correct":true,"confidence":4},{"trial_n":135,"min":86,"max":169,"target":"absent","response":"present","rt":2257,"correct":false,"confidence":2},{"trial_n":136,"min":85,"max":170,"target":"absent","response":"absent","rt":1141,"correct":true,"confidence":1},{"trial_n":137,"min":85,"max":170,"target":"present","response":"present","rt":369,"correct":true,"confidence":2},{"trial_n":138,"min":86,"max":169,"target":"absent","response":"present","rt":985,"correct":false,"confidence":1},{"trial_n":139,"min":85,"max":170,"target":"present","response":"present","rt":441,"correct":true,"confidence":2},{"trial_n":140,"min":85,"max":170,"target":"absent","response":"present","rt":1727.0000000001,"correct":false,"confidence":1}]