[{"trial_n":1,"span":8,"encoder":"34431457","distractor":"34231457","target":"present","response":"absent","rt":"10679","correct":false,"confidence":-1},{"trial_n":2,"span":6,"encoder":"886553","distractor":"888553","target":"present","response":"present","rt":"2312","correct":true,"confidence":-1},{"trial_n":3,"span":6,"encoder":"579599","distractor":"579499","target":"absent","response":"absent","rt":"2531","correct":true,"confidence":-1},{"trial_n":4,"span":8,"encoder":"41918598","distractor":"41918593","target":"absent","response":"present","rt":"5636","correct":false,"confidence":-1},{"trial_n":5,"span":6,"encoder":"418262","distractor":"458262","target":"present","response":"present","rt":"2212","correct":true,"confidence":-1},{"trial_n":6,"span":6,"encoder":"621628","distractor":"021628","target":"absent","response":"absent","rt":"1797","correct":true,"confidence":-1},{"trial_n":7,"span":8,"encoder":"83604421","distractor":"83604424","target":"absent","response":"absent","rt":"3067","correct":true,"confidence":-1},{"trial_n":8,"span":8,"encoder":"38084983","distractor":"38184983","target":"present","response":"present","rt":"1832","correct":true,"confidence":-1},{"trial_n":9,"span":10,"encoder":"9237789396","distractor":"9237783396","target":"present","response":"present","rt":"1758","correct":true,"confidence":-1},{"trial_n":10,"span":10,"encoder":"9835177270","distractor":"9835176270","target":"absent","response":"absent","rt":"2250","correct":true,"confidence":-1},{"trial_n":11,"span":12,"encoder":"776426225524","distractor":"776426425524","target":"present","response":"absent","rt":"8854","correct":false,"confidence":-1},{"trial_n":12,"span":11,"encoder":"77652879091","distractor":"77652379091","target":"absent","response":"present","rt":"2825","correct":false,"confidence":-1},{"trial_n":13,"span":10,"encoder":"3320927809","distractor":"3330927809","target":"absent","response":"present","rt":"2367","correct":false,"confidence":-1},{"trial_n":14,"span":9,"encoder":"076277652","distractor":"076275652","target":"present","response":"present","rt":"2295","correct":true,"confidence":-1},{"trial_n":15,"span":9,"encoder":"234454792","distractor":"236454792","target":"present","response":"present","rt":"2183","correct":true,"confidence":-1},{"trial_n":16,"span":10,"encoder":"2765076066","distractor":"0765076066","target":"present","response":"present","rt":"2303","correct":true,"confidence":-1},{"trial_n":17,"span":10,"encoder":"8364279904","distractor":"5364279904","target":"absent","response":"present","rt":"1919","correct":false,"confidence":-1},{"trial_n":18,"span":9,"encoder":"371498150","distractor":"371491150","target":"present","response":"present","rt":"4957","correct":true,"confidence":-1},{"trial_n":19,"span":9,"encoder":"621877562","distractor":"629877562","target":"absent","response":"present","rt":"1650","correct":false,"confidence":-1},{"trial_n":20,"span":8,"encoder":"09540624","distractor":"05540624","target":"present","response":"present","rt":"2902","correct":true,"confidence":-1},{"trial_n":21,"span":8,"encoder":"47999076","distractor":"67999076","target":"present","response":"present","rt":"2825.9999999998","correct":true,"confidence":5},{"trial_n":22,"span":9,"encoder":"140877743","distractor":"140870743","target":"absent","response":"absent","rt":"2448","correct":true,"confidence":5},{"trial_n":23,"span":9,"encoder":"687471189","distractor":"687471089","target":"present","response":"present","rt":"3114","correct":true,"confidence":4},{"trial_n":24,"span":10,"encoder":"5748036934","distractor":"5748076934","target":"present","response":"present","rt":"3809","correct":true,"confidence":3},{"trial_n":25,"span":10,"encoder":"6723632489","distractor":"6823632489","target":"present","response":"present","rt":"1613","correct":true,"confidence":3},{"trial_n":26,"span":11,"encoder":"80009666771","distractor":"80009666701","target":"absent","response":"absent","rt":"3069","correct":true,"confidence":4},{"trial_n":27,"span":11,"encoder":"44710465474","distractor":"44712465474","target":"present","response":"absent","rt":"3365","correct":false,"confidence":2},{"trial_n":28,"span":10,"encoder":"0089233018","distractor":"4089233018","target":"absent","response":"present","rt":"3578","correct":false,"confidence":3},{"trial_n":29,"span":9,"encoder":"239166962","distractor":"239162962","target":"absent","response":"absent","rt":"2444","correct":true,"confidence":4},{"trial_n":30,"span":9,"encoder":"370303163","distractor":"070303163","target":"absent","response":"absent","rt":"3356.0000000002","correct":true,"confidence":3},{"trial_n":31,"span":10,"encoder":"6870253890","distractor":"6870853890","target":"absent","response":"present","rt":"5261.0000000002","correct":false,"confidence":3},{"trial_n":32,"span":9,"encoder":"942511736","distractor":"942512736","target":"absent","response":"present","rt":"6865","correct":false,"confidence":3},{"trial_n":33,"span":8,"encoder":"72521737","distractor":"72581737","target":"present","response":"present","rt":"3461","correct":true,"confidence":4},{"trial_n":34,"span":8,"encoder":"88152336","distractor":"88452336","target":"absent","response":"present","rt":"4666","correct":false,"confidence":3},{"trial_n":35,"span":7,"encoder":"3463446","distractor":"3463448","target":"absent","response":"absent","rt":"3861","correct":true,"confidence":5},{"trial_n":36,"span":7,"encoder":"6996761","distractor":"9996761","target":"present","response":"present","rt":"2199","correct":true,"confidence":5},{"trial_n":37,"span":8,"encoder":"94558425","distractor":"94508425","target":"present","response":"present","rt":"2880.0000000002","correct":true,"confidence":4},{"trial_n":38,"span":8,"encoder":"34125240","distractor":"33125240","target":"absent","response":"absent","rt":"4271","correct":true,"confidence":2},{"trial_n":39,"span":9,"encoder":"151083759","distractor":"151081759","target":"present","response":"present","rt":"3878.9999999998","correct":true,"confidence":3},{"trial_n":40,"span":9,"encoder":"079819032","distractor":"072819032","target":"present","response":"present","rt":"3243","correct":true,"confidence":5},{"trial_n":41,"span":10,"encoder":"8802860003","distractor":"8802830003","target":"absent","response":"absent","rt":"2136","correct":true,"confidence":1},{"trial_n":42,"span":10,"encoder":"7689689874","distractor":"7689689894","target":"present","response":"present","rt":"4787","correct":true,"confidence":2},{"trial_n":43,"span":11,"encoder":"90366425176","distractor":"20366425176","target":"present","response":"absent","rt":"1983","correct":false,"confidence":1},{"trial_n":44,"span":10,"encoder":"4558445314","distractor":"1558445314","target":"present","response":"absent","rt":"3080","correct":false,"confidence":3},{"trial_n":45,"span":9,"encoder":"769672126","distractor":"269672126","target":"present","response":"present","rt":"2069.0000000002","correct":true,"confidence":3},{"trial_n":46,"span":9,"encoder":"545757011","distractor":"545753011","target":"absent","response":"absent","rt":"3084","correct":true,"confidence":4},{"trial_n":47,"span":10,"encoder":"2232444012","distractor":"2232944012","target":"present","response":"present","rt":"5080","correct":true,"confidence":1},{"trial_n":48,"span":10,"encoder":"7199928913","distractor":"0199928913","target":"present","response":"present","rt":"3420","correct":true,"confidence":3},{"trial_n":49,"span":11,"encoder":"88072200949","distractor":"88042200949","target":"absent","response":"absent","rt":"3343","correct":true,"confidence":4},{"trial_n":50,"span":11,"encoder":"45304737021","distractor":"45904737021","target":"absent","response":"present","rt":"4744.9999999998","correct":false,"confidence":3},{"trial_n":51,"span":10,"encoder":"1713134072","distractor":"1713133072","target":"absent","response":"present","rt":"5375","correct":false,"confidence":3},{"trial_n":52,"span":9,"encoder":"389639495","distractor":"389539495","target":"absent","response":"absent","rt":"3285.0000000002","correct":true,"confidence":3},{"trial_n":53,"span":9,"encoder":"001471631","distractor":"001472631","target":"present","response":"present","rt":"3045","correct":true,"confidence":4},{"trial_n":54,"span":10,"encoder":"5347667484","distractor":"5347667444","target":"present","response":"absent","rt":"5602","correct":false,"confidence":2},{"trial_n":55,"span":9,"encoder":"942154575","distractor":"942154675","target":"absent","response":"absent","rt":"4232","correct":true,"confidence":3},{"trial_n":56,"span":9,"encoder":"911127523","distractor":"911107523","target":"absent","response":"present","rt":"3490","correct":false,"confidence":3},{"trial_n":57,"span":8,"encoder":"09166541","distractor":"09166546","target":"absent","response":"absent","rt":"4139.9999999998","correct":true,"confidence":4},{"trial_n":58,"span":8,"encoder":"31705884","distractor":"81705884","target":"present","response":"present","rt":"3060","correct":true,"confidence":4},{"trial_n":59,"span":9,"encoder":"047288521","distractor":"047248521","target":"absent","response":"absent","rt":"3011","correct":true,"confidence":5},{"trial_n":60,"span":9,"encoder":"110394551","distractor":"410394551","target":"present","response":"present","rt":"3108","correct":true,"confidence":4},{"trial_n":61,"span":10,"encoder":"6896025404","distractor":"6896026404","target":"absent","response":"absent","rt":"4341","correct":true,"confidence":4},{"trial_n":62,"span":10,"encoder":"5675534491","distractor":"5975534491","target":"present","response":"absent","rt":"8518","correct":false,"confidence":1},{"trial_n":63,"span":9,"encoder":"290902378","distractor":"290902388","target":"absent","response":"absent","rt":"2519","correct":true,"confidence":4},{"trial_n":64,"span":9,"encoder":"642760290","distractor":"942760290","target":"absent","response":"absent","rt":"1945","correct":true,"confidence":4},{"trial_n":65,"span":10,"encoder":"9971069899","distractor":"9901069899","target":"absent","response":"present","rt":"5469","correct":false,"confidence":2},{"trial_n":66,"span":9,"encoder":"441565374","distractor":"481565374","target":"present","response":"present","rt":"3776.9999999998","correct":true,"confidence":3},{"trial_n":67,"span":9,"encoder":"078700818","distractor":"008700818","target":"absent","response":"absent","rt":"5094","correct":true,"confidence":4},{"trial_n":68,"span":10,"encoder":"2139284181","distractor":"2189284181","target":"present","response":"present","rt":"4048","correct":true,"confidence":2},{"trial_n":69,"span":10,"encoder":"4045956190","distractor":"4045956110","target":"present","response":"present","rt":"2015","correct":true,"confidence":1},{"trial_n":70,"span":11,"encoder":"55409754875","distractor":"55509754875","target":"present","response":"absent","rt":"2111","correct":false,"confidence":1},{"trial_n":71,"span":8,"encoder":"14641775","distractor":"14642775","target":"present","response":"present","rt":"8770.9999999998","correct":true,"confidence":-1},{"trial_n":72,"span":8,"encoder":"87835428","distractor":"87837428","target":"present","response":"absent","rt":"3571.9999999998","correct":false,"confidence":-1},{"trial_n":73,"span":7,"encoder":"7569696","distractor":"7569697","target":"absent","response":"absent","rt":"3684.0000000002","correct":true,"confidence":-1},{"trial_n":74,"span":7,"encoder":"3498969","distractor":"3298969","target":"absent","response":"absent","rt":"3139.0000000002","correct":true,"confidence":-1},{"trial_n":75,"span":8,"encoder":"35061780","distractor":"35061700","target":"present","response":"present","rt":"4783","correct":true,"confidence":-1},{"trial_n":76,"span":8,"encoder":"94800257","distractor":"94810257","target":"present","response":"present","rt":"3195","correct":true,"confidence":-1},{"trial_n":77,"span":9,"encoder":"008715767","distractor":"008815767","target":"absent","response":"absent","rt":"7443.9999999998","correct":true,"confidence":-1},{"trial_n":78,"span":9,"encoder":"490711573","distractor":"420711573","target":"absent","response":"absent","rt":"2149.0000000002","correct":true,"confidence":-1},{"trial_n":79,"span":10,"encoder":"8548497195","distractor":"6548497195","target":"absent","response":"absent","rt":"1706","correct":true,"confidence":-1},{"trial_n":80,"span":10,"encoder":"6393623431","distractor":"6393623430","target":"present","response":"present","rt":"1416","correct":true,"confidence":-1},{"trial_n":81,"span":11,"encoder":"86151777075","distractor":"83151777075","target":"absent","response":"present","rt":"6048.9999999998","correct":false,"confidence":-1},{"trial_n":82,"span":10,"encoder":"5983292474","distractor":"5913292474","target":"absent","response":"present","rt":"5930.9999999998","correct":false,"confidence":-1},{"trial_n":83,"span":9,"encoder":"493369257","distractor":"493369267","target":"present","response":"present","rt":"5243","correct":true,"confidence":-1},{"trial_n":84,"span":9,"encoder":"461715424","distractor":"461715484","target":"present","response":"present","rt":"9382","correct":true,"confidence":-1},{"trial_n":85,"span":10,"encoder":"9696055414","distractor":"9696065414","target":"present","response":"present","rt":"2972","correct":true,"confidence":-1},{"trial_n":86,"span":10,"encoder":"2187842266","distractor":"2187842226","target":"present","response":"present","rt":"7377.0000000002","correct":true,"confidence":-1},{"trial_n":87,"span":11,"encoder":"92976033744","distractor":"92976030744","target":"absent","response":"absent","rt":"4953","correct":true,"confidence":-1},{"trial_n":88,"span":11,"encoder":"96831059957","distractor":"96831059997","target":"present","response":"present","rt":"2710.9999999998","correct":true,"confidence":-1},{"trial_n":89,"span":12,"encoder":"115504158779","distractor":"115504157779","target":"absent","response":"absent","rt":"8637","correct":true,"confidence":-1},{"trial_n":90,"span":12,"encoder":"176960324358","distractor":"176960924358","target":"absent","response":"present","rt":"8073","correct":false,"confidence":-1},{"trial_n":91,"span":11,"encoder":"11381780125","distractor":"11381380125","target":"absent","response":"absent","rt":"6141","correct":true,"confidence":5},{"trial_n":92,"span":11,"encoder":"01971782447","distractor":"01971782449","target":"present","response":"present","rt":"2450","correct":true,"confidence":5},{"trial_n":93,"span":12,"encoder":"530024074334","distractor":"539024074334","target":"present","response":"present","rt":"9184","correct":true,"confidence":2},{"trial_n":94,"span":12,"encoder":"187116033394","distractor":"187116083394","target":"present","response":"present","rt":"8862.9999999995","correct":true,"confidence":3},{"trial_n":95,"span":13,"encoder":"4947260341843","distractor":"4547260341843","target":"absent","response":"present","rt":"8768","correct":false,"confidence":1},{"trial_n":96,"span":12,"encoder":"373321319031","distractor":"573321319031","target":"present","response":"present","rt":"2180.0000000005","correct":true,"confidence":5},{"trial_n":97,"span":12,"encoder":"952921017564","distractor":"952921917564","target":"present","response":"present","rt":"11587","correct":true,"confidence":1},{"trial_n":98,"span":13,"encoder":"4489662963428","distractor":"4489662943428","target":"present","response":"present","rt":"9688","correct":true,"confidence":1},{"trial_n":99,"span":13,"encoder":"8346468842316","distractor":"8346498842316","target":"absent","response":"present","rt":"2054","correct":false,"confidence":1},{"trial_n":100,"span":12,"encoder":"255442850469","distractor":"255452850469","target":"absent","response":"present","rt":"4676.0000000005","correct":false,"confidence":2},{"trial_n":101,"span":11,"encoder":"61035392649","distractor":"61035392669","target":"absent","response":"present","rt":"14991","correct":false,"confidence":4},{"trial_n":102,"span":10,"encoder":"6162486047","distractor":"6162486247","target":"absent","response":"absent","rt":"5382","correct":true,"confidence":4},{"trial_n":103,"span":10,"encoder":"9072346287","distractor":"9072341287","target":"present","response":"present","rt":"10699","correct":true,"confidence":3},{"trial_n":104,"span":11,"encoder":"07710241858","distractor":"08710241858","target":"present","response":"absent","rt":"10300","correct":false,"confidence":3},{"trial_n":105,"span":10,"encoder":"8464144279","distractor":"8474144279","target":"present","response":"present","rt":"4869","correct":true,"confidence":4},{"trial_n":106,"span":10,"encoder":"9978427108","distractor":"9978428108","target":"absent","response":"absent","rt":"3264","correct":true,"confidence":5},{"trial_n":107,"span":11,"encoder":"03551759210","distractor":"93551759210","target":"present","response":"present","rt":"10498","correct":true,"confidence":2},{"trial_n":108,"span":11,"encoder":"07134004565","distractor":"07134604565","target":"present","response":"absent","rt":"9897.0000000005","correct":false,"confidence":2},{"trial_n":109,"span":10,"encoder":"8907386557","distractor":"8507386557","target":"absent","response":"present","rt":"13861","correct":false,"confidence":2},{"trial_n":110,"span":9,"encoder":"018463510","distractor":"018063510","target":"absent","response":"absent","rt":"5565","correct":true,"confidence":2},{"trial_n":111,"span":9,"encoder":"705428415","distractor":"505428415","target":"absent","response":"absent","rt":"2234","correct":true,"confidence":4},{"trial_n":112,"span":10,"encoder":"3177340905","distractor":"3177340935","target":"absent","response":"present","rt":"8308","correct":false,"confidence":4},{"trial_n":113,"span":9,"encoder":"333829068","distractor":"333829078","target":"present","response":"present","rt":"5154","correct":true,"confidence":3},{"trial_n":114,"span":9,"encoder":"272350372","distractor":"272359372","target":"absent","response":"absent","rt":"10389","correct":true,"confidence":3},{"trial_n":115,"span":10,"encoder":"2373471428","distractor":"2373471528","target":"absent","response":"absent","rt":"3371","correct":true,"confidence":5},{"trial_n":116,"span":10,"encoder":"7355605577","distractor":"1355605577","target":"present","response":"present","rt":"6702","correct":true,"confidence":3},{"trial_n":117,"span":11,"encoder":"75386858981","distractor":"75385858981","target":"absent","response":"absent","rt":"6377","correct":true,"confidence":2},{"trial_n":118,"span":11,"encoder":"20849885389","distractor":"22849885389","target":"present","response":"present","rt":"4883","correct":true,"confidence":2},{"trial_n":119,"span":12,"encoder":"993325660517","distractor":"093325660517","target":"present","response":"present","rt":"10302","correct":true,"confidence":3},{"trial_n":120,"span":12,"encoder":"161803509816","distractor":"861803509816","target":"absent","response":"absent","rt":"18523","correct":true,"confidence":2},{"trial_n":121,"span":13,"encoder":"1852906113999","distractor":"1852906116999","target":"absent","response":"absent","rt":"4428","correct":true,"confidence":4},{"trial_n":122,"span":13,"encoder":"6301219472141","distractor":"6302219472141","target":"present","response":"present","rt":"7676","correct":true,"confidence":2},{"trial_n":123,"span":14,"encoder":"63850345448163","distractor":"63850345448763","target":"present","response":"present","rt":"2818","correct":true,"confidence":5},{"trial_n":124,"span":14,"encoder":"20918350549381","distractor":"21918350549381","target":"present","response":"absent","rt":"7282","correct":false,"confidence":2},{"trial_n":125,"span":13,"encoder":"0335832474694","distractor":"0335832274694","target":"absent","response":"absent","rt":"8683","correct":true,"confidence":1},{"trial_n":126,"span":13,"encoder":"0318139108878","distractor":"0318130108878","target":"present","response":"present","rt":"5229","correct":true,"confidence":1},{"trial_n":127,"span":14,"encoder":"65394967128625","distractor":"65354967128625","target":"present","response":"present","rt":"10912","correct":true,"confidence":1},{"trial_n":128,"span":14,"encoder":"02087402829798","distractor":"02087402829792","target":"absent","response":"absent","rt":"7282","correct":true,"confidence":2},{"trial_n":129,"span":15,"encoder":"875218906985447","distractor":"875218906975447","target":"present","response":"present","rt":"22032","correct":true,"confidence":1},{"trial_n":130,"span":15,"encoder":"396657104515973","distractor":"396657104515953","target":"present","response":"present","rt":"2482","correct":true,"confidence":5},{"trial_n":131,"span":16,"encoder":"5331619294107496","distractor":"5331619234107496","target":"absent","response":"present","rt":"1912","correct":false,"confidence":1},{"trial_n":132,"span":15,"encoder":"323672565652720","distractor":"323652565652720","target":"present","response":"present","rt":"8834","correct":true,"confidence":1},{"trial_n":133,"span":15,"encoder":"170085140329417","distractor":"170085140329117","target":"absent","response":"absent","rt":"2434.0000000005","correct":true,"confidence":3},{"trial_n":134,"span":16,"encoder":"1783663768069614","distractor":"1783963768069614","target":"present","response":"absent","rt":"8344","correct":false,"confidence":2},{"trial_n":135,"span":15,"encoder":"458938956490941","distractor":"458938956498941","target":"absent","response":"present","rt":"6447","correct":false,"confidence":1},{"trial_n":136,"span":14,"encoder":"21003372193627","distractor":"21003372193527","target":"absent","response":"absent","rt":"12335","correct":true,"confidence":3},{"trial_n":137,"span":14,"encoder":"48805940963154","distractor":"48805940963158","target":"absent","response":"absent","rt":"3442","correct":true,"confidence":5},{"trial_n":138,"span":15,"encoder":"389731313191581","distractor":"389739313191581","target":"present","response":"present","rt":"1958.0000000005","correct":true,"confidence":1},{"trial_n":139,"span":15,"encoder":"493299844031457","distractor":"493299844531457","target":"present","response":"present","rt":"5633","correct":true,"confidence":3},{"trial_n":140,"span":16,"encoder":"9126925855386882","distractor":"9126925858386882","target":"absent","response":"present","rt":"5826","correct":false,"confidence":1}]