[{"trial_n":1,"span":8,"encoder":"20450693","distractor":"28450693","target":"present","response":"present","rt":"6304.6999999285","correct":true,"confidence":-1},{"trial_n":2,"span":8,"encoder":"36741134","distractor":"36741034","target":"present","response":"present","rt":"5588","correct":true,"confidence":-1},{"trial_n":3,"span":10,"encoder":"9559122323","distractor":"9553122323","target":"absent","response":"absent","rt":"4267.5999999046","correct":true,"confidence":-1},{"trial_n":4,"span":10,"encoder":"7845927100","distractor":"7845927000","target":"absent","response":"absent","rt":"1774.1000000238","correct":true,"confidence":-1},{"trial_n":5,"span":12,"encoder":"627486546713","distractor":"657486546713","target":"present","response":"present","rt":"7354","correct":true,"confidence":-1},{"trial_n":6,"span":12,"encoder":"494752442197","distractor":"498752442197","target":"present","response":"present","rt":"4955.3999999762","correct":true,"confidence":-1},{"trial_n":7,"span":14,"encoder":"44483934000443","distractor":"44483934000643","target":"absent","response":"absent","rt":"3993.7999999523","correct":true,"confidence":-1},{"trial_n":8,"span":14,"encoder":"17592971120118","distractor":"17595971120118","target":"absent","response":"absent","rt":"7302.6000000238","correct":true,"confidence":-1},{"trial_n":9,"span":16,"encoder":"2855475942373106","distractor":"2855475942379106","target":"absent","response":"present","rt":"7158.6999999285","correct":false,"confidence":-1},{"trial_n":10,"span":14,"encoder":"10755472598707","distractor":"10755472598701","target":"absent","response":"absent","rt":"6932.8999999762","correct":true,"confidence":-1},{"trial_n":11,"span":14,"encoder":"74839914153735","distractor":"79839914153735","target":"present","response":"present","rt":"4616.1999999285","correct":true,"confidence":-1},{"trial_n":12,"span":15,"encoder":"453971561438997","distractor":"453971561438999","target":"present","response":"present","rt":"2228.8999999762","correct":true,"confidence":-1},{"trial_n":13,"span":15,"encoder":"343604919709726","distractor":"343606919709726","target":"present","response":"present","rt":"11110.699999928","correct":true,"confidence":-1},{"trial_n":14,"span":16,"encoder":"6873734594701686","distractor":"6873734595701686","target":"absent","response":"present","rt":"5155.7999999523","correct":false,"confidence":-1},{"trial_n":15,"span":15,"encoder":"040531552033277","distractor":"040431552033277","target":"present","response":"present","rt":"4562.5999999046","correct":true,"confidence":-1},{"trial_n":16,"span":15,"encoder":"344371181059984","distractor":"344371181053984","target":"present","response":"absent","rt":"5303.2999999523","correct":false,"confidence":-1},{"trial_n":17,"span":14,"encoder":"80732746516420","distractor":"80732766516420","target":"present","response":"present","rt":"4670.8999999762","correct":true,"confidence":-1},{"trial_n":18,"span":14,"encoder":"68390026833416","distractor":"68340026833416","target":"absent","response":"absent","rt":"4271.4000000954","correct":true,"confidence":-1},{"trial_n":19,"span":15,"encoder":"929692806860885","distractor":"989692806860885","target":"present","response":"present","rt":"4644.3000000715","correct":true,"confidence":-1},{"trial_n":20,"span":15,"encoder":"490718764706277","distractor":"490718760706277","target":"present","response":"present","rt":"2509.6999999285","correct":true,"confidence":-1},{"trial_n":21,"span":16,"encoder":"4156586258931617","distractor":"4856586258931617","target":"absent","response":"present","rt":"2584.8000000715","correct":false,"confidence":3},{"trial_n":22,"span":15,"encoder":"798923639898217","distractor":"798923639898207","target":"absent","response":"absent","rt":"6967.6000000238","correct":true,"confidence":3},{"trial_n":23,"span":15,"encoder":"912806669042682","distractor":"912876669042682","target":"absent","response":"absent","rt":"2671.2999999523","correct":true,"confidence":5},{"trial_n":24,"span":16,"encoder":"3543803771803121","distractor":"5543803771803121","target":"present","response":"present","rt":"3800","correct":true,"confidence":4},{"trial_n":25,"span":16,"encoder":"6943194768571297","distractor":"6943194768971297","target":"present","response":"present","rt":"51758.200000048","correct":true,"confidence":2},{"trial_n":26,"span":17,"encoder":"78212240563214900","distractor":"78212140563214900","target":"present","response":"absent","rt":"2789.2000000477","correct":false,"confidence":3},{"trial_n":27,"span":16,"encoder":"1500070627496983","distractor":"1500070607496983","target":"absent","response":"present","rt":"3205.8999999762","correct":false,"confidence":2},{"trial_n":28,"span":15,"encoder":"059072335128780","distractor":"058072335128780","target":"absent","response":"present","rt":"2048.7999999523","correct":false,"confidence":3},{"trial_n":29,"span":14,"encoder":"90634464426296","distractor":"70634464426296","target":"absent","response":"present","rt":"2418.3000000715","correct":false,"confidence":4},{"trial_n":30,"span":13,"encoder":"7211021157845","distractor":"7211081157845","target":"absent","response":"present","rt":"8760.9000000954","correct":false,"confidence":4},{"trial_n":31,"span":12,"encoder":"810420851656","distractor":"810420551656","target":"present","response":"absent","rt":"1543.8999999762","correct":false,"confidence":2},{"trial_n":32,"span":11,"encoder":"75656091927","distractor":"75650091927","target":"present","response":"present","rt":"1073.7999999523","correct":true,"confidence":2},{"trial_n":33,"span":11,"encoder":"88736753099","distractor":"88736753094","target":"absent","response":"present","rt":"1384.6000000238","correct":false,"confidence":2},{"trial_n":34,"span":10,"encoder":"3343061611","distractor":"3343065611","target":"present","response":"absent","rt":"1480.1000000238","correct":false,"confidence":3},{"trial_n":35,"span":9,"encoder":"052635692","distractor":"052635192","target":"absent","response":"present","rt":"1770.8999999762","correct":false,"confidence":3},{"trial_n":36,"span":8,"encoder":"60174187","distractor":"68174187","target":"absent","response":"present","rt":"6061.8999999762","correct":false,"confidence":3},{"trial_n":37,"span":7,"encoder":"9026858","distractor":"3026858","target":"present","response":"present","rt":"3152.3999999762","correct":true,"confidence":5},{"trial_n":38,"span":7,"encoder":"5737603","distractor":"9737603","target":"present","response":"present","rt":"3329.6000000238","correct":true,"confidence":5},{"trial_n":39,"span":8,"encoder":"01016301","distractor":"01016801","target":"absent","response":"absent","rt":"4062.8999999762","correct":true,"confidence":5},{"trial_n":40,"span":8,"encoder":"07370578","distractor":"07370678","target":"present","response":"present","rt":"4008.7999999523","correct":true,"confidence":4},{"trial_n":41,"span":9,"encoder":"355780989","distractor":"355780909","target":"present","response":"absent","rt":"7762.7000000477","correct":false,"confidence":3},{"trial_n":42,"span":8,"encoder":"60599609","distractor":"65599609","target":"present","response":"present","rt":"7110.0999999046","correct":true,"confidence":3},{"trial_n":43,"span":8,"encoder":"77540803","distractor":"77540806","target":"absent","response":"absent","rt":"3575.1999999285","correct":true,"confidence":4},{"trial_n":44,"span":9,"encoder":"219196114","distractor":"219126114","target":"absent","response":"present","rt":"5825.8000000715","correct":false,"confidence":3},{"trial_n":45,"span":8,"encoder":"75202694","distractor":"75206694","target":"absent","response":"absent","rt":"2263.8000000715","correct":true,"confidence":4},{"trial_n":46,"span":8,"encoder":"36552623","distractor":"36552624","target":"absent","response":"absent","rt":"3555.2999999523","correct":true,"confidence":5},{"trial_n":47,"span":9,"encoder":"921909109","distractor":"921909309","target":"present","response":"present","rt":"5872.7999999523","correct":true,"confidence":3},{"trial_n":48,"span":9,"encoder":"822938116","distractor":"822938816","target":"absent","response":"absent","rt":"2106.1999999285","correct":true,"confidence":5},{"trial_n":49,"span":10,"encoder":"1941081790","distractor":"1941081760","target":"absent","response":"absent","rt":"2973.7000000477","correct":true,"confidence":5},{"trial_n":50,"span":10,"encoder":"1905724359","distractor":"1905724350","target":"present","response":"present","rt":"3928.7000000477","correct":true,"confidence":4},{"trial_n":51,"span":11,"encoder":"72378242480","distractor":"72178242480","target":"present","response":"present","rt":"2704.7000000477","correct":true,"confidence":2},{"trial_n":52,"span":11,"encoder":"82204133514","distractor":"80204133514","target":"absent","response":"absent","rt":"2102.7999999523","correct":true,"confidence":4},{"trial_n":53,"span":12,"encoder":"439103114399","distractor":"439103114397","target":"absent","response":"absent","rt":"2405.7000000477","correct":true,"confidence":5},{"trial_n":54,"span":12,"encoder":"347627819395","distractor":"347617819395","target":"present","response":"present","rt":"3592.5","correct":true,"confidence":2},{"trial_n":55,"span":13,"encoder":"4738515510040","distractor":"4238515510040","target":"present","response":"absent","rt":"6398.3999999762","correct":false,"confidence":3},{"trial_n":56,"span":12,"encoder":"845143336114","distractor":"845143336614","target":"present","response":"absent","rt":"2205.6000000238","correct":false,"confidence":4},{"trial_n":57,"span":11,"encoder":"62319726389","distractor":"62319726329","target":"absent","response":"absent","rt":"1231.6000000238","correct":true,"confidence":3},{"trial_n":58,"span":11,"encoder":"28426675166","distractor":"28426675766","target":"present","response":"present","rt":"2451.5","correct":true,"confidence":3},{"trial_n":59,"span":12,"encoder":"883407769797","distractor":"883507769797","target":"present","response":"present","rt":"3444.7999999523","correct":true,"confidence":3},{"trial_n":60,"span":12,"encoder":"020414504156","distractor":"020414504356","target":"absent","response":"absent","rt":"2571.5","correct":true,"confidence":4},{"trial_n":61,"span":13,"encoder":"2763778212664","distractor":"2763778212264","target":"present","response":"present","rt":"2770.1000000238","correct":true,"confidence":3},{"trial_n":62,"span":13,"encoder":"3977589497725","distractor":"3977589494725","target":"absent","response":"absent","rt":"1907.5","correct":true,"confidence":4},{"trial_n":63,"span":14,"encoder":"35986415832997","distractor":"35986415832991","target":"absent","response":"absent","rt":"2450.3000000715","correct":true,"confidence":5},{"trial_n":64,"span":14,"encoder":"10273426401146","distractor":"10273426401142","target":"absent","response":"absent","rt":"1898.1999999285","correct":true,"confidence":3},{"trial_n":65,"span":15,"encoder":"411799866855269","distractor":"411799866895269","target":"absent","response":"absent","rt":"4250.2000000477","correct":true,"confidence":3},{"trial_n":66,"span":15,"encoder":"201066094254517","distractor":"201066094250517","target":"present","response":"absent","rt":"2678.5999999046","correct":false,"confidence":2},{"trial_n":67,"span":14,"encoder":"77977296869217","distractor":"77977096869217","target":"present","response":"present","rt":"4568.5","correct":true,"confidence":4},{"trial_n":68,"span":14,"encoder":"93189979064097","distractor":"93185979064097","target":"present","response":"absent","rt":"2318.2000000477","correct":false,"confidence":3},{"trial_n":69,"span":13,"encoder":"8528662408084","distractor":"8528562408084","target":"present","response":"present","rt":"3335","correct":true,"confidence":4},{"trial_n":70,"span":13,"encoder":"7657189889535","distractor":"7657187889535","target":"absent","response":"absent","rt":"3016.8999999762","correct":true,"confidence":4},{"trial_n":71,"span":8,"encoder":"14150787","distractor":"14550787","target":"present","response":"present","rt":"5459.8000000715","correct":true,"confidence":-1},{"trial_n":72,"span":8,"encoder":"86298272","distractor":"86248272","target":"present","response":"absent","rt":"3738.1999999285","correct":false,"confidence":-1},{"trial_n":73,"span":7,"encoder":"3107111","distractor":"1107111","target":"absent","response":"absent","rt":"3326.8999999762","correct":true,"confidence":-1},{"trial_n":74,"span":7,"encoder":"8756045","distractor":"0756045","target":"absent","response":"absent","rt":"5084","correct":true,"confidence":-1},{"trial_n":75,"span":8,"encoder":"46898310","distractor":"46894310","target":"present","response":"present","rt":"6133.7000000477","correct":true,"confidence":-1},{"trial_n":76,"span":8,"encoder":"76474890","distractor":"76477890","target":"present","response":"present","rt":"4500.7999999523","correct":true,"confidence":-1},{"trial_n":77,"span":9,"encoder":"516095686","distractor":"516095680","target":"present","response":"present","rt":"2579.9000000954","correct":true,"confidence":-1},{"trial_n":78,"span":9,"encoder":"251710850","distractor":"251760850","target":"present","response":"absent","rt":"4048.7999999523","correct":false,"confidence":-1},{"trial_n":79,"span":8,"encoder":"07775205","distractor":"07745205","target":"absent","response":"absent","rt":"4293","correct":true,"confidence":-1},{"trial_n":80,"span":8,"encoder":"30037909","distractor":"30037409","target":"absent","response":"absent","rt":"1605.8999999762","correct":true,"confidence":-1},{"trial_n":81,"span":9,"encoder":"048347945","distractor":"048349945","target":"present","response":"present","rt":"2907.7000000477","correct":true,"confidence":-1},{"trial_n":82,"span":9,"encoder":"840373719","distractor":"840373749","target":"absent","response":"present","rt":"2886.2000000477","correct":false,"confidence":-1},{"trial_n":83,"span":8,"encoder":"30656113","distractor":"00656113","target":"absent","response":"absent","rt":"2744.4000000954","correct":true,"confidence":-1},{"trial_n":84,"span":8,"encoder":"73126347","distractor":"73126947","target":"absent","response":"absent","rt":"2773.2000000477","correct":true,"confidence":-1},{"trial_n":85,"span":9,"encoder":"919998336","distractor":"919798336","target":"absent","response":"absent","rt":"3711.8999999762","correct":true,"confidence":-1},{"trial_n":86,"span":9,"encoder":"071406233","distractor":"071436233","target":"absent","response":"absent","rt":"5147.6999999285","correct":true,"confidence":-1},{"trial_n":87,"span":10,"encoder":"5988481013","distractor":"3988481013","target":"present","response":"present","rt":"5214.7999999523","correct":true,"confidence":-1},{"trial_n":88,"span":10,"encoder":"2288399771","distractor":"8288399771","target":"present","response":"absent","rt":"6931.1999999285","correct":false,"confidence":-1},{"trial_n":89,"span":9,"encoder":"463146536","distractor":"663146536","target":"absent","response":"absent","rt":"2233","correct":true,"confidence":-1},{"trial_n":90,"span":9,"encoder":"113734179","distractor":"113784179","target":"present","response":"present","rt":"5999.0999999046","correct":true,"confidence":-1},{"trial_n":91,"span":10,"encoder":"9539793378","distractor":"9539793375","target":"absent","response":"absent","rt":"1529.2999999523","correct":true,"confidence":5},{"trial_n":92,"span":10,"encoder":"3851960204","distractor":"3851860204","target":"absent","response":"absent","rt":"6149","correct":true,"confidence":3},{"trial_n":93,"span":11,"encoder":"37906705941","distractor":"34906705941","target":"absent","response":"absent","rt":"27079.5","correct":true,"confidence":2},{"trial_n":94,"span":11,"encoder":"30839966306","distractor":"30239966306","target":"present","response":"absent","rt":"3153.6000000238","correct":false,"confidence":1},{"trial_n":95,"span":10,"encoder":"9427125033","distractor":"9427165033","target":"absent","response":"absent","rt":"2250.6000000238","correct":true,"confidence":3},{"trial_n":96,"span":10,"encoder":"9641150970","distractor":"9641150990","target":"absent","response":"absent","rt":"1823.1000000238","correct":true,"confidence":3},{"trial_n":97,"span":11,"encoder":"06707973084","distractor":"07707973084","target":"present","response":"present","rt":"4022.6000000238","correct":true,"confidence":4},{"trial_n":98,"span":11,"encoder":"28934784802","distractor":"58934784802","target":"present","response":"absent","rt":"5103.5999999046","correct":false,"confidence":1},{"trial_n":99,"span":10,"encoder":"6291602674","distractor":"6291642674","target":"present","response":"absent","rt":"5269","correct":false,"confidence":3},{"trial_n":100,"span":9,"encoder":"593236921","distractor":"493236921","target":"absent","response":"absent","rt":"2618.7000000477","correct":true,"confidence":3},{"trial_n":101,"span":9,"encoder":"344131467","distractor":"344130467","target":"present","response":"absent","rt":"1624.1000000238","correct":false,"confidence":3},{"trial_n":102,"span":8,"encoder":"22415148","distractor":"22815148","target":"present","response":"present","rt":"3580.3000000715","correct":true,"confidence":3},{"trial_n":103,"span":8,"encoder":"45967744","distractor":"45962744","target":"absent","response":"present","rt":"2822.6999999285","correct":false,"confidence":4},{"trial_n":104,"span":7,"encoder":"2201575","distractor":"2201875","target":"present","response":"present","rt":"2064.1000000238","correct":true,"confidence":1},{"trial_n":105,"span":7,"encoder":"1921387","distractor":"4921387","target":"absent","response":"absent","rt":"3038.5","correct":true,"confidence":4},{"trial_n":106,"span":8,"encoder":"37470372","distractor":"37470572","target":"absent","response":"absent","rt":"2225.7000000477","correct":true,"confidence":3},{"trial_n":107,"span":8,"encoder":"00075744","distractor":"06075744","target":"present","response":"present","rt":"3035.7999999523","correct":true,"confidence":5},{"trial_n":108,"span":9,"encoder":"994920255","distractor":"994620255","target":"present","response":"present","rt":"7326.8999999762","correct":true,"confidence":3},{"trial_n":109,"span":9,"encoder":"445802876","distractor":"475802876","target":"present","response":"present","rt":"3196.8999999762","correct":true,"confidence":4},{"trial_n":110,"span":10,"encoder":"2055325296","distractor":"5055325296","target":"absent","response":"present","rt":"6562.7000000477","correct":false,"confidence":3},{"trial_n":111,"span":9,"encoder":"979435433","distractor":"979435633","target":"absent","response":"absent","rt":"2616.5","correct":true,"confidence":3},{"trial_n":112,"span":9,"encoder":"947342067","distractor":"947342068","target":"absent","response":"absent","rt":"2433.3999999762","correct":true,"confidence":5},{"trial_n":113,"span":10,"encoder":"8129646491","distractor":"8129696491","target":"present","response":"absent","rt":"5938.6999999285","correct":false,"confidence":3},{"trial_n":114,"span":9,"encoder":"243873844","distractor":"243823844","target":"absent","response":"absent","rt":"3152.6999999285","correct":true,"confidence":4},{"trial_n":115,"span":9,"encoder":"093765823","distractor":"093765833","target":"present","response":"present","rt":"2798.5999999046","correct":true,"confidence":5},{"trial_n":116,"span":10,"encoder":"8138233600","distractor":"8138933600","target":"absent","response":"absent","rt":"2021.2000000477","correct":true,"confidence":1},{"trial_n":117,"span":10,"encoder":"8765733126","distractor":"8765733826","target":"present","response":"absent","rt":"11522.700000048","correct":false,"confidence":3},{"trial_n":118,"span":9,"encoder":"437086583","distractor":"437056583","target":"absent","response":"absent","rt":"3389.7999999523","correct":true,"confidence":2},{"trial_n":119,"span":9,"encoder":"757407716","distractor":"757447716","target":"absent","response":"absent","rt":"3598.8999999762","correct":true,"confidence":3},{"trial_n":120,"span":10,"encoder":"7278069529","distractor":"7277069529","target":"absent","response":"present","rt":"5401.8999999762","correct":false,"confidence":4},{"trial_n":121,"span":9,"encoder":"783270325","distractor":"783277325","target":"present","response":"present","rt":"2714.1000000238","correct":true,"confidence":3},{"trial_n":122,"span":9,"encoder":"276441903","distractor":"296441903","target":"present","response":"present","rt":"4130.8999999762","correct":true,"confidence":3},{"trial_n":123,"span":10,"encoder":"8308019848","distractor":"8398019848","target":"absent","response":"absent","rt":"4777.8999999762","correct":true,"confidence":4},{"trial_n":124,"span":10,"encoder":"9868571464","distractor":"1868571464","target":"present","response":"present","rt":"4402.6000000238","correct":true,"confidence":4},{"trial_n":125,"span":11,"encoder":"48700311986","distractor":"48700311981","target":"present","response":"present","rt":"5381.2000000477","correct":true,"confidence":4},{"trial_n":126,"span":11,"encoder":"95321087636","distractor":"95321087696","target":"absent","response":"absent","rt":"2866.7000000477","correct":true,"confidence":4},{"trial_n":127,"span":12,"encoder":"413100961514","distractor":"413100461514","target":"absent","response":"present","rt":"7397.1999999285","correct":false,"confidence":3},{"trial_n":128,"span":11,"encoder":"77529043397","distractor":"77529043398","target":"present","response":"present","rt":"1720.5999999046","correct":true,"confidence":5},{"trial_n":129,"span":11,"encoder":"35143914549","distractor":"15143914549","target":"present","response":"present","rt":"3270.3000000715","correct":true,"confidence":4},{"trial_n":130,"span":12,"encoder":"343881372915","distractor":"343884372915","target":"absent","response":"absent","rt":"7682.7000000477","correct":true,"confidence":3},{"trial_n":131,"span":12,"encoder":"552862298397","distractor":"502862298397","target":"present","response":"present","rt":"3261.1999999285","correct":true,"confidence":2},{"trial_n":132,"span":13,"encoder":"8402609091262","distractor":"8402609091267","target":"present","response":"present","rt":"2640.5","correct":true,"confidence":5},{"trial_n":133,"span":13,"encoder":"4331020689470","distractor":"4335020689470","target":"present","response":"absent","rt":"4262.2999999523","correct":false,"confidence":3},{"trial_n":134,"span":12,"encoder":"422475442257","distractor":"422475642257","target":"absent","response":"absent","rt":"3377.6999999285","correct":true,"confidence":5},{"trial_n":135,"span":12,"encoder":"995236590474","distractor":"996236590474","target":"present","response":"absent","rt":"2780.7000000477","correct":false,"confidence":3},{"trial_n":136,"span":11,"encoder":"29450399965","distractor":"29450399065","target":"present","response":"absent","rt":"4463.5","correct":false,"confidence":3},{"trial_n":137,"span":10,"encoder":"1407732230","distractor":"1477732230","target":"present","response":"absent","rt":"3388.8999999762","correct":false,"confidence":4},{"trial_n":138,"span":9,"encoder":"993704350","distractor":"993708350","target":"present","response":"absent","rt":"3843.2000000477","correct":false,"confidence":3},{"trial_n":139,"span":8,"encoder":"56088248","distractor":"56088648","target":"absent","response":"present","rt":"5188.2000000477","correct":false,"confidence":3},{"trial_n":140,"span":7,"encoder":"9350276","distractor":"9357276","target":"absent","response":"present","rt":"5760.5","correct":false,"confidence":3}]