[{"trial_n":1,"n_dots":4.25,"target":"left","response":"right","rt":8021.6000000238,"correct":false,"confidence":-1},{"trial_n":2,"n_dots":4.25,"target":"left","response":"left","rt":1218.8000000715,"correct":true,"confidence":-1},{"trial_n":3,"n_dots":4.25,"target":"right","response":"right","rt":853.89999997616,"correct":true,"confidence":-1},{"trial_n":4,"n_dots":3.85,"target":"right","response":"left","rt":1103.6999999285,"correct":false,"confidence":-1},{"trial_n":5,"n_dots":4.25,"target":"right","response":"right","rt":839.60000002384,"correct":true,"confidence":-1},{"trial_n":6,"n_dots":4.25,"target":"left","response":"right","rt":1256.7999999523,"correct":false,"confidence":-1},{"trial_n":7,"n_dots":4.65,"target":"left","response":"left","rt":872.60000002384,"correct":true,"confidence":-1},{"trial_n":8,"n_dots":4.65,"target":"left","response":"left","rt":887.70000004768,"correct":true,"confidence":-1},{"trial_n":9,"n_dots":4.45,"target":"right","response":"right","rt":729,"correct":true,"confidence":-1},{"trial_n":10,"n_dots":4.45,"target":"left","response":"left","rt":630.40000009537,"correct":true,"confidence":-1},{"trial_n":11,"n_dots":4.25,"target":"left","response":"left","rt":886,"correct":true,"confidence":-1},{"trial_n":12,"n_dots":4.25,"target":"left","response":"left","rt":917.59999990463,"correct":true,"confidence":-1},{"trial_n":13,"n_dots":4.15,"target":"left","response":"left","rt":1049.7999999523,"correct":true,"confidence":-1},{"trial_n":14,"n_dots":4.15,"target":"left","response":"right","rt":1201.7000000477,"correct":false,"confidence":-1},{"trial_n":15,"n_dots":4.25,"target":"left","response":"left","rt":906.10000002384,"correct":true,"confidence":-1},{"trial_n":16,"n_dots":4.25,"target":"right","response":"right","rt":817.5,"correct":true,"confidence":-1},{"trial_n":17,"n_dots":4.15,"target":"left","response":"left","rt":792.80000007153,"correct":true,"confidence":-1},{"trial_n":18,"n_dots":4.15,"target":"right","response":"right","rt":794.5,"correct":true,"confidence":-1},{"trial_n":19,"n_dots":4.05,"target":"right","response":"right","rt":710.60000002384,"correct":true,"confidence":-1},{"trial_n":20,"n_dots":4.05,"target":"right","response":"right","rt":406.60000002384,"correct":true,"confidence":-1},{"trial_n":21,"n_dots":3.95,"target":"left","response":"left","rt":1139.1000000238,"correct":true,"confidence":4},{"trial_n":22,"n_dots":3.95,"target":"left","response":"right","rt":1081.3999999762,"correct":false,"confidence":3},{"trial_n":23,"n_dots":4.05,"target":"left","response":"left","rt":925.5,"correct":true,"confidence":4},{"trial_n":24,"n_dots":4.05,"target":"right","response":"right","rt":857.5,"correct":true,"confidence":4},{"trial_n":25,"n_dots":3.95,"target":"left","response":"left","rt":923.40000009537,"correct":true,"confidence":3},{"trial_n":26,"n_dots":3.95,"target":"left","response":"left","rt":825.79999995232,"correct":true,"confidence":4},{"trial_n":27,"n_dots":3.85,"target":"left","response":"left","rt":740.70000004768,"correct":true,"confidence":4},{"trial_n":28,"n_dots":3.85,"target":"left","response":"left","rt":837,"correct":true,"confidence":3},{"trial_n":29,"n_dots":3.75,"target":"right","response":"right","rt":777.5,"correct":true,"confidence":4},{"trial_n":30,"n_dots":3.75,"target":"right","response":"right","rt":773.5,"correct":true,"confidence":4},{"trial_n":31,"n_dots":3.65,"target":"right","response":"right","rt":5301.7999999523,"correct":true,"confidence":3},{"trial_n":32,"n_dots":3.65,"target":"left","response":"left","rt":762.10000002384,"correct":true,"confidence":4},{"trial_n":33,"n_dots":3.55,"target":"right","response":"right","rt":642.20000004768,"correct":true,"confidence":4},{"trial_n":34,"n_dots":3.55,"target":"left","response":"left","rt":406.5,"correct":true,"confidence":4},{"trial_n":35,"n_dots":3.45,"target":"left","response":"left","rt":627.80000007153,"correct":true,"confidence":4},{"trial_n":36,"n_dots":3.45,"target":"right","response":"right","rt":941.10000002384,"correct":true,"confidence":4},{"trial_n":37,"n_dots":3.35,"target":"right","response":"left","rt":568.89999997616,"correct":false,"confidence":4},{"trial_n":38,"n_dots":3.45,"target":"right","response":"right","rt":674.79999995232,"correct":true,"confidence":3},{"trial_n":39,"n_dots":3.45,"target":"left","response":"left","rt":21006.700000048,"correct":true,"confidence":2},{"trial_n":40,"n_dots":3.35,"target":"right","response":"right","rt":795.89999997616,"correct":true,"confidence":3},{"trial_n":41,"n_dots":3.35,"target":"right","response":"right","rt":830,"correct":true,"confidence":3},{"trial_n":42,"n_dots":3.25,"target":"right","response":"right","rt":1055.0999999046,"correct":true,"confidence":2},{"trial_n":43,"n_dots":3.25,"target":"left","response":"left","rt":805.89999997616,"correct":true,"confidence":4},{"trial_n":44,"n_dots":3.15,"target":"left","response":"right","rt":1361.7000000477,"correct":false,"confidence":4},{"trial_n":45,"n_dots":3.25,"target":"left","response":"left","rt":648.79999995232,"correct":true,"confidence":4},{"trial_n":46,"n_dots":3.25,"target":"left","response":"left","rt":832.69999992847,"correct":true,"confidence":4},{"trial_n":47,"n_dots":3.15,"target":"right","response":"right","rt":938,"correct":true,"confidence":4},{"trial_n":48,"n_dots":3.15,"target":"right","response":"left","rt":1172.3999999762,"correct":false,"confidence":4},{"trial_n":49,"n_dots":3.25,"target":"right","response":"right","rt":805.5,"correct":true,"confidence":4},{"trial_n":50,"n_dots":3.25,"target":"left","response":"left","rt":871.70000004768,"correct":true,"confidence":4},{"trial_n":51,"n_dots":3.15,"target":"right","response":"right","rt":548.89999997616,"correct":true,"confidence":3},{"trial_n":52,"n_dots":3.15,"target":"right","response":"right","rt":542,"correct":true,"confidence":4},{"trial_n":53,"n_dots":3.05,"target":"left","response":"left","rt":730.29999995232,"correct":true,"confidence":5},{"trial_n":54,"n_dots":3.05,"target":"right","response":"right","rt":665.40000009537,"correct":true,"confidence":4},{"trial_n":55,"n_dots":2.95,"target":"right","response":"right","rt":986.39999997616,"correct":true,"confidence":3},{"trial_n":56,"n_dots":2.95,"target":"right","response":"right","rt":830.09999990463,"correct":true,"confidence":2},{"trial_n":57,"n_dots":2.85,"target":"right","response":"right","rt":767.20000004768,"correct":true,"confidence":3},{"trial_n":58,"n_dots":2.85,"target":"right","response":"left","rt":882.30000007153,"correct":false,"confidence":4},{"trial_n":59,"n_dots":2.95,"target":"left","response":"right","rt":772.70000004768,"correct":false,"confidence":3},{"trial_n":60,"n_dots":3.05,"target":"right","response":"right","rt":753.60000002384,"correct":true,"confidence":4},{"trial_n":61,"n_dots":3.05,"target":"left","response":"left","rt":528.10000002384,"correct":true,"confidence":4},{"trial_n":62,"n_dots":2.95,"target":"left","response":"left","rt":465,"correct":true,"confidence":3},{"trial_n":63,"n_dots":2.95,"target":"right","response":"right","rt":269,"correct":true,"confidence":2},{"trial_n":64,"n_dots":2.85,"target":"left","response":"left","rt":533.5,"correct":true,"confidence":3},{"trial_n":65,"n_dots":2.85,"target":"right","response":"left","rt":704.69999992847,"correct":false,"confidence":4},{"trial_n":66,"n_dots":2.95,"target":"right","response":"left","rt":836.70000004768,"correct":false,"confidence":2},{"trial_n":67,"n_dots":3.05,"target":"left","response":"left","rt":737.10000002384,"correct":true,"confidence":3},{"trial_n":68,"n_dots":3.05,"target":"right","response":"right","rt":1058.9000000954,"correct":true,"confidence":4},{"trial_n":69,"n_dots":2.95,"target":"right","response":"right","rt":684.39999997616,"correct":true,"confidence":4},{"trial_n":70,"n_dots":2.95,"target":"left","response":"left","rt":1240.4000000954,"correct":true,"confidence":5},{"trial_n":71,"n_dots":2.85,"target":"right","response":"left","rt":8328.4000000954,"correct":false,"confidence":1},{"trial_n":72,"n_dots":2.95,"target":"right","response":"left","rt":1377.7999999523,"correct":false,"confidence":4},{"trial_n":73,"n_dots":3.05,"target":"right","response":"left","rt":560.5,"correct":false,"confidence":4},{"trial_n":74,"n_dots":3.15,"target":"left","response":"left","rt":607,"correct":true,"confidence":4},{"trial_n":75,"n_dots":3.15,"target":"right","response":"right","rt":532,"correct":true,"confidence":4},{"trial_n":76,"n_dots":3.05,"target":"right","response":"left","rt":527.69999992847,"correct":false,"confidence":4},{"trial_n":77,"n_dots":3.15,"target":"left","response":"left","rt":740.19999992847,"correct":true,"confidence":4},{"trial_n":78,"n_dots":3.15,"target":"left","response":"right","rt":829.5,"correct":false,"confidence":3},{"trial_n":79,"n_dots":3.25,"target":"left","response":"left","rt":389.20000004768,"correct":true,"confidence":4},{"trial_n":80,"n_dots":3.25,"target":"right","response":"right","rt":665.60000002384,"correct":true,"confidence":4},{"trial_n":81,"n_dots":3.15,"target":"left","response":"right","rt":733.89999997616,"correct":false,"confidence":3},{"trial_n":82,"n_dots":3.25,"target":"left","response":"left","rt":489.39999997616,"correct":true,"confidence":3},{"trial_n":83,"n_dots":3.25,"target":"left","response":"left","rt":718.69999992847,"correct":true,"confidence":3},{"trial_n":84,"n_dots":3.15,"target":"left","response":"left","rt":556.20000004768,"correct":true,"confidence":4},{"trial_n":85,"n_dots":3.15,"target":"right","response":"right","rt":448.90000009537,"correct":true,"confidence":4},{"trial_n":86,"n_dots":3.05,"target":"left","response":"left","rt":445.20000004768,"correct":true,"confidence":3},{"trial_n":87,"n_dots":3.05,"target":"right","response":"right","rt":567.89999997616,"correct":true,"confidence":4},{"trial_n":88,"n_dots":2.95,"target":"left","response":"left","rt":587.89999997616,"correct":true,"confidence":3},{"trial_n":89,"n_dots":2.95,"target":"left","response":"left","rt":759.5,"correct":true,"confidence":4},{"trial_n":90,"n_dots":2.85,"target":"left","response":"right","rt":768.5,"correct":false,"confidence":3},{"trial_n":91,"n_dots":2.95,"target":"left","response":"left","rt":807,"correct":true,"confidence":2},{"trial_n":92,"n_dots":2.95,"target":"right","response":"right","rt":778.59999990463,"correct":true,"confidence":2},{"trial_n":93,"n_dots":2.85,"target":"left","response":"left","rt":1046.5,"correct":true,"confidence":2},{"trial_n":94,"n_dots":2.85,"target":"right","response":"right","rt":488.20000004768,"correct":true,"confidence":3},{"trial_n":95,"n_dots":2.75,"target":"right","response":"right","rt":923.60000002384,"correct":true,"confidence":3},{"trial_n":96,"n_dots":2.75,"target":"right","response":"right","rt":746,"correct":true,"confidence":4},{"trial_n":97,"n_dots":2.65,"target":"left","response":"right","rt":415.39999997616,"correct":false,"confidence":2},{"trial_n":98,"n_dots":2.75,"target":"right","response":"left","rt":854,"correct":false,"confidence":2},{"trial_n":99,"n_dots":2.85,"target":"left","response":"left","rt":538.20000004768,"correct":true,"confidence":4},{"trial_n":100,"n_dots":2.85,"target":"right","response":"right","rt":554.60000002384,"correct":true,"confidence":4},{"trial_n":101,"n_dots":2.75,"target":"right","response":"right","rt":872.20000004768,"correct":true,"confidence":3},{"trial_n":102,"n_dots":2.75,"target":"right","response":"right","rt":760.5,"correct":true,"confidence":3},{"trial_n":103,"n_dots":2.65,"target":"left","response":"left","rt":549.09999990463,"correct":true,"confidence":3},{"trial_n":104,"n_dots":2.65,"target":"left","response":"left","rt":538.10000002384,"correct":true,"confidence":3},{"trial_n":105,"n_dots":2.55,"target":"right","response":"right","rt":719.89999997616,"correct":true,"confidence":2},{"trial_n":106,"n_dots":2.55,"target":"right","response":"right","rt":717.59999990463,"correct":true,"confidence":2},{"trial_n":107,"n_dots":2.45,"target":"left","response":"left","rt":656.89999997616,"correct":true,"confidence":2},{"trial_n":108,"n_dots":2.45,"target":"right","response":"right","rt":452.30000007153,"correct":true,"confidence":2},{"trial_n":109,"n_dots":2.35,"target":"right","response":"left","rt":467.89999997616,"correct":false,"confidence":3},{"trial_n":110,"n_dots":2.45,"target":"right","response":"left","rt":813.69999992847,"correct":false,"confidence":2},{"trial_n":111,"n_dots":2.55,"target":"right","response":"right","rt":528.39999997616,"correct":true,"confidence":3},{"trial_n":112,"n_dots":2.55,"target":"right","response":"right","rt":1741.6000000238,"correct":true,"confidence":3},{"trial_n":113,"n_dots":2.45,"target":"left","response":"left","rt":1013.0999999046,"correct":true,"confidence":3},{"trial_n":114,"n_dots":2.45,"target":"left","response":"left","rt":750.10000002384,"correct":true,"confidence":3},{"trial_n":115,"n_dots":2.35,"target":"left","response":"left","rt":738.09999990463,"correct":true,"confidence":3},{"trial_n":116,"n_dots":2.35,"target":"left","response":"right","rt":545.79999995232,"correct":false,"confidence":2},{"trial_n":117,"n_dots":2.45,"target":"right","response":"right","rt":690.69999992847,"correct":true,"confidence":3},{"trial_n":118,"n_dots":2.45,"target":"right","response":"right","rt":1108.8000000715,"correct":true,"confidence":3},{"trial_n":119,"n_dots":2.35,"target":"left","response":"left","rt":805.70000004768,"correct":true,"confidence":3},{"trial_n":120,"n_dots":2.35,"target":"left","response":"right","rt":654.79999995232,"correct":false,"confidence":2}]