[{"trial_n":1,"span":8,"encoder":"43457195","distractor":"43459195","target":"present","response":"present","rt":"2927.5999999996","correct":true,"confidence":-1},{"trial_n":2,"span":8,"encoder":"24736354","distractor":"24036354","target":"present","response":"present","rt":"3146.8000000007","correct":true,"confidence":-1},{"trial_n":3,"span":10,"encoder":"0474831911","distractor":"0474831901","target":"absent","response":"absent","rt":"3356.6999999993","correct":true,"confidence":-1},{"trial_n":4,"span":10,"encoder":"5177982692","distractor":"5177782692","target":"absent","response":"absent","rt":"1351","correct":true,"confidence":-1},{"trial_n":5,"span":12,"encoder":"996049652960","distractor":"996019652960","target":"present","response":"absent","rt":"2967","correct":false,"confidence":-1},{"trial_n":6,"span":10,"encoder":"0377971806","distractor":"0377973806","target":"absent","response":"absent","rt":"1490.5","correct":true,"confidence":-1},{"trial_n":7,"span":10,"encoder":"4014667899","distractor":"4014667896","target":"present","response":"absent","rt":"2190.5999999996","correct":false,"confidence":-1},{"trial_n":8,"span":8,"encoder":"68545548","distractor":"68545448","target":"present","response":"present","rt":"939.90000000037","correct":true,"confidence":-1},{"trial_n":9,"span":8,"encoder":"51079620","distractor":"51079520","target":"present","response":"present","rt":"607.09999999963","correct":true,"confidence":-1},{"trial_n":10,"span":10,"encoder":"6234606202","distractor":"9234606202","target":"absent","response":"present","rt":"768.79999999888","correct":false,"confidence":-1},{"trial_n":11,"span":8,"encoder":"23071705","distractor":"29071705","target":"absent","response":"absent","rt":"537.40000000037","correct":true,"confidence":-1},{"trial_n":12,"span":8,"encoder":"36583578","distractor":"36585578","target":"absent","response":"present","rt":"571.30000000075","correct":false,"confidence":-1},{"trial_n":13,"span":7,"encoder":"6676195","distractor":"6676295","target":"present","response":"absent","rt":"814.09999999963","correct":false,"confidence":-1},{"trial_n":14,"span":6,"encoder":"608735","distractor":"608731","target":"present","response":"present","rt":"1165.4000000004","correct":true,"confidence":-1},{"trial_n":15,"span":6,"encoder":"558849","distractor":"558845","target":"present","response":"present","rt":"1096.5","correct":true,"confidence":-1},{"trial_n":16,"span":7,"encoder":"2121226","distractor":"2121286","target":"absent","response":"absent","rt":"3134.8999999985","correct":true,"confidence":-1},{"trial_n":17,"span":7,"encoder":"6996310","distractor":"0996310","target":"absent","response":"present","rt":"1069.1000000015","correct":false,"confidence":-1},{"trial_n":18,"span":6,"encoder":"020702","distractor":"820702","target":"absent","response":"absent","rt":"3469.6999999993","correct":true,"confidence":-1},{"trial_n":19,"span":6,"encoder":"306740","distractor":"306743","target":"absent","response":"present","rt":"1093.1999999993","correct":false,"confidence":-1},{"trial_n":20,"span":5,"encoder":"95072","distractor":"99072","target":"present","response":"absent","rt":"651.19999999925","correct":false,"confidence":-1},{"trial_n":21,"span":4,"encoder":"6646","distractor":"6643","target":"absent","response":"absent","rt":"2043","correct":true,"confidence":3},{"trial_n":22,"span":4,"encoder":"2377","distractor":"9377","target":"present","response":"absent","rt":"2114.8000000007","correct":false,"confidence":5},{"trial_n":23,"span":3,"encoder":"666","distractor":"616","target":"absent","response":"absent","rt":"4305.3000000007","correct":true,"confidence":1},{"trial_n":24,"span":3,"encoder":"664","distractor":"464","target":"absent","response":"absent","rt":"3133.6999999993","correct":true,"confidence":5},{"trial_n":25,"span":4,"encoder":"9044","distractor":"1044","target":"present","response":"absent","rt":"2540.6999999993","correct":false,"confidence":5},{"trial_n":26,"span":3,"encoder":"331","distractor":"332","target":"present","response":"present","rt":"1636.5","correct":true,"confidence":5},{"trial_n":27,"span":3,"encoder":"127","distractor":"427","target":"present","response":"present","rt":"1610.4000000004","correct":true,"confidence":5},{"trial_n":28,"span":4,"encoder":"9157","distractor":"9159","target":"absent","response":"absent","rt":"1799.3999999985","correct":true,"confidence":5},{"trial_n":29,"span":4,"encoder":"2952","distractor":"2953","target":"absent","response":"absent","rt":"1718.2999999989","correct":true,"confidence":5},{"trial_n":30,"span":5,"encoder":"39233","distractor":"39243","target":"present","response":"absent","rt":"1576.2000000011","correct":false,"confidence":5},{"trial_n":31,"span":4,"encoder":"5065","distractor":"5165","target":"present","response":"present","rt":"3715.5999999996","correct":true,"confidence":5},{"trial_n":32,"span":4,"encoder":"2599","distractor":"2597","target":"absent","response":"absent","rt":"1355.9000000004","correct":true,"confidence":5},{"trial_n":33,"span":5,"encoder":"72381","distractor":"72388","target":"absent","response":"absent","rt":"1206.1999999993","correct":true,"confidence":5},{"trial_n":34,"span":5,"encoder":"32843","distractor":"32643","target":"absent","response":"absent","rt":"1534.5999999996","correct":true,"confidence":4},{"trial_n":35,"span":6,"encoder":"705226","distractor":"705228","target":"absent","response":"absent","rt":"1664.0999999996","correct":true,"confidence":5},{"trial_n":36,"span":6,"encoder":"948375","distractor":"248375","target":"present","response":"present","rt":"6229.9000000004","correct":true,"confidence":3},{"trial_n":37,"span":7,"encoder":"6886958","distractor":"6886938","target":"absent","response":"absent","rt":"1456.0999999996","correct":true,"confidence":3},{"trial_n":38,"span":7,"encoder":"3889040","distractor":"3889640","target":"present","response":"absent","rt":"1380.2999999989","correct":false,"confidence":3},{"trial_n":39,"span":6,"encoder":"247532","distractor":"237532","target":"present","response":"present","rt":"2080.6999999993","correct":true,"confidence":4},{"trial_n":40,"span":6,"encoder":"024931","distractor":"024939","target":"present","response":"present","rt":"5209.6999999993","correct":true,"confidence":4},{"trial_n":41,"span":7,"encoder":"8770356","distractor":"8700356","target":"present","response":"absent","rt":"2197.9000000004","correct":false,"confidence":5},{"trial_n":42,"span":6,"encoder":"380110","distractor":"380510","target":"present","response":"absent","rt":"1968","correct":false,"confidence":5},{"trial_n":43,"span":5,"encoder":"06515","distractor":"06525","target":"present","response":"present","rt":"2940.0999999996","correct":true,"confidence":5},{"trial_n":44,"span":5,"encoder":"82072","distractor":"82077","target":"present","response":"present","rt":"1968","correct":true,"confidence":5},{"trial_n":45,"span":6,"encoder":"152861","distractor":"182861","target":"absent","response":"absent","rt":"1943.4000000004","correct":true,"confidence":5},{"trial_n":46,"span":6,"encoder":"596850","distractor":"596890","target":"absent","response":"absent","rt":"2984.0999999996","correct":true,"confidence":3},{"trial_n":47,"span":7,"encoder":"3388855","distractor":"3348855","target":"present","response":"absent","rt":"2647","correct":false,"confidence":3},{"trial_n":48,"span":6,"encoder":"190254","distractor":"195254","target":"present","response":"absent","rt":"1687.3000000007","correct":false,"confidence":2},{"trial_n":49,"span":5,"encoder":"34851","distractor":"34854","target":"absent","response":"absent","rt":"2855.5999999996","correct":true,"confidence":5},{"trial_n":50,"span":5,"encoder":"78013","distractor":"79013","target":"present","response":"present","rt":"1593.3999999985","correct":true,"confidence":5},{"trial_n":51,"span":6,"encoder":"603235","distractor":"903235","target":"present","response":"present","rt":"2645.4000000004","correct":true,"confidence":5},{"trial_n":52,"span":6,"encoder":"629882","distractor":"629282","target":"present","response":"absent","rt":"2351.2000000011","correct":false,"confidence":3},{"trial_n":53,"span":5,"encoder":"03449","distractor":"03849","target":"absent","response":"absent","rt":"2580.4000000004","correct":true,"confidence":5},{"trial_n":54,"span":5,"encoder":"57662","distractor":"51662","target":"absent","response":"present","rt":"1699.1999999993","correct":false,"confidence":5},{"trial_n":55,"span":4,"encoder":"1338","distractor":"1332","target":"absent","response":"absent","rt":"1717.5999999996","correct":true,"confidence":5},{"trial_n":56,"span":4,"encoder":"7916","distractor":"1916","target":"absent","response":"absent","rt":"1942.7999999989","correct":true,"confidence":4},{"trial_n":57,"span":5,"encoder":"67656","distractor":"63656","target":"present","response":"present","rt":"1929","correct":true,"confidence":5},{"trial_n":58,"span":5,"encoder":"83059","distractor":"83959","target":"present","response":"present","rt":"2043","correct":true,"confidence":5},{"trial_n":59,"span":6,"encoder":"869779","distractor":"869719","target":"absent","response":"absent","rt":"2800.5","correct":true,"confidence":5},{"trial_n":60,"span":6,"encoder":"233525","distractor":"238525","target":"present","response":"absent","rt":"2004.5","correct":false,"confidence":5},{"trial_n":61,"span":5,"encoder":"63624","distractor":"62624","target":"absent","response":"absent","rt":"2442.4000000004","correct":true,"confidence":5},{"trial_n":62,"span":5,"encoder":"27137","distractor":"27133","target":"absent","response":"absent","rt":"1640","correct":true,"confidence":5},{"trial_n":63,"span":6,"encoder":"553623","distractor":"533623","target":"present","response":"absent","rt":"1951.9000000004","correct":false,"confidence":5},{"trial_n":64,"span":5,"encoder":"06561","distractor":"09561","target":"present","response":"present","rt":"1953.3000000007","correct":true,"confidence":5},{"trial_n":65,"span":5,"encoder":"02788","distractor":"02388","target":"present","response":"absent","rt":"1945.8000000007","correct":false,"confidence":3},{"trial_n":66,"span":4,"encoder":"7618","distractor":"7678","target":"absent","response":"absent","rt":"1702.5","correct":true,"confidence":5},{"trial_n":67,"span":4,"encoder":"5010","distractor":"1010","target":"absent","response":"absent","rt":"1515.6999999993","correct":true,"confidence":5},{"trial_n":68,"span":5,"encoder":"38910","distractor":"38950","target":"absent","response":"absent","rt":"1377.0999999996","correct":true,"confidence":2},{"trial_n":69,"span":5,"encoder":"43366","distractor":"43266","target":"absent","response":"absent","rt":"1829.6999999993","correct":true,"confidence":5},{"trial_n":70,"span":6,"encoder":"232210","distractor":"252210","target":"present","response":"absent","rt":"1801.4000000004","correct":false,"confidence":5},{"trial_n":71,"span":8,"encoder":"35207471","distractor":"35207473","target":"present","response":"present","rt":"4353","correct":true,"confidence":-1},{"trial_n":72,"span":8,"encoder":"83885388","distractor":"83885318","target":"present","response":"present","rt":"3460.8999999985","correct":true,"confidence":-1},{"trial_n":73,"span":9,"encoder":"168775015","distractor":"168275015","target":"absent","response":"absent","rt":"1346.5999999996","correct":true,"confidence":-1},{"trial_n":74,"span":9,"encoder":"324040231","distractor":"324540231","target":"absent","response":"absent","rt":"1034.6999999993","correct":true,"confidence":-1},{"trial_n":75,"span":10,"encoder":"3873664144","distractor":"3873264144","target":"present","response":"absent","rt":"687.40000000037","correct":false,"confidence":-1},{"trial_n":76,"span":9,"encoder":"375816769","distractor":"375806769","target":"present","response":"present","rt":"598.5","correct":true,"confidence":-1},{"trial_n":77,"span":9,"encoder":"308172839","distractor":"308672839","target":"present","response":"absent","rt":"1014.7999999989","correct":false,"confidence":-1},{"trial_n":78,"span":8,"encoder":"66436794","distractor":"66536794","target":"present","response":"present","rt":"1867.1999999993","correct":true,"confidence":-1},{"trial_n":79,"span":8,"encoder":"47610542","distractor":"47110542","target":"absent","response":"present","rt":"657.69999999925","correct":false,"confidence":-1},{"trial_n":80,"span":7,"encoder":"1349190","distractor":"1349590","target":"absent","response":"absent","rt":"665.90000000037","correct":true,"confidence":-1},{"trial_n":81,"span":7,"encoder":"0945229","distractor":"0995229","target":"absent","response":"absent","rt":"379.79999999888","correct":true,"confidence":-1},{"trial_n":82,"span":8,"encoder":"84515585","distractor":"84585585","target":"present","response":"absent","rt":"2128.7999999989","correct":false,"confidence":-1},{"trial_n":83,"span":7,"encoder":"8146565","distractor":"8346565","target":"absent","response":"absent","rt":"2455.6999999993","correct":true,"confidence":-1},{"trial_n":84,"span":7,"encoder":"3961916","distractor":"3961919","target":"absent","response":"absent","rt":"4264.1999999993","correct":true,"confidence":-1},{"trial_n":85,"span":8,"encoder":"57297434","distractor":"27297434","target":"absent","response":"absent","rt":"3196.5","correct":true,"confidence":-1},{"trial_n":86,"span":8,"encoder":"55480243","distractor":"75480243","target":"absent","response":"absent","rt":"3068.3000000007","correct":true,"confidence":-1},{"trial_n":87,"span":9,"encoder":"579464240","distractor":"509464240","target":"present","response":"absent","rt":"1637.5999999996","correct":false,"confidence":-1},{"trial_n":88,"span":8,"encoder":"19383214","distractor":"19384214","target":"present","response":"present","rt":"723.29999999888","correct":true,"confidence":-1},{"trial_n":89,"span":8,"encoder":"24062016","distractor":"24062116","target":"present","response":"present","rt":"918.69999999925","correct":true,"confidence":-1},{"trial_n":90,"span":9,"encoder":"941665092","distractor":"941665192","target":"present","response":"absent","rt":"633.30000000075","correct":false,"confidence":-1},{"trial_n":91,"span":8,"encoder":"40868847","distractor":"49868847","target":"absent","response":"absent","rt":"4967.0999999996","correct":true,"confidence":3},{"trial_n":92,"span":8,"encoder":"44013230","distractor":"44013290","target":"present","response":"present","rt":"4097.1000000015","correct":true,"confidence":5},{"trial_n":93,"span":9,"encoder":"442813380","distractor":"442813180","target":"absent","response":"absent","rt":"2819.0999999996","correct":true,"confidence":2},{"trial_n":94,"span":9,"encoder":"577315916","distractor":"577315116","target":"present","response":"present","rt":"6243","correct":true,"confidence":1},{"trial_n":95,"span":10,"encoder":"0707454193","distractor":"0707453193","target":"absent","response":"absent","rt":"3912","correct":true,"confidence":3},{"trial_n":96,"span":10,"encoder":"8922416042","distractor":"8922416052","target":"present","response":"present","rt":"5183.5","correct":true,"confidence":1},{"trial_n":97,"span":11,"encoder":"59783090399","distractor":"59783090398","target":"absent","response":"absent","rt":"3574.3000000007","correct":true,"confidence":5},{"trial_n":98,"span":11,"encoder":"20718908768","distractor":"20758908768","target":"present","response":"absent","rt":"3226","correct":false,"confidence":4},{"trial_n":99,"span":10,"encoder":"1424605863","distractor":"1424605861","target":"absent","response":"absent","rt":"2099.0999999996","correct":true,"confidence":3},{"trial_n":100,"span":10,"encoder":"8634471815","distractor":"8234471815","target":"present","response":"absent","rt":"3034.9000000004","correct":false,"confidence":2},{"trial_n":101,"span":9,"encoder":"163502462","distractor":"161502462","target":"absent","response":"absent","rt":"4060.2000000011","correct":true,"confidence":5},{"trial_n":102,"span":9,"encoder":"066903909","distractor":"066903902","target":"absent","response":"absent","rt":"4284.2999999989","correct":true,"confidence":5},{"trial_n":103,"span":10,"encoder":"9114261360","distractor":"9214261360","target":"absent","response":"absent","rt":"4868.5","correct":true,"confidence":3},{"trial_n":104,"span":10,"encoder":"9053919675","distractor":"9003919675","target":"absent","response":"absent","rt":"1784.4000000004","correct":true,"confidence":3},{"trial_n":105,"span":11,"encoder":"25282530230","distractor":"85282530230","target":"present","response":"present","rt":"3991.6999999993","correct":true,"confidence":1},{"trial_n":106,"span":11,"encoder":"24526122536","distractor":"24522122536","target":"absent","response":"absent","rt":"6091.4000000004","correct":true,"confidence":1},{"trial_n":107,"span":12,"encoder":"581907057202","distractor":"501907057202","target":"present","response":"absent","rt":"3951.8999999985","correct":false,"confidence":1},{"trial_n":108,"span":11,"encoder":"98891614438","distractor":"98891634438","target":"absent","response":"present","rt":"4889.9000000004","correct":false,"confidence":2},{"trial_n":109,"span":10,"encoder":"9538692130","distractor":"9538696130","target":"absent","response":"absent","rt":"2130.6000000015","correct":true,"confidence":1},{"trial_n":110,"span":10,"encoder":"7227593646","distractor":"7227553646","target":"present","response":"present","rt":"3814.3000000007","correct":true,"confidence":2},{"trial_n":111,"span":11,"encoder":"91509724328","distractor":"91509726328","target":"absent","response":"present","rt":"2777.5","correct":false,"confidence":1},{"trial_n":112,"span":10,"encoder":"0005532936","distractor":"0005532935","target":"absent","response":"absent","rt":"2712.0999999996","correct":true,"confidence":5},{"trial_n":113,"span":10,"encoder":"4524448144","distractor":"4524443144","target":"absent","response":"absent","rt":"3305.9000000004","correct":true,"confidence":5},{"trial_n":114,"span":11,"encoder":"53460955664","distractor":"83460955664","target":"present","response":"absent","rt":"5142.5","correct":false,"confidence":3},{"trial_n":115,"span":10,"encoder":"0939838519","distractor":"0936838519","target":"present","response":"present","rt":"3798.6999999993","correct":true,"confidence":2},{"trial_n":116,"span":10,"encoder":"1409070002","distractor":"1409070202","target":"absent","response":"absent","rt":"4316.2999999989","correct":true,"confidence":4},{"trial_n":117,"span":11,"encoder":"76454280800","distractor":"76454280700","target":"absent","response":"present","rt":"1868.6999999993","correct":false,"confidence":1},{"trial_n":118,"span":10,"encoder":"7006806093","distractor":"7026806093","target":"present","response":"absent","rt":"5544.7999999989","correct":false,"confidence":1},{"trial_n":119,"span":9,"encoder":"785765652","distractor":"715765652","target":"present","response":"present","rt":"2519","correct":true,"confidence":1},{"trial_n":120,"span":9,"encoder":"412035564","distractor":"412035534","target":"absent","response":"present","rt":"2718.3999999985","correct":false,"confidence":1},{"trial_n":121,"span":8,"encoder":"53608594","distractor":"53608596","target":"present","response":"present","rt":"4113.5","correct":true,"confidence":3},{"trial_n":122,"span":8,"encoder":"59117044","distractor":"59137044","target":"absent","response":"absent","rt":"3152.9000000004","correct":true,"confidence":4},{"trial_n":123,"span":9,"encoder":"075144756","distractor":"075144256","target":"present","response":"present","rt":"1440.8000000007","correct":true,"confidence":3},{"trial_n":124,"span":9,"encoder":"491590742","distractor":"591590742","target":"absent","response":"absent","rt":"1965.8000000007","correct":true,"confidence":2},{"trial_n":125,"span":10,"encoder":"6346414175","distractor":"6346014175","target":"absent","response":"present","rt":"1518.3000000007","correct":false,"confidence":3},{"trial_n":126,"span":9,"encoder":"115245884","distractor":"915245884","target":"present","response":"absent","rt":"1897.9000000004","correct":false,"confidence":3},{"trial_n":127,"span":8,"encoder":"94003936","distractor":"94003736","target":"present","response":"present","rt":"672.59999999963","correct":true,"confidence":3},{"trial_n":128,"span":8,"encoder":"87915548","distractor":"87945548","target":"absent","response":"present","rt":"888.19999999925","correct":false,"confidence":2},{"trial_n":129,"span":7,"encoder":"6037788","distractor":"6037783","target":"present","response":"present","rt":"3906","correct":true,"confidence":4},{"trial_n":130,"span":7,"encoder":"7343838","distractor":"7393838","target":"absent","response":"present","rt":"2561.4000000004","correct":false,"confidence":1},{"trial_n":131,"span":6,"encoder":"484241","distractor":"284241","target":"absent","response":"absent","rt":"1774.8000000007","correct":true,"confidence":3},{"trial_n":132,"span":6,"encoder":"584068","distractor":"586068","target":"present","response":"present","rt":"3153.7000000011","correct":true,"confidence":4},{"trial_n":133,"span":7,"encoder":"2033881","distractor":"2233881","target":"absent","response":"absent","rt":"1873.1999999993","correct":true,"confidence":4},{"trial_n":134,"span":7,"encoder":"4924246","distractor":"4724246","target":"present","response":"present","rt":"2049.4000000004","correct":true,"confidence":2},{"trial_n":135,"span":8,"encoder":"11344906","distractor":"11944906","target":"present","response":"present","rt":"3286.0999999996","correct":true,"confidence":4},{"trial_n":136,"span":8,"encoder":"39872132","distractor":"39802132","target":"present","response":"absent","rt":"3099.9000000004","correct":false,"confidence":3},{"trial_n":137,"span":7,"encoder":"2095305","distractor":"2090305","target":"present","response":"present","rt":"4100.8999999985","correct":true,"confidence":5},{"trial_n":138,"span":7,"encoder":"9899242","distractor":"9895242","target":"present","response":"present","rt":"1659.3000000007","correct":true,"confidence":4},{"trial_n":139,"span":8,"encoder":"99132217","distractor":"99132517","target":"present","response":"present","rt":"3866.1999999993","correct":true,"confidence":2},{"trial_n":140,"span":8,"encoder":"02987807","distractor":"02987801","target":"present","response":"present","rt":"3207.7999999989","correct":true,"confidence":1}]