[{"trial_n":1,"span":8,"encoder":"50032391","distractor":"50032491","target":"present","response":"present","rt":"2973.0000000009","correct":true,"confidence":-1},{"trial_n":2,"span":8,"encoder":"45002036","distractor":"45602036","target":"present","response":"absent","rt":"1131.0000000005","correct":false,"confidence":-1},{"trial_n":3,"span":6,"encoder":"635625","distractor":"655625","target":"absent","response":"present","rt":"1087.0000000005","correct":false,"confidence":-1},{"trial_n":4,"span":4,"encoder":"2213","distractor":"2211","target":"absent","response":"present","rt":"1494.9999999995","correct":false,"confidence":-1},{"trial_n":5,"span":2,"encoder":"03","distractor":"13","target":"present","response":"absent","rt":"1903.0000000005","correct":false,"confidence":-1},{"trial_n":6,"span":2,"encoder":"07","distractor":"97","target":"absent","response":"absent","rt":"3169","correct":true,"confidence":-1},{"trial_n":7,"span":2,"encoder":"54","distractor":"50","target":"present","response":"present","rt":"1385.9999999995","correct":true,"confidence":-1},{"trial_n":8,"span":4,"encoder":"7146","distractor":"2146","target":"absent","response":"absent","rt":"1676","correct":true,"confidence":-1},{"trial_n":9,"span":4,"encoder":"6193","distractor":"6293","target":"absent","response":"absent","rt":"1741","correct":true,"confidence":-1},{"trial_n":10,"span":6,"encoder":"261346","distractor":"861346","target":"present","response":"absent","rt":"1771","correct":false,"confidence":-1},{"trial_n":11,"span":4,"encoder":"9180","distractor":"9100","target":"absent","response":"absent","rt":"791","correct":true,"confidence":-1},{"trial_n":12,"span":4,"encoder":"0590","distractor":"0540","target":"absent","response":"present","rt":"611","correct":false,"confidence":-1},{"trial_n":13,"span":3,"encoder":"414","distractor":"114","target":"absent","response":"present","rt":"1219.9999999991","correct":false,"confidence":-1},{"trial_n":14,"span":2,"encoder":"25","distractor":"05","target":"absent","response":"present","rt":"1250","correct":false,"confidence":-1},{"trial_n":15,"span":2,"encoder":"34","distractor":"14","target":"absent","response":"absent","rt":"1018","correct":true,"confidence":-1},{"trial_n":16,"span":2,"encoder":"22","distractor":"23","target":"absent","response":"present","rt":"887","correct":false,"confidence":-1},{"trial_n":17,"span":2,"encoder":"92","distractor":"91","target":"absent","response":"absent","rt":"1219.9999999991","correct":true,"confidence":-1},{"trial_n":18,"span":2,"encoder":"03","distractor":"83","target":"absent","response":"absent","rt":"550","correct":true,"confidence":-1},{"trial_n":19,"span":3,"encoder":"872","distractor":"875","target":"present","response":"absent","rt":"625","correct":false,"confidence":-1},{"trial_n":20,"span":2,"encoder":"75","distractor":"72","target":"absent","response":"present","rt":"837","correct":false,"confidence":-1},{"trial_n":21,"span":2,"encoder":"60","distractor":"63","target":"present","response":"present","rt":"1575","correct":true,"confidence":4},{"trial_n":22,"span":2,"encoder":"08","distractor":"28","target":"present","response":"present","rt":"1457","correct":true,"confidence":2},{"trial_n":23,"span":3,"encoder":"017","distractor":"117","target":"present","response":"present","rt":"1959","correct":true,"confidence":3},{"trial_n":24,"span":3,"encoder":"397","distractor":"398","target":"absent","response":"present","rt":"2708","correct":false,"confidence":1},{"trial_n":25,"span":2,"encoder":"64","distractor":"14","target":"present","response":"present","rt":"1271","correct":true,"confidence":5},{"trial_n":26,"span":2,"encoder":"38","distractor":"37","target":"absent","response":"absent","rt":"938","correct":true,"confidence":5},{"trial_n":27,"span":3,"encoder":"506","distractor":"586","target":"absent","response":"absent","rt":"2076.0000000009","correct":true,"confidence":5},{"trial_n":28,"span":3,"encoder":"369","distractor":"366","target":"present","response":"present","rt":"1710","correct":true,"confidence":5},{"trial_n":29,"span":4,"encoder":"4894","distractor":"2894","target":"present","response":"present","rt":"1699","correct":true,"confidence":5},{"trial_n":30,"span":4,"encoder":"0891","distractor":"0991","target":"present","response":"present","rt":"2348","correct":true,"confidence":5},{"trial_n":31,"span":5,"encoder":"14069","distractor":"14039","target":"absent","response":"absent","rt":"2294","correct":true,"confidence":5},{"trial_n":32,"span":5,"encoder":"42438","distractor":"92438","target":"present","response":"absent","rt":"4903","correct":false,"confidence":3},{"trial_n":33,"span":4,"encoder":"1468","distractor":"1428","target":"present","response":"present","rt":"1330","correct":true,"confidence":5},{"trial_n":34,"span":4,"encoder":"1415","distractor":"1915","target":"present","response":"present","rt":"1666","correct":true,"confidence":5},{"trial_n":35,"span":5,"encoder":"09383","distractor":"02383","target":"absent","response":"absent","rt":"1704","correct":true,"confidence":4},{"trial_n":36,"span":5,"encoder":"00956","distractor":"00959","target":"absent","response":"present","rt":"1589","correct":false,"confidence":4},{"trial_n":37,"span":4,"encoder":"5550","distractor":"5520","target":"present","response":"present","rt":"2251","correct":true,"confidence":4},{"trial_n":38,"span":4,"encoder":"2697","distractor":"2690","target":"present","response":"present","rt":"1567","correct":true,"confidence":3},{"trial_n":39,"span":5,"encoder":"89219","distractor":"89259","target":"present","response":"absent","rt":"3504","correct":false,"confidence":4},{"trial_n":40,"span":4,"encoder":"9250","distractor":"1250","target":"absent","response":"absent","rt":"1752","correct":true,"confidence":5},{"trial_n":41,"span":4,"encoder":"6389","distractor":"6329","target":"present","response":"present","rt":"1899","correct":true,"confidence":5},{"trial_n":42,"span":5,"encoder":"43807","distractor":"23807","target":"present","response":"present","rt":"1539.9999999991","correct":true,"confidence":3},{"trial_n":43,"span":5,"encoder":"02692","distractor":"72692","target":"absent","response":"absent","rt":"1158","correct":true,"confidence":4},{"trial_n":44,"span":6,"encoder":"488333","distractor":"482333","target":"absent","response":"absent","rt":"2059","correct":true,"confidence":4},{"trial_n":45,"span":6,"encoder":"011560","distractor":"311560","target":"absent","response":"absent","rt":"2413","correct":true,"confidence":4},{"trial_n":46,"span":7,"encoder":"7191873","distractor":"7171873","target":"absent","response":"absent","rt":"1035","correct":true,"confidence":4},{"trial_n":47,"span":7,"encoder":"6716315","distractor":"6716385","target":"present","response":"absent","rt":"1000","correct":false,"confidence":3},{"trial_n":48,"span":6,"encoder":"993404","distractor":"993204","target":"present","response":"present","rt":"2248","correct":true,"confidence":4},{"trial_n":49,"span":6,"encoder":"910921","distractor":"910621","target":"present","response":"present","rt":"3432","correct":true,"confidence":4},{"trial_n":50,"span":7,"encoder":"2689229","distractor":"2689249","target":"absent","response":"absent","rt":"2985.9999999991","correct":true,"confidence":3},{"trial_n":51,"span":7,"encoder":"9422836","distractor":"9422866","target":"absent","response":"absent","rt":"1166","correct":true,"confidence":1},{"trial_n":52,"span":8,"encoder":"54591726","distractor":"54291726","target":"present","response":"present","rt":"2057","correct":true,"confidence":4},{"trial_n":53,"span":8,"encoder":"29523059","distractor":"29526059","target":"present","response":"absent","rt":"6161","correct":false,"confidence":3},{"trial_n":54,"span":7,"encoder":"4469896","distractor":"4469596","target":"present","response":"absent","rt":"1086","correct":false,"confidence":3},{"trial_n":55,"span":6,"encoder":"759814","distractor":"759114","target":"present","response":"absent","rt":"2776","correct":false,"confidence":3},{"trial_n":56,"span":5,"encoder":"54248","distractor":"54244","target":"present","response":"absent","rt":"1511.0000000009","correct":false,"confidence":3},{"trial_n":57,"span":4,"encoder":"4923","distractor":"4928","target":"present","response":"present","rt":"1360.0000000009","correct":true,"confidence":2},{"trial_n":58,"span":4,"encoder":"6379","distractor":"6389","target":"present","response":"absent","rt":"1274.9999999991","correct":false,"confidence":4},{"trial_n":59,"span":3,"encoder":"504","distractor":"574","target":"absent","response":"absent","rt":"1052","correct":true,"confidence":3},{"trial_n":60,"span":3,"encoder":"997","distractor":"967","target":"present","response":"absent","rt":"15638","correct":false,"confidence":4},{"trial_n":61,"span":2,"encoder":"04","distractor":"07","target":"absent","response":"absent","rt":"2456","correct":true,"confidence":3},{"trial_n":62,"span":2,"encoder":"68","distractor":"62","target":"absent","response":"absent","rt":"1866","correct":true,"confidence":4},{"trial_n":63,"span":3,"encoder":"618","distractor":"616","target":"present","response":"present","rt":"1435.9999999991","correct":true,"confidence":4},{"trial_n":64,"span":3,"encoder":"457","distractor":"257","target":"absent","response":"absent","rt":"4873","correct":true,"confidence":4},{"trial_n":65,"span":4,"encoder":"0732","distractor":"0702","target":"present","response":"present","rt":"1643","correct":true,"confidence":4},{"trial_n":66,"span":4,"encoder":"8893","distractor":"8899","target":"absent","response":"absent","rt":"1942","correct":true,"confidence":4},{"trial_n":67,"span":5,"encoder":"49891","distractor":"79891","target":"absent","response":"present","rt":"3931","correct":false,"confidence":1},{"trial_n":68,"span":4,"encoder":"1917","distractor":"8917","target":"present","response":"absent","rt":"1175","correct":false,"confidence":4},{"trial_n":69,"span":3,"encoder":"797","distractor":"791","target":"present","response":"absent","rt":"5322","correct":false,"confidence":1},{"trial_n":70,"span":2,"encoder":"85","distractor":"65","target":"absent","response":"absent","rt":"6154","correct":true,"confidence":4},{"trial_n":71,"span":8,"encoder":"92702763","distractor":"92702765","target":"present","response":"present","rt":"2263","correct":true,"confidence":-1},{"trial_n":72,"span":8,"encoder":"49029448","distractor":"49020448","target":"present","response":"absent","rt":"849","correct":false,"confidence":-1},{"trial_n":73,"span":7,"encoder":"2127622","distractor":"2167622","target":"absent","response":"present","rt":"1712","correct":false,"confidence":-1},{"trial_n":74,"span":6,"encoder":"801151","distractor":"801101","target":"absent","response":"absent","rt":"1254","correct":true,"confidence":-1},{"trial_n":75,"span":6,"encoder":"290076","distractor":"220076","target":"present","response":"present","rt":"1455","correct":true,"confidence":-1},{"trial_n":76,"span":7,"encoder":"9539244","distractor":"9519244","target":"absent","response":"absent","rt":"1477","correct":true,"confidence":-1},{"trial_n":77,"span":7,"encoder":"0869640","distractor":"0869340","target":"absent","response":"present","rt":"2294.9999999991","correct":false,"confidence":-1},{"trial_n":78,"span":6,"encoder":"219362","distractor":"219462","target":"present","response":"absent","rt":"1574","correct":false,"confidence":-1},{"trial_n":79,"span":5,"encoder":"37297","distractor":"37207","target":"absent","response":"present","rt":"1198","correct":false,"confidence":-1},{"trial_n":80,"span":4,"encoder":"4241","distractor":"4841","target":"present","response":"absent","rt":"1379","correct":false,"confidence":-1},{"trial_n":81,"span":3,"encoder":"582","distractor":"583","target":"absent","response":"present","rt":"1461","correct":false,"confidence":-1},{"trial_n":82,"span":2,"encoder":"17","distractor":"12","target":"absent","response":"absent","rt":"3168","correct":true,"confidence":-1},{"trial_n":83,"span":2,"encoder":"78","distractor":"38","target":"present","response":"present","rt":"855","correct":true,"confidence":-1},{"trial_n":84,"span":3,"encoder":"914","distractor":"514","target":"absent","response":"present","rt":"1890.0000000009","correct":false,"confidence":-1},{"trial_n":85,"span":2,"encoder":"96","distractor":"93","target":"absent","response":"absent","rt":"4605","correct":true,"confidence":-1},{"trial_n":86,"span":2,"encoder":"75","distractor":"72","target":"present","response":"present","rt":"5955.9999999991","correct":true,"confidence":-1},{"trial_n":87,"span":3,"encoder":"170","distractor":"172","target":"present","response":"absent","rt":"6994","correct":false,"confidence":-1},{"trial_n":88,"span":2,"encoder":"23","distractor":"83","target":"present","response":"present","rt":"2758","correct":true,"confidence":-1},{"trial_n":89,"span":2,"encoder":"21","distractor":"28","target":"present","response":"absent","rt":"891","correct":false,"confidence":-1},{"trial_n":90,"span":2,"encoder":"50","distractor":"52","target":"absent","response":"present","rt":"656","correct":false,"confidence":-1},{"trial_n":91,"span":2,"encoder":"87","distractor":"67","target":"present","response":"present","rt":"860","correct":true,"confidence":4},{"trial_n":92,"span":2,"encoder":"21","distractor":"71","target":"present","response":"present","rt":"674","correct":true,"confidence":4},{"trial_n":93,"span":3,"encoder":"042","distractor":"062","target":"present","response":"present","rt":"1980","correct":true,"confidence":3},{"trial_n":94,"span":3,"encoder":"451","distractor":"151","target":"absent","response":"absent","rt":"1062","correct":true,"confidence":4},{"trial_n":95,"span":4,"encoder":"3238","distractor":"3218","target":"absent","response":"absent","rt":"1268","correct":true,"confidence":4},{"trial_n":96,"span":4,"encoder":"3786","distractor":"3789","target":"present","response":"present","rt":"1236","correct":true,"confidence":4},{"trial_n":97,"span":5,"encoder":"35349","distractor":"38349","target":"present","response":"present","rt":"2454","correct":true,"confidence":4},{"trial_n":98,"span":5,"encoder":"97338","distractor":"97334","target":"absent","response":"absent","rt":"1590","correct":true,"confidence":4},{"trial_n":99,"span":6,"encoder":"799674","distractor":"799673","target":"present","response":"present","rt":"1793","correct":true,"confidence":5},{"trial_n":100,"span":6,"encoder":"178436","distractor":"178036","target":"absent","response":"absent","rt":"1846","correct":true,"confidence":4},{"trial_n":101,"span":7,"encoder":"2936739","distractor":"2930739","target":"present","response":"present","rt":"1054","correct":true,"confidence":4},{"trial_n":102,"span":7,"encoder":"5968265","distractor":"5918265","target":"absent","response":"absent","rt":"1481","correct":true,"confidence":4},{"trial_n":103,"span":8,"encoder":"90495753","distractor":"90495453","target":"present","response":"absent","rt":"889","correct":false,"confidence":1},{"trial_n":104,"span":7,"encoder":"6433428","distractor":"6433448","target":"present","response":"present","rt":"3914","correct":true,"confidence":4},{"trial_n":105,"span":7,"encoder":"4337988","distractor":"4317988","target":"absent","response":"absent","rt":"6084.0000000009","correct":true,"confidence":1},{"trial_n":106,"span":8,"encoder":"90447037","distractor":"90467037","target":"present","response":"present","rt":"1189","correct":true,"confidence":3},{"trial_n":107,"span":8,"encoder":"05166084","distractor":"05166004","target":"absent","response":"absent","rt":"2689.0000000009","correct":true,"confidence":4},{"trial_n":108,"span":9,"encoder":"196399005","distractor":"166399005","target":"absent","response":"absent","rt":"3098","correct":true,"confidence":4},{"trial_n":109,"span":9,"encoder":"722781994","distractor":"722785994","target":"present","response":"present","rt":"7059","correct":true,"confidence":2},{"trial_n":110,"span":10,"encoder":"1826496051","distractor":"1826496053","target":"present","response":"present","rt":"1382","correct":true,"confidence":4},{"trial_n":111,"span":10,"encoder":"4177182288","distractor":"4177082288","target":"absent","response":"present","rt":"1766","correct":false,"confidence":4},{"trial_n":112,"span":9,"encoder":"621485462","distractor":"621481462","target":"absent","response":"absent","rt":"6402","correct":true,"confidence":4},{"trial_n":113,"span":9,"encoder":"189046126","distractor":"189049126","target":"absent","response":"present","rt":"1165","correct":false,"confidence":3},{"trial_n":114,"span":8,"encoder":"35528999","distractor":"31528999","target":"present","response":"absent","rt":"2210","correct":false,"confidence":1},{"trial_n":115,"span":7,"encoder":"6095072","distractor":"6195072","target":"absent","response":"present","rt":"1186","correct":false,"confidence":4},{"trial_n":116,"span":6,"encoder":"293099","distractor":"298099","target":"absent","response":"present","rt":"3715","correct":false,"confidence":4},{"trial_n":117,"span":5,"encoder":"98084","distractor":"98085","target":"absent","response":"present","rt":"2929.0000000009","correct":false,"confidence":3},{"trial_n":118,"span":4,"encoder":"6466","distractor":"9466","target":"absent","response":"absent","rt":"1441","correct":true,"confidence":1},{"trial_n":119,"span":4,"encoder":"9634","distractor":"1634","target":"present","response":"absent","rt":"10109","correct":false,"confidence":3},{"trial_n":120,"span":3,"encoder":"222","distractor":"422","target":"absent","response":"present","rt":"3304","correct":false,"confidence":1},{"trial_n":121,"span":2,"encoder":"61","distractor":"41","target":"absent","response":"absent","rt":"2186","correct":true,"confidence":3},{"trial_n":122,"span":2,"encoder":"29","distractor":"19","target":"present","response":"absent","rt":"1533","correct":false,"confidence":4},{"trial_n":123,"span":2,"encoder":"14","distractor":"12","target":"absent","response":"present","rt":"3268","correct":false,"confidence":3},{"trial_n":124,"span":2,"encoder":"32","distractor":"33","target":"absent","response":"absent","rt":"3232","correct":true,"confidence":3},{"trial_n":125,"span":2,"encoder":"50","distractor":"80","target":"present","response":"present","rt":"898","correct":true,"confidence":5},{"trial_n":126,"span":3,"encoder":"767","distractor":"467","target":"present","response":"present","rt":"1038","correct":true,"confidence":4},{"trial_n":127,"span":3,"encoder":"948","distractor":"848","target":"absent","response":"absent","rt":"890","correct":true,"confidence":1},{"trial_n":128,"span":4,"encoder":"2446","distractor":"2466","target":"present","response":"present","rt":"911","correct":true,"confidence":3},{"trial_n":129,"span":4,"encoder":"0214","distractor":"9214","target":"present","response":"present","rt":"1046","correct":true,"confidence":4},{"trial_n":130,"span":5,"encoder":"84827","distractor":"84887","target":"absent","response":"present","rt":"1468","correct":false,"confidence":1},{"trial_n":131,"span":4,"encoder":"0474","distractor":"0475","target":"present","response":"absent","rt":"3560.0000000009","correct":false,"confidence":4},{"trial_n":132,"span":3,"encoder":"540","distractor":"550","target":"present","response":"present","rt":"873.99999999907","correct":true,"confidence":3},{"trial_n":133,"span":3,"encoder":"329","distractor":"229","target":"absent","response":"absent","rt":"3006","correct":true,"confidence":4},{"trial_n":134,"span":4,"encoder":"5222","distractor":"5227","target":"present","response":"present","rt":"2462","correct":true,"confidence":3},{"trial_n":135,"span":4,"encoder":"5549","distractor":"5649","target":"present","response":"absent","rt":"9328","correct":false,"confidence":4},{"trial_n":136,"span":3,"encoder":"684","distractor":"644","target":"absent","response":"absent","rt":"4324.0000000009","correct":true,"confidence":4},{"trial_n":137,"span":3,"encoder":"309","distractor":"399","target":"present","response":"absent","rt":"4709","correct":false,"confidence":4},{"trial_n":138,"span":2,"encoder":"33","distractor":"83","target":"present","response":"absent","rt":"9255","correct":false,"confidence":3},{"trial_n":139,"span":2,"encoder":"56","distractor":"36","target":"present","response":"present","rt":"5423","correct":true,"confidence":3},{"trial_n":140,"span":2,"encoder":"77","distractor":"73","target":"absent","response":"absent","rt":"970","correct":true,"confidence":4}]