[{"trial_n":1,"min":25,"max":230,"target":"present","response":"absent","rt":6100.0999999996,"correct":false,"confidence":-1},{"trial_n":2,"min":25,"max":230,"target":"present","response":"present","rt":2217,"correct":true,"confidence":-1},{"trial_n":3,"min":25,"max":230,"target":"absent","response":"absent","rt":831.80000000075,"correct":true,"confidence":-1},{"trial_n":4,"min":41,"max":214,"target":"absent","response":"absent","rt":1063.8999999985,"correct":true,"confidence":-1},{"trial_n":5,"min":41,"max":214,"target":"present","response":"present","rt":736,"correct":true,"confidence":-1},{"trial_n":6,"min":57,"max":198,"target":"present","response":"present","rt":817.30000000075,"correct":true,"confidence":-1},{"trial_n":7,"min":57,"max":198,"target":"present","response":"present","rt":642,"correct":true,"confidence":-1},{"trial_n":8,"min":73,"max":182,"target":"absent","response":"absent","rt":636,"correct":true,"confidence":-1},{"trial_n":9,"min":73,"max":182,"target":"absent","response":"absent","rt":561.59999999963,"correct":true,"confidence":-1},{"trial_n":10,"min":89,"max":166,"target":"present","response":"absent","rt":542,"correct":false,"confidence":-1},{"trial_n":11,"min":81,"max":174,"target":"absent","response":"present","rt":1401.8000000007,"correct":false,"confidence":-1},{"trial_n":12,"min":73,"max":182,"target":"absent","response":"absent","rt":558.10000000149,"correct":true,"confidence":-1},{"trial_n":13,"min":73,"max":182,"target":"absent","response":"absent","rt":539.19999999925,"correct":true,"confidence":-1},{"trial_n":14,"min":81,"max":174,"target":"absent","response":"absent","rt":727.20000000112,"correct":true,"confidence":-1},{"trial_n":15,"min":81,"max":174,"target":"absent","response":"absent","rt":477.10000000149,"correct":true,"confidence":-1},{"trial_n":16,"min":89,"max":166,"target":"present","response":"present","rt":1013.5999999996,"correct":true,"confidence":-1},{"trial_n":17,"min":89,"max":166,"target":"absent","response":"absent","rt":510.90000000037,"correct":true,"confidence":-1},{"trial_n":18,"min":97,"max":158,"target":"absent","response":"absent","rt":763.90000000037,"correct":true,"confidence":-1},{"trial_n":19,"min":97,"max":158,"target":"absent","response":"absent","rt":579.5,"correct":true,"confidence":-1},{"trial_n":20,"min":105,"max":150,"target":"absent","response":"absent","rt":405.5,"correct":true,"confidence":-1},{"trial_n":21,"min":105,"max":150,"target":"present","response":"absent","rt":644.30000000075,"correct":false,"confidence":2},{"trial_n":22,"min":101,"max":154,"target":"absent","response":"present","rt":935.09999999963,"correct":false,"confidence":4},{"trial_n":23,"min":97,"max":158,"target":"absent","response":"present","rt":1386.3999999985,"correct":false,"confidence":3},{"trial_n":24,"min":93,"max":162,"target":"present","response":"absent","rt":511,"correct":false,"confidence":5},{"trial_n":25,"min":89,"max":166,"target":"present","response":"present","rt":1306,"correct":true,"confidence":5},{"trial_n":26,"min":89,"max":166,"target":"absent","response":"absent","rt":635.90000000037,"correct":true,"confidence":3},{"trial_n":27,"min":93,"max":162,"target":"present","response":"absent","rt":690.59999999963,"correct":false,"confidence":5},{"trial_n":28,"min":89,"max":166,"target":"present","response":"absent","rt":2437.5999999996,"correct":false,"confidence":4},{"trial_n":29,"min":85,"max":170,"target":"absent","response":"absent","rt":1258.4000000004,"correct":true,"confidence":3},{"trial_n":30,"min":85,"max":170,"target":"present","response":"present","rt":904.59999999963,"correct":true,"confidence":5},{"trial_n":31,"min":87,"max":168,"target":"absent","response":"absent","rt":2348,"correct":true,"confidence":5},{"trial_n":32,"min":87,"max":168,"target":"present","response":"present","rt":3141.1999999993,"correct":true,"confidence":1},{"trial_n":33,"min":89,"max":166,"target":"absent","response":"absent","rt":2784.5999999996,"correct":true,"confidence":5},{"trial_n":34,"min":89,"max":166,"target":"absent","response":"absent","rt":2114.2000000011,"correct":true,"confidence":5},{"trial_n":35,"min":91,"max":164,"target":"present","response":"absent","rt":903.80000000075,"correct":false,"confidence":5},{"trial_n":36,"min":89,"max":166,"target":"absent","response":"absent","rt":650.70000000112,"correct":true,"confidence":5},{"trial_n":37,"min":89,"max":166,"target":"present","response":"absent","rt":980.5,"correct":false,"confidence":5},{"trial_n":38,"min":87,"max":168,"target":"present","response":"present","rt":1848.5,"correct":true,"confidence":4},{"trial_n":39,"min":87,"max":168,"target":"present","response":"present","rt":1399.6999999993,"correct":true,"confidence":5},{"trial_n":40,"min":89,"max":166,"target":"present","response":"present","rt":981.09999999963,"correct":true,"confidence":4},{"trial_n":41,"min":89,"max":166,"target":"absent","response":"absent","rt":1506.8000000007,"correct":true,"confidence":5},{"trial_n":42,"min":90,"max":165,"target":"present","response":"absent","rt":1151,"correct":false,"confidence":5},{"trial_n":43,"min":89,"max":166,"target":"absent","response":"absent","rt":1030,"correct":true,"confidence":5},{"trial_n":44,"min":89,"max":166,"target":"absent","response":"absent","rt":862.10000000149,"correct":true,"confidence":5},{"trial_n":45,"min":90,"max":165,"target":"present","response":"absent","rt":1477.5,"correct":false,"confidence":5},{"trial_n":46,"min":89,"max":166,"target":"present","response":"absent","rt":755.30000000075,"correct":false,"confidence":5},{"trial_n":47,"min":88,"max":167,"target":"absent","response":"absent","rt":807.20000000112,"correct":true,"confidence":4},{"trial_n":48,"min":88,"max":167,"target":"present","response":"absent","rt":573.69999999925,"correct":false,"confidence":4},{"trial_n":49,"min":87,"max":168,"target":"present","response":"absent","rt":729.59999999963,"correct":false,"confidence":3},{"trial_n":50,"min":86,"max":169,"target":"present","response":"absent","rt":879.40000000037,"correct":false,"confidence":2},{"trial_n":51,"min":85,"max":170,"target":"present","response":"absent","rt":686.89999999851,"correct":false,"confidence":4},{"trial_n":52,"min":84,"max":171,"target":"present","response":"absent","rt":2102.5999999996,"correct":false,"confidence":4},{"trial_n":53,"min":83,"max":172,"target":"present","response":"present","rt":1084,"correct":true,"confidence":5},{"trial_n":54,"min":83,"max":172,"target":"absent","response":"absent","rt":1217.9000000004,"correct":true,"confidence":1},{"trial_n":55,"min":84,"max":171,"target":"absent","response":"absent","rt":1123.9000000004,"correct":true,"confidence":2},{"trial_n":56,"min":84,"max":171,"target":"absent","response":"absent","rt":501.90000000037,"correct":true,"confidence":3},{"trial_n":57,"min":85,"max":170,"target":"absent","response":"absent","rt":902.80000000075,"correct":true,"confidence":2},{"trial_n":58,"min":85,"max":170,"target":"present","response":"present","rt":1200.2999999989,"correct":true,"confidence":2},{"trial_n":59,"min":86,"max":169,"target":"absent","response":"present","rt":3596.0999999996,"correct":false,"confidence":1},{"trial_n":60,"min":85,"max":170,"target":"present","response":"absent","rt":1503.5999999996,"correct":false,"confidence":3},{"trial_n":61,"min":84,"max":171,"target":"absent","response":"absent","rt":571,"correct":true,"confidence":1},{"trial_n":62,"min":84,"max":171,"target":"present","response":"absent","rt":1396.5999999996,"correct":false,"confidence":2},{"trial_n":63,"min":83,"max":172,"target":"present","response":"present","rt":1525.9000000004,"correct":true,"confidence":2},{"trial_n":64,"min":83,"max":172,"target":"present","response":"absent","rt":432.70000000112,"correct":false,"confidence":4},{"trial_n":65,"min":82,"max":173,"target":"absent","response":"absent","rt":442.80000000075,"correct":true,"confidence":1},{"trial_n":66,"min":82,"max":173,"target":"present","response":"present","rt":1251.5999999996,"correct":true,"confidence":3},{"trial_n":67,"min":83,"max":172,"target":"absent","response":"absent","rt":776.5,"correct":true,"confidence":2},{"trial_n":68,"min":83,"max":172,"target":"present","response":"present","rt":2473.6999999993,"correct":true,"confidence":2},{"trial_n":69,"min":84,"max":171,"target":"absent","response":"present","rt":1834.0999999996,"correct":false,"confidence":1},{"trial_n":70,"min":83,"max":172,"target":"present","response":"present","rt":892.80000000075,"correct":true,"confidence":1},{"trial_n":71,"min":41,"max":214,"target":"present","response":"present","rt":2248.4000000004,"correct":true,"confidence":-1},{"trial_n":72,"min":41,"max":214,"target":"present","response":"present","rt":676.19999999925,"correct":true,"confidence":-1},{"trial_n":73,"min":57,"max":198,"target":"absent","response":"absent","rt":617,"correct":true,"confidence":-1},{"trial_n":74,"min":57,"max":198,"target":"absent","response":"absent","rt":945.70000000112,"correct":true,"confidence":-1},{"trial_n":75,"min":73,"max":182,"target":"present","response":"present","rt":450.5,"correct":true,"confidence":-1},{"trial_n":76,"min":73,"max":182,"target":"present","response":"present","rt":508,"correct":true,"confidence":-1},{"trial_n":77,"min":89,"max":166,"target":"present","response":"absent","rt":721.5,"correct":false,"confidence":-1},{"trial_n":78,"min":73,"max":182,"target":"present","response":"present","rt":459.30000000075,"correct":true,"confidence":-1},{"trial_n":79,"min":73,"max":182,"target":"absent","response":"present","rt":600.80000000075,"correct":false,"confidence":-1},{"trial_n":80,"min":57,"max":198,"target":"absent","response":"absent","rt":531.59999999963,"correct":true,"confidence":-1},{"trial_n":81,"min":57,"max":198,"target":"present","response":"present","rt":572.19999999925,"correct":true,"confidence":-1},{"trial_n":82,"min":65,"max":190,"target":"absent","response":"absent","rt":544.09999999963,"correct":true,"confidence":-1},{"trial_n":83,"min":65,"max":190,"target":"absent","response":"present","rt":508,"correct":false,"confidence":-1},{"trial_n":84,"min":57,"max":198,"target":"absent","response":"absent","rt":409.80000000075,"correct":true,"confidence":-1},{"trial_n":85,"min":57,"max":198,"target":"absent","response":"absent","rt":398,"correct":true,"confidence":-1},{"trial_n":86,"min":65,"max":190,"target":"absent","response":"absent","rt":512.80000000075,"correct":true,"confidence":-1},{"trial_n":87,"min":65,"max":190,"target":"absent","response":"absent","rt":432.20000000112,"correct":true,"confidence":-1},{"trial_n":88,"min":73,"max":182,"target":"absent","response":"present","rt":463.69999999925,"correct":false,"confidence":-1},{"trial_n":89,"min":65,"max":190,"target":"absent","response":"absent","rt":864.5,"correct":true,"confidence":-1},{"trial_n":90,"min":65,"max":190,"target":"absent","response":"absent","rt":466.5,"correct":true,"confidence":-1},{"trial_n":91,"min":69,"max":186,"target":"present","response":"present","rt":879.5,"correct":true,"confidence":1},{"trial_n":92,"min":69,"max":186,"target":"absent","response":"absent","rt":513.80000000075,"correct":true,"confidence":5},{"trial_n":93,"min":73,"max":182,"target":"present","response":"present","rt":509.30000000075,"correct":true,"confidence":5},{"trial_n":94,"min":73,"max":182,"target":"absent","response":"absent","rt":610.30000000075,"correct":true,"confidence":3},{"trial_n":95,"min":77,"max":178,"target":"absent","response":"absent","rt":846.5,"correct":true,"confidence":2},{"trial_n":96,"min":77,"max":178,"target":"absent","response":"absent","rt":512.69999999925,"correct":true,"confidence":4},{"trial_n":97,"min":81,"max":174,"target":"present","response":"present","rt":326.59999999963,"correct":true,"confidence":5},{"trial_n":98,"min":81,"max":174,"target":"absent","response":"absent","rt":2762.9000000004,"correct":true,"confidence":5},{"trial_n":99,"min":85,"max":170,"target":"present","response":"present","rt":631.5,"correct":true,"confidence":4},{"trial_n":100,"min":85,"max":170,"target":"present","response":"present","rt":825.40000000037,"correct":true,"confidence":3},{"trial_n":101,"min":87,"max":168,"target":"present","response":"present","rt":2014.5999999996,"correct":true,"confidence":1},{"trial_n":102,"min":87,"max":168,"target":"present","response":"present","rt":710,"correct":true,"confidence":1},{"trial_n":103,"min":89,"max":166,"target":"present","response":"present","rt":384.40000000037,"correct":true,"confidence":4},{"trial_n":104,"min":89,"max":166,"target":"absent","response":"present","rt":1362.6999999993,"correct":false,"confidence":1},{"trial_n":105,"min":87,"max":168,"target":"present","response":"present","rt":1416.0999999996,"correct":true,"confidence":4},{"trial_n":106,"min":87,"max":168,"target":"absent","response":"present","rt":810.70000000112,"correct":false,"confidence":1},{"trial_n":107,"min":85,"max":170,"target":"present","response":"absent","rt":2172.5,"correct":false,"confidence":1},{"trial_n":108,"min":83,"max":172,"target":"absent","response":"absent","rt":1042.2000000011,"correct":true,"confidence":1},{"trial_n":109,"min":83,"max":172,"target":"absent","response":"absent","rt":827.39999999851,"correct":true,"confidence":3},{"trial_n":110,"min":85,"max":170,"target":"present","response":"present","rt":511.80000000075,"correct":true,"confidence":4},{"trial_n":111,"min":85,"max":170,"target":"present","response":"present","rt":640.80000000075,"correct":true,"confidence":1},{"trial_n":112,"min":86,"max":169,"target":"present","response":"present","rt":569,"correct":true,"confidence":4},{"trial_n":113,"min":86,"max":169,"target":"present","response":"present","rt":414.19999999925,"correct":true,"confidence":5},{"trial_n":114,"min":87,"max":168,"target":"absent","response":"absent","rt":1603.4000000004,"correct":true,"confidence":1},{"trial_n":115,"min":87,"max":168,"target":"absent","response":"present","rt":3108.4000000004,"correct":false,"confidence":1},{"trial_n":116,"min":86,"max":169,"target":"present","response":"present","rt":579.89999999851,"correct":true,"confidence":4},{"trial_n":117,"min":86,"max":169,"target":"present","response":"present","rt":2019.6000000015,"correct":true,"confidence":4},{"trial_n":118,"min":87,"max":168,"target":"absent","response":"present","rt":858.29999999888,"correct":false,"confidence":3},{"trial_n":119,"min":86,"max":169,"target":"present","response":"present","rt":639.89999999851,"correct":true,"confidence":3},{"trial_n":120,"min":86,"max":169,"target":"present","response":"present","rt":627.39999999851,"correct":true,"confidence":3},{"trial_n":121,"min":87,"max":168,"target":"present","response":"present","rt":1632.2000000011,"correct":true,"confidence":4},{"trial_n":122,"min":87,"max":168,"target":"absent","response":"absent","rt":1997.3000000007,"correct":true,"confidence":1},{"trial_n":123,"min":88,"max":167,"target":"absent","response":"present","rt":3810.8000000007,"correct":false,"confidence":1},{"trial_n":124,"min":87,"max":168,"target":"absent","response":"present","rt":766.5,"correct":false,"confidence":1},{"trial_n":125,"min":86,"max":169,"target":"present","response":"absent","rt":474.30000000075,"correct":false,"confidence":1},{"trial_n":126,"min":85,"max":170,"target":"absent","response":"absent","rt":790.20000000112,"correct":true,"confidence":1},{"trial_n":127,"min":85,"max":170,"target":"present","response":"absent","rt":687.5,"correct":false,"confidence":2},{"trial_n":128,"min":84,"max":171,"target":"absent","response":"absent","rt":1053.5,"correct":true,"confidence":1},{"trial_n":129,"min":84,"max":171,"target":"absent","response":"absent","rt":966.30000000075,"correct":true,"confidence":1},{"trial_n":130,"min":85,"max":170,"target":"present","response":"present","rt":552,"correct":true,"confidence":1},{"trial_n":131,"min":85,"max":170,"target":"absent","response":"present","rt":869.10000000149,"correct":false,"confidence":1},{"trial_n":132,"min":84,"max":171,"target":"present","response":"present","rt":599.90000000037,"correct":true,"confidence":3},{"trial_n":133,"min":84,"max":171,"target":"present","response":"present","rt":685.70000000112,"correct":true,"confidence":3},{"trial_n":134,"min":85,"max":170,"target":"present","response":"present","rt":1063.6999999993,"correct":true,"confidence":3},{"trial_n":135,"min":85,"max":170,"target":"present","response":"present","rt":602.70000000112,"correct":true,"confidence":3},{"trial_n":136,"min":86,"max":169,"target":"absent","response":"absent","rt":1238.0999999996,"correct":true,"confidence":1},{"trial_n":137,"min":86,"max":169,"target":"present","response":"present","rt":733.30000000075,"correct":true,"confidence":2},{"trial_n":138,"min":87,"max":168,"target":"present","response":"absent","rt":2266.4000000004,"correct":false,"confidence":1},{"trial_n":139,"min":86,"max":169,"target":"present","response":"absent","rt":1125.1999999993,"correct":false,"confidence":1},{"trial_n":140,"min":85,"max":170,"target":"absent","response":"present","rt":428.09999999963,"correct":false,"confidence":2}]