[{"trial_n":1,"min":25,"max":230,"target":"present","response":"present","rt":5340.1999999955,"correct":true,"confidence":-1},{"trial_n":2,"min":25,"max":230,"target":"present","response":"present","rt":2824.8000000045,"correct":true,"confidence":-1},{"trial_n":3,"min":41,"max":214,"target":"absent","response":"absent","rt":983.10000000149,"correct":true,"confidence":-1},{"trial_n":4,"min":41,"max":214,"target":"absent","response":"absent","rt":1423.3999999985,"correct":true,"confidence":-1},{"trial_n":5,"min":57,"max":198,"target":"present","response":"absent","rt":3564.3999999985,"correct":false,"confidence":-1},{"trial_n":6,"min":41,"max":214,"target":"absent","response":"absent","rt":583.29999999702,"correct":true,"confidence":-1},{"trial_n":7,"min":41,"max":214,"target":"present","response":"present","rt":1768.099999994,"correct":true,"confidence":-1},{"trial_n":8,"min":57,"max":198,"target":"present","response":"present","rt":950,"correct":true,"confidence":-1},{"trial_n":9,"min":57,"max":198,"target":"absent","response":"absent","rt":656.70000000298,"correct":true,"confidence":-1},{"trial_n":10,"min":73,"max":182,"target":"absent","response":"absent","rt":559.20000000298,"correct":true,"confidence":-1},{"trial_n":11,"min":73,"max":182,"target":"present","response":"absent","rt":276.09999999404,"correct":false,"confidence":-1},{"trial_n":12,"min":65,"max":190,"target":"absent","response":"absent","rt":525,"correct":true,"confidence":-1},{"trial_n":13,"min":65,"max":190,"target":"present","response":"present","rt":476.79999999702,"correct":true,"confidence":-1},{"trial_n":14,"min":73,"max":182,"target":"present","response":"absent","rt":407.5,"correct":false,"confidence":-1},{"trial_n":15,"min":65,"max":190,"target":"absent","response":"present","rt":635.29999999702,"correct":false,"confidence":-1},{"trial_n":16,"min":57,"max":198,"target":"absent","response":"absent","rt":555.70000000298,"correct":true,"confidence":-1},{"trial_n":17,"min":57,"max":198,"target":"present","response":"present","rt":541.40000000596,"correct":true,"confidence":-1},{"trial_n":18,"min":65,"max":190,"target":"present","response":"present","rt":562.89999999851,"correct":true,"confidence":-1},{"trial_n":19,"min":65,"max":190,"target":"absent","response":"absent","rt":488,"correct":true,"confidence":-1},{"trial_n":20,"min":73,"max":182,"target":"absent","response":"absent","rt":515.39999999851,"correct":true,"confidence":-1},{"trial_n":21,"min":73,"max":182,"target":"present","response":"absent","rt":624,"correct":false,"confidence":2},{"trial_n":22,"min":69,"max":186,"target":"present","response":"absent","rt":781.69999999553,"correct":false,"confidence":3},{"trial_n":23,"min":65,"max":190,"target":"absent","response":"absent","rt":548,"correct":true,"confidence":3},{"trial_n":24,"min":65,"max":190,"target":"present","response":"present","rt":638.69999999553,"correct":true,"confidence":3},{"trial_n":25,"min":69,"max":186,"target":"absent","response":"absent","rt":442.60000000149,"correct":true,"confidence":4},{"trial_n":26,"min":69,"max":186,"target":"absent","response":"absent","rt":467.20000000298,"correct":true,"confidence":4},{"trial_n":27,"min":73,"max":182,"target":"present","response":"absent","rt":545.89999999851,"correct":false,"confidence":4},{"trial_n":28,"min":69,"max":186,"target":"absent","response":"absent","rt":400.89999999851,"correct":true,"confidence":3},{"trial_n":29,"min":69,"max":186,"target":"present","response":"present","rt":604.89999999851,"correct":true,"confidence":3},{"trial_n":30,"min":73,"max":182,"target":"present","response":"present","rt":668.5,"correct":true,"confidence":4},{"trial_n":31,"min":73,"max":182,"target":"present","response":"present","rt":706.5,"correct":true,"confidence":3},{"trial_n":32,"min":75,"max":180,"target":"present","response":"present","rt":1353.1000000015,"correct":true,"confidence":3},{"trial_n":33,"min":75,"max":180,"target":"present","response":"present","rt":709.60000000149,"correct":true,"confidence":3},{"trial_n":34,"min":77,"max":178,"target":"absent","response":"absent","rt":530.79999999702,"correct":true,"confidence":3},{"trial_n":35,"min":77,"max":178,"target":"present","response":"present","rt":568.89999999851,"correct":true,"confidence":4},{"trial_n":36,"min":79,"max":176,"target":"present","response":"present","rt":521.10000000149,"correct":true,"confidence":4},{"trial_n":37,"min":79,"max":176,"target":"present","response":"present","rt":595.80000000447,"correct":true,"confidence":3},{"trial_n":38,"min":81,"max":174,"target":"absent","response":"absent","rt":487.10000000149,"correct":true,"confidence":4},{"trial_n":39,"min":81,"max":174,"target":"present","response":"absent","rt":325.19999999553,"correct":false,"confidence":4},{"trial_n":40,"min":79,"max":176,"target":"present","response":"present","rt":435.89999999851,"correct":true,"confidence":4},{"trial_n":41,"min":79,"max":176,"target":"present","response":"present","rt":423.10000000149,"correct":true,"confidence":4},{"trial_n":42,"min":80,"max":175,"target":"present","response":"present","rt":460.20000000298,"correct":true,"confidence":3},{"trial_n":43,"min":80,"max":175,"target":"absent","response":"present","rt":655.39999999851,"correct":false,"confidence":3},{"trial_n":44,"min":79,"max":176,"target":"absent","response":"absent","rt":477.60000000149,"correct":true,"confidence":3},{"trial_n":45,"min":79,"max":176,"target":"absent","response":"absent","rt":990.80000000447,"correct":true,"confidence":3},{"trial_n":46,"min":80,"max":175,"target":"absent","response":"absent","rt":1857.5,"correct":true,"confidence":3},{"trial_n":47,"min":80,"max":175,"target":"present","response":"present","rt":3692.099999994,"correct":true,"confidence":3},{"trial_n":48,"min":81,"max":174,"target":"present","response":"present","rt":527.5,"correct":true,"confidence":3},{"trial_n":49,"min":81,"max":174,"target":"present","response":"present","rt":468.60000000149,"correct":true,"confidence":3},{"trial_n":50,"min":82,"max":173,"target":"present","response":"absent","rt":497.60000000149,"correct":false,"confidence":3},{"trial_n":51,"min":81,"max":174,"target":"present","response":"present","rt":507,"correct":true,"confidence":4},{"trial_n":52,"min":81,"max":174,"target":"absent","response":"absent","rt":560.29999999702,"correct":true,"confidence":3},{"trial_n":53,"min":82,"max":173,"target":"absent","response":"present","rt":472.30000000447,"correct":false,"confidence":3},{"trial_n":54,"min":81,"max":174,"target":"absent","response":"absent","rt":468.60000000149,"correct":true,"confidence":3},{"trial_n":55,"min":81,"max":174,"target":"absent","response":"absent","rt":540.80000000447,"correct":true,"confidence":3},{"trial_n":56,"min":82,"max":173,"target":"present","response":"present","rt":546,"correct":true,"confidence":4},{"trial_n":57,"min":82,"max":173,"target":"absent","response":"present","rt":610.80000000447,"correct":false,"confidence":3},{"trial_n":58,"min":81,"max":174,"target":"absent","response":"present","rt":758.89999999851,"correct":false,"confidence":3},{"trial_n":59,"min":80,"max":175,"target":"absent","response":"present","rt":534.40000000596,"correct":false,"confidence":3},{"trial_n":60,"min":79,"max":176,"target":"absent","response":"present","rt":532,"correct":false,"confidence":3},{"trial_n":61,"min":78,"max":177,"target":"present","response":"present","rt":465.40000000596,"correct":true,"confidence":3},{"trial_n":62,"min":78,"max":177,"target":"present","response":"present","rt":532.89999999851,"correct":true,"confidence":3},{"trial_n":63,"min":79,"max":176,"target":"absent","response":"present","rt":512.89999999851,"correct":false,"confidence":3},{"trial_n":64,"min":78,"max":177,"target":"absent","response":"present","rt":571.89999999851,"correct":false,"confidence":3},{"trial_n":65,"min":77,"max":178,"target":"present","response":"present","rt":501.5,"correct":true,"confidence":3},{"trial_n":66,"min":77,"max":178,"target":"absent","response":"present","rt":525.60000000149,"correct":false,"confidence":3},{"trial_n":67,"min":76,"max":179,"target":"absent","response":"present","rt":461.29999999702,"correct":false,"confidence":3},{"trial_n":68,"min":75,"max":180,"target":"absent","response":"present","rt":327.70000000298,"correct":false,"confidence":3},{"trial_n":69,"min":74,"max":181,"target":"absent","response":"present","rt":330.20000000298,"correct":false,"confidence":3},{"trial_n":70,"min":73,"max":182,"target":"present","response":"present","rt":283.89999999851,"correct":true,"confidence":3},{"trial_n":71,"min":41,"max":214,"target":"present","response":"present","rt":6509.5,"correct":true,"confidence":-1},{"trial_n":72,"min":41,"max":214,"target":"present","response":"present","rt":310.39999999851,"correct":true,"confidence":-1},{"trial_n":73,"min":57,"max":198,"target":"absent","response":"present","rt":1197.8000000045,"correct":false,"confidence":-1},{"trial_n":74,"min":41,"max":214,"target":"absent","response":"absent","rt":1623.6000000015,"correct":true,"confidence":-1},{"trial_n":75,"min":41,"max":214,"target":"present","response":"absent","rt":896.79999999702,"correct":false,"confidence":-1},{"trial_n":76,"min":25,"max":230,"target":"absent","response":"present","rt":3067,"correct":false,"confidence":-1},{"trial_n":77,"min":9,"max":246,"target":"absent","response":"absent","rt":747.60000000149,"correct":true,"confidence":-1},{"trial_n":78,"min":9,"max":246,"target":"absent","response":"absent","rt":276.20000000298,"correct":true,"confidence":-1},{"trial_n":79,"min":25,"max":230,"target":"absent","response":"absent","rt":186.20000000298,"correct":true,"confidence":-1},{"trial_n":80,"min":25,"max":230,"target":"absent","response":"absent","rt":64.79999999702,"correct":true,"confidence":-1},{"trial_n":81,"min":33,"max":222,"target":"absent","response":"absent","rt":146.59999999404,"correct":true,"confidence":-1},{"trial_n":82,"min":33,"max":222,"target":"absent","response":"absent","rt":506.19999999553,"correct":true,"confidence":-1},{"trial_n":83,"min":41,"max":214,"target":"present","response":"present","rt":154,"correct":true,"confidence":-1},{"trial_n":84,"min":41,"max":214,"target":"absent","response":"present","rt":282.10000000149,"correct":false,"confidence":-1},{"trial_n":85,"min":33,"max":222,"target":"absent","response":"present","rt":293.5,"correct":false,"confidence":-1},{"trial_n":86,"min":25,"max":230,"target":"present","response":"present","rt":255.5,"correct":true,"confidence":-1},{"trial_n":87,"min":25,"max":230,"target":"present","response":"present","rt":177,"correct":true,"confidence":-1},{"trial_n":88,"min":33,"max":222,"target":"present","response":"present","rt":57.60000000149,"correct":true,"confidence":-1},{"trial_n":89,"min":33,"max":222,"target":"present","response":"present","rt":127.90000000596,"correct":true,"confidence":-1},{"trial_n":90,"min":41,"max":214,"target":"present","response":"present","rt":220,"correct":true,"confidence":-1},{"trial_n":91,"min":41,"max":214,"target":"present","response":"present","rt":863.09999999404,"correct":true,"confidence":3},{"trial_n":92,"min":45,"max":210,"target":"absent","response":"absent","rt":930.89999999851,"correct":true,"confidence":3},{"trial_n":93,"min":45,"max":210,"target":"present","response":"present","rt":138.5,"correct":true,"confidence":3},{"trial_n":94,"min":49,"max":206,"target":"present","response":"present","rt":105.30000000447,"correct":true,"confidence":3},{"trial_n":95,"min":49,"max":206,"target":"absent","response":"absent","rt":686.5,"correct":true,"confidence":4},{"trial_n":96,"min":53,"max":202,"target":"absent","response":"absent","rt":507.60000000149,"correct":true,"confidence":4},{"trial_n":97,"min":53,"max":202,"target":"absent","response":"absent","rt":541.89999999851,"correct":true,"confidence":3},{"trial_n":98,"min":57,"max":198,"target":"present","response":"absent","rt":361,"correct":false,"confidence":2},{"trial_n":99,"min":53,"max":202,"target":"absent","response":"absent","rt":511.10000000149,"correct":true,"confidence":4},{"trial_n":100,"min":53,"max":202,"target":"present","response":"present","rt":166.19999999553,"correct":true,"confidence":4},{"trial_n":101,"min":55,"max":200,"target":"present","response":"present","rt":79.40000000596,"correct":true,"confidence":4},{"trial_n":102,"min":55,"max":200,"target":"absent","response":"absent","rt":242.80000000447,"correct":true,"confidence":3},{"trial_n":103,"min":57,"max":198,"target":"present","response":"present","rt":521,"correct":true,"confidence":3},{"trial_n":104,"min":57,"max":198,"target":"present","response":"present","rt":156.20000000298,"correct":true,"confidence":3},{"trial_n":105,"min":59,"max":196,"target":"present","response":"present","rt":21.10000000149,"correct":true,"confidence":3},{"trial_n":106,"min":59,"max":196,"target":"absent","response":"absent","rt":289.39999999851,"correct":true,"confidence":3},{"trial_n":107,"min":61,"max":194,"target":"present","response":"present","rt":596.70000000298,"correct":true,"confidence":3},{"trial_n":108,"min":61,"max":194,"target":"absent","response":"absent","rt":556.20000000298,"correct":true,"confidence":3},{"trial_n":109,"min":63,"max":192,"target":"present","response":"present","rt":619.39999999851,"correct":true,"confidence":3},{"trial_n":110,"min":63,"max":192,"target":"present","response":"present","rt":137.59999999404,"correct":true,"confidence":3},{"trial_n":111,"min":64,"max":191,"target":"present","response":"present","rt":1890.1999999955,"correct":true,"confidence":3},{"trial_n":112,"min":64,"max":191,"target":"present","response":"present","rt":542.89999999851,"correct":true,"confidence":3},{"trial_n":113,"min":65,"max":190,"target":"present","response":"present","rt":93.10000000149,"correct":true,"confidence":3},{"trial_n":114,"min":65,"max":190,"target":"present","response":"present","rt":243.5,"correct":true,"confidence":3},{"trial_n":115,"min":66,"max":189,"target":"absent","response":"absent","rt":374.39999999851,"correct":true,"confidence":3},{"trial_n":116,"min":66,"max":189,"target":"present","response":"present","rt":259.20000000298,"correct":true,"confidence":3},{"trial_n":117,"min":67,"max":188,"target":"present","response":"absent","rt":43,"correct":false,"confidence":3},{"trial_n":118,"min":66,"max":189,"target":"present","response":"present","rt":137.5,"correct":true,"confidence":3},{"trial_n":119,"min":66,"max":189,"target":"absent","response":"absent","rt":405.30000000447,"correct":true,"confidence":3},{"trial_n":120,"min":67,"max":188,"target":"absent","response":"absent","rt":532.70000000298,"correct":true,"confidence":3},{"trial_n":121,"min":67,"max":188,"target":"absent","response":"absent","rt":387.89999999851,"correct":true,"confidence":2},{"trial_n":122,"min":68,"max":187,"target":"present","response":"present","rt":387.5,"correct":true,"confidence":4},{"trial_n":123,"min":68,"max":187,"target":"present","response":"present","rt":338.09999999404,"correct":true,"confidence":4},{"trial_n":124,"min":69,"max":186,"target":"absent","response":"absent","rt":466.5,"correct":true,"confidence":4},{"trial_n":125,"min":69,"max":186,"target":"absent","response":"absent","rt":523,"correct":true,"confidence":4},{"trial_n":126,"min":70,"max":185,"target":"present","response":"absent","rt":1249.3999999985,"correct":false,"confidence":2},{"trial_n":127,"min":69,"max":186,"target":"present","response":"present","rt":136.29999999702,"correct":true,"confidence":3},{"trial_n":128,"min":69,"max":186,"target":"absent","response":"absent","rt":1132.6999999955,"correct":true,"confidence":2},{"trial_n":129,"min":70,"max":185,"target":"absent","response":"absent","rt":532.60000000149,"correct":true,"confidence":4},{"trial_n":130,"min":70,"max":185,"target":"absent","response":"absent","rt":582,"correct":true,"confidence":2},{"trial_n":131,"min":71,"max":184,"target":"absent","response":"absent","rt":650.29999999702,"correct":true,"confidence":2},{"trial_n":132,"min":71,"max":184,"target":"absent","response":"absent","rt":425.5,"correct":true,"confidence":4},{"trial_n":133,"min":72,"max":183,"target":"absent","response":"absent","rt":322.39999999851,"correct":true,"confidence":4},{"trial_n":134,"min":72,"max":183,"target":"present","response":"present","rt":230.30000000447,"correct":true,"confidence":3},{"trial_n":135,"min":73,"max":182,"target":"present","response":"present","rt":808.20000000298,"correct":true,"confidence":2},{"trial_n":136,"min":73,"max":182,"target":"present","response":"present","rt":148,"correct":true,"confidence":2},{"trial_n":137,"min":74,"max":181,"target":"absent","response":"absent","rt":273.90000000596,"correct":true,"confidence":3},{"trial_n":138,"min":74,"max":181,"target":"absent","response":"absent","rt":224.69999999553,"correct":true,"confidence":3},{"trial_n":139,"min":75,"max":180,"target":"absent","response":"absent","rt":325.39999999851,"correct":true,"confidence":3},{"trial_n":140,"min":75,"max":180,"target":"present","response":"absent","rt":757.90000000596,"correct":false,"confidence":2}]