[{"trial_n":1,"n_dots":4.25,"target":"left","response":"left","rt":8994,"correct":true,"confidence":-1},{"trial_n":2,"n_dots":4.25,"target":"left","response":"left","rt":1202,"correct":true,"confidence":-1},{"trial_n":3,"n_dots":3.85,"target":"left","response":"left","rt":796.00000000001,"correct":true,"confidence":-1},{"trial_n":4,"n_dots":3.85,"target":"left","response":"left","rt":761,"correct":true,"confidence":-1},{"trial_n":5,"n_dots":3.45,"target":"right","response":"left","rt":680,"correct":false,"confidence":-1},{"trial_n":6,"n_dots":3.85,"target":"left","response":"right","rt":895,"correct":false,"confidence":-1},{"trial_n":7,"n_dots":4.25,"target":"right","response":"left","rt":412,"correct":false,"confidence":-1},{"trial_n":8,"n_dots":4.45,"target":"right","response":"left","rt":1056,"correct":false,"confidence":-1},{"trial_n":9,"n_dots":4.65,"target":"left","response":"right","rt":149,"correct":false,"confidence":-1},{"trial_n":10,"n_dots":4.85,"target":"left","response":"left","rt":723,"correct":true,"confidence":-1},{"trial_n":11,"n_dots":4.85,"target":"right","response":"left","rt":1217,"correct":false,"confidence":-1},{"trial_n":12,"n_dots":5.05,"target":"right","response":"right","rt":703.00000000001,"correct":true,"confidence":-1},{"trial_n":13,"n_dots":5.05,"target":"left","response":"left","rt":722,"correct":true,"confidence":-1},{"trial_n":14,"n_dots":4.95,"target":"left","response":"left","rt":1281,"correct":true,"confidence":-1},{"trial_n":15,"n_dots":4.95,"target":"left","response":"left","rt":2021,"correct":true,"confidence":-1},{"trial_n":16,"n_dots":4.85,"target":"left","response":"left","rt":1496,"correct":true,"confidence":-1},{"trial_n":17,"n_dots":4.85,"target":"left","response":"left","rt":740,"correct":true,"confidence":-1},{"trial_n":18,"n_dots":4.75,"target":"left","response":"right","rt":518,"correct":false,"confidence":-1},{"trial_n":19,"n_dots":4.85,"target":"right","response":"left","rt":2690,"correct":false,"confidence":-1},{"trial_n":20,"n_dots":4.95,"target":"left","response":"left","rt":616,"correct":true,"confidence":-1},{"trial_n":21,"n_dots":4.95,"target":"left","response":"left","rt":575,"correct":true,"confidence":3},{"trial_n":22,"n_dots":4.85,"target":"right","response":"right","rt":498,"correct":true,"confidence":4},{"trial_n":23,"n_dots":4.85,"target":"left","response":"left","rt":706,"correct":true,"confidence":4},{"trial_n":24,"n_dots":4.75,"target":"right","response":"right","rt":1692,"correct":true,"confidence":4},{"trial_n":25,"n_dots":4.75,"target":"right","response":"right","rt":804,"correct":true,"confidence":4},{"trial_n":26,"n_dots":4.65,"target":"left","response":"left","rt":1206,"correct":true,"confidence":3},{"trial_n":27,"n_dots":4.65,"target":"left","response":"left","rt":926.00000000003,"correct":true,"confidence":2},{"trial_n":28,"n_dots":4.55,"target":"right","response":"right","rt":1060,"correct":true,"confidence":2},{"trial_n":29,"n_dots":4.55,"target":"left","response":"left","rt":910,"correct":true,"confidence":2},{"trial_n":30,"n_dots":4.45,"target":"right","response":"right","rt":706,"correct":true,"confidence":2},{"trial_n":31,"n_dots":4.45,"target":"right","response":"right","rt":1012,"correct":true,"confidence":4},{"trial_n":32,"n_dots":4.35,"target":"left","response":"left","rt":962,"correct":true,"confidence":3},{"trial_n":33,"n_dots":4.35,"target":"right","response":"right","rt":561,"correct":true,"confidence":3},{"trial_n":34,"n_dots":4.25,"target":"right","response":"left","rt":895.00000000003,"correct":false,"confidence":3},{"trial_n":35,"n_dots":4.35,"target":"left","response":"left","rt":839.99999999997,"correct":true,"confidence":4},{"trial_n":36,"n_dots":4.35,"target":"right","response":"left","rt":828,"correct":false,"confidence":1},{"trial_n":37,"n_dots":4.45,"target":"left","response":"left","rt":128,"correct":true,"confidence":3},{"trial_n":38,"n_dots":4.45,"target":"left","response":"left","rt":531,"correct":true,"confidence":2},{"trial_n":39,"n_dots":4.35,"target":"left","response":"left","rt":1046,"correct":true,"confidence":3},{"trial_n":40,"n_dots":4.35,"target":"right","response":"right","rt":1130,"correct":true,"confidence":4},{"trial_n":41,"n_dots":4.25,"target":"right","response":"right","rt":1367,"correct":true,"confidence":3},{"trial_n":42,"n_dots":4.25,"target":"left","response":"left","rt":208,"correct":true,"confidence":4},{"trial_n":43,"n_dots":4.15,"target":"right","response":"right","rt":164,"correct":true,"confidence":4},{"trial_n":44,"n_dots":4.15,"target":"right","response":"left","rt":865,"correct":false,"confidence":2},{"trial_n":45,"n_dots":4.25,"target":"right","response":"right","rt":101,"correct":true,"confidence":4},{"trial_n":46,"n_dots":4.25,"target":"right","response":"left","rt":817.99999999994,"correct":false,"confidence":3},{"trial_n":47,"n_dots":4.35,"target":"right","response":"right","rt":98,"correct":true,"confidence":1},{"trial_n":48,"n_dots":4.35,"target":"left","response":"left","rt":728,"correct":true,"confidence":3},{"trial_n":49,"n_dots":4.25,"target":"right","response":"right","rt":2298,"correct":true,"confidence":3},{"trial_n":50,"n_dots":4.25,"target":"left","response":"left","rt":750,"correct":true,"confidence":4},{"trial_n":51,"n_dots":4.15,"target":"left","response":"left","rt":150,"correct":true,"confidence":3},{"trial_n":52,"n_dots":4.15,"target":"right","response":"right","rt":795,"correct":true,"confidence":4},{"trial_n":53,"n_dots":4.05,"target":"left","response":"left","rt":1000,"correct":true,"confidence":3},{"trial_n":54,"n_dots":4.05,"target":"right","response":"right","rt":829,"correct":true,"confidence":4},{"trial_n":55,"n_dots":3.95,"target":"left","response":"left","rt":319.00000000006,"correct":true,"confidence":3},{"trial_n":56,"n_dots":3.95,"target":"right","response":"right","rt":801.00000000006,"correct":true,"confidence":4},{"trial_n":57,"n_dots":3.85,"target":"right","response":"left","rt":887.99999999994,"correct":false,"confidence":3},{"trial_n":58,"n_dots":3.95,"target":"right","response":"right","rt":728,"correct":true,"confidence":4},{"trial_n":59,"n_dots":3.95,"target":"left","response":"left","rt":804.99999999994,"correct":true,"confidence":3},{"trial_n":60,"n_dots":3.85,"target":"right","response":"left","rt":1368,"correct":false,"confidence":4},{"trial_n":61,"n_dots":3.95,"target":"right","response":"left","rt":2041,"correct":false,"confidence":3},{"trial_n":62,"n_dots":4.05,"target":"right","response":"left","rt":821.00000000006,"correct":false,"confidence":4},{"trial_n":63,"n_dots":4.15,"target":"left","response":"left","rt":788,"correct":true,"confidence":3},{"trial_n":64,"n_dots":4.15,"target":"right","response":"left","rt":989,"correct":false,"confidence":3},{"trial_n":65,"n_dots":4.25,"target":"right","response":"right","rt":2322,"correct":true,"confidence":3},{"trial_n":66,"n_dots":4.25,"target":"left","response":"left","rt":587.00000000006,"correct":true,"confidence":2},{"trial_n":67,"n_dots":4.15,"target":"right","response":"left","rt":771,"correct":false,"confidence":4},{"trial_n":68,"n_dots":4.25,"target":"left","response":"left","rt":354.00000000006,"correct":true,"confidence":3},{"trial_n":69,"n_dots":4.25,"target":"right","response":"right","rt":372,"correct":true,"confidence":4},{"trial_n":70,"n_dots":4.15,"target":"right","response":"left","rt":789.99999999994,"correct":false,"confidence":3},{"trial_n":71,"n_dots":4.25,"target":"right","response":"left","rt":1089,"correct":false,"confidence":4},{"trial_n":72,"n_dots":4.35,"target":"right","response":"left","rt":1337.0000000001,"correct":false,"confidence":3},{"trial_n":73,"n_dots":4.45,"target":"right","response":"right","rt":1720,"correct":true,"confidence":4},{"trial_n":74,"n_dots":4.45,"target":"right","response":"left","rt":806.99999999994,"correct":false,"confidence":1},{"trial_n":75,"n_dots":4.55,"target":"left","response":"left","rt":257,"correct":true,"confidence":3},{"trial_n":76,"n_dots":4.55,"target":"right","response":"right","rt":1126,"correct":true,"confidence":4},{"trial_n":77,"n_dots":4.45,"target":"left","response":"left","rt":1057.9999999999,"correct":true,"confidence":4},{"trial_n":78,"n_dots":4.45,"target":"left","response":"left","rt":706,"correct":true,"confidence":2},{"trial_n":79,"n_dots":4.35,"target":"left","response":"left","rt":309.00000000012,"correct":true,"confidence":3},{"trial_n":80,"n_dots":4.35,"target":"right","response":"right","rt":576.99999999988,"correct":true,"confidence":4},{"trial_n":81,"n_dots":4.25,"target":"left","response":"left","rt":334,"correct":true,"confidence":3},{"trial_n":82,"n_dots":4.25,"target":"left","response":"left","rt":208,"correct":true,"confidence":2},{"trial_n":83,"n_dots":4.15,"target":"left","response":"right","rt":142,"correct":false,"confidence":3},{"trial_n":84,"n_dots":4.25,"target":"right","response":"left","rt":192,"correct":false,"confidence":4},{"trial_n":85,"n_dots":4.35,"target":"right","response":"right","rt":1793,"correct":true,"confidence":3},{"trial_n":86,"n_dots":4.35,"target":"right","response":"left","rt":356,"correct":false,"confidence":4},{"trial_n":87,"n_dots":4.45,"target":"left","response":"left","rt":240,"correct":true,"confidence":3},{"trial_n":88,"n_dots":4.45,"target":"left","response":"left","rt":310,"correct":true,"confidence":4},{"trial_n":89,"n_dots":4.35,"target":"right","response":"right","rt":358,"correct":true,"confidence":2},{"trial_n":90,"n_dots":4.35,"target":"left","response":"left","rt":510,"correct":true,"confidence":3},{"trial_n":91,"n_dots":4.25,"target":"left","response":"left","rt":1976,"correct":true,"confidence":3},{"trial_n":92,"n_dots":4.25,"target":"left","response":"left","rt":227,"correct":true,"confidence":4},{"trial_n":93,"n_dots":4.15,"target":"right","response":"right","rt":661,"correct":true,"confidence":4},{"trial_n":94,"n_dots":4.15,"target":"right","response":"left","rt":244,"correct":false,"confidence":3},{"trial_n":95,"n_dots":4.25,"target":"left","response":"left","rt":277,"correct":true,"confidence":4},{"trial_n":96,"n_dots":4.25,"target":"right","response":"right","rt":577,"correct":true,"confidence":2},{"trial_n":97,"n_dots":4.15,"target":"left","response":"left","rt":225,"correct":true,"confidence":3},{"trial_n":98,"n_dots":4.15,"target":"left","response":"left","rt":2910.9999999999,"correct":true,"confidence":3},{"trial_n":99,"n_dots":4.05,"target":"left","response":"left","rt":792.00000000012,"correct":true,"confidence":4},{"trial_n":100,"n_dots":4.05,"target":"left","response":"left","rt":260.00000000012,"correct":true,"confidence":3},{"trial_n":101,"n_dots":3.95,"target":"left","response":"left","rt":243.99999999988,"correct":true,"confidence":2},{"trial_n":102,"n_dots":3.95,"target":"left","response":"left","rt":226,"correct":true,"confidence":3},{"trial_n":103,"n_dots":3.85,"target":"left","response":"left","rt":173,"correct":true,"confidence":3},{"trial_n":104,"n_dots":3.85,"target":"left","response":"left","rt":279,"correct":true,"confidence":4},{"trial_n":105,"n_dots":3.75,"target":"right","response":"left","rt":189.00000000012,"correct":false,"confidence":1},{"trial_n":106,"n_dots":3.85,"target":"right","response":"left","rt":875,"correct":false,"confidence":3},{"trial_n":107,"n_dots":3.95,"target":"right","response":"right","rt":3596,"correct":true,"confidence":4},{"trial_n":108,"n_dots":3.95,"target":"left","response":"left","rt":345,"correct":true,"confidence":3},{"trial_n":109,"n_dots":3.85,"target":"left","response":"left","rt":259,"correct":true,"confidence":4},{"trial_n":110,"n_dots":3.85,"target":"right","response":"right","rt":697,"correct":true,"confidence":2},{"trial_n":111,"n_dots":3.75,"target":"right","response":"left","rt":147,"correct":false,"confidence":3},{"trial_n":112,"n_dots":3.85,"target":"right","response":"left","rt":380,"correct":false,"confidence":4},{"trial_n":113,"n_dots":3.95,"target":"right","response":"right","rt":278,"correct":true,"confidence":3},{"trial_n":114,"n_dots":3.95,"target":"right","response":"left","rt":1180,"correct":false,"confidence":4},{"trial_n":115,"n_dots":4.05,"target":"right","response":"right","rt":629.00000000012,"correct":true,"confidence":3},{"trial_n":116,"n_dots":4.05,"target":"right","response":"left","rt":581.00000000012,"correct":false,"confidence":4},{"trial_n":117,"n_dots":4.15,"target":"right","response":"right","rt":464,"correct":true,"confidence":3},{"trial_n":118,"n_dots":4.15,"target":"left","response":"left","rt":264,"correct":true,"confidence":4},{"trial_n":119,"n_dots":4.05,"target":"left","response":"left","rt":130,"correct":true,"confidence":3},{"trial_n":120,"n_dots":4.05,"target":"left","response":"left","rt":224.00000000012,"correct":true,"confidence":4}]