[{"trial_n":1,"span":8,"encoder":"10430630","distractor":"12430630","target":"present","response":"present","rt":"11206.899999999","correct":true,"confidence":-1},{"trial_n":2,"span":8,"encoder":"90101844","distractor":"90104844","target":"present","response":"present","rt":"1390.099999994","correct":true,"confidence":-1},{"trial_n":3,"span":10,"encoder":"6197126113","distractor":"6197121113","target":"absent","response":"absent","rt":"2177.200000003","correct":true,"confidence":-1},{"trial_n":4,"span":10,"encoder":"8260916844","distractor":"8250916844","target":"absent","response":"absent","rt":"2331.200000003","correct":true,"confidence":-1},{"trial_n":5,"span":12,"encoder":"221579931638","distractor":"221579932638","target":"present","response":"absent","rt":"3310.1999999955","correct":false,"confidence":-1},{"trial_n":6,"span":10,"encoder":"1152439137","distractor":"1152439132","target":"present","response":"present","rt":"1620.3999999985","correct":true,"confidence":-1},{"trial_n":7,"span":10,"encoder":"9453538395","distractor":"0453538395","target":"absent","response":"present","rt":"1769.3999999985","correct":false,"confidence":-1},{"trial_n":8,"span":8,"encoder":"44851257","distractor":"44851277","target":"present","response":"present","rt":"1512.8999999985","correct":true,"confidence":-1},{"trial_n":9,"span":8,"encoder":"85311878","distractor":"85311875","target":"present","response":"absent","rt":"1148.8999999985","correct":false,"confidence":-1},{"trial_n":10,"span":6,"encoder":"752591","distractor":"752511","target":"present","response":"present","rt":"1431.799999997","correct":true,"confidence":-1},{"trial_n":11,"span":6,"encoder":"670835","distractor":"570835","target":"absent","response":"present","rt":"1226.099999994","correct":false,"confidence":-1},{"trial_n":12,"span":5,"encoder":"83216","distractor":"83516","target":"absent","response":"absent","rt":"3601.5","correct":true,"confidence":-1},{"trial_n":13,"span":5,"encoder":"35263","distractor":"35268","target":"absent","response":"present","rt":"1143.8999999985","correct":false,"confidence":-1},{"trial_n":14,"span":4,"encoder":"3671","distractor":"0671","target":"present","response":"present","rt":"1151.3999999985","correct":true,"confidence":-1},{"trial_n":15,"span":4,"encoder":"7330","distractor":"7300","target":"present","response":"present","rt":"819.10000000149","correct":true,"confidence":-1},{"trial_n":16,"span":5,"encoder":"80004","distractor":"80604","target":"absent","response":"absent","rt":"1294.700000003","correct":true,"confidence":-1},{"trial_n":17,"span":5,"encoder":"16083","distractor":"16783","target":"present","response":"present","rt":"941.59999999404","correct":true,"confidence":-1},{"trial_n":18,"span":6,"encoder":"662422","distractor":"662421","target":"absent","response":"absent","rt":"1722.400000006","correct":true,"confidence":-1},{"trial_n":19,"span":6,"encoder":"754800","distractor":"764800","target":"absent","response":"present","rt":"933.79999999702","correct":false,"confidence":-1},{"trial_n":20,"span":5,"encoder":"40945","distractor":"90945","target":"present","response":"present","rt":"1006.700000003","correct":true,"confidence":-1},{"trial_n":21,"span":5,"encoder":"97400","distractor":"97900","target":"present","response":"present","rt":"1417.1000000015","correct":true,"confidence":3},{"trial_n":22,"span":6,"encoder":"388210","distractor":"388215","target":"absent","response":"present","rt":"1348.299999997","correct":false,"confidence":3},{"trial_n":23,"span":5,"encoder":"70835","distractor":"75835","target":"absent","response":"present","rt":"3126.200000003","correct":false,"confidence":3},{"trial_n":24,"span":4,"encoder":"5431","distractor":"5437","target":"absent","response":"absent","rt":"2184.5","correct":true,"confidence":3},{"trial_n":25,"span":4,"encoder":"0839","distractor":"6839","target":"present","response":"present","rt":"1047.8999999985","correct":true,"confidence":4},{"trial_n":26,"span":5,"encoder":"39160","distractor":"39170","target":"absent","response":"absent","rt":"1267.3999999985","correct":true,"confidence":4},{"trial_n":27,"span":5,"encoder":"47024","distractor":"17024","target":"absent","response":"absent","rt":"2404.3999999985","correct":true,"confidence":3},{"trial_n":28,"span":6,"encoder":"007155","distractor":"207155","target":"present","response":"present","rt":"1281.099999994","correct":true,"confidence":5},{"trial_n":29,"span":6,"encoder":"962832","distractor":"662832","target":"absent","response":"present","rt":"957.79999999702","correct":false,"confidence":3},{"trial_n":30,"span":5,"encoder":"63161","distractor":"69161","target":"present","response":"present","rt":"929.79999999702","correct":true,"confidence":3},{"trial_n":31,"span":5,"encoder":"19157","distractor":"19158","target":"absent","response":"absent","rt":"1591.299999997","correct":true,"confidence":4},{"trial_n":32,"span":6,"encoder":"499542","distractor":"499512","target":"present","response":"present","rt":"1703.3000000045","correct":true,"confidence":3},{"trial_n":33,"span":6,"encoder":"262049","distractor":"260049","target":"present","response":"present","rt":"887.90000000596","correct":true,"confidence":3},{"trial_n":34,"span":7,"encoder":"0168245","distractor":"0168345","target":"present","response":"present","rt":"701.80000000447","correct":true,"confidence":3},{"trial_n":35,"span":7,"encoder":"7880407","distractor":"7880400","target":"absent","response":"absent","rt":"1237.3999999985","correct":true,"confidence":3},{"trial_n":36,"span":8,"encoder":"67655309","distractor":"67655359","target":"present","response":"absent","rt":"1139.3000000045","correct":false,"confidence":3},{"trial_n":37,"span":7,"encoder":"1530898","distractor":"1536898","target":"present","response":"present","rt":"1598.8999999985","correct":true,"confidence":3},{"trial_n":38,"span":7,"encoder":"6054231","distractor":"6054241","target":"absent","response":"present","rt":"1406.299999997","correct":false,"confidence":3},{"trial_n":39,"span":6,"encoder":"185162","distractor":"165162","target":"present","response":"present","rt":"1043.1999999955","correct":true,"confidence":3},{"trial_n":40,"span":6,"encoder":"691696","distractor":"697696","target":"absent","response":"absent","rt":"1458","correct":true,"confidence":4},{"trial_n":41,"span":7,"encoder":"2335817","distractor":"2305817","target":"present","response":"present","rt":"1393.099999994","correct":true,"confidence":3},{"trial_n":42,"span":7,"encoder":"9337029","distractor":"0337029","target":"absent","response":"present","rt":"1215.8999999985","correct":false,"confidence":3},{"trial_n":43,"span":6,"encoder":"563687","distractor":"565687","target":"present","response":"present","rt":"953.5","correct":true,"confidence":4},{"trial_n":44,"span":6,"encoder":"257706","distractor":"257700","target":"absent","response":"absent","rt":"1927.3999999985","correct":true,"confidence":3},{"trial_n":45,"span":7,"encoder":"8034887","distractor":"8034837","target":"present","response":"present","rt":"980.39999999851","correct":true,"confidence":4},{"trial_n":46,"span":7,"encoder":"7868950","distractor":"7568950","target":"present","response":"present","rt":"1087.200000003","correct":true,"confidence":3},{"trial_n":47,"span":8,"encoder":"77922267","distractor":"78922267","target":"absent","response":"absent","rt":"695.5","correct":true,"confidence":2},{"trial_n":48,"span":8,"encoder":"40294383","distractor":"40694383","target":"present","response":"absent","rt":"1123.1000000015","correct":false,"confidence":3},{"trial_n":49,"span":7,"encoder":"2670345","distractor":"2676345","target":"absent","response":"present","rt":"922.89999999851","correct":false,"confidence":3},{"trial_n":50,"span":6,"encoder":"646600","distractor":"642600","target":"present","response":"present","rt":"1077","correct":true,"confidence":4},{"trial_n":51,"span":6,"encoder":"916458","distractor":"966458","target":"present","response":"present","rt":"1044","correct":true,"confidence":3},{"trial_n":52,"span":7,"encoder":"6580678","distractor":"5580678","target":"present","response":"present","rt":"935.89999999851","correct":true,"confidence":1},{"trial_n":53,"span":7,"encoder":"8541539","distractor":"8641539","target":"absent","response":"absent","rt":"1342.6000000015","correct":true,"confidence":3},{"trial_n":54,"span":8,"encoder":"67188438","distractor":"67118438","target":"absent","response":"present","rt":"1468.799999997","correct":false,"confidence":3},{"trial_n":55,"span":7,"encoder":"3243194","distractor":"3242194","target":"present","response":"present","rt":"1019.5","correct":true,"confidence":3},{"trial_n":56,"span":7,"encoder":"0464624","distractor":"0462624","target":"absent","response":"present","rt":"911.79999999702","correct":false,"confidence":4},{"trial_n":57,"span":6,"encoder":"092350","distractor":"090350","target":"absent","response":"present","rt":"1099.1000000015","correct":false,"confidence":4},{"trial_n":58,"span":5,"encoder":"09522","distractor":"39522","target":"absent","response":"present","rt":"873.60000000149","correct":false,"confidence":5},{"trial_n":59,"span":4,"encoder":"2043","distractor":"2023","target":"present","response":"present","rt":"896","correct":true,"confidence":5},{"trial_n":60,"span":4,"encoder":"8585","distractor":"8785","target":"absent","response":"absent","rt":"1697.5","correct":true,"confidence":3},{"trial_n":61,"span":5,"encoder":"34373","distractor":"34372","target":"present","response":"present","rt":"1749","correct":true,"confidence":3},{"trial_n":62,"span":5,"encoder":"78909","distractor":"98909","target":"absent","response":"present","rt":"998.29999999702","correct":false,"confidence":3},{"trial_n":63,"span":4,"encoder":"8400","distractor":"8410","target":"absent","response":"present","rt":"1256.200000003","correct":false,"confidence":4},{"trial_n":64,"span":3,"encoder":"891","distractor":"391","target":"absent","response":"present","rt":"832.29999999702","correct":false,"confidence":3},{"trial_n":65,"span":2,"encoder":"92","distractor":"22","target":"absent","response":"absent","rt":"1929.299999997","correct":true,"confidence":4},{"trial_n":66,"span":2,"encoder":"58","distractor":"51","target":"present","response":"present","rt":"964.10000000149","correct":true,"confidence":5},{"trial_n":67,"span":3,"encoder":"693","distractor":"683","target":"absent","response":"absent","rt":"1463.5","correct":true,"confidence":4},{"trial_n":68,"span":3,"encoder":"696","distractor":"796","target":"present","response":"present","rt":"995.20000000298","correct":true,"confidence":5},{"trial_n":69,"span":4,"encoder":"2537","distractor":"2737","target":"present","response":"present","rt":"1295.8000000045","correct":true,"confidence":5},{"trial_n":70,"span":4,"encoder":"6396","distractor":"6596","target":"present","response":"present","rt":"1678.8999999985","correct":true,"confidence":4},{"trial_n":71,"span":8,"encoder":"16225925","distractor":"16225915","target":"present","response":"absent","rt":"4244.3999999985","correct":false,"confidence":-1},{"trial_n":72,"span":7,"encoder":"8309740","distractor":"8509740","target":"present","response":"present","rt":"1543.8999999985","correct":true,"confidence":-1},{"trial_n":73,"span":7,"encoder":"2411610","distractor":"2411613","target":"absent","response":"absent","rt":"2250.3999999985","correct":true,"confidence":-1},{"trial_n":74,"span":8,"encoder":"41204399","distractor":"41204398","target":"absent","response":"absent","rt":"1888","correct":true,"confidence":-1},{"trial_n":75,"span":8,"encoder":"13755035","distractor":"13755085","target":"present","response":"present","rt":"1911.8999999985","correct":true,"confidence":-1},{"trial_n":76,"span":9,"encoder":"523271686","distractor":"523291686","target":"present","response":"absent","rt":"1945","correct":false,"confidence":-1},{"trial_n":77,"span":8,"encoder":"66470832","distractor":"66470839","target":"present","response":"absent","rt":"628.20000000298","correct":false,"confidence":-1},{"trial_n":78,"span":7,"encoder":"2338608","distractor":"2338698","target":"absent","response":"absent","rt":"1581.8000000045","correct":true,"confidence":-1},{"trial_n":79,"span":7,"encoder":"9264801","distractor":"9244801","target":"present","response":"absent","rt":"906.40000000596","correct":false,"confidence":-1},{"trial_n":80,"span":6,"encoder":"713141","distractor":"513141","target":"absent","response":"absent","rt":"1228.200000003","correct":true,"confidence":-1},{"trial_n":81,"span":6,"encoder":"310705","distractor":"310715","target":"absent","response":"absent","rt":"916.60000000149","correct":true,"confidence":-1},{"trial_n":82,"span":7,"encoder":"4826759","distractor":"4326759","target":"absent","response":"absent","rt":"2072.299999997","correct":true,"confidence":-1},{"trial_n":83,"span":7,"encoder":"7219085","distractor":"7279085","target":"absent","response":"absent","rt":"2573.3999999985","correct":true,"confidence":-1},{"trial_n":84,"span":8,"encoder":"67354349","distractor":"67384349","target":"absent","response":"absent","rt":"1539.200000003","correct":true,"confidence":-1},{"trial_n":85,"span":8,"encoder":"58928619","distractor":"58928616","target":"absent","response":"absent","rt":"1410.6999999955","correct":true,"confidence":-1},{"trial_n":86,"span":9,"encoder":"877198686","distractor":"857198686","target":"present","response":"absent","rt":"3597.5","correct":false,"confidence":-1},{"trial_n":87,"span":8,"encoder":"70086072","distractor":"72086072","target":"present","response":"absent","rt":"2921.799999997","correct":false,"confidence":-1},{"trial_n":88,"span":7,"encoder":"3658216","distractor":"3658212","target":"present","response":"present","rt":"3864.3000000045","correct":true,"confidence":-1},{"trial_n":89,"span":7,"encoder":"1135465","distractor":"1135445","target":"absent","response":"absent","rt":"2743.3999999985","correct":true,"confidence":-1},{"trial_n":90,"span":8,"encoder":"57964644","distractor":"57964645","target":"present","response":"present","rt":"3410.8000000045","correct":true,"confidence":-1},{"trial_n":91,"span":8,"encoder":"75484579","distractor":"15484579","target":"present","response":"present","rt":"2652.3999999985","correct":true,"confidence":3},{"trial_n":92,"span":9,"encoder":"620975100","distractor":"620975800","target":"absent","response":"present","rt":"1499","correct":false,"confidence":1},{"trial_n":93,"span":8,"encoder":"70006272","distractor":"70006279","target":"absent","response":"absent","rt":"3105","correct":true,"confidence":3},{"trial_n":94,"span":8,"encoder":"82957256","distractor":"82957254","target":"absent","response":"absent","rt":"1974.3999999985","correct":true,"confidence":4},{"trial_n":95,"span":9,"encoder":"309860027","distractor":"309860727","target":"absent","response":"absent","rt":"2216.8000000045","correct":true,"confidence":4},{"trial_n":96,"span":9,"encoder":"698578114","distractor":"698578814","target":"present","response":"absent","rt":"4248.5","correct":false,"confidence":2},{"trial_n":97,"span":8,"encoder":"84227885","distractor":"84229885","target":"absent","response":"absent","rt":"2622.700000003","correct":true,"confidence":4},{"trial_n":98,"span":8,"encoder":"04492202","distractor":"04497202","target":"absent","response":"absent","rt":"2791.900000006","correct":true,"confidence":4},{"trial_n":99,"span":9,"encoder":"007935951","distractor":"007935955","target":"present","response":"present","rt":"2099","correct":true,"confidence":4},{"trial_n":100,"span":9,"encoder":"919543837","distractor":"919643837","target":"present","response":"absent","rt":"1947.5","correct":false,"confidence":3},{"trial_n":101,"span":8,"encoder":"30426313","distractor":"30426333","target":"present","response":"absent","rt":"1146","correct":false,"confidence":2},{"trial_n":102,"span":7,"encoder":"2751693","distractor":"2751093","target":"present","response":"present","rt":"2558.5","correct":true,"confidence":4},{"trial_n":103,"span":7,"encoder":"6259993","distractor":"6259999","target":"present","response":"present","rt":"2156.8000000045","correct":true,"confidence":3},{"trial_n":104,"span":8,"encoder":"78618409","distractor":"18618409","target":"absent","response":"absent","rt":"2491.6999999955","correct":true,"confidence":3},{"trial_n":105,"span":8,"encoder":"78773244","distractor":"28773244","target":"absent","response":"absent","rt":"2207.1000000015","correct":true,"confidence":4},{"trial_n":106,"span":9,"encoder":"186866986","distractor":"166866986","target":"present","response":"absent","rt":"1557.799999997","correct":false,"confidence":3},{"trial_n":107,"span":8,"encoder":"54502399","distractor":"54502099","target":"present","response":"present","rt":"3300.6999999955","correct":true,"confidence":2},{"trial_n":108,"span":8,"encoder":"56303358","distractor":"56303458","target":"present","response":"present","rt":"1144.6000000015","correct":true,"confidence":3},{"trial_n":109,"span":9,"encoder":"059947424","distractor":"059927424","target":"absent","response":"absent","rt":"3273","correct":true,"confidence":4},{"trial_n":110,"span":9,"encoder":"101333341","distractor":"108333341","target":"present","response":"present","rt":"3187.299999997","correct":true,"confidence":4},{"trial_n":111,"span":10,"encoder":"0232314695","distractor":"0232364695","target":"absent","response":"absent","rt":"2363.6000000015","correct":true,"confidence":3},{"trial_n":112,"span":10,"encoder":"5538856097","distractor":"5338856097","target":"absent","response":"absent","rt":"1528","correct":true,"confidence":4},{"trial_n":113,"span":11,"encoder":"53411988122","distractor":"53411088122","target":"absent","response":"absent","rt":"1243.6000000015","correct":true,"confidence":3},{"trial_n":114,"span":11,"encoder":"35467847036","distractor":"35467847066","target":"present","response":"present","rt":"2431.099999994","correct":true,"confidence":4},{"trial_n":115,"span":12,"encoder":"581389442252","distractor":"581389442255","target":"present","response":"present","rt":"3047.1999999955","correct":true,"confidence":3},{"trial_n":116,"span":12,"encoder":"230941469876","distractor":"230971469876","target":"absent","response":"absent","rt":"2910.099999994","correct":true,"confidence":3},{"trial_n":117,"span":13,"encoder":"4299759617780","distractor":"4299759617740","target":"absent","response":"absent","rt":"2368.5","correct":true,"confidence":4},{"trial_n":118,"span":13,"encoder":"4793787222188","distractor":"4793787212188","target":"absent","response":"absent","rt":"1139.700000003","correct":true,"confidence":2},{"trial_n":119,"span":14,"encoder":"26223075836281","distractor":"26223055836281","target":"absent","response":"absent","rt":"8186.799999997","correct":true,"confidence":4},{"trial_n":120,"span":14,"encoder":"33010387932157","distractor":"33010367932157","target":"absent","response":"present","rt":"2182.8999999985","correct":false,"confidence":3},{"trial_n":121,"span":13,"encoder":"8145922011712","distractor":"8045922011712","target":"present","response":"present","rt":"6379.8000000045","correct":true,"confidence":3},{"trial_n":122,"span":13,"encoder":"9497686880215","distractor":"9498686880215","target":"present","response":"absent","rt":"2940.6999999955","correct":false,"confidence":2},{"trial_n":123,"span":12,"encoder":"175592742857","distractor":"175592742859","target":"present","response":"present","rt":"2667.3999999985","correct":true,"confidence":3},{"trial_n":124,"span":12,"encoder":"397059074513","distractor":"394059074513","target":"absent","response":"present","rt":"2566.200000003","correct":false,"confidence":2},{"trial_n":125,"span":11,"encoder":"24531172341","distractor":"24131172341","target":"present","response":"present","rt":"9725","correct":true,"confidence":3},{"trial_n":126,"span":11,"encoder":"95572682969","distractor":"95972682969","target":"present","response":"present","rt":"3017.1999999955","correct":true,"confidence":2},{"trial_n":127,"span":12,"encoder":"518139365801","distractor":"518139365806","target":"present","response":"present","rt":"1826","correct":true,"confidence":4},{"trial_n":128,"span":12,"encoder":"642073188829","distractor":"642093188829","target":"present","response":"present","rt":"4261.5","correct":true,"confidence":3},{"trial_n":129,"span":13,"encoder":"8140723854170","distractor":"8140723854470","target":"present","response":"present","rt":"1472.1000000015","correct":true,"confidence":2},{"trial_n":130,"span":13,"encoder":"9533920119542","distractor":"9523920119542","target":"absent","response":"present","rt":"1310.1000000015","correct":false,"confidence":3},{"trial_n":131,"span":12,"encoder":"495337416664","distractor":"495337417664","target":"absent","response":"present","rt":"1338.3999999985","correct":false,"confidence":3},{"trial_n":132,"span":11,"encoder":"50716289837","distractor":"50716281837","target":"present","response":"absent","rt":"4445.3000000045","correct":false,"confidence":2},{"trial_n":133,"span":10,"encoder":"5984954810","distractor":"6984954810","target":"present","response":"present","rt":"3570.3000000045","correct":true,"confidence":3},{"trial_n":134,"span":10,"encoder":"2989245975","distractor":"2489245975","target":"absent","response":"absent","rt":"3537.799999997","correct":true,"confidence":2},{"trial_n":135,"span":11,"encoder":"22499598599","distractor":"29499598599","target":"absent","response":"present","rt":"7152.1999999955","correct":false,"confidence":3},{"trial_n":136,"span":10,"encoder":"6201543135","distractor":"6201543130","target":"absent","response":"absent","rt":"2827","correct":true,"confidence":4},{"trial_n":137,"span":10,"encoder":"0749184409","distractor":"0749194409","target":"absent","response":"absent","rt":"2738.6000000015","correct":true,"confidence":2},{"trial_n":138,"span":11,"encoder":"20945103971","distractor":"20945103931","target":"present","response":"present","rt":"1769.599999994","correct":true,"confidence":4},{"trial_n":139,"span":11,"encoder":"43559706554","distractor":"43059706554","target":"present","response":"present","rt":"3231.3000000045","correct":true,"confidence":4},{"trial_n":140,"span":12,"encoder":"619992476167","distractor":"619992426167","target":"present","response":"present","rt":"4237.799999997","correct":true,"confidence":2}]