[{"trial_n":1,"n_dots":4.25,"target":"right","response":"left","rt":9116.5,"correct":false,"confidence":-1},{"trial_n":2,"n_dots":4.25,"target":"left","response":"left","rt":986,"correct":true,"confidence":-1},{"trial_n":3,"n_dots":4.25,"target":"left","response":"left","rt":694.20000000298,"correct":true,"confidence":-1},{"trial_n":4,"n_dots":3.85,"target":"left","response":"right","rt":958.19999999553,"correct":false,"confidence":-1},{"trial_n":5,"n_dots":4.25,"target":"right","response":"right","rt":658.69999999553,"correct":true,"confidence":-1},{"trial_n":6,"n_dots":4.25,"target":"right","response":"right","rt":775.29999999702,"correct":true,"confidence":-1},{"trial_n":7,"n_dots":3.85,"target":"left","response":"left","rt":859,"correct":true,"confidence":-1},{"trial_n":8,"n_dots":3.85,"target":"right","response":"right","rt":658.5,"correct":true,"confidence":-1},{"trial_n":9,"n_dots":3.65,"target":"left","response":"right","rt":451.69999999553,"correct":false,"confidence":-1},{"trial_n":10,"n_dots":3.85,"target":"right","response":"right","rt":348.20000000298,"correct":true,"confidence":-1},{"trial_n":11,"n_dots":3.85,"target":"right","response":"right","rt":275.89999999851,"correct":true,"confidence":-1},{"trial_n":12,"n_dots":3.65,"target":"right","response":"right","rt":194.5,"correct":true,"confidence":-1},{"trial_n":13,"n_dots":3.65,"target":"left","response":"right","rt":584.69999999553,"correct":false,"confidence":-1},{"trial_n":14,"n_dots":3.75,"target":"right","response":"right","rt":5909.200000003,"correct":true,"confidence":-1},{"trial_n":15,"n_dots":3.75,"target":"right","response":"right","rt":590.69999999553,"correct":true,"confidence":-1},{"trial_n":16,"n_dots":3.65,"target":"left","response":"left","rt":373.39999999851,"correct":true,"confidence":-1},{"trial_n":17,"n_dots":3.65,"target":"left","response":"right","rt":732.60000000149,"correct":false,"confidence":-1},{"trial_n":18,"n_dots":3.75,"target":"left","response":"right","rt":993,"correct":false,"confidence":-1},{"trial_n":19,"n_dots":3.85,"target":"right","response":"right","rt":651.39999999851,"correct":true,"confidence":-1},{"trial_n":20,"n_dots":3.85,"target":"left","response":"right","rt":682,"correct":false,"confidence":-1},{"trial_n":21,"n_dots":3.95,"target":"left","response":"right","rt":5796.3000000045,"correct":false,"confidence":3},{"trial_n":22,"n_dots":4.05,"target":"left","response":"right","rt":973.19999999553,"correct":false,"confidence":3},{"trial_n":23,"n_dots":4.15,"target":"left","response":"right","rt":1505.1999999955,"correct":false,"confidence":3},{"trial_n":24,"n_dots":4.25,"target":"left","response":"right","rt":1359.6999999955,"correct":false,"confidence":3},{"trial_n":25,"n_dots":4.35,"target":"right","response":"right","rt":528.89999999851,"correct":true,"confidence":3},{"trial_n":26,"n_dots":4.35,"target":"right","response":"right","rt":843.29999999702,"correct":true,"confidence":3},{"trial_n":27,"n_dots":4.25,"target":"right","response":"right","rt":457.69999999553,"correct":true,"confidence":3},{"trial_n":28,"n_dots":4.25,"target":"right","response":"right","rt":842.29999999702,"correct":true,"confidence":3},{"trial_n":29,"n_dots":4.15,"target":"right","response":"right","rt":257.70000000298,"correct":true,"confidence":3},{"trial_n":30,"n_dots":4.15,"target":"left","response":"right","rt":266.60000000149,"correct":false,"confidence":3},{"trial_n":31,"n_dots":4.25,"target":"right","response":"right","rt":142.79999999702,"correct":true,"confidence":3},{"trial_n":32,"n_dots":4.25,"target":"right","response":"right","rt":777.89999999851,"correct":true,"confidence":2},{"trial_n":33,"n_dots":4.15,"target":"left","response":"right","rt":659.30000000447,"correct":false,"confidence":3},{"trial_n":34,"n_dots":4.25,"target":"left","response":"right","rt":927.5,"correct":false,"confidence":3},{"trial_n":35,"n_dots":4.35,"target":"left","response":"right","rt":137.79999999702,"correct":false,"confidence":3},{"trial_n":36,"n_dots":4.45,"target":"right","response":"right","rt":782.5,"correct":true,"confidence":3},{"trial_n":37,"n_dots":4.45,"target":"right","response":"right","rt":181.70000000298,"correct":true,"confidence":3},{"trial_n":38,"n_dots":4.35,"target":"left","response":"left","rt":1188.8999999985,"correct":true,"confidence":4},{"trial_n":39,"n_dots":4.35,"target":"left","response":"left","rt":878.80000000447,"correct":true,"confidence":3},{"trial_n":40,"n_dots":4.25,"target":"right","response":"right","rt":869.5,"correct":true,"confidence":3},{"trial_n":41,"n_dots":4.25,"target":"right","response":"right","rt":1027.5,"correct":true,"confidence":2},{"trial_n":42,"n_dots":4.15,"target":"left","response":"right","rt":1133.200000003,"correct":false,"confidence":3},{"trial_n":43,"n_dots":4.25,"target":"right","response":"right","rt":758,"correct":true,"confidence":3},{"trial_n":44,"n_dots":4.25,"target":"left","response":"left","rt":659.5,"correct":true,"confidence":4},{"trial_n":45,"n_dots":4.15,"target":"right","response":"right","rt":860.79999999702,"correct":true,"confidence":4},{"trial_n":46,"n_dots":4.15,"target":"left","response":"left","rt":1169.1000000015,"correct":true,"confidence":3},{"trial_n":47,"n_dots":4.05,"target":"left","response":"left","rt":478.39999999851,"correct":true,"confidence":3},{"trial_n":48,"n_dots":4.05,"target":"left","response":"left","rt":718.79999999702,"correct":true,"confidence":3},{"trial_n":49,"n_dots":3.95,"target":"left","response":"right","rt":777.60000000149,"correct":false,"confidence":4},{"trial_n":50,"n_dots":4.05,"target":"left","response":"left","rt":991.29999999702,"correct":true,"confidence":3},{"trial_n":51,"n_dots":4.05,"target":"left","response":"left","rt":928.90000000596,"correct":true,"confidence":3},{"trial_n":52,"n_dots":3.95,"target":"right","response":"right","rt":868.70000000298,"correct":true,"confidence":4},{"trial_n":53,"n_dots":3.95,"target":"left","response":"left","rt":1084.8999999985,"correct":true,"confidence":3},{"trial_n":54,"n_dots":3.85,"target":"left","response":"left","rt":680.19999999553,"correct":true,"confidence":3},{"trial_n":55,"n_dots":3.85,"target":"right","response":"right","rt":952.19999999553,"correct":true,"confidence":3},{"trial_n":56,"n_dots":3.75,"target":"right","response":"right","rt":851.29999999702,"correct":true,"confidence":4},{"trial_n":57,"n_dots":3.75,"target":"left","response":"left","rt":797.19999999553,"correct":true,"confidence":4},{"trial_n":58,"n_dots":3.65,"target":"right","response":"right","rt":771.10000000149,"correct":true,"confidence":4},{"trial_n":59,"n_dots":3.65,"target":"right","response":"right","rt":1351.299999997,"correct":true,"confidence":3},{"trial_n":60,"n_dots":3.55,"target":"right","response":"left","rt":504.79999999702,"correct":false,"confidence":3},{"trial_n":61,"n_dots":3.65,"target":"left","response":"left","rt":740.89999999851,"correct":true,"confidence":3},{"trial_n":62,"n_dots":3.65,"target":"left","response":"left","rt":178.89999999851,"correct":true,"confidence":3},{"trial_n":63,"n_dots":3.55,"target":"left","response":"left","rt":430.89999999851,"correct":true,"confidence":3},{"trial_n":64,"n_dots":3.55,"target":"right","response":"right","rt":568.20000000298,"correct":true,"confidence":4},{"trial_n":65,"n_dots":3.45,"target":"left","response":"right","rt":738.40000000596,"correct":false,"confidence":4},{"trial_n":66,"n_dots":3.55,"target":"right","response":"right","rt":979.29999999702,"correct":true,"confidence":4},{"trial_n":67,"n_dots":3.55,"target":"right","response":"right","rt":923.19999999553,"correct":true,"confidence":3},{"trial_n":68,"n_dots":3.45,"target":"right","response":"right","rt":952.69999999553,"correct":true,"confidence":3},{"trial_n":69,"n_dots":3.45,"target":"left","response":"left","rt":784,"correct":true,"confidence":4},{"trial_n":70,"n_dots":3.35,"target":"right","response":"left","rt":1003.6000000015,"correct":false,"confidence":4},{"trial_n":71,"n_dots":3.45,"target":"left","response":"left","rt":698.80000000447,"correct":true,"confidence":4},{"trial_n":72,"n_dots":3.45,"target":"left","response":"right","rt":582.89999999851,"correct":false,"confidence":4},{"trial_n":73,"n_dots":3.55,"target":"right","response":"left","rt":660.19999999553,"correct":false,"confidence":4},{"trial_n":74,"n_dots":3.65,"target":"left","response":"left","rt":406.09999999404,"correct":true,"confidence":4},{"trial_n":75,"n_dots":3.65,"target":"right","response":"right","rt":1025.200000003,"correct":true,"confidence":4},{"trial_n":76,"n_dots":3.55,"target":"right","response":"right","rt":926.20000000298,"correct":true,"confidence":4},{"trial_n":77,"n_dots":3.55,"target":"right","response":"right","rt":631.90000000596,"correct":true,"confidence":4},{"trial_n":78,"n_dots":3.45,"target":"right","response":"right","rt":774.19999999553,"correct":true,"confidence":4},{"trial_n":79,"n_dots":3.45,"target":"right","response":"right","rt":836.09999999404,"correct":true,"confidence":4},{"trial_n":80,"n_dots":3.35,"target":"left","response":"right","rt":2123.6999999955,"correct":false,"confidence":4},{"trial_n":81,"n_dots":3.45,"target":"left","response":"right","rt":5426,"correct":false,"confidence":3},{"trial_n":82,"n_dots":3.55,"target":"right","response":"right","rt":280.39999999851,"correct":true,"confidence":5},{"trial_n":83,"n_dots":3.55,"target":"left","response":"right","rt":790.5,"correct":false,"confidence":5},{"trial_n":84,"n_dots":3.65,"target":"left","response":"left","rt":806.5,"correct":true,"confidence":5},{"trial_n":85,"n_dots":3.65,"target":"right","response":"right","rt":712.29999999702,"correct":true,"confidence":5},{"trial_n":86,"n_dots":3.55,"target":"right","response":"right","rt":692.5,"correct":true,"confidence":4},{"trial_n":87,"n_dots":3.55,"target":"right","response":"right","rt":575.39999999851,"correct":true,"confidence":4},{"trial_n":88,"n_dots":3.45,"target":"right","response":"right","rt":555.39999999851,"correct":true,"confidence":4},{"trial_n":89,"n_dots":3.45,"target":"left","response":"left","rt":782,"correct":true,"confidence":4},{"trial_n":90,"n_dots":3.35,"target":"right","response":"right","rt":780,"correct":true,"confidence":4},{"trial_n":91,"n_dots":3.35,"target":"right","response":"left","rt":1158.6000000015,"correct":false,"confidence":4},{"trial_n":92,"n_dots":3.45,"target":"left","response":"right","rt":465.10000000149,"correct":false,"confidence":4},{"trial_n":93,"n_dots":3.55,"target":"left","response":"left","rt":938.79999999702,"correct":true,"confidence":5},{"trial_n":94,"n_dots":3.55,"target":"right","response":"right","rt":679.79999999702,"correct":true,"confidence":5},{"trial_n":95,"n_dots":3.45,"target":"right","response":"right","rt":687.20000000298,"correct":true,"confidence":5},{"trial_n":96,"n_dots":3.45,"target":"left","response":"left","rt":679.5,"correct":true,"confidence":5},{"trial_n":97,"n_dots":3.35,"target":"left","response":"left","rt":833.60000000149,"correct":true,"confidence":5},{"trial_n":98,"n_dots":3.35,"target":"right","response":"right","rt":727.79999999702,"correct":true,"confidence":5},{"trial_n":99,"n_dots":3.25,"target":"right","response":"left","rt":637.60000000149,"correct":false,"confidence":5},{"trial_n":100,"n_dots":3.35,"target":"right","response":"right","rt":863.29999999702,"correct":true,"confidence":3},{"trial_n":101,"n_dots":3.35,"target":"left","response":"left","rt":460.80000000447,"correct":true,"confidence":5},{"trial_n":102,"n_dots":3.25,"target":"left","response":"right","rt":514.20000000298,"correct":false,"confidence":3},{"trial_n":103,"n_dots":3.35,"target":"left","response":"left","rt":342.19999999553,"correct":true,"confidence":3},{"trial_n":104,"n_dots":3.35,"target":"right","response":"right","rt":220.89999999851,"correct":true,"confidence":3},{"trial_n":105,"n_dots":3.25,"target":"right","response":"left","rt":319.59999999404,"correct":false,"confidence":3},{"trial_n":106,"n_dots":3.35,"target":"left","response":"right","rt":253.5,"correct":false,"confidence":3},{"trial_n":107,"n_dots":3.45,"target":"left","response":"left","rt":302.90000000596,"correct":true,"confidence":3},{"trial_n":108,"n_dots":3.45,"target":"right","response":"right","rt":112.89999999851,"correct":true,"confidence":3},{"trial_n":109,"n_dots":3.35,"target":"right","response":"right","rt":195.59999999404,"correct":true,"confidence":3},{"trial_n":110,"n_dots":3.35,"target":"right","response":"right","rt":2084,"correct":true,"confidence":4},{"trial_n":111,"n_dots":3.25,"target":"right","response":"right","rt":232.60000000149,"correct":true,"confidence":3},{"trial_n":112,"n_dots":3.25,"target":"left","response":"right","rt":467.19999999553,"correct":false,"confidence":3},{"trial_n":113,"n_dots":3.35,"target":"left","response":"right","rt":252.79999999702,"correct":false,"confidence":2},{"trial_n":114,"n_dots":3.45,"target":"left","response":"left","rt":944.29999999702,"correct":true,"confidence":4},{"trial_n":115,"n_dots":3.45,"target":"left","response":"left","rt":665.39999999851,"correct":true,"confidence":4},{"trial_n":116,"n_dots":3.35,"target":"right","response":"right","rt":1934.6000000015,"correct":true,"confidence":2},{"trial_n":117,"n_dots":3.35,"target":"left","response":"left","rt":1149.8999999985,"correct":true,"confidence":4},{"trial_n":118,"n_dots":3.25,"target":"left","response":"left","rt":620.89999999851,"correct":true,"confidence":4},{"trial_n":119,"n_dots":3.25,"target":"left","response":"right","rt":834,"correct":false,"confidence":1},{"trial_n":120,"n_dots":3.35,"target":"right","response":"right","rt":705.79999999702,"correct":true,"confidence":3}]