[{"trial_n":1,"n_dots":4.25,"target":"left","response":"left","rt":4734.5,"correct":true,"confidence":-1},{"trial_n":2,"n_dots":4.25,"target":"left","response":"left","rt":854.10000000149,"correct":true,"confidence":-1},{"trial_n":3,"n_dots":3.85,"target":"right","response":"right","rt":588.90000000037,"correct":true,"confidence":-1},{"trial_n":4,"n_dots":3.85,"target":"left","response":"left","rt":360.80000000075,"correct":true,"confidence":-1},{"trial_n":5,"n_dots":3.45,"target":"right","response":"right","rt":359.40000000037,"correct":true,"confidence":-1},{"trial_n":6,"n_dots":3.45,"target":"right","response":"right","rt":301.69999999925,"correct":true,"confidence":-1},{"trial_n":7,"n_dots":3.05,"target":"right","response":"left","rt":205.90000000037,"correct":false,"confidence":-1},{"trial_n":8,"n_dots":3.25,"target":"right","response":"right","rt":146.60000000149,"correct":true,"confidence":-1},{"trial_n":9,"n_dots":3.25,"target":"right","response":"right","rt":87.799999998882,"correct":true,"confidence":-1},{"trial_n":10,"n_dots":3.05,"target":"right","response":"left","rt":100.29999999888,"correct":false,"confidence":-1},{"trial_n":11,"n_dots":3.25,"target":"right","response":"right","rt":132.20000000112,"correct":true,"confidence":-1},{"trial_n":12,"n_dots":3.25,"target":"left","response":"left","rt":188.70000000112,"correct":true,"confidence":-1},{"trial_n":13,"n_dots":3.15,"target":"right","response":"left","rt":262.40000000037,"correct":false,"confidence":-1},{"trial_n":14,"n_dots":3.25,"target":"right","response":"right","rt":562.70000000112,"correct":true,"confidence":-1},{"trial_n":15,"n_dots":3.25,"target":"right","response":"left","rt":269.70000000112,"correct":false,"confidence":-1},{"trial_n":16,"n_dots":3.35,"target":"right","response":"right","rt":645.90000000037,"correct":true,"confidence":-1},{"trial_n":17,"n_dots":3.35,"target":"right","response":"right","rt":373.59999999963,"correct":true,"confidence":-1},{"trial_n":18,"n_dots":3.25,"target":"right","response":"right","rt":379,"correct":true,"confidence":-1},{"trial_n":19,"n_dots":3.25,"target":"right","response":"right","rt":130,"correct":true,"confidence":-1},{"trial_n":20,"n_dots":3.15,"target":"right","response":"right","rt":118.59999999963,"correct":true,"confidence":-1},{"trial_n":21,"n_dots":3.15,"target":"left","response":"right","rt":202.40000000037,"correct":false,"confidence":2},{"trial_n":22,"n_dots":3.25,"target":"left","response":"left","rt":245.5,"correct":true,"confidence":4},{"trial_n":23,"n_dots":3.25,"target":"right","response":"right","rt":555.20000000112,"correct":true,"confidence":3},{"trial_n":24,"n_dots":3.15,"target":"left","response":"left","rt":265,"correct":true,"confidence":3},{"trial_n":25,"n_dots":3.15,"target":"left","response":"left","rt":643.40000000037,"correct":true,"confidence":5},{"trial_n":26,"n_dots":3.05,"target":"right","response":"left","rt":322.20000000112,"correct":false,"confidence":2},{"trial_n":27,"n_dots":3.15,"target":"right","response":"right","rt":798.69999999925,"correct":true,"confidence":1},{"trial_n":28,"n_dots":3.15,"target":"left","response":"left","rt":333.80000000075,"correct":true,"confidence":3},{"trial_n":29,"n_dots":3.05,"target":"left","response":"left","rt":413.5,"correct":true,"confidence":4},{"trial_n":30,"n_dots":3.05,"target":"left","response":"left","rt":431.20000000112,"correct":true,"confidence":5},{"trial_n":31,"n_dots":2.95,"target":"left","response":"left","rt":1727.6999999993,"correct":true,"confidence":2},{"trial_n":32,"n_dots":2.95,"target":"right","response":"left","rt":1620.3000000007,"correct":false,"confidence":2},{"trial_n":33,"n_dots":3.05,"target":"right","response":"right","rt":429.70000000112,"correct":true,"confidence":3},{"trial_n":34,"n_dots":3.05,"target":"left","response":"left","rt":134.09999999963,"correct":true,"confidence":2},{"trial_n":35,"n_dots":2.95,"target":"right","response":"right","rt":1736,"correct":true,"confidence":1},{"trial_n":36,"n_dots":2.95,"target":"left","response":"left","rt":365.20000000112,"correct":true,"confidence":4},{"trial_n":37,"n_dots":2.85,"target":"left","response":"left","rt":707.19999999925,"correct":true,"confidence":3},{"trial_n":38,"n_dots":2.85,"target":"left","response":"left","rt":299.79999999888,"correct":true,"confidence":2},{"trial_n":39,"n_dots":2.75,"target":"left","response":"left","rt":398.09999999963,"correct":true,"confidence":2},{"trial_n":40,"n_dots":2.75,"target":"right","response":"right","rt":326.90000000037,"correct":true,"confidence":4},{"trial_n":41,"n_dots":2.65,"target":"right","response":"left","rt":575.90000000037,"correct":false,"confidence":3},{"trial_n":42,"n_dots":2.75,"target":"left","response":"left","rt":1269.3000000007,"correct":true,"confidence":2},{"trial_n":43,"n_dots":2.75,"target":"right","response":"left","rt":320.40000000037,"correct":false,"confidence":4},{"trial_n":44,"n_dots":2.85,"target":"right","response":"right","rt":579.60000000149,"correct":true,"confidence":5},{"trial_n":45,"n_dots":2.85,"target":"right","response":"right","rt":703.5,"correct":true,"confidence":2},{"trial_n":46,"n_dots":2.75,"target":"right","response":"right","rt":449.59999999963,"correct":true,"confidence":3},{"trial_n":47,"n_dots":2.75,"target":"right","response":"left","rt":396.30000000075,"correct":false,"confidence":1},{"trial_n":48,"n_dots":2.85,"target":"right","response":"left","rt":557.30000000075,"correct":false,"confidence":2},{"trial_n":49,"n_dots":2.95,"target":"right","response":"left","rt":574.70000000112,"correct":false,"confidence":3},{"trial_n":50,"n_dots":3.05,"target":"left","response":"right","rt":264.09999999963,"correct":false,"confidence":1},{"trial_n":51,"n_dots":3.15,"target":"right","response":"right","rt":481.20000000112,"correct":true,"confidence":1},{"trial_n":52,"n_dots":3.15,"target":"left","response":"left","rt":495.60000000149,"correct":true,"confidence":2},{"trial_n":53,"n_dots":3.05,"target":"right","response":"right","rt":488.30000000075,"correct":true,"confidence":2},{"trial_n":54,"n_dots":3.05,"target":"left","response":"left","rt":1448.0999999996,"correct":true,"confidence":4},{"trial_n":55,"n_dots":2.95,"target":"left","response":"left","rt":286.19999999925,"correct":true,"confidence":5},{"trial_n":56,"n_dots":2.95,"target":"right","response":"right","rt":438.09999999963,"correct":true,"confidence":3},{"trial_n":57,"n_dots":2.85,"target":"left","response":"left","rt":377.59999999963,"correct":true,"confidence":5},{"trial_n":58,"n_dots":2.85,"target":"right","response":"right","rt":272.09999999963,"correct":true,"confidence":5},{"trial_n":59,"n_dots":2.75,"target":"left","response":"left","rt":1494.6999999993,"correct":true,"confidence":2},{"trial_n":60,"n_dots":2.75,"target":"left","response":"left","rt":475.80000000075,"correct":true,"confidence":5},{"trial_n":61,"n_dots":2.65,"target":"left","response":"left","rt":660.5,"correct":true,"confidence":3},{"trial_n":62,"n_dots":2.65,"target":"left","response":"left","rt":106.40000000037,"correct":true,"confidence":4},{"trial_n":63,"n_dots":2.55,"target":"right","response":"left","rt":77.900000000373,"correct":false,"confidence":5},{"trial_n":64,"n_dots":2.65,"target":"left","response":"left","rt":458.40000000037,"correct":true,"confidence":5},{"trial_n":65,"n_dots":2.65,"target":"left","response":"right","rt":374.30000000075,"correct":false,"confidence":2},{"trial_n":66,"n_dots":2.75,"target":"left","response":"left","rt":226.70000000112,"correct":true,"confidence":3},{"trial_n":67,"n_dots":2.75,"target":"right","response":"right","rt":395.90000000037,"correct":true,"confidence":2},{"trial_n":68,"n_dots":2.65,"target":"right","response":"right","rt":348,"correct":true,"confidence":4},{"trial_n":69,"n_dots":2.65,"target":"left","response":"right","rt":441.20000000112,"correct":false,"confidence":1},{"trial_n":70,"n_dots":2.75,"target":"left","response":"right","rt":282.09999999963,"correct":false,"confidence":1},{"trial_n":71,"n_dots":2.85,"target":"left","response":"left","rt":643.20000000112,"correct":true,"confidence":1},{"trial_n":72,"n_dots":2.85,"target":"left","response":"left","rt":530.40000000037,"correct":true,"confidence":1},{"trial_n":73,"n_dots":2.75,"target":"left","response":"left","rt":1245.7000000011,"correct":true,"confidence":2},{"trial_n":74,"n_dots":2.75,"target":"left","response":"left","rt":307.40000000037,"correct":true,"confidence":2},{"trial_n":75,"n_dots":2.65,"target":"right","response":"right","rt":341.89999999851,"correct":true,"confidence":2},{"trial_n":76,"n_dots":2.65,"target":"right","response":"right","rt":681.70000000112,"correct":true,"confidence":4},{"trial_n":77,"n_dots":2.55,"target":"left","response":"left","rt":120.69999999925,"correct":true,"confidence":5},{"trial_n":78,"n_dots":2.55,"target":"right","response":"right","rt":380,"correct":true,"confidence":4},{"trial_n":79,"n_dots":2.45,"target":"left","response":"left","rt":289.09999999963,"correct":true,"confidence":4},{"trial_n":80,"n_dots":2.45,"target":"right","response":"right","rt":489.80000000075,"correct":true,"confidence":4},{"trial_n":81,"n_dots":2.35,"target":"left","response":"left","rt":274.09999999963,"correct":true,"confidence":4},{"trial_n":82,"n_dots":2.35,"target":"left","response":"left","rt":318.30000000075,"correct":true,"confidence":4},{"trial_n":83,"n_dots":2.25,"target":"right","response":"left","rt":230.09999999963,"correct":false,"confidence":5},{"trial_n":84,"n_dots":2.35,"target":"right","response":"left","rt":63.300000000745,"correct":false,"confidence":4},{"trial_n":85,"n_dots":2.45,"target":"right","response":"left","rt":386.30000000075,"correct":false,"confidence":2},{"trial_n":86,"n_dots":2.55,"target":"left","response":"right","rt":444.40000000037,"correct":false,"confidence":1},{"trial_n":87,"n_dots":2.65,"target":"left","response":"left","rt":417.5,"correct":true,"confidence":5},{"trial_n":88,"n_dots":2.65,"target":"left","response":"left","rt":909.5,"correct":true,"confidence":3},{"trial_n":89,"n_dots":2.55,"target":"right","response":"left","rt":145.20000000112,"correct":false,"confidence":2},{"trial_n":90,"n_dots":2.65,"target":"left","response":"left","rt":761.69999999925,"correct":true,"confidence":2},{"trial_n":91,"n_dots":2.65,"target":"left","response":"left","rt":174.5,"correct":true,"confidence":4},{"trial_n":92,"n_dots":2.55,"target":"left","response":"left","rt":345.20000000112,"correct":true,"confidence":1},{"trial_n":93,"n_dots":2.55,"target":"right","response":"right","rt":328.90000000037,"correct":true,"confidence":1},{"trial_n":94,"n_dots":2.45,"target":"left","response":"left","rt":314.40000000037,"correct":true,"confidence":1},{"trial_n":95,"n_dots":2.45,"target":"left","response":"left","rt":420.60000000149,"correct":true,"confidence":1},{"trial_n":96,"n_dots":2.35,"target":"right","response":"right","rt":328.09999999963,"correct":true,"confidence":3},{"trial_n":97,"n_dots":2.35,"target":"right","response":"right","rt":537.19999999925,"correct":true,"confidence":3},{"trial_n":98,"n_dots":2.25,"target":"right","response":"right","rt":397.30000000075,"correct":true,"confidence":4},{"trial_n":99,"n_dots":2.25,"target":"left","response":"left","rt":415.20000000112,"correct":true,"confidence":1},{"trial_n":100,"n_dots":2.15,"target":"right","response":"right","rt":723.20000000112,"correct":true,"confidence":1},{"trial_n":101,"n_dots":2.15,"target":"left","response":"left","rt":769.09999999963,"correct":true,"confidence":3},{"trial_n":102,"n_dots":2.05,"target":"right","response":"right","rt":318.60000000149,"correct":true,"confidence":2},{"trial_n":103,"n_dots":2.05,"target":"right","response":"left","rt":421.70000000112,"correct":false,"confidence":3},{"trial_n":104,"n_dots":2.15,"target":"left","response":"right","rt":606,"correct":false,"confidence":4},{"trial_n":105,"n_dots":2.25,"target":"left","response":"left","rt":564.70000000112,"correct":true,"confidence":3},{"trial_n":106,"n_dots":2.25,"target":"left","response":"right","rt":951.80000000075,"correct":false,"confidence":2},{"trial_n":107,"n_dots":2.35,"target":"right","response":"right","rt":751.5,"correct":true,"confidence":2},{"trial_n":108,"n_dots":2.35,"target":"left","response":"left","rt":1050.7999999989,"correct":true,"confidence":2},{"trial_n":109,"n_dots":2.25,"target":"left","response":"left","rt":1308.5999999996,"correct":true,"confidence":4},{"trial_n":110,"n_dots":2.25,"target":"left","response":"right","rt":2500,"correct":false,"confidence":2},{"trial_n":111,"n_dots":2.35,"target":"right","response":"left","rt":432.59999999963,"correct":false,"confidence":2},{"trial_n":112,"n_dots":2.45,"target":"right","response":"right","rt":327.09999999963,"correct":true,"confidence":4},{"trial_n":113,"n_dots":2.45,"target":"right","response":"right","rt":1352.9000000004,"correct":true,"confidence":3},{"trial_n":114,"n_dots":2.35,"target":"left","response":"left","rt":741.5,"correct":true,"confidence":2},{"trial_n":115,"n_dots":2.35,"target":"left","response":"right","rt":320.90000000037,"correct":false,"confidence":3},{"trial_n":116,"n_dots":2.45,"target":"right","response":"left","rt":428,"correct":false,"confidence":2},{"trial_n":117,"n_dots":2.55,"target":"left","response":"left","rt":1123.9000000004,"correct":true,"confidence":1},{"trial_n":118,"n_dots":2.55,"target":"right","response":"right","rt":339.70000000112,"correct":true,"confidence":2},{"trial_n":119,"n_dots":2.45,"target":"right","response":"left","rt":759.40000000037,"correct":false,"confidence":2},{"trial_n":120,"n_dots":2.55,"target":"left","response":"right","rt":395.59999999963,"correct":false,"confidence":3}]