[{"trial_n":1,"min":25,"max":230,"target":"present","response":"present","rt":6028,"correct":true,"confidence":-1},{"trial_n":2,"min":25,"max":230,"target":"present","response":"present","rt":3375,"correct":true,"confidence":-1},{"trial_n":3,"min":41,"max":214,"target":"absent","response":"absent","rt":2130,"correct":true,"confidence":-1},{"trial_n":4,"min":41,"max":214,"target":"absent","response":"absent","rt":2331,"correct":true,"confidence":-1},{"trial_n":5,"min":57,"max":198,"target":"present","response":"present","rt":8126,"correct":true,"confidence":-1},{"trial_n":6,"min":57,"max":198,"target":"present","response":"absent","rt":684,"correct":false,"confidence":-1},{"trial_n":7,"min":41,"max":214,"target":"present","response":"present","rt":2825,"correct":true,"confidence":-1},{"trial_n":8,"min":41,"max":214,"target":"absent","response":"absent","rt":663.00000000001,"correct":true,"confidence":-1},{"trial_n":9,"min":57,"max":198,"target":"absent","response":"absent","rt":555,"correct":true,"confidence":-1},{"trial_n":10,"min":57,"max":198,"target":"present","response":"present","rt":553.99999999999,"correct":true,"confidence":-1},{"trial_n":11,"min":65,"max":190,"target":"present","response":"present","rt":547,"correct":true,"confidence":-1},{"trial_n":12,"min":65,"max":190,"target":"absent","response":"absent","rt":510,"correct":true,"confidence":-1},{"trial_n":13,"min":73,"max":182,"target":"present","response":"present","rt":1013,"correct":true,"confidence":-1},{"trial_n":14,"min":73,"max":182,"target":"absent","response":"absent","rt":744,"correct":true,"confidence":-1},{"trial_n":15,"min":81,"max":174,"target":"present","response":"present","rt":714,"correct":true,"confidence":-1},{"trial_n":16,"min":81,"max":174,"target":"absent","response":"absent","rt":573,"correct":true,"confidence":-1},{"trial_n":17,"min":89,"max":166,"target":"present","response":"present","rt":1396,"correct":true,"confidence":-1},{"trial_n":18,"min":89,"max":166,"target":"absent","response":"absent","rt":1106,"correct":true,"confidence":-1},{"trial_n":19,"min":97,"max":158,"target":"present","response":"absent","rt":1454,"correct":false,"confidence":-1},{"trial_n":20,"min":89,"max":166,"target":"present","response":"present","rt":794,"correct":true,"confidence":-1},{"trial_n":21,"min":89,"max":166,"target":"absent","response":"absent","rt":1886,"correct":true,"confidence":4},{"trial_n":22,"min":93,"max":162,"target":"absent","response":"absent","rt":4332,"correct":true,"confidence":4},{"trial_n":23,"min":93,"max":162,"target":"present","response":"absent","rt":1261,"correct":false,"confidence":4},{"trial_n":24,"min":89,"max":166,"target":"absent","response":"absent","rt":1183,"correct":true,"confidence":4},{"trial_n":25,"min":89,"max":166,"target":"present","response":"absent","rt":1174,"correct":false,"confidence":4},{"trial_n":26,"min":85,"max":170,"target":"absent","response":"absent","rt":1001,"correct":true,"confidence":4},{"trial_n":27,"min":85,"max":170,"target":"present","response":"absent","rt":3313,"correct":false,"confidence":4},{"trial_n":28,"min":81,"max":174,"target":"present","response":"present","rt":2053,"correct":true,"confidence":3},{"trial_n":29,"min":81,"max":174,"target":"absent","response":"absent","rt":1119,"correct":true,"confidence":3},{"trial_n":30,"min":85,"max":170,"target":"absent","response":"absent","rt":1202,"correct":true,"confidence":4},{"trial_n":31,"min":85,"max":170,"target":"absent","response":"absent","rt":1737,"correct":true,"confidence":4},{"trial_n":32,"min":87,"max":168,"target":"present","response":"absent","rt":7230,"correct":false,"confidence":2},{"trial_n":33,"min":85,"max":170,"target":"present","response":"present","rt":3480,"correct":true,"confidence":3},{"trial_n":34,"min":85,"max":170,"target":"present","response":"absent","rt":1080,"correct":false,"confidence":4},{"trial_n":35,"min":83,"max":172,"target":"absent","response":"absent","rt":6271,"correct":true,"confidence":4},{"trial_n":36,"min":83,"max":172,"target":"present","response":"absent","rt":1300,"correct":false,"confidence":4},{"trial_n":37,"min":81,"max":174,"target":"absent","response":"absent","rt":1073,"correct":true,"confidence":4},{"trial_n":38,"min":81,"max":174,"target":"present","response":"present","rt":1432,"correct":true,"confidence":3},{"trial_n":39,"min":83,"max":172,"target":"present","response":"absent","rt":14083,"correct":false,"confidence":2},{"trial_n":40,"min":81,"max":174,"target":"present","response":"present","rt":2134,"correct":true,"confidence":3},{"trial_n":41,"min":81,"max":174,"target":"present","response":"absent","rt":1918,"correct":false,"confidence":3},{"trial_n":42,"min":80,"max":175,"target":"absent","response":"absent","rt":973,"correct":true,"confidence":4},{"trial_n":43,"min":80,"max":175,"target":"present","response":"present","rt":1235,"correct":true,"confidence":3},{"trial_n":44,"min":81,"max":174,"target":"present","response":"absent","rt":5500,"correct":false,"confidence":3},{"trial_n":45,"min":80,"max":175,"target":"present","response":"present","rt":1751,"correct":true,"confidence":4},{"trial_n":46,"min":80,"max":175,"target":"absent","response":"absent","rt":2424,"correct":true,"confidence":3},{"trial_n":47,"min":81,"max":174,"target":"absent","response":"present","rt":1571,"correct":false,"confidence":4},{"trial_n":48,"min":80,"max":175,"target":"absent","response":"present","rt":1539.9999999999,"correct":false,"confidence":3},{"trial_n":49,"min":79,"max":176,"target":"absent","response":"absent","rt":2074.9999999999,"correct":true,"confidence":3},{"trial_n":50,"min":79,"max":176,"target":"absent","response":"absent","rt":1142,"correct":true,"confidence":4},{"trial_n":51,"min":80,"max":175,"target":"absent","response":"absent","rt":1965,"correct":true,"confidence":3},{"trial_n":52,"min":80,"max":175,"target":"absent","response":"absent","rt":1458.9999999999,"correct":true,"confidence":4},{"trial_n":53,"min":81,"max":174,"target":"absent","response":"absent","rt":1109,"correct":true,"confidence":4},{"trial_n":54,"min":81,"max":174,"target":"absent","response":"absent","rt":1308,"correct":true,"confidence":3},{"trial_n":55,"min":82,"max":173,"target":"present","response":"present","rt":1652.0000000001,"correct":true,"confidence":5},{"trial_n":56,"min":82,"max":173,"target":"absent","response":"absent","rt":1375.9999999999,"correct":true,"confidence":4},{"trial_n":57,"min":83,"max":172,"target":"absent","response":"absent","rt":1527,"correct":true,"confidence":3},{"trial_n":58,"min":83,"max":172,"target":"present","response":"present","rt":1439,"correct":true,"confidence":4},{"trial_n":59,"min":84,"max":171,"target":"absent","response":"present","rt":29411,"correct":false,"confidence":3},{"trial_n":60,"min":83,"max":172,"target":"present","response":"absent","rt":3943,"correct":false,"confidence":4},{"trial_n":61,"min":82,"max":173,"target":"present","response":"absent","rt":1560.9999999999,"correct":false,"confidence":4},{"trial_n":62,"min":81,"max":174,"target":"present","response":"absent","rt":1225,"correct":false,"confidence":1},{"trial_n":63,"min":80,"max":175,"target":"absent","response":"absent","rt":6677.9999999999,"correct":true,"confidence":3},{"trial_n":64,"min":80,"max":175,"target":"absent","response":"absent","rt":1014,"correct":true,"confidence":1},{"trial_n":65,"min":81,"max":174,"target":"absent","response":"absent","rt":979,"correct":true,"confidence":1},{"trial_n":66,"min":81,"max":174,"target":"present","response":"present","rt":2775.0000000001,"correct":true,"confidence":4},{"trial_n":67,"min":82,"max":173,"target":"present","response":"present","rt":1561,"correct":true,"confidence":4},{"trial_n":68,"min":82,"max":173,"target":"present","response":"absent","rt":1239,"correct":false,"confidence":3},{"trial_n":69,"min":81,"max":174,"target":"present","response":"absent","rt":40843,"correct":false,"confidence":3},{"trial_n":70,"min":80,"max":175,"target":"absent","response":"present","rt":2063.9999999999,"correct":false,"confidence":3},{"trial_n":71,"min":41,"max":214,"target":"present","response":"absent","rt":8136.0000000001,"correct":false,"confidence":-1},{"trial_n":72,"min":41,"max":214,"target":"present","response":"present","rt":1729,"correct":true,"confidence":-1},{"trial_n":73,"min":41,"max":214,"target":"absent","response":"absent","rt":1397,"correct":true,"confidence":-1},{"trial_n":74,"min":57,"max":198,"target":"absent","response":"present","rt":1347,"correct":false,"confidence":-1},{"trial_n":75,"min":41,"max":214,"target":"present","response":"absent","rt":996,"correct":false,"confidence":-1},{"trial_n":76,"min":25,"max":230,"target":"present","response":"present","rt":1646.9999999999,"correct":true,"confidence":-1},{"trial_n":77,"min":25,"max":230,"target":"absent","response":"absent","rt":982,"correct":true,"confidence":-1},{"trial_n":78,"min":41,"max":214,"target":"present","response":"absent","rt":846,"correct":false,"confidence":-1},{"trial_n":79,"min":25,"max":230,"target":"present","response":"present","rt":1211,"correct":true,"confidence":-1},{"trial_n":80,"min":25,"max":230,"target":"absent","response":"absent","rt":1145,"correct":true,"confidence":-1},{"trial_n":81,"min":33,"max":222,"target":"present","response":"present","rt":1361.9999999999,"correct":true,"confidence":-1},{"trial_n":82,"min":33,"max":222,"target":"present","response":"present","rt":1166,"correct":true,"confidence":-1},{"trial_n":83,"min":41,"max":214,"target":"present","response":"present","rt":947,"correct":true,"confidence":-1},{"trial_n":84,"min":41,"max":214,"target":"absent","response":"absent","rt":1479,"correct":true,"confidence":-1},{"trial_n":85,"min":49,"max":206,"target":"present","response":"present","rt":1564,"correct":true,"confidence":-1},{"trial_n":86,"min":49,"max":206,"target":"absent","response":"absent","rt":1215,"correct":true,"confidence":-1},{"trial_n":87,"min":57,"max":198,"target":"present","response":"present","rt":1112,"correct":true,"confidence":-1},{"trial_n":88,"min":57,"max":198,"target":"present","response":"present","rt":1114.9999999999,"correct":true,"confidence":-1},{"trial_n":89,"min":65,"max":190,"target":"present","response":"present","rt":1783,"correct":true,"confidence":-1},{"trial_n":90,"min":65,"max":190,"target":"present","response":"present","rt":1881,"correct":true,"confidence":-1},{"trial_n":91,"min":69,"max":186,"target":"present","response":"present","rt":1476,"correct":true,"confidence":4},{"trial_n":92,"min":69,"max":186,"target":"absent","response":"absent","rt":1248.0000000001,"correct":true,"confidence":3},{"trial_n":93,"min":73,"max":182,"target":"present","response":"present","rt":1167,"correct":true,"confidence":4},{"trial_n":94,"min":73,"max":182,"target":"absent","response":"absent","rt":1283.9999999999,"correct":true,"confidence":4},{"trial_n":95,"min":77,"max":178,"target":"absent","response":"absent","rt":1284.9999999999,"correct":true,"confidence":4},{"trial_n":96,"min":77,"max":178,"target":"present","response":"present","rt":999,"correct":true,"confidence":4},{"trial_n":97,"min":81,"max":174,"target":"absent","response":"absent","rt":933,"correct":true,"confidence":4},{"trial_n":98,"min":81,"max":174,"target":"absent","response":"absent","rt":1084.0000000001,"correct":true,"confidence":4},{"trial_n":99,"min":85,"max":170,"target":"absent","response":"absent","rt":1132,"correct":true,"confidence":4},{"trial_n":100,"min":85,"max":170,"target":"absent","response":"absent","rt":1248.0000000001,"correct":true,"confidence":4},{"trial_n":101,"min":87,"max":168,"target":"present","response":"absent","rt":1519,"correct":false,"confidence":4},{"trial_n":102,"min":85,"max":170,"target":"absent","response":"absent","rt":2183.9999999999,"correct":true,"confidence":3},{"trial_n":103,"min":85,"max":170,"target":"absent","response":"absent","rt":1519.0000000001,"correct":true,"confidence":4},{"trial_n":104,"min":87,"max":168,"target":"present","response":"present","rt":1503.0000000001,"correct":true,"confidence":4},{"trial_n":105,"min":87,"max":168,"target":"absent","response":"absent","rt":1120,"correct":true,"confidence":4},{"trial_n":106,"min":89,"max":166,"target":"absent","response":"absent","rt":1066.9999999999,"correct":true,"confidence":4},{"trial_n":107,"min":89,"max":166,"target":"present","response":"present","rt":1621.0000000001,"correct":true,"confidence":3},{"trial_n":108,"min":91,"max":164,"target":"absent","response":"absent","rt":1381.9999999999,"correct":true,"confidence":4},{"trial_n":109,"min":91,"max":164,"target":"absent","response":"absent","rt":1065,"correct":true,"confidence":1},{"trial_n":110,"min":93,"max":162,"target":"present","response":"present","rt":1538.0000000001,"correct":true,"confidence":3},{"trial_n":111,"min":93,"max":162,"target":"absent","response":"absent","rt":1216,"correct":true,"confidence":4},{"trial_n":112,"min":94,"max":161,"target":"absent","response":"absent","rt":968,"correct":true,"confidence":4},{"trial_n":113,"min":94,"max":161,"target":"absent","response":"absent","rt":1081,"correct":true,"confidence":3},{"trial_n":114,"min":95,"max":160,"target":"present","response":"absent","rt":1437,"correct":false,"confidence":4},{"trial_n":115,"min":94,"max":161,"target":"absent","response":"absent","rt":988.99999999988,"correct":true,"confidence":3},{"trial_n":116,"min":94,"max":161,"target":"absent","response":"absent","rt":1236,"correct":true,"confidence":4},{"trial_n":117,"min":95,"max":160,"target":"present","response":"absent","rt":1203,"correct":false,"confidence":4},{"trial_n":118,"min":94,"max":161,"target":"present","response":"present","rt":1301,"correct":true,"confidence":4},{"trial_n":119,"min":94,"max":161,"target":"absent","response":"present","rt":1352.9999999999,"correct":false,"confidence":4},{"trial_n":120,"min":93,"max":162,"target":"absent","response":"present","rt":2205.9999999999,"correct":false,"confidence":4},{"trial_n":121,"min":92,"max":163,"target":"present","response":"absent","rt":1925,"correct":false,"confidence":3},{"trial_n":122,"min":91,"max":164,"target":"present","response":"absent","rt":1111,"correct":false,"confidence":3},{"trial_n":123,"min":90,"max":165,"target":"present","response":"absent","rt":988,"correct":false,"confidence":4},{"trial_n":124,"min":89,"max":166,"target":"absent","response":"absent","rt":1439,"correct":true,"confidence":3},{"trial_n":125,"min":89,"max":166,"target":"present","response":"absent","rt":1194,"correct":false,"confidence":4},{"trial_n":126,"min":88,"max":167,"target":"absent","response":"absent","rt":1526.0000000001,"correct":true,"confidence":3},{"trial_n":127,"min":88,"max":167,"target":"present","response":"absent","rt":1673,"correct":false,"confidence":3},{"trial_n":128,"min":87,"max":168,"target":"absent","response":"absent","rt":1490,"correct":true,"confidence":3},{"trial_n":129,"min":87,"max":168,"target":"absent","response":"absent","rt":1409.0000000001,"correct":true,"confidence":4},{"trial_n":130,"min":88,"max":167,"target":"present","response":"absent","rt":1304,"correct":false,"confidence":3},{"trial_n":131,"min":87,"max":168,"target":"present","response":"absent","rt":915.00000000012,"correct":false,"confidence":3},{"trial_n":132,"min":86,"max":169,"target":"absent","response":"absent","rt":1591,"correct":true,"confidence":4},{"trial_n":133,"min":86,"max":169,"target":"absent","response":"absent","rt":1544,"correct":true,"confidence":3},{"trial_n":134,"min":87,"max":168,"target":"present","response":"present","rt":1726,"correct":true,"confidence":3},{"trial_n":135,"min":87,"max":168,"target":"absent","response":"absent","rt":1961.9999999999,"correct":true,"confidence":4},{"trial_n":136,"min":88,"max":167,"target":"present","response":"absent","rt":1177.9999999999,"correct":false,"confidence":3},{"trial_n":137,"min":87,"max":168,"target":"present","response":"absent","rt":1279,"correct":false,"confidence":4},{"trial_n":138,"min":86,"max":169,"target":"present","response":"absent","rt":1163.0000000001,"correct":false,"confidence":4},{"trial_n":139,"min":85,"max":170,"target":"absent","response":"absent","rt":946.99999999988,"correct":true,"confidence":4},{"trial_n":140,"min":85,"max":170,"target":"present","response":"present","rt":1547,"correct":true,"confidence":3}]