[{"trial_n":1,"span":8,"encoder":"37928482","distractor":"37928442","target":"present","response":"present","rt":"3706","correct":true,"confidence":-1},{"trial_n":2,"span":8,"encoder":"85749558","distractor":"85749548","target":"present","response":"present","rt":"2970.6000000238","correct":true,"confidence":-1},{"trial_n":3,"span":10,"encoder":"0497803657","distractor":"0497813657","target":"absent","response":"absent","rt":"2828.8000000715","correct":true,"confidence":-1},{"trial_n":4,"span":10,"encoder":"1200606167","distractor":"1200606117","target":"absent","response":"present","rt":"2576.5","correct":false,"confidence":-1},{"trial_n":5,"span":8,"encoder":"46631626","distractor":"46731626","target":"present","response":"present","rt":"1732.1000000238","correct":true,"confidence":-1},{"trial_n":6,"span":8,"encoder":"10261975","distractor":"10268975","target":"present","response":"present","rt":"1308.1999999285","correct":true,"confidence":-1},{"trial_n":7,"span":10,"encoder":"5706274385","distractor":"0706274385","target":"absent","response":"present","rt":"1189","correct":false,"confidence":-1},{"trial_n":8,"span":8,"encoder":"92350791","distractor":"92350792","target":"present","response":"present","rt":"1899.2000000477","correct":true,"confidence":-1},{"trial_n":9,"span":8,"encoder":"17246307","distractor":"97246307","target":"absent","response":"absent","rt":"2136.6999999285","correct":true,"confidence":-1},{"trial_n":10,"span":10,"encoder":"2802341906","distractor":"0802341906","target":"absent","response":"present","rt":"1508.5999999046","correct":false,"confidence":-1},{"trial_n":11,"span":8,"encoder":"57875584","distractor":"57872584","target":"absent","response":"absent","rt":"1306.3999999762","correct":true,"confidence":-1},{"trial_n":12,"span":8,"encoder":"31658855","distractor":"31656855","target":"present","response":"present","rt":"1759.7000000477","correct":true,"confidence":-1},{"trial_n":13,"span":9,"encoder":"860885105","distractor":"860885005","target":"absent","response":"present","rt":"1178.2000000477","correct":false,"confidence":-1},{"trial_n":14,"span":8,"encoder":"54036675","distractor":"14036675","target":"present","response":"present","rt":"1330.3999999762","correct":true,"confidence":-1},{"trial_n":15,"span":8,"encoder":"54474401","distractor":"54474406","target":"absent","response":"present","rt":"1253.6000000238","correct":false,"confidence":-1},{"trial_n":16,"span":7,"encoder":"7816491","distractor":"6816491","target":"absent","response":"present","rt":"2486.3999999762","correct":false,"confidence":-1},{"trial_n":17,"span":6,"encoder":"274592","distractor":"674592","target":"present","response":"present","rt":"1492.1999999285","correct":true,"confidence":-1},{"trial_n":18,"span":6,"encoder":"291061","distractor":"271061","target":"absent","response":"present","rt":"2843.0999999046","correct":false,"confidence":-1},{"trial_n":19,"span":5,"encoder":"00844","distractor":"50844","target":"present","response":"present","rt":"1039.3999999762","correct":true,"confidence":-1},{"trial_n":20,"span":5,"encoder":"88178","distractor":"38178","target":"present","response":"present","rt":"1321.4000000954","correct":true,"confidence":-1},{"trial_n":21,"span":6,"encoder":"652295","distractor":"672295","target":"absent","response":"absent","rt":"1878.7999999523","correct":true,"confidence":4},{"trial_n":22,"span":6,"encoder":"126295","distractor":"136295","target":"absent","response":"present","rt":"3384.2000000477","correct":false,"confidence":3},{"trial_n":23,"span":5,"encoder":"68015","distractor":"68035","target":"absent","response":"absent","rt":"1994","correct":true,"confidence":5},{"trial_n":24,"span":5,"encoder":"50274","distractor":"50278","target":"present","response":"present","rt":"1630.7999999523","correct":true,"confidence":5},{"trial_n":25,"span":6,"encoder":"843453","distractor":"853453","target":"present","response":"present","rt":"2689.1999999285","correct":true,"confidence":5},{"trial_n":26,"span":6,"encoder":"106399","distractor":"126399","target":"present","response":"present","rt":"1919.2999999523","correct":true,"confidence":4},{"trial_n":27,"span":7,"encoder":"2533607","distractor":"9533607","target":"absent","response":"absent","rt":"2139.1000000238","correct":true,"confidence":3},{"trial_n":28,"span":7,"encoder":"5931293","distractor":"5934293","target":"absent","response":"absent","rt":"2050.5","correct":true,"confidence":3},{"trial_n":29,"span":8,"encoder":"91223282","distractor":"41223282","target":"present","response":"present","rt":"2036.1000000238","correct":true,"confidence":4},{"trial_n":30,"span":8,"encoder":"21526284","distractor":"21536284","target":"present","response":"present","rt":"2281.2999999523","correct":true,"confidence":4},{"trial_n":31,"span":9,"encoder":"233302552","distractor":"233302550","target":"present","response":"present","rt":"1309.1999999285","correct":true,"confidence":3},{"trial_n":32,"span":9,"encoder":"041039352","distractor":"041039312","target":"present","response":"present","rt":"2691.8999999762","correct":true,"confidence":2},{"trial_n":33,"span":10,"encoder":"5037775670","distractor":"5037775677","target":"absent","response":"present","rt":"2144","correct":false,"confidence":3},{"trial_n":34,"span":9,"encoder":"570407365","distractor":"570457365","target":"present","response":"absent","rt":"4131","correct":false,"confidence":3},{"trial_n":35,"span":8,"encoder":"61532128","distractor":"66532128","target":"present","response":"present","rt":"1997.1000000238","correct":true,"confidence":4},{"trial_n":36,"span":8,"encoder":"43172530","distractor":"47172530","target":"present","response":"present","rt":"4234.5","correct":true,"confidence":5},{"trial_n":37,"span":9,"encoder":"870718477","distractor":"870718977","target":"present","response":"present","rt":"4610","correct":true,"confidence":4},{"trial_n":38,"span":9,"encoder":"926415058","distractor":"926435058","target":"absent","response":"absent","rt":"1888.5999999046","correct":true,"confidence":3},{"trial_n":39,"span":10,"encoder":"4855176534","distractor":"4555176534","target":"present","response":"absent","rt":"3286.6000000238","correct":false,"confidence":4},{"trial_n":40,"span":9,"encoder":"309219137","distractor":"309219107","target":"absent","response":"absent","rt":"4026.2000000477","correct":true,"confidence":3},{"trial_n":41,"span":9,"encoder":"613125252","distractor":"617125252","target":"absent","response":"absent","rt":"1955.3999999762","correct":true,"confidence":3},{"trial_n":42,"span":10,"encoder":"2798305651","distractor":"2798105651","target":"present","response":"absent","rt":"3070.3000000715","correct":false,"confidence":2},{"trial_n":43,"span":9,"encoder":"889431854","distractor":"882431854","target":"absent","response":"absent","rt":"3582.9000000954","correct":true,"confidence":3},{"trial_n":44,"span":9,"encoder":"216262378","distractor":"212262378","target":"absent","response":"present","rt":"2604.5","correct":false,"confidence":4},{"trial_n":45,"span":8,"encoder":"00550783","distractor":"00559783","target":"present","response":"present","rt":"1407.8999999762","correct":true,"confidence":4},{"trial_n":46,"span":8,"encoder":"78780570","distractor":"48780570","target":"absent","response":"absent","rt":"7445.2999999523","correct":true,"confidence":5},{"trial_n":47,"span":9,"encoder":"435294709","distractor":"435294729","target":"present","response":"absent","rt":"3621.2999999523","correct":false,"confidence":5},{"trial_n":48,"span":8,"encoder":"22642521","distractor":"22642523","target":"present","response":"present","rt":"2140","correct":true,"confidence":5},{"trial_n":49,"span":8,"encoder":"71122849","distractor":"71122249","target":"absent","response":"present","rt":"4429.7000000477","correct":false,"confidence":3},{"trial_n":50,"span":7,"encoder":"0249887","distractor":"0949887","target":"present","response":"present","rt":"1757","correct":true,"confidence":5},{"trial_n":51,"span":7,"encoder":"0671068","distractor":"0678068","target":"absent","response":"present","rt":"2664.3000000715","correct":false,"confidence":3},{"trial_n":52,"span":6,"encoder":"348916","distractor":"378916","target":"absent","response":"present","rt":"1522.2000000477","correct":false,"confidence":4},{"trial_n":53,"span":5,"encoder":"07490","distractor":"05490","target":"absent","response":"absent","rt":"3346","correct":true,"confidence":4},{"trial_n":54,"span":5,"encoder":"94446","distractor":"94441","target":"absent","response":"absent","rt":"1546.6000000238","correct":true,"confidence":5},{"trial_n":55,"span":6,"encoder":"114731","distractor":"114741","target":"present","response":"absent","rt":"1731.8999999762","correct":false,"confidence":2},{"trial_n":56,"span":5,"encoder":"99284","distractor":"99294","target":"absent","response":"present","rt":"1634.0999999046","correct":false,"confidence":4},{"trial_n":57,"span":4,"encoder":"2988","distractor":"0988","target":"present","response":"present","rt":"1270.9000000954","correct":true,"confidence":5},{"trial_n":58,"span":4,"encoder":"1683","distractor":"1283","target":"absent","response":"absent","rt":"1559.3999999762","correct":true,"confidence":5},{"trial_n":59,"span":5,"encoder":"75739","distractor":"75709","target":"present","response":"present","rt":"1679.7999999523","correct":true,"confidence":5},{"trial_n":60,"span":5,"encoder":"69149","distractor":"29149","target":"absent","response":"absent","rt":"1601.5","correct":true,"confidence":5},{"trial_n":61,"span":6,"encoder":"700830","distractor":"700890","target":"present","response":"present","rt":"2059.7999999523","correct":true,"confidence":5},{"trial_n":62,"span":6,"encoder":"591201","distractor":"591291","target":"present","response":"present","rt":"1516.2999999523","correct":true,"confidence":5},{"trial_n":63,"span":7,"encoder":"6925240","distractor":"6945240","target":"absent","response":"absent","rt":"3311.2999999523","correct":true,"confidence":3},{"trial_n":64,"span":7,"encoder":"0321415","distractor":"0321485","target":"absent","response":"absent","rt":"1759.2999999523","correct":true,"confidence":5},{"trial_n":65,"span":8,"encoder":"59734089","distractor":"59434089","target":"present","response":"present","rt":"4678.1999999285","correct":true,"confidence":3},{"trial_n":66,"span":8,"encoder":"17912481","distractor":"17112481","target":"present","response":"present","rt":"1422.5","correct":true,"confidence":4},{"trial_n":67,"span":9,"encoder":"649787624","distractor":"649487624","target":"absent","response":"present","rt":"2959.8999999762","correct":false,"confidence":4},{"trial_n":68,"span":8,"encoder":"98871013","distractor":"91871013","target":"absent","response":"absent","rt":"2886.7999999523","correct":true,"confidence":5},{"trial_n":69,"span":8,"encoder":"35669364","distractor":"05669364","target":"present","response":"present","rt":"1346.6000000238","correct":true,"confidence":3},{"trial_n":70,"span":9,"encoder":"148363295","distractor":"148363995","target":"present","response":"present","rt":"2702.4000000954","correct":true,"confidence":3},{"trial_n":71,"span":8,"encoder":"57888724","distractor":"53888724","target":"present","response":"present","rt":"3760.5","correct":true,"confidence":-1},{"trial_n":72,"span":8,"encoder":"51019065","distractor":"52019065","target":"present","response":"present","rt":"2467.5999999046","correct":true,"confidence":-1},{"trial_n":73,"span":9,"encoder":"819697769","distractor":"819697069","target":"absent","response":"absent","rt":"5956.6999999285","correct":true,"confidence":-1},{"trial_n":74,"span":9,"encoder":"119293386","distractor":"119203386","target":"absent","response":"present","rt":"4090.2999999523","correct":false,"confidence":-1},{"trial_n":75,"span":8,"encoder":"40463978","distractor":"40463972","target":"present","response":"present","rt":"1424.3999999762","correct":true,"confidence":-1},{"trial_n":76,"span":8,"encoder":"57428587","distractor":"57428087","target":"absent","response":"absent","rt":"2038.7000000477","correct":true,"confidence":-1},{"trial_n":77,"span":9,"encoder":"670316671","distractor":"610316671","target":"absent","response":"present","rt":"1295.1999999285","correct":false,"confidence":-1},{"trial_n":78,"span":8,"encoder":"58331836","distractor":"56331836","target":"present","response":"present","rt":"5103.8000000715","correct":true,"confidence":-1},{"trial_n":79,"span":8,"encoder":"62923566","distractor":"62928566","target":"absent","response":"absent","rt":"1656.1000000238","correct":true,"confidence":-1},{"trial_n":80,"span":9,"encoder":"221775091","distractor":"221775891","target":"present","response":"present","rt":"596.80000007153","correct":true,"confidence":-1},{"trial_n":81,"span":9,"encoder":"906452836","distractor":"902452836","target":"absent","response":"absent","rt":"1913","correct":true,"confidence":-1},{"trial_n":82,"span":10,"encoder":"1478086448","distractor":"1478089448","target":"absent","response":"absent","rt":"1872.7000000477","correct":true,"confidence":-1},{"trial_n":83,"span":10,"encoder":"4775161336","distractor":"4775161330","target":"absent","response":"absent","rt":"941","correct":true,"confidence":-1},{"trial_n":84,"span":11,"encoder":"82466769961","distractor":"42466769961","target":"absent","response":"present","rt":"1843","correct":false,"confidence":-1},{"trial_n":85,"span":10,"encoder":"0133374636","distractor":"0130374636","target":"present","response":"present","rt":"1724.9000000954","correct":true,"confidence":-1},{"trial_n":86,"span":10,"encoder":"0333773758","distractor":"0333873758","target":"absent","response":"present","rt":"709.19999992847","correct":false,"confidence":-1},{"trial_n":87,"span":9,"encoder":"984697250","distractor":"980697250","target":"present","response":"present","rt":"10958.199999928","correct":true,"confidence":-1},{"trial_n":88,"span":9,"encoder":"712867313","distractor":"712467313","target":"absent","response":"present","rt":"3920.7000000477","correct":false,"confidence":-1},{"trial_n":89,"span":8,"encoder":"93390339","distractor":"90390339","target":"absent","response":"present","rt":"872.10000002384","correct":false,"confidence":-1},{"trial_n":90,"span":7,"encoder":"5242940","distractor":"0242940","target":"present","response":"absent","rt":"1191.2999999523","correct":false,"confidence":-1},{"trial_n":91,"span":6,"encoder":"278444","distractor":"278404","target":"absent","response":"absent","rt":"1663.4000000954","correct":true,"confidence":5},{"trial_n":92,"span":6,"encoder":"082237","distractor":"072237","target":"absent","response":"absent","rt":"1504.2000000477","correct":true,"confidence":5},{"trial_n":93,"span":7,"encoder":"9637920","distractor":"9630920","target":"present","response":"absent","rt":"2194.6000000238","correct":false,"confidence":4},{"trial_n":94,"span":6,"encoder":"184074","distractor":"484074","target":"absent","response":"absent","rt":"1717.1000000238","correct":true,"confidence":4},{"trial_n":95,"span":6,"encoder":"213332","distractor":"213333","target":"absent","response":"absent","rt":"2186","correct":true,"confidence":5},{"trial_n":96,"span":7,"encoder":"5840193","distractor":"5840793","target":"absent","response":"absent","rt":"2768.1999999285","correct":true,"confidence":5},{"trial_n":97,"span":7,"encoder":"8346290","distractor":"8346280","target":"present","response":"present","rt":"3579.5","correct":true,"confidence":5},{"trial_n":98,"span":8,"encoder":"33732477","distractor":"13732477","target":"absent","response":"absent","rt":"3854.7000000477","correct":true,"confidence":5},{"trial_n":99,"span":8,"encoder":"98016198","distractor":"98016199","target":"absent","response":"absent","rt":"2361.7000000477","correct":true,"confidence":5},{"trial_n":100,"span":9,"encoder":"616896269","distractor":"616896239","target":"present","response":"absent","rt":"9440.7999999523","correct":false,"confidence":2},{"trial_n":101,"span":8,"encoder":"24130359","distractor":"24130339","target":"present","response":"present","rt":"2594.7999999523","correct":true,"confidence":5},{"trial_n":102,"span":8,"encoder":"19247572","distractor":"19241572","target":"present","response":"present","rt":"10726.100000024","correct":true,"confidence":4},{"trial_n":103,"span":9,"encoder":"999829181","distractor":"999829381","target":"present","response":"present","rt":"4625.2000000477","correct":true,"confidence":5},{"trial_n":104,"span":9,"encoder":"829984797","distractor":"829985797","target":"absent","response":"absent","rt":"2758","correct":true,"confidence":5},{"trial_n":105,"span":10,"encoder":"3984004422","distractor":"2984004422","target":"present","response":"present","rt":"5336.9000000954","correct":true,"confidence":4},{"trial_n":106,"span":10,"encoder":"5034936497","distractor":"5014936497","target":"present","response":"present","rt":"7205.4000000954","correct":true,"confidence":3},{"trial_n":107,"span":11,"encoder":"52362779974","distractor":"59362779974","target":"present","response":"absent","rt":"4997.7999999523","correct":false,"confidence":2},{"trial_n":108,"span":10,"encoder":"5775770235","distractor":"5775770205","target":"present","response":"present","rt":"3678.5","correct":true,"confidence":4},{"trial_n":109,"span":10,"encoder":"2076656468","distractor":"2076656488","target":"present","response":"present","rt":"5693.3000000715","correct":true,"confidence":4},{"trial_n":110,"span":11,"encoder":"36847060813","distractor":"36842060813","target":"absent","response":"present","rt":"7991","correct":false,"confidence":2},{"trial_n":111,"span":10,"encoder":"7622604079","distractor":"7622608079","target":"present","response":"present","rt":"4911.5","correct":true,"confidence":4},{"trial_n":112,"span":10,"encoder":"7538526489","distractor":"7538566489","target":"present","response":"present","rt":"4203.8999999762","correct":true,"confidence":3},{"trial_n":113,"span":11,"encoder":"47572351860","distractor":"47542351860","target":"present","response":"present","rt":"10335.200000048","correct":true,"confidence":3},{"trial_n":114,"span":11,"encoder":"80929878189","distractor":"90929878189","target":"absent","response":"absent","rt":"1764.7000000477","correct":true,"confidence":2},{"trial_n":115,"span":12,"encoder":"903117935782","distractor":"903117435782","target":"present","response":"present","rt":"5298","correct":true,"confidence":3},{"trial_n":116,"span":12,"encoder":"906337759691","distractor":"906337759091","target":"present","response":"present","rt":"4908.1999999285","correct":true,"confidence":5},{"trial_n":117,"span":13,"encoder":"6032371509996","distractor":"0032371509996","target":"present","response":"present","rt":"4288.1000000238","correct":true,"confidence":4},{"trial_n":118,"span":13,"encoder":"7237067534027","distractor":"7237007534027","target":"present","response":"absent","rt":"2055","correct":false,"confidence":1},{"trial_n":119,"span":12,"encoder":"297092443223","distractor":"297092443233","target":"absent","response":"absent","rt":"7642.1000000238","correct":true,"confidence":3},{"trial_n":120,"span":12,"encoder":"424262734931","distractor":"424262730931","target":"absent","response":"present","rt":"8465.2000000477","correct":false,"confidence":4},{"trial_n":121,"span":11,"encoder":"18918254633","distractor":"18918294633","target":"absent","response":"absent","rt":"4057.2000000477","correct":true,"confidence":3},{"trial_n":122,"span":11,"encoder":"06448075598","distractor":"06448675598","target":"absent","response":"present","rt":"3190.5","correct":false,"confidence":4},{"trial_n":123,"span":10,"encoder":"4396579576","distractor":"4296579576","target":"present","response":"present","rt":"6241.2000000477","correct":true,"confidence":3},{"trial_n":124,"span":10,"encoder":"9781987492","distractor":"9786987492","target":"absent","response":"present","rt":"3344.2999999523","correct":false,"confidence":3},{"trial_n":125,"span":9,"encoder":"908090197","distractor":"906090197","target":"present","response":"present","rt":"5064.7999999523","correct":true,"confidence":5},{"trial_n":126,"span":9,"encoder":"893009392","distractor":"893509392","target":"present","response":"present","rt":"2863.3999999762","correct":true,"confidence":4},{"trial_n":127,"span":10,"encoder":"5179716296","distractor":"5179766296","target":"present","response":"present","rt":"5127.6000000238","correct":true,"confidence":4},{"trial_n":128,"span":10,"encoder":"7785603551","distractor":"6785603551","target":"absent","response":"absent","rt":"3060.5999999046","correct":true,"confidence":3},{"trial_n":129,"span":11,"encoder":"88832488605","distractor":"81832488605","target":"present","response":"present","rt":"6931.9000000954","correct":true,"confidence":5},{"trial_n":130,"span":11,"encoder":"56660037616","distractor":"56660037612","target":"absent","response":"absent","rt":"3028","correct":true,"confidence":4},{"trial_n":131,"span":12,"encoder":"899293342738","distractor":"899293382738","target":"absent","response":"present","rt":"1774.3999999762","correct":false,"confidence":1},{"trial_n":132,"span":11,"encoder":"04997772630","distractor":"04995772630","target":"absent","response":"absent","rt":"3584.2000000477","correct":true,"confidence":4},{"trial_n":133,"span":11,"encoder":"50147732759","distractor":"51147732759","target":"present","response":"present","rt":"2452.3999999762","correct":true,"confidence":5},{"trial_n":134,"span":12,"encoder":"627577585662","distractor":"623577585662","target":"present","response":"present","rt":"3507.2000000477","correct":true,"confidence":3},{"trial_n":135,"span":12,"encoder":"278993662277","distractor":"278993262277","target":"present","response":"present","rt":"8605.6000000238","correct":true,"confidence":4},{"trial_n":136,"span":13,"encoder":"6365002593931","distractor":"6365002593911","target":"present","response":"present","rt":"15253.799999952","correct":true,"confidence":5},{"trial_n":137,"span":13,"encoder":"4018161837463","distractor":"4018164837463","target":"absent","response":"present","rt":"9032.3999999762","correct":false,"confidence":2},{"trial_n":138,"span":12,"encoder":"299928582323","distractor":"296928582323","target":"present","response":"present","rt":"2399.4000000954","correct":true,"confidence":5},{"trial_n":139,"span":12,"encoder":"609746231072","distractor":"609746234072","target":"absent","response":"absent","rt":"4431.1999999285","correct":true,"confidence":3},{"trial_n":140,"span":13,"encoder":"8895828400739","distractor":"8845828400739","target":"absent","response":"absent","rt":"4005","correct":true,"confidence":3}]