[{"trial_n":1,"n_dots":4.25,"target":"right","response":"right","rt":3436.8999999762,"correct":true,"confidence":-1},{"trial_n":2,"n_dots":4.25,"target":"left","response":"right","rt":564.20000004768,"correct":false,"confidence":-1},{"trial_n":3,"n_dots":4.65,"target":"right","response":"right","rt":520,"correct":true,"confidence":-1},{"trial_n":4,"n_dots":4.65,"target":"left","response":"left","rt":367.80000007153,"correct":true,"confidence":-1},{"trial_n":5,"n_dots":4.25,"target":"right","response":"right","rt":443,"correct":true,"confidence":-1},{"trial_n":6,"n_dots":4.25,"target":"right","response":"right","rt":366.60000002384,"correct":true,"confidence":-1},{"trial_n":7,"n_dots":3.85,"target":"left","response":"left","rt":384,"correct":true,"confidence":-1},{"trial_n":8,"n_dots":3.85,"target":"right","response":"right","rt":436.29999995232,"correct":true,"confidence":-1},{"trial_n":9,"n_dots":3.65,"target":"right","response":"right","rt":905.10000002384,"correct":true,"confidence":-1},{"trial_n":10,"n_dots":3.65,"target":"right","response":"right","rt":627.29999995232,"correct":true,"confidence":-1},{"trial_n":11,"n_dots":3.45,"target":"left","response":"right","rt":468.80000007153,"correct":false,"confidence":-1},{"trial_n":12,"n_dots":3.65,"target":"left","response":"left","rt":453,"correct":true,"confidence":-1},{"trial_n":13,"n_dots":3.65,"target":"left","response":"left","rt":120.69999992847,"correct":true,"confidence":-1},{"trial_n":14,"n_dots":3.55,"target":"right","response":"right","rt":128.19999992847,"correct":true,"confidence":-1},{"trial_n":15,"n_dots":3.55,"target":"left","response":"left","rt":97.399999976158,"correct":true,"confidence":-1},{"trial_n":16,"n_dots":3.45,"target":"left","response":"left","rt":171.10000002384,"correct":true,"confidence":-1},{"trial_n":17,"n_dots":3.45,"target":"left","response":"left","rt":678.20000004768,"correct":true,"confidence":-1},{"trial_n":18,"n_dots":3.35,"target":"left","response":"left","rt":31.300000071526,"correct":true,"confidence":-1},{"trial_n":19,"n_dots":3.35,"target":"left","response":"left","rt":26.099999904633,"correct":true,"confidence":-1},{"trial_n":20,"n_dots":3.25,"target":"right","response":"right","rt":209.89999997616,"correct":true,"confidence":-1},{"trial_n":21,"n_dots":3.25,"target":"left","response":"left","rt":210,"correct":true,"confidence":3},{"trial_n":22,"n_dots":3.15,"target":"left","response":"left","rt":54.100000023842,"correct":true,"confidence":4},{"trial_n":23,"n_dots":3.15,"target":"right","response":"left","rt":1454.8000000715,"correct":false,"confidence":3},{"trial_n":24,"n_dots":3.25,"target":"right","response":"left","rt":943.30000007153,"correct":false,"confidence":5},{"trial_n":25,"n_dots":3.35,"target":"right","response":"right","rt":348.29999995232,"correct":true,"confidence":5},{"trial_n":26,"n_dots":3.35,"target":"right","response":"right","rt":691.39999997616,"correct":true,"confidence":5},{"trial_n":27,"n_dots":3.25,"target":"right","response":"left","rt":77.300000071526,"correct":false,"confidence":5},{"trial_n":28,"n_dots":3.35,"target":"right","response":"right","rt":553.10000002384,"correct":true,"confidence":4},{"trial_n":29,"n_dots":3.35,"target":"right","response":"left","rt":1027.6999999285,"correct":false,"confidence":3},{"trial_n":30,"n_dots":3.45,"target":"right","response":"right","rt":395.60000002384,"correct":true,"confidence":5},{"trial_n":31,"n_dots":3.45,"target":"right","response":"right","rt":316.29999995232,"correct":true,"confidence":5},{"trial_n":32,"n_dots":3.35,"target":"left","response":"left","rt":1024.6999999285,"correct":true,"confidence":5},{"trial_n":33,"n_dots":3.35,"target":"left","response":"left","rt":280.20000004768,"correct":true,"confidence":4},{"trial_n":34,"n_dots":3.25,"target":"right","response":"right","rt":51.5,"correct":true,"confidence":5},{"trial_n":35,"n_dots":3.25,"target":"left","response":"left","rt":337.79999995232,"correct":true,"confidence":3},{"trial_n":36,"n_dots":3.15,"target":"right","response":"right","rt":255.80000007153,"correct":true,"confidence":5},{"trial_n":37,"n_dots":3.15,"target":"left","response":"right","rt":728.30000007153,"correct":false,"confidence":4},{"trial_n":38,"n_dots":3.25,"target":"left","response":"right","rt":410.10000002384,"correct":false,"confidence":5},{"trial_n":39,"n_dots":3.35,"target":"left","response":"left","rt":212.39999997616,"correct":true,"confidence":5},{"trial_n":40,"n_dots":3.35,"target":"left","response":"left","rt":215.89999997616,"correct":true,"confidence":5},{"trial_n":41,"n_dots":3.25,"target":"left","response":"left","rt":672,"correct":true,"confidence":5},{"trial_n":42,"n_dots":3.25,"target":"left","response":"left","rt":672.20000004768,"correct":true,"confidence":5},{"trial_n":43,"n_dots":3.15,"target":"right","response":"right","rt":673.79999995232,"correct":true,"confidence":5},{"trial_n":44,"n_dots":3.15,"target":"left","response":"left","rt":290.5,"correct":true,"confidence":5},{"trial_n":45,"n_dots":3.05,"target":"right","response":"right","rt":625.29999995232,"correct":true,"confidence":4},{"trial_n":46,"n_dots":3.05,"target":"left","response":"left","rt":276.79999995232,"correct":true,"confidence":5},{"trial_n":47,"n_dots":2.95,"target":"left","response":"left","rt":921.20000004768,"correct":true,"confidence":5},{"trial_n":48,"n_dots":2.95,"target":"left","response":"left","rt":355.5,"correct":true,"confidence":5},{"trial_n":49,"n_dots":2.85,"target":"left","response":"left","rt":260.5,"correct":true,"confidence":4},{"trial_n":50,"n_dots":2.85,"target":"right","response":"left","rt":461.89999997616,"correct":false,"confidence":3},{"trial_n":51,"n_dots":2.95,"target":"left","response":"left","rt":197.5,"correct":true,"confidence":4},{"trial_n":52,"n_dots":2.95,"target":"left","response":"right","rt":1010.8000000715,"correct":false,"confidence":2},{"trial_n":53,"n_dots":3.05,"target":"left","response":"left","rt":361.39999997616,"correct":true,"confidence":4},{"trial_n":54,"n_dots":3.05,"target":"right","response":"right","rt":683.20000004768,"correct":true,"confidence":3},{"trial_n":55,"n_dots":2.95,"target":"right","response":"right","rt":326.60000002384,"correct":true,"confidence":4},{"trial_n":56,"n_dots":2.95,"target":"right","response":"right","rt":290.90000009537,"correct":true,"confidence":4},{"trial_n":57,"n_dots":2.85,"target":"right","response":"right","rt":751.09999990463,"correct":true,"confidence":3},{"trial_n":58,"n_dots":2.85,"target":"right","response":"right","rt":298.10000002384,"correct":true,"confidence":5},{"trial_n":59,"n_dots":2.75,"target":"right","response":"right","rt":1152.8999999762,"correct":true,"confidence":5},{"trial_n":60,"n_dots":2.75,"target":"left","response":"right","rt":67.5,"correct":false,"confidence":4},{"trial_n":61,"n_dots":2.85,"target":"right","response":"right","rt":421.19999992847,"correct":true,"confidence":4},{"trial_n":62,"n_dots":2.85,"target":"left","response":"right","rt":394.89999997616,"correct":false,"confidence":4},{"trial_n":63,"n_dots":2.95,"target":"right","response":"right","rt":624.39999997616,"correct":true,"confidence":3},{"trial_n":64,"n_dots":2.95,"target":"right","response":"right","rt":386.89999997616,"correct":true,"confidence":3},{"trial_n":65,"n_dots":2.85,"target":"left","response":"left","rt":856.39999997616,"correct":true,"confidence":3},{"trial_n":66,"n_dots":2.85,"target":"right","response":"right","rt":498.70000004768,"correct":true,"confidence":4},{"trial_n":67,"n_dots":2.75,"target":"left","response":"right","rt":652.29999995232,"correct":false,"confidence":3},{"trial_n":68,"n_dots":2.85,"target":"right","response":"right","rt":436.29999995232,"correct":true,"confidence":4},{"trial_n":69,"n_dots":2.85,"target":"left","response":"right","rt":642.60000002384,"correct":false,"confidence":3},{"trial_n":70,"n_dots":2.95,"target":"left","response":"right","rt":503.80000007153,"correct":false,"confidence":3},{"trial_n":71,"n_dots":3.05,"target":"left","response":"right","rt":453.79999995232,"correct":false,"confidence":3},{"trial_n":72,"n_dots":3.15,"target":"right","response":"right","rt":247.90000009537,"correct":true,"confidence":4},{"trial_n":73,"n_dots":3.15,"target":"right","response":"right","rt":578.79999995232,"correct":true,"confidence":3},{"trial_n":74,"n_dots":3.05,"target":"left","response":"right","rt":519.59999990463,"correct":false,"confidence":3},{"trial_n":75,"n_dots":3.15,"target":"right","response":"right","rt":982.20000004768,"correct":true,"confidence":2},{"trial_n":76,"n_dots":3.15,"target":"right","response":"left","rt":642.5,"correct":false,"confidence":1},{"trial_n":77,"n_dots":3.25,"target":"left","response":"left","rt":833.10000002384,"correct":true,"confidence":1},{"trial_n":78,"n_dots":3.25,"target":"left","response":"left","rt":766,"correct":true,"confidence":3},{"trial_n":79,"n_dots":3.15,"target":"right","response":"right","rt":621.69999992847,"correct":true,"confidence":5},{"trial_n":80,"n_dots":3.15,"target":"right","response":"right","rt":1688.3999999762,"correct":true,"confidence":3},{"trial_n":81,"n_dots":3.05,"target":"left","response":"right","rt":564.29999995232,"correct":false,"confidence":4},{"trial_n":82,"n_dots":3.15,"target":"right","response":"right","rt":86.200000047684,"correct":true,"confidence":4},{"trial_n":83,"n_dots":3.15,"target":"right","response":"right","rt":117.39999997616,"correct":true,"confidence":4},{"trial_n":84,"n_dots":3.05,"target":"left","response":"left","rt":929.5,"correct":true,"confidence":4},{"trial_n":85,"n_dots":3.05,"target":"left","response":"right","rt":197.10000002384,"correct":false,"confidence":3},{"trial_n":86,"n_dots":3.15,"target":"left","response":"left","rt":808.89999997616,"correct":true,"confidence":4},{"trial_n":87,"n_dots":3.15,"target":"left","response":"left","rt":299.70000004768,"correct":true,"confidence":5},{"trial_n":88,"n_dots":3.05,"target":"left","response":"left","rt":653.90000009537,"correct":true,"confidence":4},{"trial_n":89,"n_dots":3.05,"target":"right","response":"right","rt":653.29999995232,"correct":true,"confidence":4},{"trial_n":90,"n_dots":2.95,"target":"left","response":"left","rt":562.80000007153,"correct":true,"confidence":3},{"trial_n":91,"n_dots":2.95,"target":"right","response":"right","rt":627.39999997616,"correct":true,"confidence":4},{"trial_n":92,"n_dots":2.85,"target":"left","response":"left","rt":72.099999904633,"correct":true,"confidence":3},{"trial_n":93,"n_dots":2.85,"target":"right","response":"left","rt":29.799999952316,"correct":false,"confidence":2},{"trial_n":94,"n_dots":2.95,"target":"left","response":"right","rt":296.19999992847,"correct":false,"confidence":4},{"trial_n":95,"n_dots":3.05,"target":"right","response":"right","rt":41.299999952316,"correct":true,"confidence":4},{"trial_n":96,"n_dots":3.05,"target":"left","response":"left","rt":654.79999995232,"correct":true,"confidence":4},{"trial_n":97,"n_dots":2.95,"target":"left","response":"left","rt":338.30000007153,"correct":true,"confidence":4},{"trial_n":98,"n_dots":2.95,"target":"right","response":"right","rt":77.200000047684,"correct":true,"confidence":4},{"trial_n":99,"n_dots":2.85,"target":"right","response":"right","rt":162.10000002384,"correct":true,"confidence":3},{"trial_n":100,"n_dots":2.85,"target":"left","response":"right","rt":635.10000002384,"correct":false,"confidence":3},{"trial_n":101,"n_dots":2.95,"target":"right","response":"right","rt":18.899999976158,"correct":true,"confidence":4},{"trial_n":102,"n_dots":2.95,"target":"left","response":"right","rt":572.5,"correct":false,"confidence":3},{"trial_n":103,"n_dots":3.05,"target":"left","response":"left","rt":386.20000004768,"correct":true,"confidence":3},{"trial_n":104,"n_dots":3.05,"target":"right","response":"right","rt":460,"correct":true,"confidence":5},{"trial_n":105,"n_dots":2.95,"target":"left","response":"left","rt":324.39999997616,"correct":true,"confidence":5},{"trial_n":106,"n_dots":2.95,"target":"left","response":"left","rt":301.80000007153,"correct":true,"confidence":3},{"trial_n":107,"n_dots":2.85,"target":"right","response":"right","rt":1.6000000238419,"correct":true,"confidence":4},{"trial_n":108,"n_dots":2.85,"target":"left","response":"right","rt":412.70000004768,"correct":false,"confidence":3},{"trial_n":109,"n_dots":2.95,"target":"left","response":"right","rt":49.100000023842,"correct":false,"confidence":3},{"trial_n":110,"n_dots":3.05,"target":"right","response":"right","rt":787.79999995232,"correct":true,"confidence":3},{"trial_n":111,"n_dots":3.05,"target":"right","response":"right","rt":323.39999997616,"correct":true,"confidence":3},{"trial_n":112,"n_dots":2.95,"target":"left","response":"left","rt":134.29999995232,"correct":true,"confidence":4},{"trial_n":113,"n_dots":2.95,"target":"right","response":"left","rt":250,"correct":false,"confidence":4},{"trial_n":114,"n_dots":3.05,"target":"right","response":"right","rt":634.70000004768,"correct":true,"confidence":5},{"trial_n":115,"n_dots":3.05,"target":"right","response":"left","rt":258.5,"correct":false,"confidence":4},{"trial_n":116,"n_dots":3.15,"target":"right","response":"right","rt":139.10000002384,"correct":true,"confidence":4},{"trial_n":117,"n_dots":3.15,"target":"right","response":"right","rt":26.300000071526,"correct":true,"confidence":5},{"trial_n":118,"n_dots":3.05,"target":"right","response":"right","rt":178,"correct":true,"confidence":5},{"trial_n":119,"n_dots":3.05,"target":"right","response":"right","rt":166.79999995232,"correct":true,"confidence":5},{"trial_n":120,"n_dots":2.95,"target":"left","response":"left","rt":219.60000002384,"correct":true,"confidence":5}]