[{"trial_n":1,"min":25,"max":230,"target":"present","response":"present","rt":10054.4,"correct":true,"confidence":-1},{"trial_n":2,"min":25,"max":230,"target":"present","response":"present","rt":4034.6000000001,"correct":true,"confidence":-1},{"trial_n":3,"min":41,"max":214,"target":"absent","response":"absent","rt":9658.2999999998,"correct":true,"confidence":-1},{"trial_n":4,"min":41,"max":214,"target":"absent","response":"absent","rt":734.5,"correct":true,"confidence":-1},{"trial_n":5,"min":57,"max":198,"target":"present","response":"present","rt":1431.1999999997,"correct":true,"confidence":-1},{"trial_n":6,"min":57,"max":198,"target":"absent","response":"absent","rt":1525.2999999998,"correct":true,"confidence":-1},{"trial_n":7,"min":73,"max":182,"target":"absent","response":"absent","rt":1216.5,"correct":true,"confidence":-1},{"trial_n":8,"min":73,"max":182,"target":"absent","response":"absent","rt":442.30000000028,"correct":true,"confidence":-1},{"trial_n":9,"min":89,"max":166,"target":"absent","response":"absent","rt":366.60000000009,"correct":true,"confidence":-1},{"trial_n":10,"min":89,"max":166,"target":"absent","response":"absent","rt":586.89999999991,"correct":true,"confidence":-1},{"trial_n":11,"min":97,"max":158,"target":"present","response":"absent","rt":245.89999999991,"correct":false,"confidence":-1},{"trial_n":12,"min":89,"max":166,"target":"absent","response":"absent","rt":320.70000000019,"correct":true,"confidence":-1},{"trial_n":13,"min":89,"max":166,"target":"present","response":"absent","rt":578.60000000009,"correct":false,"confidence":-1},{"trial_n":14,"min":81,"max":174,"target":"absent","response":"absent","rt":245.39999999991,"correct":true,"confidence":-1},{"trial_n":15,"min":81,"max":174,"target":"present","response":"absent","rt":648.19999999972,"correct":false,"confidence":-1},{"trial_n":16,"min":73,"max":182,"target":"absent","response":"absent","rt":224.29999999981,"correct":true,"confidence":-1},{"trial_n":17,"min":73,"max":182,"target":"present","response":"absent","rt":253.10000000009,"correct":false,"confidence":-1},{"trial_n":18,"min":65,"max":190,"target":"present","response":"absent","rt":130.40000000037,"correct":false,"confidence":-1},{"trial_n":19,"min":57,"max":198,"target":"absent","response":"absent","rt":265.89999999991,"correct":true,"confidence":-1},{"trial_n":20,"min":57,"max":198,"target":"present","response":"present","rt":1690.1000000001,"correct":true,"confidence":-1},{"trial_n":21,"min":61,"max":194,"target":"present","response":"present","rt":2202.7000000002,"correct":true,"confidence":5},{"trial_n":22,"min":61,"max":194,"target":"present","response":"present","rt":1663.6000000001,"correct":true,"confidence":5},{"trial_n":23,"min":65,"max":190,"target":"present","response":"absent","rt":1594,"correct":false,"confidence":4},{"trial_n":24,"min":61,"max":194,"target":"absent","response":"absent","rt":1300.7000000002,"correct":true,"confidence":2},{"trial_n":25,"min":61,"max":194,"target":"absent","response":"absent","rt":1150,"correct":true,"confidence":5},{"trial_n":26,"min":65,"max":190,"target":"present","response":"present","rt":2621.6000000001,"correct":true,"confidence":5},{"trial_n":27,"min":65,"max":190,"target":"present","response":"present","rt":1769.2000000002,"correct":true,"confidence":5},{"trial_n":28,"min":69,"max":186,"target":"present","response":"absent","rt":1640.7999999998,"correct":false,"confidence":3},{"trial_n":29,"min":65,"max":190,"target":"present","response":"absent","rt":2705.3000000003,"correct":false,"confidence":1},{"trial_n":30,"min":61,"max":194,"target":"present","response":"present","rt":1410.3999999999,"correct":true,"confidence":5},{"trial_n":31,"min":61,"max":194,"target":"present","response":"present","rt":2394.5,"correct":true,"confidence":3},{"trial_n":32,"min":63,"max":192,"target":"absent","response":"absent","rt":2229.2999999998,"correct":true,"confidence":4},{"trial_n":33,"min":63,"max":192,"target":"absent","response":"absent","rt":1649.1000000001,"correct":true,"confidence":5},{"trial_n":34,"min":65,"max":190,"target":"present","response":"absent","rt":1229.5,"correct":false,"confidence":3},{"trial_n":35,"min":63,"max":192,"target":"present","response":"present","rt":1768,"correct":true,"confidence":2},{"trial_n":36,"min":63,"max":192,"target":"present","response":"present","rt":1730.6000000001,"correct":true,"confidence":1},{"trial_n":37,"min":65,"max":190,"target":"absent","response":"absent","rt":1295.5999999996,"correct":true,"confidence":5},{"trial_n":38,"min":65,"max":190,"target":"absent","response":"absent","rt":1215.6000000001,"correct":true,"confidence":5},{"trial_n":39,"min":67,"max":188,"target":"present","response":"present","rt":1561.1000000001,"correct":true,"confidence":5},{"trial_n":40,"min":67,"max":188,"target":"present","response":"absent","rt":1270,"correct":false,"confidence":1},{"trial_n":41,"min":66,"max":189,"target":"present","response":"absent","rt":1220.6000000001,"correct":false,"confidence":2},{"trial_n":42,"min":65,"max":190,"target":"absent","response":"absent","rt":1279.9000000004,"correct":true,"confidence":2},{"trial_n":43,"min":65,"max":190,"target":"absent","response":"absent","rt":1356.8000000003,"correct":true,"confidence":4},{"trial_n":44,"min":66,"max":189,"target":"present","response":"present","rt":1708.2000000002,"correct":true,"confidence":1},{"trial_n":45,"min":66,"max":189,"target":"absent","response":"absent","rt":1144,"correct":true,"confidence":5},{"trial_n":46,"min":67,"max":188,"target":"present","response":"present","rt":1486.6999999997,"correct":true,"confidence":5},{"trial_n":47,"min":67,"max":188,"target":"present","response":"present","rt":1203.1000000001,"correct":true,"confidence":5},{"trial_n":48,"min":68,"max":187,"target":"absent","response":"absent","rt":1445,"correct":true,"confidence":5},{"trial_n":49,"min":68,"max":187,"target":"absent","response":"absent","rt":1230.5,"correct":true,"confidence":5},{"trial_n":50,"min":69,"max":186,"target":"absent","response":"absent","rt":1188.6000000001,"correct":true,"confidence":5},{"trial_n":51,"min":69,"max":186,"target":"absent","response":"absent","rt":1107.3999999999,"correct":true,"confidence":5},{"trial_n":52,"min":70,"max":185,"target":"present","response":"present","rt":1324.2000000002,"correct":true,"confidence":5},{"trial_n":53,"min":70,"max":185,"target":"absent","response":"absent","rt":1153.1000000001,"correct":true,"confidence":1},{"trial_n":54,"min":71,"max":184,"target":"absent","response":"absent","rt":988.09999999963,"correct":true,"confidence":2},{"trial_n":55,"min":71,"max":184,"target":"absent","response":"absent","rt":1170,"correct":true,"confidence":3},{"trial_n":56,"min":72,"max":183,"target":"absent","response":"absent","rt":1039.2999999998,"correct":true,"confidence":2},{"trial_n":57,"min":72,"max":183,"target":"present","response":"present","rt":1329.7999999998,"correct":true,"confidence":1},{"trial_n":58,"min":73,"max":182,"target":"absent","response":"absent","rt":2331.5,"correct":true,"confidence":3},{"trial_n":59,"min":73,"max":182,"target":"present","response":"present","rt":1222.2999999998,"correct":true,"confidence":5},{"trial_n":60,"min":74,"max":181,"target":"present","response":"present","rt":1196.2000000002,"correct":true,"confidence":5},{"trial_n":61,"min":74,"max":181,"target":"present","response":"present","rt":1217.1000000001,"correct":true,"confidence":3},{"trial_n":62,"min":75,"max":180,"target":"absent","response":"present","rt":1096.8999999999,"correct":false,"confidence":2},{"trial_n":63,"min":74,"max":181,"target":"present","response":"absent","rt":1070.2999999998,"correct":false,"confidence":4},{"trial_n":64,"min":73,"max":182,"target":"absent","response":"absent","rt":1078.2000000002,"correct":true,"confidence":2},{"trial_n":65,"min":73,"max":182,"target":"present","response":"absent","rt":986.79999999981,"correct":false,"confidence":5},{"trial_n":66,"min":72,"max":183,"target":"present","response":"absent","rt":1040.8999999999,"correct":false,"confidence":5},{"trial_n":67,"min":71,"max":184,"target":"absent","response":"absent","rt":951.39999999991,"correct":true,"confidence":5},{"trial_n":68,"min":71,"max":184,"target":"present","response":"absent","rt":1363.7999999998,"correct":false,"confidence":4},{"trial_n":69,"min":70,"max":185,"target":"absent","response":"absent","rt":1091.5999999996,"correct":true,"confidence":3},{"trial_n":70,"min":70,"max":185,"target":"absent","response":"absent","rt":1004,"correct":true,"confidence":5},{"trial_n":71,"min":41,"max":214,"target":"present","response":"absent","rt":14082.1,"correct":false,"confidence":-1},{"trial_n":72,"min":41,"max":214,"target":"present","response":"present","rt":792.59999999963,"correct":true,"confidence":-1},{"trial_n":73,"min":41,"max":214,"target":"absent","response":"absent","rt":1217.1000000006,"correct":true,"confidence":-1},{"trial_n":74,"min":57,"max":198,"target":"absent","response":"absent","rt":465.70000000019,"correct":true,"confidence":-1},{"trial_n":75,"min":57,"max":198,"target":"present","response":"absent","rt":917.09999999963,"correct":false,"confidence":-1},{"trial_n":76,"min":41,"max":214,"target":"absent","response":"absent","rt":636.79999999981,"correct":true,"confidence":-1},{"trial_n":77,"min":41,"max":214,"target":"absent","response":"absent","rt":506.39999999944,"correct":true,"confidence":-1},{"trial_n":78,"min":57,"max":198,"target":"present","response":"present","rt":335.90000000037,"correct":true,"confidence":-1},{"trial_n":79,"min":57,"max":198,"target":"present","response":"present","rt":628.79999999981,"correct":true,"confidence":-1},{"trial_n":80,"min":73,"max":182,"target":"absent","response":"absent","rt":478.59999999963,"correct":true,"confidence":-1},{"trial_n":81,"min":73,"max":182,"target":"present","response":"present","rt":1237.2000000002,"correct":true,"confidence":-1},{"trial_n":82,"min":81,"max":174,"target":"present","response":"present","rt":663,"correct":true,"confidence":-1},{"trial_n":83,"min":81,"max":174,"target":"present","response":"present","rt":379.19999999925,"correct":true,"confidence":-1},{"trial_n":84,"min":89,"max":166,"target":"absent","response":"present","rt":593.5,"correct":false,"confidence":-1},{"trial_n":85,"min":81,"max":174,"target":"absent","response":"absent","rt":391.09999999963,"correct":true,"confidence":-1},{"trial_n":86,"min":81,"max":174,"target":"absent","response":"present","rt":454.20000000019,"correct":false,"confidence":-1},{"trial_n":87,"min":73,"max":182,"target":"absent","response":"absent","rt":380.5,"correct":true,"confidence":-1},{"trial_n":88,"min":73,"max":182,"target":"present","response":"absent","rt":348.20000000019,"correct":false,"confidence":-1},{"trial_n":89,"min":65,"max":190,"target":"present","response":"present","rt":511.10000000056,"correct":true,"confidence":-1},{"trial_n":90,"min":65,"max":190,"target":"absent","response":"absent","rt":591.90000000037,"correct":true,"confidence":-1},{"trial_n":91,"min":69,"max":186,"target":"absent","response":"present","rt":2148.1000000006,"correct":false,"confidence":2},{"trial_n":92,"min":65,"max":190,"target":"absent","response":"absent","rt":2355.9000000004,"correct":true,"confidence":5},{"trial_n":93,"min":65,"max":190,"target":"present","response":"present","rt":615,"correct":true,"confidence":5},{"trial_n":94,"min":69,"max":186,"target":"present","response":"present","rt":180.69999999925,"correct":true,"confidence":3},{"trial_n":95,"min":69,"max":186,"target":"present","response":"present","rt":525.5,"correct":true,"confidence":1},{"trial_n":96,"min":73,"max":182,"target":"present","response":"absent","rt":490.70000000019,"correct":false,"confidence":5},{"trial_n":97,"min":69,"max":186,"target":"absent","response":"present","rt":778.79999999981,"correct":false,"confidence":4},{"trial_n":98,"min":65,"max":190,"target":"present","response":"absent","rt":494.90000000037,"correct":false,"confidence":4},{"trial_n":99,"min":61,"max":194,"target":"absent","response":"present","rt":1071.6000000006,"correct":false,"confidence":3},{"trial_n":100,"min":57,"max":198,"target":"absent","response":"absent","rt":397.20000000019,"correct":true,"confidence":3},{"trial_n":101,"min":57,"max":198,"target":"absent","response":"present","rt":1066.3999999994,"correct":false,"confidence":2},{"trial_n":102,"min":55,"max":200,"target":"present","response":"present","rt":745,"correct":true,"confidence":4},{"trial_n":103,"min":55,"max":200,"target":"absent","response":"absent","rt":1067.3999999994,"correct":true,"confidence":4},{"trial_n":104,"min":57,"max":198,"target":"present","response":"present","rt":703.40000000037,"correct":true,"confidence":4},{"trial_n":105,"min":57,"max":198,"target":"present","response":"absent","rt":1205.2999999998,"correct":false,"confidence":1},{"trial_n":106,"min":55,"max":200,"target":"present","response":"present","rt":1224.5,"correct":true,"confidence":5},{"trial_n":107,"min":55,"max":200,"target":"present","response":"present","rt":939.5,"correct":true,"confidence":4},{"trial_n":108,"min":57,"max":198,"target":"present","response":"present","rt":785.09999999963,"correct":true,"confidence":4},{"trial_n":109,"min":57,"max":198,"target":"absent","response":"absent","rt":918.60000000056,"correct":true,"confidence":4},{"trial_n":110,"min":59,"max":196,"target":"absent","response":"absent","rt":1238.8000000007,"correct":true,"confidence":3},{"trial_n":111,"min":59,"max":196,"target":"absent","response":"absent","rt":1032.7999999998,"correct":true,"confidence":3},{"trial_n":112,"min":60,"max":195,"target":"present","response":"present","rt":468.79999999981,"correct":true,"confidence":3},{"trial_n":113,"min":60,"max":195,"target":"absent","response":"absent","rt":479.90000000037,"correct":true,"confidence":3},{"trial_n":114,"min":61,"max":194,"target":"present","response":"present","rt":786.20000000019,"correct":true,"confidence":4},{"trial_n":115,"min":61,"max":194,"target":"present","response":"present","rt":1225.7999999998,"correct":true,"confidence":4},{"trial_n":116,"min":62,"max":193,"target":"present","response":"absent","rt":501.40000000037,"correct":false,"confidence":4},{"trial_n":117,"min":61,"max":194,"target":"present","response":"present","rt":964.39999999944,"correct":true,"confidence":4},{"trial_n":118,"min":61,"max":194,"target":"absent","response":"absent","rt":1302.5,"correct":true,"confidence":3},{"trial_n":119,"min":62,"max":193,"target":"absent","response":"absent","rt":928.20000000019,"correct":true,"confidence":5},{"trial_n":120,"min":62,"max":193,"target":"absent","response":"present","rt":1301.4000000004,"correct":false,"confidence":4},{"trial_n":121,"min":61,"max":194,"target":"present","response":"present","rt":817.20000000019,"correct":true,"confidence":2},{"trial_n":122,"min":61,"max":194,"target":"absent","response":"absent","rt":413.40000000037,"correct":true,"confidence":3},{"trial_n":123,"min":62,"max":193,"target":"absent","response":"absent","rt":457.5,"correct":true,"confidence":5},{"trial_n":124,"min":62,"max":193,"target":"present","response":"present","rt":353.90000000037,"correct":true,"confidence":4},{"trial_n":125,"min":63,"max":192,"target":"present","response":"present","rt":516.5,"correct":true,"confidence":4},{"trial_n":126,"min":63,"max":192,"target":"absent","response":"absent","rt":550.70000000019,"correct":true,"confidence":4},{"trial_n":127,"min":64,"max":191,"target":"present","response":"present","rt":332.39999999944,"correct":true,"confidence":1},{"trial_n":128,"min":64,"max":191,"target":"present","response":"present","rt":492.10000000056,"correct":true,"confidence":3},{"trial_n":129,"min":65,"max":190,"target":"absent","response":"absent","rt":1038.6999999993,"correct":true,"confidence":5},{"trial_n":130,"min":65,"max":190,"target":"absent","response":"absent","rt":1364.2000000002,"correct":true,"confidence":5},{"trial_n":131,"min":66,"max":189,"target":"absent","response":"absent","rt":1226.5,"correct":true,"confidence":4},{"trial_n":132,"min":66,"max":189,"target":"present","response":"absent","rt":1006.2000000002,"correct":false,"confidence":5},{"trial_n":133,"min":65,"max":190,"target":"present","response":"present","rt":1441.7000000002,"correct":true,"confidence":5},{"trial_n":134,"min":65,"max":190,"target":"absent","response":"absent","rt":1243.4000000004,"correct":true,"confidence":5},{"trial_n":135,"min":66,"max":189,"target":"absent","response":"absent","rt":1386.5,"correct":true,"confidence":4},{"trial_n":136,"min":66,"max":189,"target":"present","response":"present","rt":1264.7999999998,"correct":true,"confidence":5},{"trial_n":137,"min":67,"max":188,"target":"absent","response":"absent","rt":1260.3999999994,"correct":true,"confidence":3},{"trial_n":138,"min":67,"max":188,"target":"present","response":"present","rt":1306.0999999996,"correct":true,"confidence":1},{"trial_n":139,"min":68,"max":187,"target":"present","response":"absent","rt":1191.5999999996,"correct":false,"confidence":4},{"trial_n":140,"min":67,"max":188,"target":"absent","response":"absent","rt":557.10000000056,"correct":true,"confidence":4}]