[{"trial_n":1,"n_dots":4.25,"target":"right","response":"left","rt":5949.1000000015,"correct":false,"confidence":-1},{"trial_n":2,"n_dots":4.25,"target":"left","response":"left","rt":627.19999999925,"correct":true,"confidence":-1},{"trial_n":3,"n_dots":4.25,"target":"left","response":"left","rt":446.59999999776,"correct":true,"confidence":-1},{"trial_n":4,"n_dots":3.85,"target":"right","response":"right","rt":619.70000000298,"correct":true,"confidence":-1},{"trial_n":5,"n_dots":3.85,"target":"right","response":"right","rt":437.29999999702,"correct":true,"confidence":-1},{"trial_n":6,"n_dots":3.45,"target":"right","response":"left","rt":1234.5,"correct":false,"confidence":-1},{"trial_n":7,"n_dots":3.85,"target":"right","response":"right","rt":376.80000000075,"correct":true,"confidence":-1},{"trial_n":8,"n_dots":3.85,"target":"left","response":"left","rt":427.19999999925,"correct":true,"confidence":-1},{"trial_n":9,"n_dots":3.65,"target":"right","response":"right","rt":370.30000000075,"correct":true,"confidence":-1},{"trial_n":10,"n_dots":3.65,"target":"left","response":"left","rt":275.79999999702,"correct":true,"confidence":-1},{"trial_n":11,"n_dots":3.45,"target":"left","response":"left","rt":223.10000000149,"correct":true,"confidence":-1},{"trial_n":12,"n_dots":3.45,"target":"right","response":"right","rt":921,"correct":true,"confidence":-1},{"trial_n":13,"n_dots":3.35,"target":"left","response":"left","rt":427.19999999925,"correct":true,"confidence":-1},{"trial_n":14,"n_dots":3.35,"target":"right","response":"left","rt":333.89999999851,"correct":false,"confidence":-1},{"trial_n":15,"n_dots":3.45,"target":"right","response":"right","rt":389.19999999925,"correct":true,"confidence":-1},{"trial_n":16,"n_dots":3.45,"target":"left","response":"left","rt":964.80000000075,"correct":true,"confidence":-1},{"trial_n":17,"n_dots":3.35,"target":"left","response":"left","rt":577.70000000298,"correct":true,"confidence":-1},{"trial_n":18,"n_dots":3.35,"target":"left","response":"left","rt":315.60000000149,"correct":true,"confidence":-1},{"trial_n":19,"n_dots":3.25,"target":"left","response":"left","rt":640,"correct":true,"confidence":-1},{"trial_n":20,"n_dots":3.25,"target":"right","response":"right","rt":574.5,"correct":true,"confidence":-1},{"trial_n":21,"n_dots":3.15,"target":"right","response":"left","rt":258.90000000224,"correct":false,"confidence":3},{"trial_n":22,"n_dots":3.25,"target":"left","response":"left","rt":550.70000000298,"correct":true,"confidence":4},{"trial_n":23,"n_dots":3.25,"target":"right","response":"left","rt":848.5,"correct":false,"confidence":4},{"trial_n":24,"n_dots":3.35,"target":"left","response":"left","rt":770,"correct":true,"confidence":4},{"trial_n":25,"n_dots":3.35,"target":"right","response":"left","rt":1179,"correct":false,"confidence":4},{"trial_n":26,"n_dots":3.45,"target":"right","response":"right","rt":1266.1000000015,"correct":true,"confidence":2},{"trial_n":27,"n_dots":3.45,"target":"left","response":"left","rt":581.69999999925,"correct":true,"confidence":3},{"trial_n":28,"n_dots":3.35,"target":"right","response":"right","rt":1373.8000000007,"correct":true,"confidence":3},{"trial_n":29,"n_dots":3.35,"target":"left","response":"left","rt":1426.1999999993,"correct":true,"confidence":3},{"trial_n":30,"n_dots":3.25,"target":"right","response":"left","rt":883.39999999851,"correct":false,"confidence":4},{"trial_n":31,"n_dots":3.35,"target":"left","response":"right","rt":1219.799999997,"correct":false,"confidence":3},{"trial_n":32,"n_dots":3.45,"target":"right","response":"left","rt":1565.5,"correct":false,"confidence":2},{"trial_n":33,"n_dots":3.55,"target":"left","response":"left","rt":2936.6999999993,"correct":true,"confidence":2},{"trial_n":34,"n_dots":3.55,"target":"right","response":"left","rt":527.69999999925,"correct":false,"confidence":1},{"trial_n":35,"n_dots":3.65,"target":"right","response":"right","rt":2158.8999999985,"correct":true,"confidence":2},{"trial_n":36,"n_dots":3.65,"target":"right","response":"left","rt":1369.5,"correct":false,"confidence":2},{"trial_n":37,"n_dots":3.75,"target":"right","response":"left","rt":1368.5999999978,"correct":false,"confidence":1},{"trial_n":38,"n_dots":3.85,"target":"right","response":"left","rt":4383.0999999978,"correct":false,"confidence":1},{"trial_n":39,"n_dots":3.95,"target":"right","response":"left","rt":1140.8999999985,"correct":false,"confidence":3},{"trial_n":40,"n_dots":4.05,"target":"left","response":"left","rt":1196.5999999978,"correct":true,"confidence":5},{"trial_n":41,"n_dots":4.05,"target":"left","response":"left","rt":1116.5,"correct":true,"confidence":4},{"trial_n":42,"n_dots":3.95,"target":"left","response":"left","rt":650.30000000075,"correct":true,"confidence":4},{"trial_n":43,"n_dots":3.95,"target":"left","response":"left","rt":766.69999999925,"correct":true,"confidence":4},{"trial_n":44,"n_dots":3.85,"target":"right","response":"left","rt":2551.8000000007,"correct":false,"confidence":1},{"trial_n":45,"n_dots":3.95,"target":"left","response":"left","rt":708.20000000298,"correct":true,"confidence":5},{"trial_n":46,"n_dots":3.95,"target":"right","response":"right","rt":912.20000000298,"correct":true,"confidence":3},{"trial_n":47,"n_dots":3.85,"target":"left","response":"left","rt":352.80000000075,"correct":true,"confidence":4},{"trial_n":48,"n_dots":3.85,"target":"right","response":"right","rt":1615.1999999993,"correct":true,"confidence":1},{"trial_n":49,"n_dots":3.75,"target":"left","response":"left","rt":614.69999999925,"correct":true,"confidence":3},{"trial_n":50,"n_dots":3.75,"target":"right","response":"left","rt":796.10000000149,"correct":false,"confidence":2},{"trial_n":51,"n_dots":3.85,"target":"left","response":"left","rt":380.69999999925,"correct":true,"confidence":3},{"trial_n":52,"n_dots":3.85,"target":"left","response":"left","rt":760.30000000075,"correct":true,"confidence":3},{"trial_n":53,"n_dots":3.75,"target":"right","response":"left","rt":900.79999999702,"correct":false,"confidence":3},{"trial_n":54,"n_dots":3.85,"target":"left","response":"left","rt":591.19999999925,"correct":true,"confidence":4},{"trial_n":55,"n_dots":3.85,"target":"left","response":"left","rt":1906.6999999993,"correct":true,"confidence":3},{"trial_n":56,"n_dots":3.75,"target":"left","response":"left","rt":1916.6999999993,"correct":true,"confidence":4},{"trial_n":57,"n_dots":3.75,"target":"left","response":"left","rt":884.30000000075,"correct":true,"confidence":4},{"trial_n":58,"n_dots":3.65,"target":"right","response":"left","rt":1141.6000000015,"correct":false,"confidence":2},{"trial_n":59,"n_dots":3.75,"target":"right","response":"right","rt":777.19999999925,"correct":true,"confidence":2},{"trial_n":60,"n_dots":3.75,"target":"left","response":"left","rt":849.69999999925,"correct":true,"confidence":4},{"trial_n":61,"n_dots":3.65,"target":"right","response":"right","rt":507.10000000149,"correct":true,"confidence":3},{"trial_n":62,"n_dots":3.65,"target":"left","response":"left","rt":775.39999999851,"correct":true,"confidence":4},{"trial_n":63,"n_dots":3.55,"target":"right","response":"left","rt":1674.6999999993,"correct":false,"confidence":3},{"trial_n":64,"n_dots":3.65,"target":"right","response":"right","rt":604.10000000149,"correct":true,"confidence":4},{"trial_n":65,"n_dots":3.65,"target":"left","response":"left","rt":565.5,"correct":true,"confidence":2},{"trial_n":66,"n_dots":3.55,"target":"left","response":"left","rt":571.80000000075,"correct":true,"confidence":2},{"trial_n":67,"n_dots":3.55,"target":"left","response":"left","rt":1952.3999999985,"correct":true,"confidence":3},{"trial_n":68,"n_dots":3.45,"target":"left","response":"left","rt":1055.1999999993,"correct":true,"confidence":2},{"trial_n":69,"n_dots":3.45,"target":"right","response":"left","rt":3168.1999999993,"correct":false,"confidence":2},{"trial_n":70,"n_dots":3.55,"target":"right","response":"right","rt":1021,"correct":true,"confidence":4},{"trial_n":71,"n_dots":3.55,"target":"right","response":"right","rt":1353.3000000007,"correct":true,"confidence":3},{"trial_n":72,"n_dots":3.45,"target":"right","response":"right","rt":838.90000000224,"correct":true,"confidence":3},{"trial_n":73,"n_dots":3.45,"target":"right","response":"left","rt":1336.6000000015,"correct":false,"confidence":2},{"trial_n":74,"n_dots":3.55,"target":"left","response":"left","rt":546.29999999702,"correct":true,"confidence":2},{"trial_n":75,"n_dots":3.55,"target":"left","response":"left","rt":483.30000000075,"correct":true,"confidence":2},{"trial_n":76,"n_dots":3.45,"target":"right","response":"left","rt":914.10000000149,"correct":false,"confidence":3},{"trial_n":77,"n_dots":3.55,"target":"left","response":"left","rt":1189.6999999993,"correct":true,"confidence":1},{"trial_n":78,"n_dots":3.55,"target":"left","response":"left","rt":1317,"correct":true,"confidence":5},{"trial_n":79,"n_dots":3.45,"target":"right","response":"left","rt":812.5,"correct":false,"confidence":5},{"trial_n":80,"n_dots":3.55,"target":"right","response":"left","rt":814.29999999702,"correct":false,"confidence":4},{"trial_n":81,"n_dots":3.65,"target":"left","response":"left","rt":595,"correct":true,"confidence":4},{"trial_n":82,"n_dots":3.65,"target":"right","response":"right","rt":720.39999999851,"correct":true,"confidence":4},{"trial_n":83,"n_dots":3.55,"target":"left","response":"left","rt":639.10000000149,"correct":true,"confidence":3},{"trial_n":84,"n_dots":3.55,"target":"left","response":"left","rt":810.39999999851,"correct":true,"confidence":2},{"trial_n":85,"n_dots":3.45,"target":"left","response":"right","rt":665.5,"correct":false,"confidence":3},{"trial_n":86,"n_dots":3.55,"target":"right","response":"right","rt":3770.8999999985,"correct":true,"confidence":1},{"trial_n":87,"n_dots":3.55,"target":"left","response":"left","rt":1218.6000000015,"correct":true,"confidence":3},{"trial_n":88,"n_dots":3.45,"target":"left","response":"left","rt":901.69999999925,"correct":true,"confidence":3},{"trial_n":89,"n_dots":3.45,"target":"left","response":"left","rt":2067.299999997,"correct":true,"confidence":3},{"trial_n":90,"n_dots":3.35,"target":"right","response":"right","rt":812.80000000075,"correct":true,"confidence":2},{"trial_n":91,"n_dots":3.35,"target":"right","response":"right","rt":1507.6999999993,"correct":true,"confidence":2},{"trial_n":92,"n_dots":3.25,"target":"right","response":"right","rt":919.30000000075,"correct":true,"confidence":2},{"trial_n":93,"n_dots":3.25,"target":"left","response":"left","rt":725.69999999925,"correct":true,"confidence":3},{"trial_n":94,"n_dots":3.15,"target":"left","response":"left","rt":2189.5,"correct":true,"confidence":3},{"trial_n":95,"n_dots":3.15,"target":"left","response":"left","rt":1568.8000000007,"correct":true,"confidence":2},{"trial_n":96,"n_dots":3.05,"target":"right","response":"left","rt":1293.1000000015,"correct":false,"confidence":2},{"trial_n":97,"n_dots":3.15,"target":"right","response":"left","rt":880.5,"correct":false,"confidence":3},{"trial_n":98,"n_dots":3.25,"target":"left","response":"right","rt":1203.3000000007,"correct":false,"confidence":2},{"trial_n":99,"n_dots":3.35,"target":"right","response":"right","rt":1024.8000000007,"correct":true,"confidence":2},{"trial_n":100,"n_dots":3.35,"target":"left","response":"left","rt":899.40000000224,"correct":true,"confidence":3},{"trial_n":101,"n_dots":3.25,"target":"right","response":"right","rt":578.69999999925,"correct":true,"confidence":2},{"trial_n":102,"n_dots":3.25,"target":"left","response":"right","rt":850.19999999925,"correct":false,"confidence":3},{"trial_n":103,"n_dots":3.35,"target":"left","response":"right","rt":1015.6999999993,"correct":false,"confidence":2},{"trial_n":104,"n_dots":3.45,"target":"right","response":"right","rt":284.30000000075,"correct":true,"confidence":3},{"trial_n":105,"n_dots":3.45,"target":"right","response":"right","rt":680.69999999925,"correct":true,"confidence":4},{"trial_n":106,"n_dots":3.35,"target":"right","response":"right","rt":871.5,"correct":true,"confidence":4},{"trial_n":107,"n_dots":3.35,"target":"left","response":"right","rt":1396.8000000007,"correct":false,"confidence":3},{"trial_n":108,"n_dots":3.45,"target":"left","response":"left","rt":574.40000000224,"correct":true,"confidence":2},{"trial_n":109,"n_dots":3.45,"target":"left","response":"right","rt":1036.5999999978,"correct":false,"confidence":2},{"trial_n":110,"n_dots":3.55,"target":"right","response":"right","rt":1188,"correct":true,"confidence":2},{"trial_n":111,"n_dots":3.55,"target":"right","response":"right","rt":897,"correct":true,"confidence":2},{"trial_n":112,"n_dots":3.45,"target":"right","response":"right","rt":1185.1000000015,"correct":true,"confidence":2},{"trial_n":113,"n_dots":3.45,"target":"left","response":"left","rt":1284,"correct":true,"confidence":2},{"trial_n":114,"n_dots":3.35,"target":"left","response":"left","rt":844.39999999851,"correct":true,"confidence":1},{"trial_n":115,"n_dots":3.35,"target":"right","response":"left","rt":15655.100000001,"correct":false,"confidence":1},{"trial_n":116,"n_dots":3.45,"target":"right","response":"right","rt":624.5,"correct":true,"confidence":4},{"trial_n":117,"n_dots":3.45,"target":"left","response":"right","rt":861.59999999776,"correct":false,"confidence":2},{"trial_n":118,"n_dots":3.55,"target":"left","response":"left","rt":565.69999999925,"correct":true,"confidence":2},{"trial_n":119,"n_dots":3.55,"target":"right","response":"right","rt":608.40000000224,"correct":true,"confidence":3},{"trial_n":120,"n_dots":3.45,"target":"right","response":"right","rt":207.40000000224,"correct":true,"confidence":3}]