[{"trial_n":1,"min":25,"max":230,"target":"present","response":"present","rt":5072.7999999523,"correct":true,"confidence":-1},{"trial_n":2,"min":25,"max":230,"target":"present","response":"present","rt":1474.1999999285,"correct":true,"confidence":-1},{"trial_n":3,"min":41,"max":214,"target":"absent","response":"present","rt":474.39999997616,"correct":false,"confidence":-1},{"trial_n":4,"min":25,"max":230,"target":"absent","response":"present","rt":3118.7000000477,"correct":false,"confidence":-1},{"trial_n":5,"min":9,"max":246,"target":"present","response":"present","rt":1870.7000000477,"correct":true,"confidence":-1},{"trial_n":6,"min":9,"max":246,"target":"present","response":"present","rt":474.20000004768,"correct":true,"confidence":-1},{"trial_n":7,"min":25,"max":230,"target":"present","response":"present","rt":443.19999992847,"correct":true,"confidence":-1},{"trial_n":8,"min":25,"max":230,"target":"absent","response":"absent","rt":975.5,"correct":true,"confidence":-1},{"trial_n":9,"min":41,"max":214,"target":"present","response":"present","rt":628.60000002384,"correct":true,"confidence":-1},{"trial_n":10,"min":41,"max":214,"target":"absent","response":"absent","rt":834.70000004768,"correct":true,"confidence":-1},{"trial_n":11,"min":49,"max":206,"target":"present","response":"present","rt":729,"correct":true,"confidence":-1},{"trial_n":12,"min":49,"max":206,"target":"absent","response":"absent","rt":659.79999995232,"correct":true,"confidence":-1},{"trial_n":13,"min":57,"max":198,"target":"absent","response":"absent","rt":734.19999992847,"correct":true,"confidence":-1},{"trial_n":14,"min":57,"max":198,"target":"absent","response":"absent","rt":515.19999992847,"correct":true,"confidence":-1},{"trial_n":15,"min":65,"max":190,"target":"present","response":"present","rt":1241,"correct":true,"confidence":-1},{"trial_n":16,"min":65,"max":190,"target":"absent","response":"absent","rt":823.30000007153,"correct":true,"confidence":-1},{"trial_n":17,"min":73,"max":182,"target":"absent","response":"absent","rt":1100.7000000477,"correct":true,"confidence":-1},{"trial_n":18,"min":73,"max":182,"target":"absent","response":"absent","rt":483.39999997616,"correct":true,"confidence":-1},{"trial_n":19,"min":81,"max":174,"target":"present","response":"present","rt":1359.5,"correct":true,"confidence":-1},{"trial_n":20,"min":81,"max":174,"target":"absent","response":"absent","rt":1376.1000000238,"correct":true,"confidence":-1},{"trial_n":21,"min":85,"max":170,"target":"absent","response":"absent","rt":1041.7000000477,"correct":true,"confidence":5},{"trial_n":22,"min":85,"max":170,"target":"absent","response":"absent","rt":856.90000009537,"correct":true,"confidence":5},{"trial_n":23,"min":89,"max":166,"target":"present","response":"present","rt":719.60000002384,"correct":true,"confidence":5},{"trial_n":24,"min":89,"max":166,"target":"present","response":"absent","rt":828.5,"correct":false,"confidence":4},{"trial_n":25,"min":85,"max":170,"target":"absent","response":"absent","rt":744.20000004768,"correct":true,"confidence":5},{"trial_n":26,"min":85,"max":170,"target":"absent","response":"absent","rt":1209.2000000477,"correct":true,"confidence":4},{"trial_n":27,"min":89,"max":166,"target":"present","response":"present","rt":806.5,"correct":true,"confidence":4},{"trial_n":28,"min":89,"max":166,"target":"present","response":"present","rt":1002,"correct":true,"confidence":3},{"trial_n":29,"min":93,"max":162,"target":"present","response":"present","rt":1567.8000000715,"correct":true,"confidence":3},{"trial_n":30,"min":93,"max":162,"target":"present","response":"absent","rt":1096.6999999285,"correct":false,"confidence":3},{"trial_n":31,"min":91,"max":164,"target":"present","response":"present","rt":2013.5999999046,"correct":true,"confidence":3},{"trial_n":32,"min":91,"max":164,"target":"absent","response":"absent","rt":703.69999992847,"correct":true,"confidence":3},{"trial_n":33,"min":93,"max":162,"target":"absent","response":"absent","rt":878,"correct":true,"confidence":4},{"trial_n":34,"min":93,"max":162,"target":"present","response":"absent","rt":1169.2999999523,"correct":false,"confidence":4},{"trial_n":35,"min":91,"max":164,"target":"present","response":"absent","rt":866.79999995232,"correct":false,"confidence":4},{"trial_n":36,"min":89,"max":166,"target":"present","response":"present","rt":691.20000004768,"correct":true,"confidence":5},{"trial_n":37,"min":89,"max":166,"target":"present","response":"absent","rt":2257.6000000238,"correct":false,"confidence":5},{"trial_n":38,"min":87,"max":168,"target":"absent","response":"absent","rt":896.39999997616,"correct":true,"confidence":3},{"trial_n":39,"min":87,"max":168,"target":"present","response":"present","rt":1326.9000000954,"correct":true,"confidence":5},{"trial_n":40,"min":89,"max":166,"target":"absent","response":"absent","rt":806.90000009537,"correct":true,"confidence":5},{"trial_n":41,"min":89,"max":166,"target":"present","response":"present","rt":908.19999992847,"correct":true,"confidence":3},{"trial_n":42,"min":90,"max":165,"target":"present","response":"present","rt":862.89999997616,"correct":true,"confidence":4},{"trial_n":43,"min":90,"max":165,"target":"absent","response":"present","rt":1090.7000000477,"correct":false,"confidence":5},{"trial_n":44,"min":89,"max":166,"target":"absent","response":"present","rt":1176.1000000238,"correct":false,"confidence":5},{"trial_n":45,"min":88,"max":167,"target":"absent","response":"present","rt":1600.8000000715,"correct":false,"confidence":2},{"trial_n":46,"min":87,"max":168,"target":"absent","response":"absent","rt":1283.5,"correct":true,"confidence":2},{"trial_n":47,"min":87,"max":168,"target":"absent","response":"present","rt":819.39999997616,"correct":false,"confidence":3},{"trial_n":48,"min":86,"max":169,"target":"present","response":"present","rt":1902.2999999523,"correct":true,"confidence":3},{"trial_n":49,"min":86,"max":169,"target":"present","response":"present","rt":635.5,"correct":true,"confidence":5},{"trial_n":50,"min":87,"max":168,"target":"present","response":"present","rt":617.10000002384,"correct":true,"confidence":4},{"trial_n":51,"min":87,"max":168,"target":"present","response":"present","rt":761.69999992847,"correct":true,"confidence":4},{"trial_n":52,"min":88,"max":167,"target":"present","response":"absent","rt":1138.2000000477,"correct":false,"confidence":3},{"trial_n":53,"min":87,"max":168,"target":"present","response":"present","rt":588.59999990463,"correct":true,"confidence":2},{"trial_n":54,"min":87,"max":168,"target":"present","response":"present","rt":598.79999995232,"correct":true,"confidence":2},{"trial_n":55,"min":88,"max":167,"target":"present","response":"present","rt":806.79999995232,"correct":true,"confidence":3},{"trial_n":56,"min":88,"max":167,"target":"present","response":"absent","rt":2201.2999999523,"correct":false,"confidence":3},{"trial_n":57,"min":87,"max":168,"target":"absent","response":"present","rt":1745.2000000477,"correct":false,"confidence":4},{"trial_n":58,"min":86,"max":169,"target":"absent","response":"present","rt":859.10000002384,"correct":false,"confidence":4},{"trial_n":59,"min":85,"max":170,"target":"absent","response":"present","rt":1067.1000000238,"correct":false,"confidence":4},{"trial_n":60,"min":84,"max":171,"target":"present","response":"present","rt":1033.6000000238,"correct":true,"confidence":5},{"trial_n":61,"min":84,"max":171,"target":"absent","response":"present","rt":842.5,"correct":false,"confidence":5},{"trial_n":62,"min":83,"max":172,"target":"absent","response":"absent","rt":778.19999992847,"correct":true,"confidence":5},{"trial_n":63,"min":83,"max":172,"target":"absent","response":"absent","rt":610.20000004768,"correct":true,"confidence":5},{"trial_n":64,"min":84,"max":171,"target":"present","response":"present","rt":516.20000004768,"correct":true,"confidence":5},{"trial_n":65,"min":84,"max":171,"target":"absent","response":"absent","rt":553.59999990463,"correct":true,"confidence":5},{"trial_n":66,"min":85,"max":170,"target":"absent","response":"absent","rt":917.19999992847,"correct":true,"confidence":4},{"trial_n":67,"min":85,"max":170,"target":"absent","response":"absent","rt":885.60000002384,"correct":true,"confidence":4},{"trial_n":68,"min":86,"max":169,"target":"present","response":"absent","rt":716.19999992847,"correct":false,"confidence":5},{"trial_n":69,"min":85,"max":170,"target":"absent","response":"present","rt":664.39999997616,"correct":false,"confidence":2},{"trial_n":70,"min":84,"max":171,"target":"present","response":"present","rt":611.5,"correct":true,"confidence":3},{"trial_n":71,"min":41,"max":214,"target":"present","response":"present","rt":3163.2000000477,"correct":true,"confidence":-1},{"trial_n":72,"min":41,"max":214,"target":"present","response":"present","rt":2339.6000000238,"correct":true,"confidence":-1},{"trial_n":73,"min":57,"max":198,"target":"absent","response":"absent","rt":1293.3000000715,"correct":true,"confidence":-1},{"trial_n":74,"min":57,"max":198,"target":"absent","response":"absent","rt":1115,"correct":true,"confidence":-1},{"trial_n":75,"min":73,"max":182,"target":"present","response":"present","rt":1354.7000000477,"correct":true,"confidence":-1},{"trial_n":76,"min":73,"max":182,"target":"present","response":"present","rt":691.89999997616,"correct":true,"confidence":-1},{"trial_n":77,"min":89,"max":166,"target":"present","response":"present","rt":1215.5,"correct":true,"confidence":-1},{"trial_n":78,"min":89,"max":166,"target":"absent","response":"absent","rt":720.29999995232,"correct":true,"confidence":-1},{"trial_n":79,"min":105,"max":150,"target":"present","response":"present","rt":1543,"correct":true,"confidence":-1},{"trial_n":80,"min":105,"max":150,"target":"absent","response":"absent","rt":1836.6000000238,"correct":true,"confidence":-1},{"trial_n":81,"min":113,"max":142,"target":"present","response":"present","rt":1121.8999999762,"correct":true,"confidence":-1},{"trial_n":82,"min":113,"max":142,"target":"absent","response":"present","rt":710.5,"correct":false,"confidence":-1},{"trial_n":83,"min":105,"max":150,"target":"absent","response":"absent","rt":1293.2000000477,"correct":true,"confidence":-1},{"trial_n":84,"min":105,"max":150,"target":"absent","response":"absent","rt":961.39999997616,"correct":true,"confidence":-1},{"trial_n":85,"min":113,"max":142,"target":"present","response":"present","rt":807.89999997616,"correct":true,"confidence":-1},{"trial_n":86,"min":113,"max":142,"target":"absent","response":"absent","rt":818.20000004768,"correct":true,"confidence":-1},{"trial_n":87,"min":121,"max":134,"target":"absent","response":"present","rt":590.10000002384,"correct":false,"confidence":-1},{"trial_n":88,"min":121,"max":134,"target":"present","response":"absent","rt":661.09999990463,"correct":false,"confidence":-1},{"trial_n":89,"min":121,"max":134,"target":"present","response":"present","rt":1301.0999999046,"correct":true,"confidence":-1},{"trial_n":90,"min":121,"max":134,"target":"present","response":"present","rt":1018.1999999285,"correct":true,"confidence":-1},{"trial_n":91,"min":125,"max":130,"target":"present","response":"present","rt":1313.9000000954,"correct":true,"confidence":3},{"trial_n":92,"min":125,"max":130,"target":"present","response":"present","rt":635.19999992847,"correct":true,"confidence":4},{"trial_n":93,"min":125,"max":130,"target":"absent","response":"absent","rt":862.20000004768,"correct":true,"confidence":5},{"trial_n":94,"min":125,"max":130,"target":"present","response":"present","rt":685.20000004768,"correct":true,"confidence":5},{"trial_n":95,"min":125,"max":130,"target":"absent","response":"absent","rt":1365.8999999762,"correct":true,"confidence":5},{"trial_n":96,"min":125,"max":130,"target":"absent","response":"absent","rt":767.60000002384,"correct":true,"confidence":5},{"trial_n":97,"min":125,"max":130,"target":"present","response":"present","rt":600.39999997616,"correct":true,"confidence":5},{"trial_n":98,"min":125,"max":130,"target":"present","response":"present","rt":1083,"correct":true,"confidence":5},{"trial_n":99,"min":125,"max":130,"target":"absent","response":"absent","rt":1814.9000000954,"correct":true,"confidence":5},{"trial_n":100,"min":125,"max":130,"target":"absent","response":"absent","rt":866.70000004768,"correct":true,"confidence":5},{"trial_n":101,"min":125,"max":130,"target":"absent","response":"absent","rt":703.5,"correct":true,"confidence":5},{"trial_n":102,"min":125,"max":130,"target":"present","response":"present","rt":703.89999997616,"correct":true,"confidence":5},{"trial_n":103,"min":125,"max":130,"target":"present","response":"present","rt":643.69999992847,"correct":true,"confidence":3},{"trial_n":104,"min":125,"max":130,"target":"present","response":"present","rt":677.69999992847,"correct":true,"confidence":5},{"trial_n":105,"min":125,"max":130,"target":"present","response":"present","rt":1151.3999999762,"correct":true,"confidence":4},{"trial_n":106,"min":125,"max":130,"target":"absent","response":"absent","rt":586.10000002384,"correct":true,"confidence":5},{"trial_n":107,"min":125,"max":130,"target":"present","response":"present","rt":749.5,"correct":true,"confidence":5},{"trial_n":108,"min":125,"max":130,"target":"present","response":"present","rt":1234.8999999762,"correct":true,"confidence":5},{"trial_n":109,"min":125,"max":130,"target":"absent","response":"absent","rt":801,"correct":true,"confidence":5},{"trial_n":110,"min":125,"max":130,"target":"absent","response":"absent","rt":627.89999997616,"correct":true,"confidence":5},{"trial_n":111,"min":126,"max":128,"target":"absent","response":"absent","rt":584.10000002384,"correct":true,"confidence":5},{"trial_n":112,"min":126,"max":128,"target":"absent","response":"absent","rt":935,"correct":true,"confidence":1},{"trial_n":113,"min":126,"max":128,"target":"present","response":"absent","rt":2048.2999999523,"correct":false,"confidence":1},{"trial_n":114,"min":126,"max":128,"target":"present","response":"present","rt":1024.1999999285,"correct":true,"confidence":5},{"trial_n":115,"min":126,"max":128,"target":"absent","response":"absent","rt":678.20000004768,"correct":true,"confidence":5},{"trial_n":116,"min":126,"max":128,"target":"absent","response":"absent","rt":662.39999997616,"correct":true,"confidence":5},{"trial_n":117,"min":126,"max":128,"target":"absent","response":"absent","rt":1182.0999999046,"correct":true,"confidence":5},{"trial_n":118,"min":126,"max":128,"target":"present","response":"present","rt":687.40000009537,"correct":true,"confidence":5},{"trial_n":119,"min":126,"max":128,"target":"present","response":"present","rt":604,"correct":true,"confidence":5},{"trial_n":120,"min":126,"max":128,"target":"present","response":"present","rt":779,"correct":true,"confidence":5},{"trial_n":121,"min":126,"max":128,"target":"present","response":"present","rt":674.80000007153,"correct":true,"confidence":5},{"trial_n":122,"min":126,"max":128,"target":"absent","response":"absent","rt":652,"correct":true,"confidence":5},{"trial_n":123,"min":126,"max":128,"target":"present","response":"present","rt":900.89999997616,"correct":true,"confidence":5},{"trial_n":124,"min":126,"max":128,"target":"present","response":"present","rt":559.59999990463,"correct":true,"confidence":5},{"trial_n":125,"min":126,"max":128,"target":"absent","response":"absent","rt":936.59999990463,"correct":true,"confidence":5},{"trial_n":126,"min":126,"max":128,"target":"present","response":"present","rt":528.30000007153,"correct":true,"confidence":5},{"trial_n":127,"min":126,"max":128,"target":"absent","response":"absent","rt":524,"correct":true,"confidence":5},{"trial_n":128,"min":126,"max":128,"target":"absent","response":"present","rt":496.29999995232,"correct":false,"confidence":1},{"trial_n":129,"min":126,"max":128,"target":"present","response":"present","rt":619.60000002384,"correct":true,"confidence":5},{"trial_n":130,"min":126,"max":128,"target":"absent","response":"absent","rt":859,"correct":true,"confidence":5},{"trial_n":131,"min":126,"max":128,"target":"present","response":"present","rt":558.5,"correct":true,"confidence":5},{"trial_n":132,"min":126,"max":128,"target":"absent","response":"absent","rt":774.59999990463,"correct":true,"confidence":5},{"trial_n":133,"min":126,"max":128,"target":"present","response":"present","rt":562.60000002384,"correct":true,"confidence":5},{"trial_n":134,"min":126,"max":128,"target":"absent","response":"absent","rt":680.20000004768,"correct":true,"confidence":5},{"trial_n":135,"min":126,"max":128,"target":"absent","response":"absent","rt":1556.5,"correct":true,"confidence":5},{"trial_n":136,"min":126,"max":128,"target":"present","response":"present","rt":473.89999997616,"correct":true,"confidence":5},{"trial_n":137,"min":126,"max":128,"target":"absent","response":"absent","rt":709.10000002384,"correct":true,"confidence":5},{"trial_n":138,"min":126,"max":128,"target":"absent","response":"absent","rt":764.79999995232,"correct":true,"confidence":5},{"trial_n":139,"min":126,"max":128,"target":"present","response":"present","rt":956.89999997616,"correct":true,"confidence":5},{"trial_n":140,"min":126,"max":128,"target":"absent","response":"absent","rt":841.09999990463,"correct":true,"confidence":5}]