[{"trial_n":1,"min":25,"max":230,"target":"present","response":"present","rt":3757.1999999993,"correct":true,"confidence":-1},{"trial_n":2,"min":25,"max":230,"target":"present","response":"present","rt":1079.5999999978,"correct":true,"confidence":-1},{"trial_n":3,"min":41,"max":214,"target":"absent","response":"absent","rt":1098.700000003,"correct":true,"confidence":-1},{"trial_n":4,"min":41,"max":214,"target":"absent","response":"absent","rt":675,"correct":true,"confidence":-1},{"trial_n":5,"min":57,"max":198,"target":"present","response":"present","rt":1117.5999999978,"correct":true,"confidence":-1},{"trial_n":6,"min":57,"max":198,"target":"absent","response":"absent","rt":1321.799999997,"correct":true,"confidence":-1},{"trial_n":7,"min":73,"max":182,"target":"absent","response":"absent","rt":457.69999999925,"correct":true,"confidence":-1},{"trial_n":8,"min":73,"max":182,"target":"present","response":"present","rt":609.69999999925,"correct":true,"confidence":-1},{"trial_n":9,"min":89,"max":166,"target":"present","response":"absent","rt":677.79999999702,"correct":false,"confidence":-1},{"trial_n":10,"min":73,"max":182,"target":"present","response":"present","rt":777.80000000075,"correct":true,"confidence":-1},{"trial_n":11,"min":73,"max":182,"target":"absent","response":"absent","rt":510.30000000075,"correct":true,"confidence":-1},{"trial_n":12,"min":81,"max":174,"target":"absent","response":"absent","rt":653.39999999851,"correct":true,"confidence":-1},{"trial_n":13,"min":81,"max":174,"target":"absent","response":"absent","rt":536.80000000075,"correct":true,"confidence":-1},{"trial_n":14,"min":89,"max":166,"target":"present","response":"present","rt":443.30000000075,"correct":true,"confidence":-1},{"trial_n":15,"min":89,"max":166,"target":"present","response":"present","rt":599.69999999925,"correct":true,"confidence":-1},{"trial_n":16,"min":97,"max":158,"target":"absent","response":"absent","rt":662.60000000149,"correct":true,"confidence":-1},{"trial_n":17,"min":97,"max":158,"target":"present","response":"absent","rt":813.69999999925,"correct":false,"confidence":-1},{"trial_n":18,"min":89,"max":166,"target":"present","response":"present","rt":721.59999999776,"correct":true,"confidence":-1},{"trial_n":19,"min":89,"max":166,"target":"present","response":"absent","rt":778.20000000298,"correct":false,"confidence":-1},{"trial_n":20,"min":81,"max":174,"target":"absent","response":"present","rt":296.69999999925,"correct":false,"confidence":-1},{"trial_n":21,"min":77,"max":178,"target":"present","response":"present","rt":584.80000000075,"correct":true,"confidence":1},{"trial_n":22,"min":77,"max":178,"target":"absent","response":"absent","rt":1202.6999999993,"correct":true,"confidence":1},{"trial_n":23,"min":81,"max":174,"target":"absent","response":"present","rt":850.59999999776,"correct":false,"confidence":1},{"trial_n":24,"min":77,"max":178,"target":"absent","response":"absent","rt":2949.799999997,"correct":true,"confidence":3},{"trial_n":25,"min":77,"max":178,"target":"absent","response":"absent","rt":929.69999999925,"correct":true,"confidence":2},{"trial_n":26,"min":81,"max":174,"target":"absent","response":"absent","rt":595.20000000298,"correct":true,"confidence":3},{"trial_n":27,"min":81,"max":174,"target":"present","response":"absent","rt":1157.0999999978,"correct":false,"confidence":2},{"trial_n":28,"min":77,"max":178,"target":"present","response":"present","rt":729.69999999925,"correct":true,"confidence":2},{"trial_n":29,"min":77,"max":178,"target":"present","response":"absent","rt":1006,"correct":false,"confidence":2},{"trial_n":30,"min":73,"max":182,"target":"absent","response":"absent","rt":828.19999999925,"correct":true,"confidence":2},{"trial_n":31,"min":73,"max":182,"target":"absent","response":"present","rt":705.29999999702,"correct":false,"confidence":2},{"trial_n":32,"min":71,"max":184,"target":"absent","response":"present","rt":869.80000000075,"correct":false,"confidence":1},{"trial_n":33,"min":69,"max":186,"target":"absent","response":"present","rt":985.69999999925,"correct":false,"confidence":2},{"trial_n":34,"min":67,"max":188,"target":"absent","response":"absent","rt":840.09999999776,"correct":true,"confidence":2},{"trial_n":35,"min":67,"max":188,"target":"absent","response":"present","rt":856.19999999925,"correct":false,"confidence":2},{"trial_n":36,"min":65,"max":190,"target":"absent","response":"absent","rt":1143.6999999993,"correct":true,"confidence":1},{"trial_n":37,"min":65,"max":190,"target":"absent","response":"absent","rt":909.39999999851,"correct":true,"confidence":1},{"trial_n":38,"min":67,"max":188,"target":"present","response":"absent","rt":577.39999999851,"correct":false,"confidence":1},{"trial_n":39,"min":65,"max":190,"target":"present","response":"present","rt":818.30000000075,"correct":true,"confidence":3},{"trial_n":40,"min":65,"max":190,"target":"present","response":"present","rt":1269.1000000015,"correct":true,"confidence":3},{"trial_n":41,"min":66,"max":189,"target":"present","response":"present","rt":635.5,"correct":true,"confidence":4},{"trial_n":42,"min":66,"max":189,"target":"absent","response":"absent","rt":833.59999999776,"correct":true,"confidence":1},{"trial_n":43,"min":67,"max":188,"target":"present","response":"present","rt":640,"correct":true,"confidence":3},{"trial_n":44,"min":67,"max":188,"target":"absent","response":"absent","rt":962.60000000149,"correct":true,"confidence":3},{"trial_n":45,"min":68,"max":187,"target":"absent","response":"absent","rt":559.10000000149,"correct":true,"confidence":3},{"trial_n":46,"min":68,"max":187,"target":"absent","response":"absent","rt":1166.0999999978,"correct":true,"confidence":3},{"trial_n":47,"min":69,"max":186,"target":"absent","response":"present","rt":743.60000000149,"correct":false,"confidence":1},{"trial_n":48,"min":68,"max":187,"target":"present","response":"present","rt":1093.1000000015,"correct":true,"confidence":3},{"trial_n":49,"min":68,"max":187,"target":"present","response":"present","rt":928.89999999851,"correct":true,"confidence":2},{"trial_n":50,"min":69,"max":186,"target":"absent","response":"absent","rt":742.30000000075,"correct":true,"confidence":2},{"trial_n":51,"min":69,"max":186,"target":"present","response":"present","rt":1050,"correct":true,"confidence":5},{"trial_n":52,"min":70,"max":185,"target":"present","response":"present","rt":1468.8999999985,"correct":true,"confidence":3},{"trial_n":53,"min":70,"max":185,"target":"present","response":"present","rt":871.09999999776,"correct":true,"confidence":3},{"trial_n":54,"min":71,"max":184,"target":"present","response":"present","rt":935.10000000149,"correct":true,"confidence":3},{"trial_n":55,"min":71,"max":184,"target":"present","response":"present","rt":1167.8000000007,"correct":true,"confidence":2},{"trial_n":56,"min":72,"max":183,"target":"absent","response":"absent","rt":585.60000000149,"correct":true,"confidence":4},{"trial_n":57,"min":72,"max":183,"target":"present","response":"present","rt":961.30000000075,"correct":true,"confidence":3},{"trial_n":58,"min":73,"max":182,"target":"present","response":"present","rt":606.30000000075,"correct":true,"confidence":2},{"trial_n":59,"min":73,"max":182,"target":"present","response":"present","rt":753.29999999702,"correct":true,"confidence":3},{"trial_n":60,"min":74,"max":181,"target":"present","response":"present","rt":684.39999999851,"correct":true,"confidence":2},{"trial_n":61,"min":74,"max":181,"target":"present","response":"present","rt":618.19999999925,"correct":true,"confidence":2},{"trial_n":62,"min":75,"max":180,"target":"present","response":"present","rt":589.30000000075,"correct":true,"confidence":2},{"trial_n":63,"min":75,"max":180,"target":"absent","response":"absent","rt":691.80000000075,"correct":true,"confidence":2},{"trial_n":64,"min":76,"max":179,"target":"absent","response":"absent","rt":710.10000000149,"correct":true,"confidence":3},{"trial_n":65,"min":76,"max":179,"target":"absent","response":"present","rt":918.69999999925,"correct":false,"confidence":1},{"trial_n":66,"min":75,"max":180,"target":"absent","response":"absent","rt":1317.6999999993,"correct":true,"confidence":3},{"trial_n":67,"min":75,"max":180,"target":"present","response":"present","rt":685,"correct":true,"confidence":3},{"trial_n":68,"min":76,"max":179,"target":"absent","response":"absent","rt":747.59999999776,"correct":true,"confidence":3},{"trial_n":69,"min":76,"max":179,"target":"present","response":"absent","rt":746.09999999776,"correct":false,"confidence":3},{"trial_n":70,"min":75,"max":180,"target":"present","response":"absent","rt":912.89999999851,"correct":false,"confidence":1},{"trial_n":71,"min":41,"max":214,"target":"present","response":"present","rt":3343.3999999985,"correct":true,"confidence":-1},{"trial_n":72,"min":41,"max":214,"target":"present","response":"present","rt":728.5,"correct":true,"confidence":-1},{"trial_n":73,"min":57,"max":198,"target":"absent","response":"absent","rt":466.90000000596,"correct":true,"confidence":-1},{"trial_n":74,"min":57,"max":198,"target":"absent","response":"absent","rt":402.5,"correct":true,"confidence":-1},{"trial_n":75,"min":73,"max":182,"target":"present","response":"absent","rt":281.30000000447,"correct":false,"confidence":-1},{"trial_n":76,"min":57,"max":198,"target":"present","response":"present","rt":491.70000000298,"correct":true,"confidence":-1},{"trial_n":77,"min":57,"max":198,"target":"present","response":"present","rt":342.70000000298,"correct":true,"confidence":-1},{"trial_n":78,"min":73,"max":182,"target":"present","response":"present","rt":333.5,"correct":true,"confidence":-1},{"trial_n":79,"min":73,"max":182,"target":"absent","response":"absent","rt":580.80000000447,"correct":true,"confidence":-1},{"trial_n":80,"min":89,"max":166,"target":"absent","response":"absent","rt":1040,"correct":true,"confidence":-1},{"trial_n":81,"min":89,"max":166,"target":"absent","response":"absent","rt":1936.700000003,"correct":true,"confidence":-1},{"trial_n":82,"min":97,"max":158,"target":"absent","response":"present","rt":877.5,"correct":false,"confidence":-1},{"trial_n":83,"min":89,"max":166,"target":"present","response":"absent","rt":563,"correct":false,"confidence":-1},{"trial_n":84,"min":81,"max":174,"target":"absent","response":"absent","rt":1021.6000000015,"correct":true,"confidence":-1},{"trial_n":85,"min":81,"max":174,"target":"absent","response":"absent","rt":426.60000000149,"correct":true,"confidence":-1},{"trial_n":86,"min":89,"max":166,"target":"present","response":"present","rt":517.79999999702,"correct":true,"confidence":-1},{"trial_n":87,"min":89,"max":166,"target":"present","response":"present","rt":817.90000000596,"correct":true,"confidence":-1},{"trial_n":88,"min":97,"max":158,"target":"present","response":"present","rt":1095.700000003,"correct":true,"confidence":-1},{"trial_n":89,"min":97,"max":158,"target":"absent","response":"absent","rt":611.69999999553,"correct":true,"confidence":-1},{"trial_n":90,"min":105,"max":150,"target":"absent","response":"present","rt":671.10000000149,"correct":false,"confidence":-1},{"trial_n":91,"min":101,"max":154,"target":"absent","response":"present","rt":431.89999999851,"correct":false,"confidence":3},{"trial_n":92,"min":97,"max":158,"target":"present","response":"absent","rt":848.60000000149,"correct":false,"confidence":3},{"trial_n":93,"min":93,"max":162,"target":"absent","response":"present","rt":2237.3000000045,"correct":false,"confidence":1},{"trial_n":94,"min":89,"max":166,"target":"present","response":"present","rt":392.79999999702,"correct":true,"confidence":3},{"trial_n":95,"min":89,"max":166,"target":"present","response":"absent","rt":1645.6000000015,"correct":false,"confidence":1},{"trial_n":96,"min":85,"max":170,"target":"present","response":"present","rt":508.79999999702,"correct":true,"confidence":4},{"trial_n":97,"min":85,"max":170,"target":"present","response":"present","rt":1359.8999999985,"correct":true,"confidence":4},{"trial_n":98,"min":89,"max":166,"target":"absent","response":"present","rt":990.5,"correct":false,"confidence":2},{"trial_n":99,"min":85,"max":170,"target":"absent","response":"present","rt":744.5,"correct":false,"confidence":1},{"trial_n":100,"min":81,"max":174,"target":"present","response":"present","rt":310.89999999851,"correct":true,"confidence":4},{"trial_n":101,"min":81,"max":174,"target":"present","response":"absent","rt":615.79999999702,"correct":false,"confidence":3},{"trial_n":102,"min":79,"max":176,"target":"present","response":"present","rt":829.90000000596,"correct":true,"confidence":2},{"trial_n":103,"min":79,"max":176,"target":"present","response":"absent","rt":705,"correct":false,"confidence":1},{"trial_n":104,"min":77,"max":178,"target":"present","response":"absent","rt":686.79999999702,"correct":false,"confidence":1},{"trial_n":105,"min":75,"max":180,"target":"absent","response":"present","rt":681.10000000149,"correct":false,"confidence":4},{"trial_n":106,"min":73,"max":182,"target":"absent","response":"absent","rt":846.89999999851,"correct":true,"confidence":3},{"trial_n":107,"min":73,"max":182,"target":"absent","response":"absent","rt":896.5,"correct":true,"confidence":4},{"trial_n":108,"min":75,"max":180,"target":"absent","response":"present","rt":1183.8000000045,"correct":false,"confidence":2},{"trial_n":109,"min":73,"max":182,"target":"present","response":"present","rt":1318.3999999985,"correct":true,"confidence":4},{"trial_n":110,"min":73,"max":182,"target":"absent","response":"absent","rt":792.39999999851,"correct":true,"confidence":5},{"trial_n":111,"min":74,"max":181,"target":"absent","response":"absent","rt":1011.1000000015,"correct":true,"confidence":3},{"trial_n":112,"min":74,"max":181,"target":"absent","response":"absent","rt":925.89999999851,"correct":true,"confidence":3},{"trial_n":113,"min":75,"max":180,"target":"present","response":"present","rt":580.69999999553,"correct":true,"confidence":2},{"trial_n":114,"min":75,"max":180,"target":"present","response":"present","rt":380.19999999553,"correct":true,"confidence":2},{"trial_n":115,"min":76,"max":179,"target":"present","response":"present","rt":472.79999999702,"correct":true,"confidence":5},{"trial_n":116,"min":76,"max":179,"target":"present","response":"present","rt":700.60000000149,"correct":true,"confidence":5},{"trial_n":117,"min":77,"max":178,"target":"present","response":"present","rt":631.29999999702,"correct":true,"confidence":5},{"trial_n":118,"min":77,"max":178,"target":"absent","response":"absent","rt":1224.299999997,"correct":true,"confidence":1},{"trial_n":119,"min":78,"max":177,"target":"present","response":"present","rt":641.40000000596,"correct":true,"confidence":3},{"trial_n":120,"min":78,"max":177,"target":"present","response":"present","rt":220.70000000298,"correct":true,"confidence":3},{"trial_n":121,"min":79,"max":176,"target":"present","response":"present","rt":235.70000000298,"correct":true,"confidence":2},{"trial_n":122,"min":79,"max":176,"target":"absent","response":"absent","rt":1123,"correct":true,"confidence":2},{"trial_n":123,"min":80,"max":175,"target":"absent","response":"absent","rt":753.30000000447,"correct":true,"confidence":2},{"trial_n":124,"min":80,"max":175,"target":"absent","response":"present","rt":529.09999999404,"correct":false,"confidence":2},{"trial_n":125,"min":79,"max":176,"target":"present","response":"present","rt":351.20000000298,"correct":true,"confidence":3},{"trial_n":126,"min":79,"max":176,"target":"absent","response":"absent","rt":658,"correct":true,"confidence":3},{"trial_n":127,"min":80,"max":175,"target":"absent","response":"absent","rt":876.80000000447,"correct":true,"confidence":1},{"trial_n":128,"min":80,"max":175,"target":"present","response":"present","rt":26141,"correct":true,"confidence":1},{"trial_n":129,"min":81,"max":174,"target":"absent","response":"present","rt":581.10000000149,"correct":false,"confidence":1},{"trial_n":130,"min":80,"max":175,"target":"absent","response":"present","rt":720.70000000298,"correct":false,"confidence":1},{"trial_n":131,"min":79,"max":176,"target":"present","response":"present","rt":755.10000000149,"correct":true,"confidence":3},{"trial_n":132,"min":79,"max":176,"target":"present","response":"present","rt":669.89999999851,"correct":true,"confidence":3},{"trial_n":133,"min":80,"max":175,"target":"present","response":"present","rt":298.79999999702,"correct":true,"confidence":3},{"trial_n":134,"min":80,"max":175,"target":"present","response":"present","rt":224.5,"correct":true,"confidence":1},{"trial_n":135,"min":81,"max":174,"target":"absent","response":"absent","rt":1204,"correct":true,"confidence":1},{"trial_n":136,"min":81,"max":174,"target":"absent","response":"present","rt":1560.1000000015,"correct":false,"confidence":1},{"trial_n":137,"min":80,"max":175,"target":"absent","response":"present","rt":676.59999999404,"correct":false,"confidence":1},{"trial_n":138,"min":79,"max":176,"target":"absent","response":"absent","rt":560,"correct":true,"confidence":1},{"trial_n":139,"min":79,"max":176,"target":"present","response":"present","rt":505.5,"correct":true,"confidence":1},{"trial_n":140,"min":80,"max":175,"target":"absent","response":"absent","rt":552.80000000447,"correct":true,"confidence":2}]