[{"trial_n":1,"span":8,"encoder":"00906258","distractor":"08906258","target":"present","response":"present","rt":"3504.6999999993","correct":true,"confidence":-1},{"trial_n":2,"span":8,"encoder":"60992003","distractor":"61992003","target":"present","response":"present","rt":"2382.4000000022","correct":true,"confidence":-1},{"trial_n":3,"span":10,"encoder":"4954473810","distractor":"4954483810","target":"absent","response":"absent","rt":"4373.3999999985","correct":true,"confidence":-1},{"trial_n":4,"span":10,"encoder":"4793880066","distractor":"4793980066","target":"absent","response":"present","rt":"3436","correct":false,"confidence":-1},{"trial_n":5,"span":8,"encoder":"24353979","distractor":"24363979","target":"present","response":"present","rt":"2856.8999999985","correct":true,"confidence":-1},{"trial_n":6,"span":8,"encoder":"96272779","distractor":"96292779","target":"present","response":"present","rt":"2738.3000000007","correct":true,"confidence":-1},{"trial_n":7,"span":10,"encoder":"3012910999","distractor":"3012910099","target":"absent","response":"present","rt":"3941.5999999978","correct":false,"confidence":-1},{"trial_n":8,"span":8,"encoder":"50468024","distractor":"50468074","target":"present","response":"present","rt":"2069.6999999993","correct":true,"confidence":-1},{"trial_n":9,"span":8,"encoder":"83431518","distractor":"83431568","target":"present","response":"present","rt":"2186.5","correct":true,"confidence":-1},{"trial_n":10,"span":10,"encoder":"5504082255","distractor":"5509082255","target":"present","response":"present","rt":"3402.799999997","correct":true,"confidence":-1},{"trial_n":11,"span":10,"encoder":"8664722499","distractor":"8164722499","target":"present","response":"present","rt":"1536.6000000015","correct":true,"confidence":-1},{"trial_n":12,"span":11,"encoder":"06394655883","distractor":"07394655883","target":"present","response":"present","rt":"1693.4000000022","correct":true,"confidence":-1},{"trial_n":13,"span":11,"encoder":"73514917469","distractor":"73514617469","target":"present","response":"present","rt":"2528.1999999993","correct":true,"confidence":-1},{"trial_n":14,"span":12,"encoder":"416890658905","distractor":"416890668905","target":"present","response":"absent","rt":"5267.3000000007","correct":false,"confidence":-1},{"trial_n":15,"span":11,"encoder":"90739478117","distractor":"90739468117","target":"absent","response":"present","rt":"1340.6999999993","correct":false,"confidence":-1},{"trial_n":16,"span":10,"encoder":"3096949855","distractor":"3596949855","target":"absent","response":"present","rt":"2415.5","correct":false,"confidence":-1},{"trial_n":17,"span":9,"encoder":"879728413","distractor":"879728713","target":"present","response":"present","rt":"2190.5","correct":true,"confidence":-1},{"trial_n":18,"span":9,"encoder":"926692917","distractor":"926192917","target":"present","response":"absent","rt":"2628.5","correct":false,"confidence":-1},{"trial_n":19,"span":8,"encoder":"33208718","distractor":"33238718","target":"present","response":"present","rt":"2179.0999999978","correct":true,"confidence":-1},{"trial_n":20,"span":8,"encoder":"42199904","distractor":"42199994","target":"absent","response":"absent","rt":"2463.4000000022","correct":true,"confidence":-1},{"trial_n":21,"span":9,"encoder":"878328003","distractor":"878328093","target":"present","response":"absent","rt":"2670.1999999993","correct":false,"confidence":3},{"trial_n":22,"span":8,"encoder":"90379997","distractor":"91379997","target":"absent","response":"absent","rt":"1268.5","correct":true,"confidence":1},{"trial_n":23,"span":8,"encoder":"77442712","distractor":"77442732","target":"absent","response":"absent","rt":"3020.5","correct":true,"confidence":3},{"trial_n":24,"span":9,"encoder":"385656638","distractor":"380656638","target":"present","response":"present","rt":"1665.3000000007","correct":true,"confidence":3},{"trial_n":25,"span":9,"encoder":"129524449","distractor":"129524442","target":"present","response":"present","rt":"1565.5","correct":true,"confidence":4},{"trial_n":26,"span":10,"encoder":"4447902245","distractor":"4437902245","target":"present","response":"present","rt":"10600.600000001","correct":true,"confidence":2},{"trial_n":27,"span":10,"encoder":"7881647081","distractor":"7881657081","target":"absent","response":"present","rt":"1658","correct":false,"confidence":3},{"trial_n":28,"span":9,"encoder":"345960961","distractor":"345960911","target":"absent","response":"absent","rt":"1930","correct":true,"confidence":3},{"trial_n":29,"span":9,"encoder":"937027373","distractor":"937027371","target":"absent","response":"absent","rt":"2559.3999999985","correct":true,"confidence":2},{"trial_n":30,"span":10,"encoder":"1199143885","distractor":"1189143885","target":"absent","response":"present","rt":"5321","correct":false,"confidence":2},{"trial_n":31,"span":9,"encoder":"817291361","distractor":"813291361","target":"present","response":"present","rt":"2114.1000000015","correct":true,"confidence":3},{"trial_n":32,"span":9,"encoder":"160347848","distractor":"360347848","target":"absent","response":"present","rt":"1318.5999999978","correct":false,"confidence":4},{"trial_n":33,"span":8,"encoder":"75873235","distractor":"73873235","target":"present","response":"present","rt":"2376.3999999985","correct":true,"confidence":2},{"trial_n":34,"span":8,"encoder":"88145383","distractor":"88845383","target":"absent","response":"present","rt":"3518.5","correct":false,"confidence":3},{"trial_n":35,"span":7,"encoder":"0074516","distractor":"0074316","target":"absent","response":"present","rt":"1689.1999999993","correct":false,"confidence":4},{"trial_n":36,"span":6,"encoder":"109930","distractor":"109960","target":"absent","response":"absent","rt":"2123.6999999993","correct":true,"confidence":5},{"trial_n":37,"span":6,"encoder":"646681","distractor":"646691","target":"present","response":"present","rt":"2878.8000000007","correct":true,"confidence":3},{"trial_n":38,"span":7,"encoder":"8838008","distractor":"8831008","target":"absent","response":"present","rt":"1967.4000000022","correct":false,"confidence":4},{"trial_n":39,"span":6,"encoder":"948369","distractor":"948269","target":"present","response":"absent","rt":"3644.6000000015","correct":false,"confidence":1},{"trial_n":40,"span":5,"encoder":"39494","distractor":"32494","target":"present","response":"present","rt":"2797.8000000007","correct":true,"confidence":3},{"trial_n":41,"span":5,"encoder":"03928","distractor":"03328","target":"absent","response":"absent","rt":"2061.3000000007","correct":true,"confidence":5},{"trial_n":42,"span":6,"encoder":"431831","distractor":"471831","target":"present","response":"absent","rt":"3779.1999999993","correct":false,"confidence":3},{"trial_n":43,"span":5,"encoder":"76859","distractor":"46859","target":"absent","response":"absent","rt":"1805.5","correct":true,"confidence":5},{"trial_n":44,"span":5,"encoder":"54199","distractor":"54799","target":"absent","response":"absent","rt":"1914.3000000007","correct":true,"confidence":5},{"trial_n":45,"span":6,"encoder":"877267","distractor":"872267","target":"present","response":"present","rt":"3015.1999999993","correct":true,"confidence":3},{"trial_n":46,"span":6,"encoder":"332457","distractor":"332458","target":"absent","response":"absent","rt":"2883.9000000022","correct":true,"confidence":4},{"trial_n":47,"span":7,"encoder":"6482726","distractor":"6482776","target":"present","response":"present","rt":"2039.5","correct":true,"confidence":1},{"trial_n":48,"span":7,"encoder":"4642448","distractor":"4642447","target":"absent","response":"absent","rt":"1413.8999999985","correct":true,"confidence":5},{"trial_n":49,"span":8,"encoder":"83629716","distractor":"83829716","target":"present","response":"absent","rt":"12747.800000001","correct":false,"confidence":1},{"trial_n":50,"span":7,"encoder":"2511741","distractor":"2531741","target":"present","response":"present","rt":"1856.6000000015","correct":true,"confidence":4},{"trial_n":51,"span":7,"encoder":"5177372","distractor":"5677372","target":"absent","response":"absent","rt":"2882.6000000015","correct":true,"confidence":3},{"trial_n":52,"span":8,"encoder":"31983004","distractor":"31989004","target":"present","response":"present","rt":"2687.8999999985","correct":true,"confidence":4},{"trial_n":53,"span":8,"encoder":"14761716","distractor":"84761716","target":"absent","response":"present","rt":"3519.4000000022","correct":false,"confidence":3},{"trial_n":54,"span":7,"encoder":"9753432","distractor":"9753430","target":"present","response":"present","rt":"6399.1000000015","correct":true,"confidence":2},{"trial_n":55,"span":7,"encoder":"4003165","distractor":"4003162","target":"present","response":"present","rt":"1464.1999999993","correct":true,"confidence":4},{"trial_n":56,"span":8,"encoder":"52014664","distractor":"52114664","target":"absent","response":"absent","rt":"1964.5","correct":true,"confidence":5},{"trial_n":57,"span":8,"encoder":"18924032","distractor":"88924032","target":"absent","response":"absent","rt":"2378.1999999993","correct":true,"confidence":3},{"trial_n":58,"span":9,"encoder":"293517452","distractor":"993517452","target":"present","response":"absent","rt":"1656.8000000007","correct":false,"confidence":3},{"trial_n":59,"span":8,"encoder":"75631702","distractor":"72631702","target":"present","response":"present","rt":"1685.3000000007","correct":true,"confidence":2},{"trial_n":60,"span":8,"encoder":"43993740","distractor":"43963740","target":"present","response":"present","rt":"1859.6000000015","correct":true,"confidence":2},{"trial_n":61,"span":9,"encoder":"645122904","distractor":"645120904","target":"absent","response":"present","rt":"1587.5999999978","correct":false,"confidence":2},{"trial_n":62,"span":8,"encoder":"00290341","distractor":"09290341","target":"absent","response":"absent","rt":"3444.1999999993","correct":true,"confidence":2},{"trial_n":63,"span":8,"encoder":"94767963","distractor":"94767903","target":"absent","response":"absent","rt":"1970.4000000022","correct":true,"confidence":2},{"trial_n":64,"span":9,"encoder":"440217890","distractor":"440217390","target":"absent","response":"present","rt":"4226.1000000015","correct":false,"confidence":3},{"trial_n":65,"span":8,"encoder":"19923408","distractor":"19923409","target":"absent","response":"present","rt":"5464.3000000007","correct":false,"confidence":1},{"trial_n":66,"span":7,"encoder":"9393282","distractor":"9393222","target":"absent","response":"absent","rt":"1372","correct":true,"confidence":5},{"trial_n":67,"span":7,"encoder":"7998528","distractor":"7998508","target":"present","response":"present","rt":"1557.5999999978","correct":true,"confidence":3},{"trial_n":68,"span":8,"encoder":"91160611","distractor":"91160610","target":"absent","response":"absent","rt":"1778.8999999985","correct":true,"confidence":5},{"trial_n":69,"span":8,"encoder":"72499989","distractor":"22499989","target":"present","response":"present","rt":"1823.4000000022","correct":true,"confidence":5},{"trial_n":70,"span":9,"encoder":"697363438","distractor":"692363438","target":"absent","response":"present","rt":"2730.9000000022","correct":false,"confidence":2},{"trial_n":71,"span":8,"encoder":"02310846","distractor":"02310836","target":"present","response":"absent","rt":"7633.299999997","correct":false,"confidence":-1},{"trial_n":72,"span":7,"encoder":"9934538","distractor":"9734538","target":"present","response":"absent","rt":"5322.6000000015","correct":false,"confidence":-1},{"trial_n":73,"span":6,"encoder":"244791","distractor":"244761","target":"absent","response":"absent","rt":"4735.8999999985","correct":true,"confidence":-1},{"trial_n":74,"span":6,"encoder":"713611","distractor":"716611","target":"absent","response":"absent","rt":"3011.3999999985","correct":true,"confidence":-1},{"trial_n":75,"span":7,"encoder":"7926759","distractor":"7926750","target":"present","response":"present","rt":"2738.8999999985","correct":true,"confidence":-1},{"trial_n":76,"span":7,"encoder":"6901382","distractor":"6905382","target":"absent","response":"absent","rt":"3343.1999999993","correct":true,"confidence":-1},{"trial_n":77,"span":8,"encoder":"32281111","distractor":"32261111","target":"absent","response":"absent","rt":"3658","correct":true,"confidence":-1},{"trial_n":78,"span":8,"encoder":"02568302","distractor":"04568302","target":"present","response":"absent","rt":"3412.6999999993","correct":false,"confidence":-1},{"trial_n":79,"span":7,"encoder":"5967528","distractor":"5969528","target":"present","response":"present","rt":"4990.6999999993","correct":true,"confidence":-1},{"trial_n":80,"span":7,"encoder":"9703457","distractor":"3703457","target":"absent","response":"present","rt":"3521.3999999985","correct":false,"confidence":-1},{"trial_n":81,"span":6,"encoder":"150706","distractor":"150906","target":"present","response":"present","rt":"2481.1000000015","correct":true,"confidence":-1},{"trial_n":82,"span":6,"encoder":"436800","distractor":"436802","target":"absent","response":"absent","rt":"2750.8000000007","correct":true,"confidence":-1},{"trial_n":83,"span":7,"encoder":"2240387","distractor":"2040387","target":"absent","response":"absent","rt":"3308.6999999993","correct":true,"confidence":-1},{"trial_n":84,"span":7,"encoder":"1550663","distractor":"1550662","target":"present","response":"present","rt":"3650.6000000015","correct":true,"confidence":-1},{"trial_n":85,"span":8,"encoder":"59414464","distractor":"59414463","target":"absent","response":"absent","rt":"2238.1999999993","correct":true,"confidence":-1},{"trial_n":86,"span":8,"encoder":"17984909","distractor":"17484909","target":"present","response":"absent","rt":"7615.1000000015","correct":false,"confidence":-1},{"trial_n":87,"span":7,"encoder":"0972723","distractor":"0976723","target":"present","response":"present","rt":"4178.5","correct":true,"confidence":-1},{"trial_n":88,"span":7,"encoder":"5780466","distractor":"5781466","target":"present","response":"absent","rt":"34099.300000001","correct":false,"confidence":-1},{"trial_n":89,"span":6,"encoder":"969104","distractor":"569104","target":"present","response":"present","rt":"3652.3999999985","correct":true,"confidence":-1},{"trial_n":90,"span":6,"encoder":"149237","distractor":"249237","target":"present","response":"present","rt":"1938.5999999978","correct":true,"confidence":-1},{"trial_n":91,"span":7,"encoder":"5279266","distractor":"5279267","target":"absent","response":"absent","rt":"1857.5","correct":true,"confidence":5},{"trial_n":92,"span":7,"encoder":"3543727","distractor":"3545727","target":"present","response":"present","rt":"6465.0999999978","correct":true,"confidence":2},{"trial_n":93,"span":8,"encoder":"12034034","distractor":"12024034","target":"absent","response":"absent","rt":"5137","correct":true,"confidence":4},{"trial_n":94,"span":8,"encoder":"22605788","distractor":"22625788","target":"absent","response":"absent","rt":"5029.8999999985","correct":true,"confidence":1},{"trial_n":95,"span":9,"encoder":"818971104","distractor":"814971104","target":"present","response":"present","rt":"3564.6999999993","correct":true,"confidence":3},{"trial_n":96,"span":9,"encoder":"577774403","distractor":"575774403","target":"absent","response":"absent","rt":"2284.700000003","correct":true,"confidence":3},{"trial_n":97,"span":10,"encoder":"3251530396","distractor":"3251530496","target":"absent","response":"absent","rt":"7780.5999999978","correct":true,"confidence":1},{"trial_n":98,"span":10,"encoder":"6015505157","distractor":"6015505154","target":"present","response":"absent","rt":"3999.6000000015","correct":false,"confidence":2},{"trial_n":99,"span":9,"encoder":"144637932","distractor":"144537932","target":"present","response":"absent","rt":"7646.1000000015","correct":false,"confidence":1},{"trial_n":100,"span":8,"encoder":"71549758","distractor":"71649758","target":"absent","response":"absent","rt":"3498.4000000022","correct":true,"confidence":1},{"trial_n":101,"span":8,"encoder":"72369258","distractor":"72399258","target":"absent","response":"present","rt":"5243.5999999978","correct":false,"confidence":2},{"trial_n":102,"span":7,"encoder":"9232097","distractor":"9232091","target":"absent","response":"absent","rt":"3839.4000000022","correct":true,"confidence":2},{"trial_n":103,"span":7,"encoder":"2493162","distractor":"2403162","target":"present","response":"present","rt":"5723","correct":true,"confidence":2},{"trial_n":104,"span":8,"encoder":"37453806","distractor":"30453806","target":"present","response":"present","rt":"5077.3999999985","correct":true,"confidence":1},{"trial_n":105,"span":8,"encoder":"27226135","distractor":"27226155","target":"absent","response":"absent","rt":"2222.1000000015","correct":true,"confidence":5},{"trial_n":106,"span":9,"encoder":"698605703","distractor":"698605723","target":"absent","response":"absent","rt":"2350.9000000022","correct":true,"confidence":5},{"trial_n":107,"span":9,"encoder":"355111458","distractor":"655111458","target":"present","response":"present","rt":"3661","correct":true,"confidence":2},{"trial_n":108,"span":10,"encoder":"3961870851","distractor":"3969870851","target":"present","response":"present","rt":"7374.6000000015","correct":true,"confidence":2},{"trial_n":109,"span":10,"encoder":"5104056484","distractor":"5104356484","target":"present","response":"absent","rt":"7986.8000000007","correct":false,"confidence":2},{"trial_n":110,"span":9,"encoder":"448230396","distractor":"440230396","target":"present","response":"absent","rt":"6270.6000000015","correct":false,"confidence":2},{"trial_n":111,"span":8,"encoder":"68147322","distractor":"68145322","target":"present","response":"present","rt":"5179.6000000015","correct":true,"confidence":3},{"trial_n":112,"span":8,"encoder":"30668879","distractor":"30668871","target":"present","response":"absent","rt":"6001.1999999993","correct":false,"confidence":2},{"trial_n":113,"span":7,"encoder":"2969493","distractor":"2969993","target":"present","response":"present","rt":"2651.1000000015","correct":true,"confidence":5},{"trial_n":114,"span":7,"encoder":"3630638","distractor":"8630638","target":"present","response":"present","rt":"4712.3000000007","correct":true,"confidence":1},{"trial_n":115,"span":8,"encoder":"40956757","distractor":"20956757","target":"absent","response":"present","rt":"2741.4000000022","correct":false,"confidence":1},{"trial_n":116,"span":7,"encoder":"1604035","distractor":"1604038","target":"absent","response":"absent","rt":"2574.5999999978","correct":true,"confidence":4},{"trial_n":117,"span":7,"encoder":"2919920","distractor":"2919930","target":"present","response":"present","rt":"2272.6999999993","correct":true,"confidence":2},{"trial_n":118,"span":8,"encoder":"97963842","distractor":"57963842","target":"absent","response":"present","rt":"9647.1999999993","correct":false,"confidence":1},{"trial_n":119,"span":7,"encoder":"7328308","distractor":"7324308","target":"present","response":"present","rt":"12112.599999998","correct":true,"confidence":1},{"trial_n":120,"span":7,"encoder":"6793630","distractor":"6793330","target":"absent","response":"absent","rt":"3085","correct":true,"confidence":4},{"trial_n":121,"span":8,"encoder":"82672608","distractor":"62672608","target":"absent","response":"absent","rt":"5216.1999999993","correct":true,"confidence":2},{"trial_n":122,"span":8,"encoder":"67230691","distractor":"67270691","target":"absent","response":"absent","rt":"5336.8000000007","correct":true,"confidence":3},{"trial_n":123,"span":9,"encoder":"827137249","distractor":"827137239","target":"absent","response":"absent","rt":"2693.299999997","correct":true,"confidence":4},{"trial_n":124,"span":9,"encoder":"887224950","distractor":"887224750","target":"present","response":"present","rt":"2848.8000000007","correct":true,"confidence":4},{"trial_n":125,"span":10,"encoder":"5071674000","distractor":"5271674000","target":"absent","response":"absent","rt":"4106.5999999978","correct":true,"confidence":2},{"trial_n":126,"span":10,"encoder":"5795470988","distractor":"5795470788","target":"absent","response":"absent","rt":"2664.1000000015","correct":true,"confidence":5},{"trial_n":127,"span":11,"encoder":"03042885836","distractor":"03042885806","target":"present","response":"absent","rt":"8156.3000000007","correct":false,"confidence":2},{"trial_n":128,"span":10,"encoder":"5450140712","distractor":"5450140713","target":"absent","response":"absent","rt":"3637.3000000007","correct":true,"confidence":5},{"trial_n":129,"span":10,"encoder":"9317538634","distractor":"9317536634","target":"absent","response":"absent","rt":"3384.0999999978","correct":true,"confidence":2},{"trial_n":130,"span":11,"encoder":"08299054938","distractor":"00299054938","target":"absent","response":"present","rt":"8900.6000000015","correct":false,"confidence":2},{"trial_n":131,"span":10,"encoder":"3393378988","distractor":"3393378984","target":"absent","response":"absent","rt":"2648.0999999978","correct":true,"confidence":4},{"trial_n":132,"span":10,"encoder":"6809871082","distractor":"6809871582","target":"absent","response":"absent","rt":"2583","correct":true,"confidence":4},{"trial_n":133,"span":11,"encoder":"53701033775","distractor":"54701033775","target":"present","response":"present","rt":"4728.5999999978","correct":true,"confidence":2},{"trial_n":134,"span":11,"encoder":"60871768910","distractor":"90871768910","target":"present","response":"present","rt":"7044.8000000007","correct":true,"confidence":2},{"trial_n":135,"span":12,"encoder":"651713501417","distractor":"651713901417","target":"present","response":"absent","rt":"7619.1000000015","correct":false,"confidence":1},{"trial_n":136,"span":11,"encoder":"54343447892","distractor":"54343449892","target":"absent","response":"absent","rt":"6630.5","correct":true,"confidence":3},{"trial_n":137,"span":11,"encoder":"93536446554","distractor":"93536441554","target":"absent","response":"present","rt":"4389.6000000015","correct":false,"confidence":2},{"trial_n":138,"span":10,"encoder":"0166070257","distractor":"0166970257","target":"present","response":"present","rt":"6937.6000000015","correct":true,"confidence":2},{"trial_n":139,"span":10,"encoder":"9623606709","distractor":"9623906709","target":"present","response":"present","rt":"6156.3000000007","correct":true,"confidence":2},{"trial_n":140,"span":11,"encoder":"53763540829","distractor":"53763590829","target":"present","response":"present","rt":"4845.799999997","correct":true,"confidence":1}]