[{"trial_n":1,"span":8,"encoder":"61926763","distractor":"61526763","target":"present","response":"present","rt":"21018.5","correct":true,"confidence":-1},{"trial_n":2,"span":8,"encoder":"00474794","distractor":"60474794","target":"present","response":"present","rt":"1944.8","correct":true,"confidence":-1},{"trial_n":3,"span":10,"encoder":"1261676668","distractor":"1241676668","target":"absent","response":"absent","rt":"2477.1","correct":true,"confidence":-1},{"trial_n":4,"span":10,"encoder":"6158649052","distractor":"6198649052","target":"absent","response":"present","rt":"1637.2","correct":false,"confidence":-1},{"trial_n":5,"span":8,"encoder":"21179060","distractor":"71179060","target":"present","response":"present","rt":"1587.7","correct":true,"confidence":-1},{"trial_n":6,"span":8,"encoder":"09686412","distractor":"09886412","target":"absent","response":"present","rt":"2404.7","correct":false,"confidence":-1},{"trial_n":7,"span":6,"encoder":"655318","distractor":"655018","target":"present","response":"absent","rt":"1172.6","correct":false,"confidence":-1},{"trial_n":8,"span":4,"encoder":"8898","distractor":"8895","target":"absent","response":"present","rt":"1206.8","correct":false,"confidence":-1},{"trial_n":9,"span":2,"encoder":"41","distractor":"11","target":"present","response":"absent","rt":"1969.7","correct":false,"confidence":-1},{"trial_n":10,"span":2,"encoder":"35","distractor":"75","target":"present","response":"present","rt":"985.59999999998","correct":true,"confidence":-1},{"trial_n":11,"span":2,"encoder":"83","distractor":"23","target":"absent","response":"absent","rt":"1113","correct":true,"confidence":-1},{"trial_n":12,"span":3,"encoder":"795","distractor":"799","target":"absent","response":"absent","rt":"1242.5","correct":true,"confidence":-1},{"trial_n":13,"span":3,"encoder":"794","distractor":"784","target":"absent","response":"absent","rt":"1251.6","correct":true,"confidence":-1},{"trial_n":14,"span":4,"encoder":"5848","distractor":"1848","target":"absent","response":"absent","rt":"1891.3","correct":true,"confidence":-1},{"trial_n":15,"span":4,"encoder":"9497","distractor":"9477","target":"present","response":"present","rt":"800","correct":true,"confidence":-1},{"trial_n":16,"span":5,"encoder":"63399","distractor":"69399","target":"present","response":"absent","rt":"1086.6","correct":false,"confidence":-1},{"trial_n":17,"span":4,"encoder":"6449","distractor":"6445","target":"present","response":"present","rt":"1066.2999999999","correct":true,"confidence":-1},{"trial_n":18,"span":4,"encoder":"3788","distractor":"3288","target":"present","response":"absent","rt":"1993.3","correct":false,"confidence":-1},{"trial_n":19,"span":3,"encoder":"746","distractor":"756","target":"absent","response":"absent","rt":"1909.1000000001","correct":true,"confidence":-1},{"trial_n":20,"span":3,"encoder":"465","distractor":"435","target":"present","response":"present","rt":"1175.9","correct":true,"confidence":-1},{"trial_n":21,"span":4,"encoder":"6728","distractor":"6727","target":"present","response":"present","rt":"2427.7","correct":true,"confidence":2},{"trial_n":22,"span":4,"encoder":"5779","distractor":"5739","target":"absent","response":"present","rt":"2328.3","correct":false,"confidence":3},{"trial_n":23,"span":3,"encoder":"796","distractor":"776","target":"present","response":"present","rt":"1706.2","correct":true,"confidence":5},{"trial_n":24,"span":3,"encoder":"202","distractor":"200","target":"absent","response":"absent","rt":"2593.4","correct":true,"confidence":5},{"trial_n":25,"span":4,"encoder":"8187","distractor":"4187","target":"absent","response":"absent","rt":"4666.9","correct":true,"confidence":4},{"trial_n":26,"span":4,"encoder":"8862","distractor":"8861","target":"present","response":"present","rt":"2218.6000000001","correct":true,"confidence":5},{"trial_n":27,"span":5,"encoder":"98005","distractor":"98003","target":"absent","response":"absent","rt":"2768.8","correct":true,"confidence":5},{"trial_n":28,"span":5,"encoder":"17677","distractor":"07677","target":"present","response":"present","rt":"3680.3","correct":true,"confidence":5},{"trial_n":29,"span":6,"encoder":"220133","distractor":"222133","target":"absent","response":"present","rt":"2894","correct":false,"confidence":2},{"trial_n":30,"span":5,"encoder":"15373","distractor":"15375","target":"absent","response":"absent","rt":"3505","correct":true,"confidence":3},{"trial_n":31,"span":5,"encoder":"77431","distractor":"74431","target":"absent","response":"present","rt":"2818.3","correct":false,"confidence":4},{"trial_n":32,"span":4,"encoder":"2799","distractor":"1799","target":"absent","response":"absent","rt":"2338.1000000001","correct":true,"confidence":5},{"trial_n":33,"span":4,"encoder":"4638","distractor":"4138","target":"present","response":"present","rt":"3856.6","correct":true,"confidence":3},{"trial_n":34,"span":5,"encoder":"27572","distractor":"27672","target":"present","response":"present","rt":"5318.1","correct":true,"confidence":4},{"trial_n":35,"span":5,"encoder":"35423","distractor":"35483","target":"present","response":"present","rt":"2958.9","correct":true,"confidence":4},{"trial_n":36,"span":6,"encoder":"746214","distractor":"786214","target":"present","response":"present","rt":"3084.1","correct":true,"confidence":5},{"trial_n":37,"span":6,"encoder":"288314","distractor":"288514","target":"absent","response":"absent","rt":"3034.1","correct":true,"confidence":5},{"trial_n":38,"span":7,"encoder":"6892896","distractor":"6592896","target":"present","response":"present","rt":"2233.2","correct":true,"confidence":2},{"trial_n":39,"span":7,"encoder":"8067949","distractor":"1067949","target":"present","response":"present","rt":"2277.8999999999","correct":true,"confidence":3},{"trial_n":40,"span":8,"encoder":"68256360","distractor":"68259360","target":"present","response":"present","rt":"3720","correct":true,"confidence":3},{"trial_n":41,"span":8,"encoder":"64921861","distractor":"62921861","target":"absent","response":"present","rt":"2237.9","correct":false,"confidence":2},{"trial_n":42,"span":7,"encoder":"8246232","distractor":"8246632","target":"present","response":"present","rt":"13138.5","correct":true,"confidence":2},{"trial_n":43,"span":7,"encoder":"9913846","distractor":"9213846","target":"present","response":"present","rt":"4736.5","correct":true,"confidence":3},{"trial_n":44,"span":8,"encoder":"71290415","distractor":"71290915","target":"absent","response":"absent","rt":"2573.5","correct":true,"confidence":2},{"trial_n":45,"span":8,"encoder":"74624566","distractor":"94624566","target":"absent","response":"absent","rt":"2418.2999999999","correct":true,"confidence":3},{"trial_n":46,"span":9,"encoder":"129289675","distractor":"126289675","target":"present","response":"present","rt":"1917.8999999999","correct":true,"confidence":2},{"trial_n":47,"span":9,"encoder":"604740663","distractor":"604740667","target":"present","response":"absent","rt":"2750.5","correct":false,"confidence":3},{"trial_n":48,"span":8,"encoder":"94997912","distractor":"94997962","target":"absent","response":"absent","rt":"4216","correct":true,"confidence":5},{"trial_n":49,"span":8,"encoder":"35076362","distractor":"35046362","target":"absent","response":"present","rt":"4846.5","correct":false,"confidence":3},{"trial_n":50,"span":7,"encoder":"3476513","distractor":"3776513","target":"absent","response":"present","rt":"2864.1","correct":false,"confidence":4},{"trial_n":51,"span":6,"encoder":"520338","distractor":"520388","target":"absent","response":"present","rt":"3508.3","correct":false,"confidence":3},{"trial_n":52,"span":5,"encoder":"62540","distractor":"62590","target":"present","response":"present","rt":"1646.7999999999","correct":true,"confidence":5},{"trial_n":53,"span":5,"encoder":"11195","distractor":"11795","target":"absent","response":"absent","rt":"2227.7","correct":true,"confidence":3},{"trial_n":54,"span":6,"encoder":"153785","distractor":"153715","target":"present","response":"present","rt":"2157.8","correct":true,"confidence":4},{"trial_n":55,"span":6,"encoder":"511116","distractor":"011116","target":"present","response":"present","rt":"2363.4","correct":true,"confidence":2},{"trial_n":56,"span":7,"encoder":"7773663","distractor":"7779663","target":"absent","response":"absent","rt":"5692.7000000002","correct":true,"confidence":3},{"trial_n":57,"span":7,"encoder":"1480136","distractor":"1430136","target":"present","response":"present","rt":"5814.0999999999","correct":true,"confidence":5},{"trial_n":58,"span":8,"encoder":"00720550","distractor":"00720850","target":"absent","response":"absent","rt":"3484.7","correct":true,"confidence":3},{"trial_n":59,"span":8,"encoder":"46147627","distractor":"46127627","target":"absent","response":"present","rt":"1917.5","correct":false,"confidence":3},{"trial_n":60,"span":7,"encoder":"2009524","distractor":"2009527","target":"present","response":"present","rt":"2343.0999999999","correct":true,"confidence":4},{"trial_n":61,"span":7,"encoder":"0992297","distractor":"0994297","target":"absent","response":"absent","rt":"4351.1000000001","correct":true,"confidence":1},{"trial_n":62,"span":8,"encoder":"09704441","distractor":"08704441","target":"absent","response":"present","rt":"4450","correct":false,"confidence":1},{"trial_n":63,"span":7,"encoder":"5054268","distractor":"5054168","target":"present","response":"present","rt":"2638.6000000001","correct":true,"confidence":1},{"trial_n":64,"span":7,"encoder":"4674861","distractor":"4674761","target":"present","response":"present","rt":"2383.3999999999","correct":true,"confidence":4},{"trial_n":65,"span":8,"encoder":"21972617","distractor":"71972617","target":"present","response":"absent","rt":"3760.2","correct":false,"confidence":3},{"trial_n":66,"span":7,"encoder":"7974067","distractor":"8974067","target":"present","response":"present","rt":"2363","correct":true,"confidence":4},{"trial_n":67,"span":7,"encoder":"9509086","distractor":"9509089","target":"absent","response":"absent","rt":"2483.4000000001","correct":true,"confidence":5},{"trial_n":68,"span":8,"encoder":"48335955","distractor":"48331955","target":"present","response":"present","rt":"7250.3","correct":true,"confidence":3},{"trial_n":69,"span":8,"encoder":"29933072","distractor":"69933072","target":"absent","response":"present","rt":"2968.2","correct":false,"confidence":4},{"trial_n":70,"span":7,"encoder":"9550444","distractor":"0550444","target":"absent","response":"absent","rt":"4841.7","correct":true,"confidence":5},{"trial_n":71,"span":8,"encoder":"55584417","distractor":"65584417","target":"present","response":"present","rt":"2308.0999999999","correct":true,"confidence":-1},{"trial_n":72,"span":8,"encoder":"74051677","distractor":"71051677","target":"present","response":"present","rt":"2392.8999999999","correct":true,"confidence":-1},{"trial_n":73,"span":9,"encoder":"463779697","distractor":"433779697","target":"absent","response":"absent","rt":"6944.7","correct":true,"confidence":-1},{"trial_n":74,"span":9,"encoder":"390929460","distractor":"490929460","target":"absent","response":"absent","rt":"2523.3","correct":true,"confidence":-1},{"trial_n":75,"span":10,"encoder":"0340855411","distractor":"0340855431","target":"present","response":"absent","rt":"3559.5","correct":false,"confidence":-1},{"trial_n":76,"span":9,"encoder":"305510035","distractor":"005510035","target":"present","response":"present","rt":"4010.2","correct":true,"confidence":-1},{"trial_n":77,"span":9,"encoder":"626161725","distractor":"626161735","target":"absent","response":"absent","rt":"4821.6000000001","correct":true,"confidence":-1},{"trial_n":78,"span":10,"encoder":"9752111523","distractor":"9752911523","target":"absent","response":"absent","rt":"5086.9000000001","correct":true,"confidence":-1},{"trial_n":79,"span":10,"encoder":"2407123383","distractor":"2417123383","target":"present","response":"present","rt":"5407.5999999999","correct":true,"confidence":-1},{"trial_n":80,"span":11,"encoder":"23574426913","distractor":"23554426913","target":"absent","response":"absent","rt":"3770.3","correct":true,"confidence":-1},{"trial_n":81,"span":11,"encoder":"00673087181","distractor":"00673083181","target":"absent","response":"absent","rt":"4521.2","correct":true,"confidence":-1},{"trial_n":82,"span":12,"encoder":"358172117285","distractor":"358172117265","target":"absent","response":"absent","rt":"1857.3","correct":true,"confidence":-1},{"trial_n":83,"span":12,"encoder":"855255081298","distractor":"855255084298","target":"absent","response":"absent","rt":"5252.3","correct":true,"confidence":-1},{"trial_n":84,"span":13,"encoder":"0689144954190","distractor":"0689141954190","target":"present","response":"absent","rt":"3738.3999999999","correct":false,"confidence":-1},{"trial_n":85,"span":12,"encoder":"137221859707","distractor":"137221959707","target":"present","response":"present","rt":"2798.3999999999","correct":true,"confidence":-1},{"trial_n":86,"span":12,"encoder":"922386735635","distractor":"922386735636","target":"absent","response":"present","rt":"19752.7","correct":false,"confidence":-1},{"trial_n":87,"span":11,"encoder":"48505293920","distractor":"48503293920","target":"present","response":"absent","rt":"2162.8999999999","correct":false,"confidence":-1},{"trial_n":88,"span":10,"encoder":"1040066189","distractor":"1040166189","target":"absent","response":"absent","rt":"1967.5","correct":true,"confidence":-1},{"trial_n":89,"span":10,"encoder":"3419498206","distractor":"3419498276","target":"present","response":"absent","rt":"1701.8","correct":false,"confidence":-1},{"trial_n":90,"span":9,"encoder":"376949441","distractor":"276949441","target":"present","response":"present","rt":"2883.9000000001","correct":true,"confidence":-1},{"trial_n":91,"span":9,"encoder":"535846748","distractor":"535146748","target":"absent","response":"absent","rt":"2328","correct":true,"confidence":3},{"trial_n":92,"span":10,"encoder":"8194117533","distractor":"8194177533","target":"present","response":"absent","rt":"6874.5999999999","correct":false,"confidence":3},{"trial_n":93,"span":9,"encoder":"694827576","distractor":"394827576","target":"present","response":"present","rt":"3099.3","correct":true,"confidence":5},{"trial_n":94,"span":9,"encoder":"422557267","distractor":"622557267","target":"present","response":"absent","rt":"4160.7999999998","correct":false,"confidence":3},{"trial_n":95,"span":8,"encoder":"12972886","distractor":"62972886","target":"absent","response":"absent","rt":"4121","correct":true,"confidence":3},{"trial_n":96,"span":8,"encoder":"48239176","distractor":"48239175","target":"present","response":"present","rt":"1717","correct":true,"confidence":5},{"trial_n":97,"span":9,"encoder":"268111809","distractor":"268101809","target":"absent","response":"absent","rt":"2248.1000000001","correct":true,"confidence":2},{"trial_n":98,"span":9,"encoder":"124905364","distractor":"124905394","target":"absent","response":"absent","rt":"2443.3","correct":true,"confidence":1},{"trial_n":99,"span":10,"encoder":"6672629053","distractor":"6676629053","target":"absent","response":"present","rt":"2032.2","correct":false,"confidence":1},{"trial_n":100,"span":9,"encoder":"936779922","distractor":"936719922","target":"absent","response":"absent","rt":"1817.7","correct":true,"confidence":3},{"trial_n":101,"span":9,"encoder":"770157713","distractor":"770157703","target":"present","response":"absent","rt":"1366.6000000001","correct":false,"confidence":3},{"trial_n":102,"span":8,"encoder":"94328287","distractor":"94378287","target":"present","response":"present","rt":"1476.6000000001","correct":true,"confidence":3},{"trial_n":103,"span":8,"encoder":"61220238","distractor":"61220239","target":"present","response":"absent","rt":"1336.8","correct":false,"confidence":1},{"trial_n":104,"span":7,"encoder":"4828128","distractor":"4828126","target":"absent","response":"absent","rt":"1767.1000000001","correct":true,"confidence":5},{"trial_n":105,"span":7,"encoder":"4906552","distractor":"4956552","target":"absent","response":"present","rt":"4626.3999999999","correct":false,"confidence":3},{"trial_n":106,"span":6,"encoder":"418683","distractor":"458683","target":"absent","response":"absent","rt":"5232.1000000001","correct":true,"confidence":5},{"trial_n":107,"span":6,"encoder":"025016","distractor":"825016","target":"present","response":"present","rt":"3084.7","correct":true,"confidence":5},{"trial_n":108,"span":7,"encoder":"7462764","distractor":"7463764","target":"present","response":"present","rt":"3975.1000000001","correct":true,"confidence":4},{"trial_n":109,"span":7,"encoder":"5890297","distractor":"5890897","target":"absent","response":"absent","rt":"2703.6000000001","correct":true,"confidence":5},{"trial_n":110,"span":8,"encoder":"78408018","distractor":"71408018","target":"present","response":"absent","rt":"2307.6000000001","correct":false,"confidence":1},{"trial_n":111,"span":7,"encoder":"4352962","distractor":"4351962","target":"present","response":"absent","rt":"1712.2000000002","correct":false,"confidence":4},{"trial_n":112,"span":6,"encoder":"555869","distractor":"565869","target":"present","response":"present","rt":"1772.4000000001","correct":true,"confidence":2},{"trial_n":113,"span":6,"encoder":"445121","distractor":"445621","target":"present","response":"absent","rt":"2082.9000000001","correct":false,"confidence":3},{"trial_n":114,"span":5,"encoder":"22785","distractor":"21785","target":"absent","response":"present","rt":"3915.5","correct":false,"confidence":3},{"trial_n":115,"span":4,"encoder":"6826","distractor":"6821","target":"absent","response":"absent","rt":"3024.1000000001","correct":true,"confidence":5},{"trial_n":116,"span":4,"encoder":"6222","distractor":"6322","target":"present","response":"present","rt":"2287.8","correct":true,"confidence":3},{"trial_n":117,"span":5,"encoder":"83096","distractor":"83094","target":"absent","response":"absent","rt":"3254.6000000001","correct":true,"confidence":5},{"trial_n":118,"span":5,"encoder":"78746","distractor":"78786","target":"absent","response":"absent","rt":"3119.5","correct":true,"confidence":5},{"trial_n":119,"span":6,"encoder":"737658","distractor":"737668","target":"present","response":"present","rt":"2333","correct":true,"confidence":4},{"trial_n":120,"span":6,"encoder":"561643","distractor":"569643","target":"present","response":"present","rt":"2678.2","correct":true,"confidence":5},{"trial_n":121,"span":7,"encoder":"3205977","distractor":"3201977","target":"present","response":"absent","rt":"1947.8","correct":false,"confidence":3},{"trial_n":122,"span":6,"encoder":"148532","distractor":"048532","target":"absent","response":"absent","rt":"2163","correct":true,"confidence":3},{"trial_n":123,"span":6,"encoder":"138824","distractor":"138324","target":"absent","response":"absent","rt":"5682.0999999999","correct":true,"confidence":5},{"trial_n":124,"span":7,"encoder":"1833932","distractor":"1836932","target":"absent","response":"absent","rt":"2007.2999999998","correct":true,"confidence":5},{"trial_n":125,"span":7,"encoder":"0516064","distractor":"0516564","target":"present","response":"present","rt":"2563.4000000001","correct":true,"confidence":4},{"trial_n":126,"span":8,"encoder":"57943159","distractor":"57943059","target":"present","response":"present","rt":"2909","correct":true,"confidence":5},{"trial_n":127,"span":8,"encoder":"11852637","distractor":"18852637","target":"absent","response":"absent","rt":"9387.9000000001","correct":true,"confidence":1},{"trial_n":128,"span":9,"encoder":"635641495","distractor":"638641495","target":"present","response":"absent","rt":"3485.1000000001","correct":false,"confidence":1},{"trial_n":129,"span":8,"encoder":"22007080","distractor":"22004080","target":"present","response":"present","rt":"2648.5999999999","correct":true,"confidence":3},{"trial_n":130,"span":8,"encoder":"50486060","distractor":"50484060","target":"present","response":"absent","rt":"2508.6000000001","correct":false,"confidence":5},{"trial_n":131,"span":7,"encoder":"7066012","distractor":"7066022","target":"present","response":"absent","rt":"1151.7","correct":false,"confidence":1},{"trial_n":132,"span":6,"encoder":"887713","distractor":"887313","target":"absent","response":"absent","rt":"1872.5","correct":true,"confidence":5},{"trial_n":133,"span":6,"encoder":"105300","distractor":"105350","target":"present","response":"present","rt":"1962.3","correct":true,"confidence":5},{"trial_n":134,"span":7,"encoder":"9429677","distractor":"9529677","target":"absent","response":"present","rt":"2613.2","correct":false,"confidence":3},{"trial_n":135,"span":6,"encoder":"768394","distractor":"868394","target":"present","response":"present","rt":"3529.8999999999","correct":true,"confidence":4},{"trial_n":136,"span":6,"encoder":"031555","distractor":"031558","target":"absent","response":"absent","rt":"2534","correct":true,"confidence":5},{"trial_n":137,"span":7,"encoder":"7163946","distractor":"7168946","target":"absent","response":"absent","rt":"2688.7","correct":true,"confidence":5},{"trial_n":138,"span":7,"encoder":"5501587","distractor":"5501567","target":"present","response":"present","rt":"5157.1000000001","correct":true,"confidence":3},{"trial_n":139,"span":8,"encoder":"12425691","distractor":"12425690","target":"absent","response":"absent","rt":"2147.3999999999","correct":true,"confidence":5},{"trial_n":140,"span":8,"encoder":"15820184","distractor":"05820184","target":"absent","response":"absent","rt":"1693.0999999999","correct":true,"confidence":1}]