[{"trial_n":1,"n_dots":4.25,"target":"left","response":"left","rt":15018.4,"correct":true,"confidence":-1},{"trial_n":2,"n_dots":4.25,"target":"left","response":"left","rt":1183.5,"correct":true,"confidence":-1},{"trial_n":3,"n_dots":3.85,"target":"left","response":"left","rt":726.5,"correct":true,"confidence":-1},{"trial_n":4,"n_dots":3.85,"target":"right","response":"left","rt":1042.7000000002,"correct":false,"confidence":-1},{"trial_n":5,"n_dots":4.25,"target":"left","response":"left","rt":967.89999999991,"correct":true,"confidence":-1},{"trial_n":6,"n_dots":4.25,"target":"right","response":"right","rt":1864,"correct":true,"confidence":-1},{"trial_n":7,"n_dots":3.85,"target":"right","response":"right","rt":1161.6000000001,"correct":true,"confidence":-1},{"trial_n":8,"n_dots":3.85,"target":"right","response":"right","rt":352.10000000009,"correct":true,"confidence":-1},{"trial_n":9,"n_dots":3.65,"target":"right","response":"right","rt":47.5,"correct":true,"confidence":-1},{"trial_n":10,"n_dots":3.65,"target":"right","response":"right","rt":265.70000000019,"correct":true,"confidence":-1},{"trial_n":11,"n_dots":3.45,"target":"right","response":"right","rt":4.7999999998137,"correct":true,"confidence":-1},{"trial_n":12,"n_dots":3.45,"target":"left","response":"right","rt":827.80000000028,"correct":false,"confidence":-1},{"trial_n":13,"n_dots":3.55,"target":"right","response":"right","rt":518.20000000019,"correct":true,"confidence":-1},{"trial_n":14,"n_dots":3.55,"target":"right","response":"right","rt":758.89999999991,"correct":true,"confidence":-1},{"trial_n":15,"n_dots":3.45,"target":"right","response":"right","rt":684.39999999991,"correct":true,"confidence":-1},{"trial_n":16,"n_dots":3.45,"target":"left","response":"left","rt":1791.7000000002,"correct":true,"confidence":-1},{"trial_n":17,"n_dots":3.35,"target":"left","response":"left","rt":794.5,"correct":true,"confidence":-1},{"trial_n":18,"n_dots":3.35,"target":"right","response":"left","rt":992.60000000009,"correct":false,"confidence":-1},{"trial_n":19,"n_dots":3.45,"target":"right","response":"right","rt":1402.7999999998,"correct":true,"confidence":-1},{"trial_n":20,"n_dots":3.45,"target":"left","response":"right","rt":941.89999999991,"correct":false,"confidence":-1},{"trial_n":21,"n_dots":3.55,"target":"left","response":"left","rt":6235.1000000001,"correct":true,"confidence":4},{"trial_n":22,"n_dots":3.55,"target":"right","response":"right","rt":1248.7999999998,"correct":true,"confidence":4},{"trial_n":23,"n_dots":3.45,"target":"left","response":"left","rt":1595.8999999999,"correct":true,"confidence":2},{"trial_n":24,"n_dots":3.45,"target":"left","response":"right","rt":1662.6000000001,"correct":false,"confidence":2},{"trial_n":25,"n_dots":3.55,"target":"right","response":"right","rt":1360.3000000003,"correct":true,"confidence":5},{"trial_n":26,"n_dots":3.55,"target":"left","response":"left","rt":1747.7000000002,"correct":true,"confidence":3},{"trial_n":27,"n_dots":3.45,"target":"left","response":"left","rt":1461.3000000003,"correct":true,"confidence":1},{"trial_n":28,"n_dots":3.45,"target":"right","response":"right","rt":1362.3000000003,"correct":true,"confidence":3},{"trial_n":29,"n_dots":3.35,"target":"left","response":"left","rt":1559,"correct":true,"confidence":1},{"trial_n":30,"n_dots":3.35,"target":"left","response":"right","rt":1509.2000000002,"correct":false,"confidence":3},{"trial_n":31,"n_dots":3.45,"target":"left","response":"right","rt":2109.2000000002,"correct":false,"confidence":3},{"trial_n":32,"n_dots":3.55,"target":"right","response":"right","rt":1290.2000000002,"correct":true,"confidence":5},{"trial_n":33,"n_dots":3.55,"target":"right","response":"right","rt":1472,"correct":true,"confidence":4},{"trial_n":34,"n_dots":3.45,"target":"right","response":"right","rt":1140.2000000002,"correct":true,"confidence":3},{"trial_n":35,"n_dots":3.45,"target":"right","response":"right","rt":1092.8000000003,"correct":true,"confidence":4},{"trial_n":36,"n_dots":3.35,"target":"left","response":"left","rt":1335.5,"correct":true,"confidence":3},{"trial_n":37,"n_dots":3.35,"target":"right","response":"right","rt":2026.7999999998,"correct":true,"confidence":4},{"trial_n":38,"n_dots":3.25,"target":"left","response":"right","rt":1528.3999999999,"correct":false,"confidence":4},{"trial_n":39,"n_dots":3.35,"target":"right","response":"right","rt":1172.5,"correct":true,"confidence":5},{"trial_n":40,"n_dots":3.35,"target":"left","response":"right","rt":1470.4000000004,"correct":false,"confidence":1},{"trial_n":41,"n_dots":3.45,"target":"left","response":"left","rt":548.39999999991,"correct":true,"confidence":3},{"trial_n":42,"n_dots":3.45,"target":"right","response":"left","rt":66732,"correct":false,"confidence":2},{"trial_n":43,"n_dots":3.55,"target":"right","response":"right","rt":1709.2000000002,"correct":true,"confidence":4},{"trial_n":44,"n_dots":3.55,"target":"left","response":"left","rt":3053.7999999998,"correct":true,"confidence":1},{"trial_n":45,"n_dots":3.45,"target":"right","response":"left","rt":2529.1000000001,"correct":false,"confidence":1},{"trial_n":46,"n_dots":3.55,"target":"left","response":"right","rt":1973.1000000001,"correct":false,"confidence":2},{"trial_n":47,"n_dots":3.65,"target":"right","response":"right","rt":1327.2000000002,"correct":true,"confidence":5},{"trial_n":48,"n_dots":3.65,"target":"right","response":"right","rt":4602.1999999997,"correct":true,"confidence":3},{"trial_n":49,"n_dots":3.55,"target":"left","response":"left","rt":6805.2000000002,"correct":true,"confidence":2},{"trial_n":50,"n_dots":3.55,"target":"left","response":"right","rt":1918,"correct":false,"confidence":3},{"trial_n":51,"n_dots":3.65,"target":"right","response":"right","rt":1604.2000000002,"correct":true,"confidence":5},{"trial_n":52,"n_dots":3.65,"target":"left","response":"right","rt":1617.2999999998,"correct":false,"confidence":2},{"trial_n":53,"n_dots":3.75,"target":"right","response":"right","rt":1348.3999999999,"correct":true,"confidence":4},{"trial_n":54,"n_dots":3.75,"target":"left","response":"left","rt":2132.3000000003,"correct":true,"confidence":4},{"trial_n":55,"n_dots":3.65,"target":"right","response":"right","rt":1401.7000000002,"correct":true,"confidence":5},{"trial_n":56,"n_dots":3.65,"target":"left","response":"left","rt":2455.5,"correct":true,"confidence":5},{"trial_n":57,"n_dots":3.55,"target":"left","response":"right","rt":3302.8000000003,"correct":false,"confidence":2},{"trial_n":58,"n_dots":3.65,"target":"left","response":"left","rt":3224.3999999999,"correct":true,"confidence":2},{"trial_n":59,"n_dots":3.65,"target":"left","response":"right","rt":10097.4,"correct":false,"confidence":3},{"trial_n":60,"n_dots":3.75,"target":"left","response":"left","rt":2413.3999999999,"correct":true,"confidence":5},{"trial_n":61,"n_dots":3.75,"target":"left","response":"right","rt":1346.1000000001,"correct":false,"confidence":3},{"trial_n":62,"n_dots":3.85,"target":"right","response":"right","rt":1886.5,"correct":true,"confidence":4},{"trial_n":63,"n_dots":3.85,"target":"left","response":"left","rt":3884.8000000003,"correct":true,"confidence":3},{"trial_n":64,"n_dots":3.75,"target":"left","response":"right","rt":2062.5,"correct":false,"confidence":1},{"trial_n":65,"n_dots":3.85,"target":"right","response":"left","rt":1797.5999999996,"correct":false,"confidence":5},{"trial_n":66,"n_dots":3.95,"target":"right","response":"right","rt":1834.6999999997,"correct":true,"confidence":3},{"trial_n":67,"n_dots":3.95,"target":"left","response":"left","rt":10538.9,"correct":true,"confidence":4},{"trial_n":68,"n_dots":3.85,"target":"right","response":"left","rt":1564.1999999997,"correct":false,"confidence":5},{"trial_n":69,"n_dots":3.95,"target":"left","response":"left","rt":2208.3999999999,"correct":true,"confidence":5},{"trial_n":70,"n_dots":3.95,"target":"left","response":"left","rt":2984.6000000001,"correct":true,"confidence":4},{"trial_n":71,"n_dots":3.85,"target":"left","response":"right","rt":2347.5999999996,"correct":false,"confidence":2},{"trial_n":72,"n_dots":3.95,"target":"left","response":"left","rt":2550.6999999997,"correct":true,"confidence":3},{"trial_n":73,"n_dots":3.95,"target":"right","response":"right","rt":3826.1000000001,"correct":true,"confidence":1},{"trial_n":74,"n_dots":3.85,"target":"right","response":"right","rt":2619.1000000001,"correct":true,"confidence":3},{"trial_n":75,"n_dots":3.85,"target":"right","response":"right","rt":1820.5,"correct":true,"confidence":3},{"trial_n":76,"n_dots":3.75,"target":"left","response":"left","rt":842.89999999991,"correct":true,"confidence":3},{"trial_n":77,"n_dots":3.75,"target":"left","response":"left","rt":1198.2999999998,"correct":true,"confidence":4},{"trial_n":78,"n_dots":3.65,"target":"left","response":"right","rt":975.5,"correct":false,"confidence":3},{"trial_n":79,"n_dots":3.75,"target":"right","response":"right","rt":1465.0999999996,"correct":true,"confidence":2},{"trial_n":80,"n_dots":3.75,"target":"right","response":"right","rt":2576.6000000001,"correct":true,"confidence":5},{"trial_n":81,"n_dots":3.65,"target":"right","response":"right","rt":1928,"correct":true,"confidence":3},{"trial_n":82,"n_dots":3.65,"target":"left","response":"left","rt":2315.1000000001,"correct":true,"confidence":3},{"trial_n":83,"n_dots":3.55,"target":"left","response":"right","rt":3294.6999999997,"correct":false,"confidence":1},{"trial_n":84,"n_dots":3.65,"target":"right","response":"right","rt":4459.3000000003,"correct":true,"confidence":3},{"trial_n":85,"n_dots":3.65,"target":"left","response":"left","rt":1387.2999999998,"correct":true,"confidence":1},{"trial_n":86,"n_dots":3.55,"target":"right","response":"left","rt":9568.1000000001,"correct":false,"confidence":1},{"trial_n":87,"n_dots":3.65,"target":"left","response":"right","rt":1781.7999999998,"correct":false,"confidence":4},{"trial_n":88,"n_dots":3.75,"target":"right","response":"left","rt":2234.7000000002,"correct":false,"confidence":3},{"trial_n":89,"n_dots":3.85,"target":"left","response":"left","rt":2099.4000000004,"correct":true,"confidence":5},{"trial_n":90,"n_dots":3.85,"target":"right","response":"left","rt":4974.1000000001,"correct":false,"confidence":3},{"trial_n":91,"n_dots":3.95,"target":"right","response":"right","rt":1599.3000000003,"correct":true,"confidence":3},{"trial_n":92,"n_dots":3.95,"target":"left","response":"left","rt":1578.9000000004,"correct":true,"confidence":4},{"trial_n":93,"n_dots":3.85,"target":"left","response":"left","rt":3199.1000000001,"correct":true,"confidence":1},{"trial_n":94,"n_dots":3.85,"target":"right","response":"right","rt":2486.2999999998,"correct":true,"confidence":3},{"trial_n":95,"n_dots":3.75,"target":"right","response":"right","rt":2024.2999999998,"correct":true,"confidence":4},{"trial_n":96,"n_dots":3.75,"target":"right","response":"right","rt":1167.6000000001,"correct":true,"confidence":4},{"trial_n":97,"n_dots":3.65,"target":"left","response":"left","rt":1464.1999999997,"correct":true,"confidence":4},{"trial_n":98,"n_dots":3.65,"target":"left","response":"left","rt":845.39999999991,"correct":true,"confidence":4},{"trial_n":99,"n_dots":3.55,"target":"right","response":"right","rt":2141.7000000002,"correct":true,"confidence":4},{"trial_n":100,"n_dots":3.55,"target":"left","response":"left","rt":2867.6000000001,"correct":true,"confidence":3},{"trial_n":101,"n_dots":3.45,"target":"left","response":"left","rt":1660.5,"correct":true,"confidence":4},{"trial_n":102,"n_dots":3.45,"target":"right","response":"left","rt":1587.0999999996,"correct":false,"confidence":5},{"trial_n":103,"n_dots":3.55,"target":"right","response":"left","rt":2121.0999999996,"correct":false,"confidence":4},{"trial_n":104,"n_dots":3.65,"target":"left","response":"left","rt":1858.7999999998,"correct":true,"confidence":4},{"trial_n":105,"n_dots":3.65,"target":"left","response":"left","rt":1771.1000000001,"correct":true,"confidence":3},{"trial_n":106,"n_dots":3.55,"target":"right","response":"left","rt":2987.6000000001,"correct":false,"confidence":3},{"trial_n":107,"n_dots":3.65,"target":"right","response":"left","rt":1924.7999999998,"correct":false,"confidence":4},{"trial_n":108,"n_dots":3.75,"target":"right","response":"left","rt":1642.3999999999,"correct":false,"confidence":2},{"trial_n":109,"n_dots":3.85,"target":"right","response":"right","rt":1415.8999999999,"correct":true,"confidence":3},{"trial_n":110,"n_dots":3.85,"target":"left","response":"left","rt":1348.2000000002,"correct":true,"confidence":1},{"trial_n":111,"n_dots":3.75,"target":"left","response":"left","rt":1684.5999999996,"correct":true,"confidence":5},{"trial_n":112,"n_dots":3.75,"target":"right","response":"left","rt":5352.2000000002,"correct":false,"confidence":4},{"trial_n":113,"n_dots":3.85,"target":"left","response":"left","rt":1222.3000000003,"correct":true,"confidence":2},{"trial_n":114,"n_dots":3.85,"target":"right","response":"right","rt":2954.2999999998,"correct":true,"confidence":3},{"trial_n":115,"n_dots":3.75,"target":"right","response":"left","rt":700.80000000028,"correct":false,"confidence":3},{"trial_n":116,"n_dots":3.85,"target":"left","response":"right","rt":261.60000000009,"correct":false,"confidence":3},{"trial_n":117,"n_dots":3.95,"target":"left","response":"left","rt":317.19999999972,"correct":true,"confidence":3},{"trial_n":118,"n_dots":3.95,"target":"right","response":"left","rt":241.20000000019,"correct":false,"confidence":4},{"trial_n":119,"n_dots":4.05,"target":"right","response":"right","rt":234,"correct":true,"confidence":4},{"trial_n":120,"n_dots":4.05,"target":"right","response":"left","rt":13494.4,"correct":false,"confidence":5}]