[{"trial_n":1,"min":25,"max":230,"target":"present","response":"present","rt":6214.8000000119,"correct":true,"confidence":-1},{"trial_n":2,"min":25,"max":230,"target":"present","response":"absent","rt":3744.8999999762,"correct":false,"confidence":-1},{"trial_n":3,"min":9,"max":246,"target":"absent","response":"present","rt":2697.8000000119,"correct":false,"confidence":-1},{"trial_n":4,"min":0,"max":255,"target":"absent","response":"present","rt":1704.5,"correct":false,"confidence":-1},{"trial_n":5,"min":0,"max":255,"target":"present","response":"absent","rt":1575.3000000119,"correct":false,"confidence":-1},{"trial_n":6,"min":0,"max":255,"target":"present","response":"present","rt":1411.8999999762,"correct":true,"confidence":-1},{"trial_n":7,"min":0,"max":255,"target":"absent","response":"absent","rt":903.59999996424,"correct":true,"confidence":-1},{"trial_n":8,"min":16,"max":239,"target":"absent","response":"absent","rt":1255.2000000477,"correct":true,"confidence":-1},{"trial_n":9,"min":16,"max":239,"target":"absent","response":"present","rt":1034.7000000477,"correct":false,"confidence":-1},{"trial_n":10,"min":0,"max":255,"target":"present","response":"present","rt":1443.1000000238,"correct":true,"confidence":-1},{"trial_n":11,"min":0,"max":255,"target":"present","response":"present","rt":1216.6000000238,"correct":true,"confidence":-1},{"trial_n":12,"min":8,"max":247,"target":"present","response":"present","rt":951.40000003576,"correct":true,"confidence":-1},{"trial_n":13,"min":8,"max":247,"target":"present","response":"present","rt":746.40000003576,"correct":true,"confidence":-1},{"trial_n":14,"min":16,"max":239,"target":"absent","response":"absent","rt":985.90000003576,"correct":true,"confidence":-1},{"trial_n":15,"min":16,"max":239,"target":"absent","response":"absent","rt":585.39999997616,"correct":true,"confidence":-1},{"trial_n":16,"min":24,"max":231,"target":"absent","response":"absent","rt":779.5,"correct":true,"confidence":-1},{"trial_n":17,"min":24,"max":231,"target":"present","response":"present","rt":841,"correct":true,"confidence":-1},{"trial_n":18,"min":32,"max":223,"target":"absent","response":"absent","rt":802.39999997616,"correct":true,"confidence":-1},{"trial_n":19,"min":32,"max":223,"target":"absent","response":"absent","rt":598.29999995232,"correct":true,"confidence":-1},{"trial_n":20,"min":40,"max":215,"target":"absent","response":"absent","rt":489.10000002384,"correct":true,"confidence":-1},{"trial_n":21,"min":40,"max":215,"target":"present","response":"present","rt":861.60000002384,"correct":true,"confidence":5},{"trial_n":22,"min":44,"max":211,"target":"present","response":"present","rt":1161.8999999762,"correct":true,"confidence":5},{"trial_n":23,"min":44,"max":211,"target":"absent","response":"absent","rt":674.5,"correct":true,"confidence":5},{"trial_n":24,"min":48,"max":207,"target":"present","response":"present","rt":1013.6000000238,"correct":true,"confidence":5},{"trial_n":25,"min":48,"max":207,"target":"present","response":"present","rt":630.5,"correct":true,"confidence":5},{"trial_n":26,"min":52,"max":203,"target":"present","response":"present","rt":777.69999998808,"correct":true,"confidence":5},{"trial_n":27,"min":52,"max":203,"target":"absent","response":"absent","rt":723.19999998808,"correct":true,"confidence":5},{"trial_n":28,"min":56,"max":199,"target":"absent","response":"absent","rt":1338.8999999762,"correct":true,"confidence":5},{"trial_n":29,"min":56,"max":199,"target":"absent","response":"absent","rt":1358.7999999523,"correct":true,"confidence":3},{"trial_n":30,"min":60,"max":195,"target":"present","response":"present","rt":765.69999998808,"correct":true,"confidence":5},{"trial_n":31,"min":60,"max":195,"target":"absent","response":"present","rt":1487,"correct":false,"confidence":5},{"trial_n":32,"min":58,"max":197,"target":"absent","response":"absent","rt":855,"correct":true,"confidence":5},{"trial_n":33,"min":58,"max":197,"target":"present","response":"present","rt":994.59999996424,"correct":true,"confidence":5},{"trial_n":34,"min":60,"max":195,"target":"present","response":"present","rt":766.60000002384,"correct":true,"confidence":5},{"trial_n":35,"min":60,"max":195,"target":"present","response":"present","rt":629.90000003576,"correct":true,"confidence":5},{"trial_n":36,"min":62,"max":193,"target":"present","response":"present","rt":594.30000001192,"correct":true,"confidence":5},{"trial_n":37,"min":62,"max":193,"target":"present","response":"present","rt":962.80000001192,"correct":true,"confidence":5},{"trial_n":38,"min":64,"max":191,"target":"present","response":"present","rt":630.79999995232,"correct":true,"confidence":5},{"trial_n":39,"min":64,"max":191,"target":"absent","response":"absent","rt":870.70000004768,"correct":true,"confidence":5},{"trial_n":40,"min":66,"max":189,"target":"present","response":"present","rt":861.19999998808,"correct":true,"confidence":5},{"trial_n":41,"min":66,"max":189,"target":"present","response":"present","rt":897.60000002384,"correct":true,"confidence":5},{"trial_n":42,"min":67,"max":188,"target":"present","response":"present","rt":616.89999997616,"correct":true,"confidence":5},{"trial_n":43,"min":67,"max":188,"target":"absent","response":"absent","rt":1142,"correct":true,"confidence":4},{"trial_n":44,"min":68,"max":187,"target":"absent","response":"absent","rt":920.89999997616,"correct":true,"confidence":5},{"trial_n":45,"min":68,"max":187,"target":"present","response":"present","rt":627.40000003576,"correct":true,"confidence":5},{"trial_n":46,"min":69,"max":186,"target":"absent","response":"absent","rt":922.5,"correct":true,"confidence":5},{"trial_n":47,"min":69,"max":186,"target":"absent","response":"absent","rt":976.09999996424,"correct":true,"confidence":5},{"trial_n":48,"min":70,"max":185,"target":"present","response":"present","rt":666.30000001192,"correct":true,"confidence":5},{"trial_n":49,"min":70,"max":185,"target":"present","response":"present","rt":665.80000001192,"correct":true,"confidence":5},{"trial_n":50,"min":71,"max":184,"target":"present","response":"present","rt":780.10000002384,"correct":true,"confidence":5},{"trial_n":51,"min":71,"max":184,"target":"present","response":"present","rt":695.89999997616,"correct":true,"confidence":5},{"trial_n":52,"min":72,"max":183,"target":"absent","response":"present","rt":1324.6999999881,"correct":false,"confidence":5},{"trial_n":53,"min":71,"max":184,"target":"present","response":"present","rt":578.09999996424,"correct":true,"confidence":5},{"trial_n":54,"min":71,"max":184,"target":"present","response":"present","rt":611,"correct":true,"confidence":5},{"trial_n":55,"min":72,"max":183,"target":"absent","response":"present","rt":1287.0999999642,"correct":false,"confidence":4},{"trial_n":56,"min":71,"max":184,"target":"absent","response":"absent","rt":805.80000001192,"correct":true,"confidence":5},{"trial_n":57,"min":71,"max":184,"target":"present","response":"present","rt":530.09999996424,"correct":true,"confidence":5},{"trial_n":58,"min":72,"max":183,"target":"absent","response":"absent","rt":823.70000004768,"correct":true,"confidence":5},{"trial_n":59,"min":72,"max":183,"target":"absent","response":"absent","rt":1234.8000000119,"correct":true,"confidence":5},{"trial_n":60,"min":73,"max":182,"target":"present","response":"present","rt":3219.8000000119,"correct":true,"confidence":5},{"trial_n":61,"min":73,"max":182,"target":"absent","response":"absent","rt":1191.8000000119,"correct":true,"confidence":5},{"trial_n":62,"min":74,"max":181,"target":"absent","response":"absent","rt":476.29999995232,"correct":true,"confidence":5},{"trial_n":63,"min":74,"max":181,"target":"absent","response":"absent","rt":507.10000002384,"correct":true,"confidence":5},{"trial_n":64,"min":75,"max":180,"target":"absent","response":"absent","rt":577.89999997616,"correct":true,"confidence":5},{"trial_n":65,"min":75,"max":180,"target":"absent","response":"absent","rt":417.30000001192,"correct":true,"confidence":5},{"trial_n":66,"min":76,"max":179,"target":"present","response":"absent","rt":437.90000003576,"correct":false,"confidence":5},{"trial_n":67,"min":75,"max":180,"target":"present","response":"present","rt":975.30000001192,"correct":true,"confidence":5},{"trial_n":68,"min":75,"max":180,"target":"absent","response":"absent","rt":4252,"correct":true,"confidence":3},{"trial_n":69,"min":76,"max":179,"target":"absent","response":"present","rt":1115.6999999881,"correct":false,"confidence":4},{"trial_n":70,"min":75,"max":180,"target":"present","response":"present","rt":506.09999996424,"correct":true,"confidence":5},{"trial_n":71,"min":41,"max":214,"target":"present","response":"present","rt":2474.8999999762,"correct":true,"confidence":-1},{"trial_n":72,"min":41,"max":214,"target":"present","response":"absent","rt":1101.8000000119,"correct":false,"confidence":-1},{"trial_n":73,"min":25,"max":230,"target":"absent","response":"absent","rt":1569.6999999881,"correct":true,"confidence":-1},{"trial_n":74,"min":25,"max":230,"target":"absent","response":"absent","rt":739.30000001192,"correct":true,"confidence":-1},{"trial_n":75,"min":41,"max":214,"target":"present","response":"present","rt":975.10000002384,"correct":true,"confidence":-1},{"trial_n":76,"min":41,"max":214,"target":"present","response":"present","rt":881.69999998808,"correct":true,"confidence":-1},{"trial_n":77,"min":57,"max":198,"target":"present","response":"present","rt":769.29999995232,"correct":true,"confidence":-1},{"trial_n":78,"min":57,"max":198,"target":"present","response":"present","rt":2317.1000000238,"correct":true,"confidence":-1},{"trial_n":79,"min":73,"max":182,"target":"absent","response":"absent","rt":656.69999998808,"correct":true,"confidence":-1},{"trial_n":80,"min":73,"max":182,"target":"present","response":"present","rt":1226.5,"correct":true,"confidence":-1},{"trial_n":81,"min":81,"max":174,"target":"present","response":"present","rt":736.5,"correct":true,"confidence":-1},{"trial_n":82,"min":81,"max":174,"target":"absent","response":"absent","rt":667.80000001192,"correct":true,"confidence":-1},{"trial_n":83,"min":89,"max":166,"target":"absent","response":"absent","rt":1118.1999999881,"correct":true,"confidence":-1},{"trial_n":84,"min":89,"max":166,"target":"absent","response":"absent","rt":1101.8999999762,"correct":true,"confidence":-1},{"trial_n":85,"min":97,"max":158,"target":"present","response":"present","rt":1586,"correct":true,"confidence":-1},{"trial_n":86,"min":97,"max":158,"target":"absent","response":"present","rt":1157.6999999881,"correct":false,"confidence":-1},{"trial_n":87,"min":89,"max":166,"target":"absent","response":"absent","rt":1247.4000000358,"correct":true,"confidence":-1},{"trial_n":88,"min":89,"max":166,"target":"absent","response":"absent","rt":751.70000004768,"correct":true,"confidence":-1},{"trial_n":89,"min":97,"max":158,"target":"present","response":"present","rt":921.60000002384,"correct":true,"confidence":-1},{"trial_n":90,"min":97,"max":158,"target":"present","response":"present","rt":743.60000002384,"correct":true,"confidence":-1},{"trial_n":91,"min":101,"max":154,"target":"absent","response":"absent","rt":956.79999995232,"correct":true,"confidence":5},{"trial_n":92,"min":101,"max":154,"target":"present","response":"present","rt":720.5,"correct":true,"confidence":5},{"trial_n":93,"min":105,"max":150,"target":"present","response":"present","rt":1204,"correct":true,"confidence":5},{"trial_n":94,"min":105,"max":150,"target":"present","response":"absent","rt":2130.6999999881,"correct":false,"confidence":4},{"trial_n":95,"min":101,"max":154,"target":"present","response":"present","rt":1062.8000000119,"correct":true,"confidence":5},{"trial_n":96,"min":101,"max":154,"target":"present","response":"present","rt":1372.1999999881,"correct":true,"confidence":5},{"trial_n":97,"min":105,"max":150,"target":"present","response":"present","rt":825.10000002384,"correct":true,"confidence":5},{"trial_n":98,"min":105,"max":150,"target":"absent","response":"present","rt":689.19999998808,"correct":false,"confidence":5},{"trial_n":99,"min":101,"max":154,"target":"absent","response":"present","rt":956.69999998808,"correct":false,"confidence":5},{"trial_n":100,"min":97,"max":158,"target":"absent","response":"present","rt":754.19999998808,"correct":false,"confidence":5},{"trial_n":101,"min":95,"max":160,"target":"absent","response":"present","rt":868.79999995232,"correct":false,"confidence":4},{"trial_n":102,"min":93,"max":162,"target":"present","response":"present","rt":656.09999996424,"correct":true,"confidence":4},{"trial_n":103,"min":93,"max":162,"target":"absent","response":"absent","rt":1009.8999999762,"correct":true,"confidence":4},{"trial_n":104,"min":95,"max":160,"target":"absent","response":"present","rt":556.89999997616,"correct":false,"confidence":4},{"trial_n":105,"min":93,"max":162,"target":"absent","response":"present","rt":556.10000002384,"correct":false,"confidence":5},{"trial_n":106,"min":91,"max":164,"target":"present","response":"present","rt":772.29999995232,"correct":true,"confidence":5},{"trial_n":107,"min":91,"max":164,"target":"present","response":"absent","rt":740,"correct":false,"confidence":2},{"trial_n":108,"min":89,"max":166,"target":"present","response":"absent","rt":1440,"correct":false,"confidence":3},{"trial_n":109,"min":87,"max":168,"target":"present","response":"present","rt":1035.5,"correct":true,"confidence":5},{"trial_n":110,"min":87,"max":168,"target":"absent","response":"present","rt":877.30000001192,"correct":false,"confidence":3},{"trial_n":111,"min":86,"max":169,"target":"present","response":"present","rt":637.39999997616,"correct":true,"confidence":5},{"trial_n":112,"min":86,"max":169,"target":"absent","response":"absent","rt":1285.7999999523,"correct":true,"confidence":4},{"trial_n":113,"min":87,"max":168,"target":"absent","response":"present","rt":1900,"correct":false,"confidence":5},{"trial_n":114,"min":86,"max":169,"target":"present","response":"present","rt":886.5,"correct":true,"confidence":5},{"trial_n":115,"min":86,"max":169,"target":"present","response":"present","rt":982.89999997616,"correct":true,"confidence":5},{"trial_n":116,"min":87,"max":168,"target":"present","response":"present","rt":1287.5999999642,"correct":true,"confidence":1},{"trial_n":117,"min":87,"max":168,"target":"absent","response":"absent","rt":1560,"correct":true,"confidence":5},{"trial_n":118,"min":88,"max":167,"target":"present","response":"present","rt":1019.3000000119,"correct":true,"confidence":5},{"trial_n":119,"min":88,"max":167,"target":"absent","response":"absent","rt":1074.8999999762,"correct":true,"confidence":5},{"trial_n":120,"min":89,"max":166,"target":"present","response":"present","rt":670.60000002384,"correct":true,"confidence":5},{"trial_n":121,"min":89,"max":166,"target":"present","response":"present","rt":611.80000001192,"correct":true,"confidence":5},{"trial_n":122,"min":90,"max":165,"target":"absent","response":"present","rt":1446,"correct":false,"confidence":5},{"trial_n":123,"min":89,"max":166,"target":"present","response":"present","rt":213.39999997616,"correct":true,"confidence":5},{"trial_n":124,"min":89,"max":166,"target":"absent","response":"present","rt":464.19999998808,"correct":false,"confidence":5},{"trial_n":125,"min":88,"max":167,"target":"absent","response":"absent","rt":690.89999997616,"correct":true,"confidence":4},{"trial_n":126,"min":88,"max":167,"target":"absent","response":"absent","rt":467.19999998808,"correct":true,"confidence":4},{"trial_n":127,"min":89,"max":166,"target":"present","response":"present","rt":180.90000003576,"correct":true,"confidence":5},{"trial_n":128,"min":89,"max":166,"target":"present","response":"present","rt":732.40000003576,"correct":true,"confidence":5},{"trial_n":129,"min":90,"max":165,"target":"absent","response":"absent","rt":682.10000002384,"correct":true,"confidence":5},{"trial_n":130,"min":90,"max":165,"target":"absent","response":"present","rt":757.70000004768,"correct":false,"confidence":1},{"trial_n":131,"min":89,"max":166,"target":"absent","response":"present","rt":524.70000004768,"correct":false,"confidence":3},{"trial_n":132,"min":88,"max":167,"target":"absent","response":"absent","rt":1201.5,"correct":true,"confidence":4},{"trial_n":133,"min":88,"max":167,"target":"present","response":"present","rt":458.30000001192,"correct":true,"confidence":5},{"trial_n":134,"min":89,"max":166,"target":"absent","response":"absent","rt":699.10000002384,"correct":true,"confidence":5},{"trial_n":135,"min":89,"max":166,"target":"present","response":"absent","rt":589,"correct":false,"confidence":3},{"trial_n":136,"min":88,"max":167,"target":"present","response":"present","rt":233.69999998808,"correct":true,"confidence":4},{"trial_n":137,"min":88,"max":167,"target":"absent","response":"present","rt":177.39999997616,"correct":false,"confidence":4},{"trial_n":138,"min":87,"max":168,"target":"absent","response":"present","rt":480.30000001192,"correct":false,"confidence":4},{"trial_n":139,"min":86,"max":169,"target":"absent","response":"absent","rt":355,"correct":true,"confidence":5},{"trial_n":140,"min":86,"max":169,"target":"present","response":"present","rt":644,"correct":true,"confidence":5}]