[{"trial_n":1,"n_dots":4.25,"target":"right","response":"right","rt":1839,"correct":true,"confidence":-1},{"trial_n":2,"n_dots":4.25,"target":"left","response":"right","rt":991,"correct":false,"confidence":-1},{"trial_n":3,"n_dots":4.65,"target":"left","response":"left","rt":793,"correct":true,"confidence":-1},{"trial_n":4,"n_dots":4.65,"target":"left","response":"left","rt":2494,"correct":true,"confidence":-1},{"trial_n":5,"n_dots":4.25,"target":"right","response":"left","rt":827,"correct":false,"confidence":-1},{"trial_n":6,"n_dots":4.65,"target":"right","response":"right","rt":646,"correct":true,"confidence":-1},{"trial_n":7,"n_dots":4.65,"target":"right","response":"right","rt":411.00000000001,"correct":true,"confidence":-1},{"trial_n":8,"n_dots":4.45,"target":"left","response":"left","rt":577.99999999999,"correct":true,"confidence":-1},{"trial_n":9,"n_dots":4.45,"target":"left","response":"left","rt":2504,"correct":true,"confidence":-1},{"trial_n":10,"n_dots":4.25,"target":"left","response":"left","rt":648,"correct":true,"confidence":-1},{"trial_n":11,"n_dots":4.25,"target":"right","response":"right","rt":634.99999999999,"correct":true,"confidence":-1},{"trial_n":12,"n_dots":4.05,"target":"left","response":"left","rt":273,"correct":true,"confidence":-1},{"trial_n":13,"n_dots":4.05,"target":"left","response":"left","rt":391,"correct":true,"confidence":-1},{"trial_n":14,"n_dots":3.95,"target":"right","response":"right","rt":46.999999999993,"correct":true,"confidence":-1},{"trial_n":15,"n_dots":3.95,"target":"left","response":"left","rt":600,"correct":true,"confidence":-1},{"trial_n":16,"n_dots":3.85,"target":"left","response":"left","rt":148,"correct":true,"confidence":-1},{"trial_n":17,"n_dots":3.85,"target":"right","response":"left","rt":422,"correct":false,"confidence":-1},{"trial_n":18,"n_dots":3.95,"target":"left","response":"right","rt":509,"correct":false,"confidence":-1},{"trial_n":19,"n_dots":4.05,"target":"right","response":"right","rt":347.99999999999,"correct":true,"confidence":-1},{"trial_n":20,"n_dots":4.05,"target":"right","response":"right","rt":797,"correct":true,"confidence":-1},{"trial_n":21,"n_dots":3.95,"target":"right","response":"right","rt":518,"correct":true,"confidence":4},{"trial_n":22,"n_dots":3.95,"target":"left","response":"left","rt":666,"correct":true,"confidence":2},{"trial_n":23,"n_dots":3.85,"target":"right","response":"right","rt":670,"correct":true,"confidence":3},{"trial_n":24,"n_dots":3.85,"target":"right","response":"right","rt":521,"correct":true,"confidence":1},{"trial_n":25,"n_dots":3.75,"target":"left","response":"left","rt":373,"correct":true,"confidence":4},{"trial_n":26,"n_dots":3.75,"target":"left","response":"left","rt":621,"correct":true,"confidence":4},{"trial_n":27,"n_dots":3.65,"target":"right","response":"right","rt":503,"correct":true,"confidence":1},{"trial_n":28,"n_dots":3.65,"target":"right","response":"right","rt":1234,"correct":true,"confidence":2},{"trial_n":29,"n_dots":3.55,"target":"right","response":"right","rt":3696,"correct":true,"confidence":1},{"trial_n":30,"n_dots":3.55,"target":"left","response":"left","rt":1662,"correct":true,"confidence":4},{"trial_n":31,"n_dots":3.45,"target":"left","response":"right","rt":911,"correct":false,"confidence":4},{"trial_n":32,"n_dots":3.55,"target":"right","response":"right","rt":917,"correct":true,"confidence":3},{"trial_n":33,"n_dots":3.55,"target":"left","response":"right","rt":2883,"correct":false,"confidence":3},{"trial_n":34,"n_dots":3.65,"target":"right","response":"right","rt":870,"correct":true,"confidence":5},{"trial_n":35,"n_dots":3.65,"target":"left","response":"left","rt":731,"correct":true,"confidence":3},{"trial_n":36,"n_dots":3.55,"target":"right","response":"right","rt":917,"correct":true,"confidence":4},{"trial_n":37,"n_dots":3.55,"target":"left","response":"left","rt":1285,"correct":true,"confidence":3},{"trial_n":38,"n_dots":3.45,"target":"right","response":"right","rt":636,"correct":true,"confidence":5},{"trial_n":39,"n_dots":3.45,"target":"right","response":"right","rt":1366,"correct":true,"confidence":3},{"trial_n":40,"n_dots":3.35,"target":"left","response":"right","rt":1117,"correct":false,"confidence":4},{"trial_n":41,"n_dots":3.45,"target":"right","response":"left","rt":948,"correct":false,"confidence":3},{"trial_n":42,"n_dots":3.55,"target":"left","response":"left","rt":983,"correct":true,"confidence":3},{"trial_n":43,"n_dots":3.55,"target":"right","response":"right","rt":984,"correct":true,"confidence":4},{"trial_n":44,"n_dots":3.45,"target":"left","response":"right","rt":853,"correct":false,"confidence":3},{"trial_n":45,"n_dots":3.55,"target":"right","response":"right","rt":885,"correct":true,"confidence":1},{"trial_n":46,"n_dots":3.55,"target":"left","response":"left","rt":1902,"correct":true,"confidence":2},{"trial_n":47,"n_dots":3.45,"target":"right","response":"right","rt":1032,"correct":true,"confidence":3},{"trial_n":48,"n_dots":3.45,"target":"right","response":"left","rt":1019,"correct":false,"confidence":3},{"trial_n":49,"n_dots":3.55,"target":"left","response":"left","rt":786,"correct":true,"confidence":5},{"trial_n":50,"n_dots":3.55,"target":"left","response":"left","rt":903.00000000003,"correct":true,"confidence":4},{"trial_n":51,"n_dots":3.45,"target":"right","response":"left","rt":953,"correct":false,"confidence":3},{"trial_n":52,"n_dots":3.55,"target":"left","response":"left","rt":1166,"correct":true,"confidence":3},{"trial_n":53,"n_dots":3.55,"target":"right","response":"right","rt":986.99999999997,"correct":true,"confidence":3},{"trial_n":54,"n_dots":3.45,"target":"right","response":"right","rt":887,"correct":true,"confidence":4},{"trial_n":55,"n_dots":3.45,"target":"left","response":"left","rt":3455,"correct":true,"confidence":1},{"trial_n":56,"n_dots":3.35,"target":"left","response":"left","rt":755.00000000006,"correct":true,"confidence":5},{"trial_n":57,"n_dots":3.35,"target":"right","response":"right","rt":807.00000000006,"correct":true,"confidence":4},{"trial_n":58,"n_dots":3.25,"target":"left","response":"right","rt":1409,"correct":false,"confidence":1},{"trial_n":59,"n_dots":3.35,"target":"left","response":"left","rt":622,"correct":true,"confidence":5},{"trial_n":60,"n_dots":3.35,"target":"right","response":"right","rt":572,"correct":true,"confidence":4},{"trial_n":61,"n_dots":3.25,"target":"left","response":"left","rt":989.99999999994,"correct":true,"confidence":3},{"trial_n":62,"n_dots":3.25,"target":"right","response":"right","rt":975,"correct":true,"confidence":4},{"trial_n":63,"n_dots":3.15,"target":"left","response":"left","rt":1690,"correct":true,"confidence":3},{"trial_n":64,"n_dots":3.15,"target":"left","response":"left","rt":824,"correct":true,"confidence":4},{"trial_n":65,"n_dots":3.05,"target":"right","response":"right","rt":1409,"correct":true,"confidence":3},{"trial_n":66,"n_dots":3.05,"target":"right","response":"right","rt":1173,"correct":true,"confidence":2},{"trial_n":67,"n_dots":2.95,"target":"right","response":"right","rt":1757,"correct":true,"confidence":1},{"trial_n":68,"n_dots":2.95,"target":"left","response":"left","rt":2028,"correct":true,"confidence":1},{"trial_n":69,"n_dots":2.85,"target":"left","response":"left","rt":1826.0000000001,"correct":true,"confidence":1},{"trial_n":70,"n_dots":2.85,"target":"right","response":"left","rt":975,"correct":false,"confidence":3},{"trial_n":71,"n_dots":2.95,"target":"left","response":"left","rt":892,"correct":true,"confidence":4},{"trial_n":72,"n_dots":2.95,"target":"right","response":"left","rt":1075,"correct":false,"confidence":3},{"trial_n":73,"n_dots":3.05,"target":"left","response":"left","rt":858,"correct":true,"confidence":4},{"trial_n":74,"n_dots":3.05,"target":"left","response":"left","rt":1526.0000000001,"correct":true,"confidence":3},{"trial_n":75,"n_dots":2.95,"target":"left","response":"left","rt":1008,"correct":true,"confidence":3},{"trial_n":76,"n_dots":2.95,"target":"right","response":"right","rt":910,"correct":true,"confidence":4},{"trial_n":77,"n_dots":2.85,"target":"left","response":"right","rt":1310,"correct":false,"confidence":4},{"trial_n":78,"n_dots":2.95,"target":"left","response":"left","rt":810,"correct":true,"confidence":3},{"trial_n":79,"n_dots":2.95,"target":"right","response":"right","rt":2179,"correct":true,"confidence":3},{"trial_n":80,"n_dots":2.85,"target":"left","response":"left","rt":1961.0000000001,"correct":true,"confidence":1},{"trial_n":81,"n_dots":2.85,"target":"left","response":"left","rt":777,"correct":true,"confidence":3},{"trial_n":82,"n_dots":2.75,"target":"left","response":"left","rt":994.00000000006,"correct":true,"confidence":5},{"trial_n":83,"n_dots":2.75,"target":"right","response":"right","rt":1394.9999999999,"correct":true,"confidence":4},{"trial_n":84,"n_dots":2.65,"target":"left","response":"left","rt":878,"correct":true,"confidence":3},{"trial_n":85,"n_dots":2.65,"target":"left","response":"left","rt":1661,"correct":true,"confidence":1},{"trial_n":86,"n_dots":2.55,"target":"left","response":"right","rt":1797,"correct":false,"confidence":4},{"trial_n":87,"n_dots":2.65,"target":"left","response":"left","rt":800,"correct":true,"confidence":2},{"trial_n":88,"n_dots":2.65,"target":"right","response":"left","rt":1563,"correct":false,"confidence":2},{"trial_n":89,"n_dots":2.75,"target":"right","response":"right","rt":796,"correct":true,"confidence":2},{"trial_n":90,"n_dots":2.75,"target":"left","response":"left","rt":1496,"correct":true,"confidence":1},{"trial_n":91,"n_dots":2.65,"target":"left","response":"left","rt":1163.0000000001,"correct":true,"confidence":1},{"trial_n":92,"n_dots":2.65,"target":"right","response":"right","rt":1213,"correct":true,"confidence":1},{"trial_n":93,"n_dots":2.55,"target":"right","response":"right","rt":931,"correct":true,"confidence":3},{"trial_n":94,"n_dots":2.55,"target":"right","response":"left","rt":914,"correct":false,"confidence":2},{"trial_n":95,"n_dots":2.65,"target":"left","response":"left","rt":1133,"correct":true,"confidence":2},{"trial_n":96,"n_dots":2.65,"target":"left","response":"left","rt":813.99999999994,"correct":true,"confidence":3},{"trial_n":97,"n_dots":2.55,"target":"right","response":"left","rt":1397.9999999999,"correct":false,"confidence":3},{"trial_n":98,"n_dots":2.65,"target":"left","response":"left","rt":1082,"correct":true,"confidence":2},{"trial_n":99,"n_dots":2.65,"target":"left","response":"left","rt":915,"correct":true,"confidence":3},{"trial_n":100,"n_dots":2.55,"target":"right","response":"left","rt":999.00000000006,"correct":false,"confidence":2},{"trial_n":101,"n_dots":2.65,"target":"right","response":"right","rt":1115.0000000001,"correct":true,"confidence":4},{"trial_n":102,"n_dots":2.65,"target":"left","response":"right","rt":1117,"correct":false,"confidence":4},{"trial_n":103,"n_dots":2.75,"target":"right","response":"right","rt":849.00000000006,"correct":true,"confidence":3},{"trial_n":104,"n_dots":2.75,"target":"left","response":"left","rt":2132.9999999999,"correct":true,"confidence":2},{"trial_n":105,"n_dots":2.65,"target":"right","response":"right","rt":4118,"correct":true,"confidence":4},{"trial_n":106,"n_dots":2.65,"target":"right","response":"left","rt":1686,"correct":false,"confidence":3},{"trial_n":107,"n_dots":2.75,"target":"right","response":"left","rt":948.99999999988,"correct":false,"confidence":3},{"trial_n":108,"n_dots":2.85,"target":"right","response":"right","rt":1018,"correct":true,"confidence":4},{"trial_n":109,"n_dots":2.85,"target":"right","response":"left","rt":8286,"correct":false,"confidence":1},{"trial_n":110,"n_dots":2.95,"target":"right","response":"left","rt":1104,"correct":false,"confidence":2},{"trial_n":111,"n_dots":3.05,"target":"left","response":"right","rt":603,"correct":false,"confidence":4},{"trial_n":112,"n_dots":3.15,"target":"left","response":"left","rt":651,"correct":true,"confidence":5},{"trial_n":113,"n_dots":3.15,"target":"right","response":"left","rt":787,"correct":false,"confidence":3},{"trial_n":114,"n_dots":3.25,"target":"right","response":"right","rt":1068,"correct":true,"confidence":3},{"trial_n":115,"n_dots":3.25,"target":"left","response":"left","rt":1202,"correct":true,"confidence":3},{"trial_n":116,"n_dots":3.15,"target":"right","response":"left","rt":753,"correct":false,"confidence":2},{"trial_n":117,"n_dots":3.25,"target":"right","response":"left","rt":970,"correct":false,"confidence":3},{"trial_n":118,"n_dots":3.35,"target":"right","response":"left","rt":853,"correct":false,"confidence":3},{"trial_n":119,"n_dots":3.45,"target":"left","response":"left","rt":1757,"correct":true,"confidence":3},{"trial_n":120,"n_dots":3.45,"target":"right","response":"left","rt":3438,"correct":false,"confidence":1}]