[{"trial_n":1,"n_dots":4.25,"target":"left","response":"left","rt":7575.799999997,"correct":true,"confidence":-1},{"trial_n":2,"n_dots":4.25,"target":"left","response":"left","rt":1586.799999997,"correct":true,"confidence":-1},{"trial_n":3,"n_dots":3.85,"target":"left","response":"left","rt":1221.799999997,"correct":true,"confidence":-1},{"trial_n":4,"n_dots":3.85,"target":"right","response":"right","rt":964.70000000298,"correct":true,"confidence":-1},{"trial_n":5,"n_dots":3.45,"target":"left","response":"left","rt":770.70000000298,"correct":true,"confidence":-1},{"trial_n":6,"n_dots":3.45,"target":"left","response":"left","rt":747.20000000298,"correct":true,"confidence":-1},{"trial_n":7,"n_dots":3.05,"target":"left","response":"left","rt":1304.8000000119,"correct":true,"confidence":-1},{"trial_n":8,"n_dots":3.05,"target":"right","response":"right","rt":1086.6000000089,"correct":true,"confidence":-1},{"trial_n":9,"n_dots":2.85,"target":"left","response":"left","rt":758.70000000298,"correct":true,"confidence":-1},{"trial_n":10,"n_dots":2.85,"target":"right","response":"right","rt":638.5,"correct":true,"confidence":-1},{"trial_n":11,"n_dots":2.65,"target":"left","response":"left","rt":1196.799999997,"correct":true,"confidence":-1},{"trial_n":12,"n_dots":2.65,"target":"right","response":"right","rt":614,"correct":true,"confidence":-1},{"trial_n":13,"n_dots":2.55,"target":"left","response":"left","rt":3852.1999999881,"correct":true,"confidence":-1},{"trial_n":14,"n_dots":2.55,"target":"left","response":"left","rt":709.09999999404,"correct":true,"confidence":-1},{"trial_n":15,"n_dots":2.45,"target":"right","response":"right","rt":427,"correct":true,"confidence":-1},{"trial_n":16,"n_dots":2.45,"target":"right","response":"left","rt":447,"correct":false,"confidence":-1},{"trial_n":17,"n_dots":2.55,"target":"right","response":"right","rt":330.29999999702,"correct":true,"confidence":-1},{"trial_n":18,"n_dots":2.55,"target":"right","response":"right","rt":462.79999999702,"correct":true,"confidence":-1},{"trial_n":19,"n_dots":2.45,"target":"left","response":"right","rt":446.20000000298,"correct":false,"confidence":-1},{"trial_n":20,"n_dots":2.55,"target":"left","response":"left","rt":515,"correct":true,"confidence":-1},{"trial_n":21,"n_dots":2.55,"target":"right","response":"left","rt":528.59999999404,"correct":false,"confidence":3},{"trial_n":22,"n_dots":2.65,"target":"right","response":"left","rt":561.09999999404,"correct":false,"confidence":3},{"trial_n":23,"n_dots":2.75,"target":"left","response":"right","rt":477.70000000298,"correct":false,"confidence":4},{"trial_n":24,"n_dots":2.85,"target":"left","response":"right","rt":1095.3999999911,"correct":false,"confidence":3},{"trial_n":25,"n_dots":2.95,"target":"right","response":"right","rt":424.30000001192,"correct":true,"confidence":4},{"trial_n":26,"n_dots":2.95,"target":"right","response":"right","rt":687.5,"correct":true,"confidence":4},{"trial_n":27,"n_dots":2.85,"target":"left","response":"right","rt":1263.700000003,"correct":false,"confidence":4},{"trial_n":28,"n_dots":2.95,"target":"right","response":"right","rt":337.5,"correct":true,"confidence":3},{"trial_n":29,"n_dots":2.95,"target":"left","response":"left","rt":1329,"correct":true,"confidence":2},{"trial_n":30,"n_dots":2.85,"target":"right","response":"right","rt":823.70000000298,"correct":true,"confidence":3},{"trial_n":31,"n_dots":2.85,"target":"right","response":"right","rt":923.09999999404,"correct":true,"confidence":2},{"trial_n":32,"n_dots":2.75,"target":"right","response":"right","rt":1092,"correct":true,"confidence":4},{"trial_n":33,"n_dots":2.75,"target":"left","response":"right","rt":791.40000000596,"correct":false,"confidence":3},{"trial_n":34,"n_dots":2.85,"target":"right","response":"right","rt":464.70000000298,"correct":true,"confidence":4},{"trial_n":35,"n_dots":2.85,"target":"left","response":"right","rt":1377.900000006,"correct":false,"confidence":2},{"trial_n":36,"n_dots":2.95,"target":"right","response":"right","rt":539.29999999702,"correct":true,"confidence":3},{"trial_n":37,"n_dots":2.95,"target":"right","response":"right","rt":594.29999999702,"correct":true,"confidence":4},{"trial_n":38,"n_dots":2.85,"target":"right","response":"right","rt":580.79999999702,"correct":true,"confidence":5},{"trial_n":39,"n_dots":2.85,"target":"right","response":"right","rt":524.39999999106,"correct":true,"confidence":4},{"trial_n":40,"n_dots":2.75,"target":"left","response":"right","rt":685.29999999702,"correct":false,"confidence":3},{"trial_n":41,"n_dots":2.85,"target":"left","response":"right","rt":987.90000000596,"correct":false,"confidence":2},{"trial_n":42,"n_dots":2.95,"target":"left","response":"right","rt":1900.700000003,"correct":false,"confidence":3},{"trial_n":43,"n_dots":3.05,"target":"right","response":"right","rt":828.40000000596,"correct":true,"confidence":2},{"trial_n":44,"n_dots":3.05,"target":"left","response":"left","rt":847.90000000596,"correct":true,"confidence":1},{"trial_n":45,"n_dots":2.95,"target":"left","response":"right","rt":687,"correct":false,"confidence":3},{"trial_n":46,"n_dots":3.05,"target":"right","response":"right","rt":384.10000000894,"correct":true,"confidence":4},{"trial_n":47,"n_dots":3.05,"target":"right","response":"right","rt":788.59999999404,"correct":true,"confidence":3},{"trial_n":48,"n_dots":2.95,"target":"left","response":"left","rt":924.90000000596,"correct":true,"confidence":2},{"trial_n":49,"n_dots":2.95,"target":"left","response":"right","rt":493.30000001192,"correct":false,"confidence":3},{"trial_n":50,"n_dots":3.05,"target":"right","response":"right","rt":715.10000000894,"correct":true,"confidence":3},{"trial_n":51,"n_dots":3.05,"target":"left","response":"left","rt":432.10000000894,"correct":true,"confidence":2},{"trial_n":52,"n_dots":2.95,"target":"right","response":"right","rt":681,"correct":true,"confidence":3},{"trial_n":53,"n_dots":2.95,"target":"left","response":"right","rt":474.5,"correct":false,"confidence":4},{"trial_n":54,"n_dots":3.05,"target":"right","response":"right","rt":296.5,"correct":true,"confidence":3},{"trial_n":55,"n_dots":3.05,"target":"right","response":"right","rt":341.40000000596,"correct":true,"confidence":4},{"trial_n":56,"n_dots":2.95,"target":"right","response":"right","rt":586.40000000596,"correct":true,"confidence":4},{"trial_n":57,"n_dots":2.95,"target":"left","response":"right","rt":870.40000000596,"correct":false,"confidence":3},{"trial_n":58,"n_dots":3.05,"target":"left","response":"right","rt":1006.3999999911,"correct":false,"confidence":2},{"trial_n":59,"n_dots":3.15,"target":"right","response":"left","rt":926.20000000298,"correct":false,"confidence":3},{"trial_n":60,"n_dots":3.25,"target":"left","response":"left","rt":471.40000000596,"correct":true,"confidence":3},{"trial_n":61,"n_dots":3.25,"target":"right","response":"left","rt":441.70000000298,"correct":false,"confidence":2},{"trial_n":62,"n_dots":3.35,"target":"left","response":"left","rt":286.40000000596,"correct":true,"confidence":3},{"trial_n":63,"n_dots":3.35,"target":"right","response":"right","rt":431.09999999404,"correct":true,"confidence":4},{"trial_n":64,"n_dots":3.25,"target":"left","response":"left","rt":475.70000000298,"correct":true,"confidence":3},{"trial_n":65,"n_dots":3.25,"target":"right","response":"right","rt":85.40000000596,"correct":true,"confidence":4},{"trial_n":66,"n_dots":3.15,"target":"left","response":"right","rt":83.29999999702,"correct":false,"confidence":5},{"trial_n":67,"n_dots":3.25,"target":"right","response":"right","rt":167.29999999702,"correct":true,"confidence":4},{"trial_n":68,"n_dots":3.25,"target":"right","response":"right","rt":1856.299999997,"correct":true,"confidence":4},{"trial_n":69,"n_dots":3.15,"target":"left","response":"left","rt":845.10000000894,"correct":true,"confidence":2},{"trial_n":70,"n_dots":3.15,"target":"left","response":"left","rt":489.79999999702,"correct":true,"confidence":3},{"trial_n":71,"n_dots":3.05,"target":"left","response":"left","rt":1168.1999999881,"correct":true,"confidence":2},{"trial_n":72,"n_dots":3.05,"target":"right","response":"right","rt":582.59999999404,"correct":true,"confidence":4},{"trial_n":73,"n_dots":2.95,"target":"left","response":"right","rt":342,"correct":false,"confidence":4},{"trial_n":74,"n_dots":3.05,"target":"left","response":"right","rt":548.90000000596,"correct":false,"confidence":3},{"trial_n":75,"n_dots":3.15,"target":"right","response":"right","rt":234.19999998808,"correct":true,"confidence":4},{"trial_n":76,"n_dots":3.15,"target":"left","response":"left","rt":647.5,"correct":true,"confidence":2},{"trial_n":77,"n_dots":3.05,"target":"right","response":"right","rt":301,"correct":true,"confidence":3},{"trial_n":78,"n_dots":3.05,"target":"left","response":"right","rt":1414.6000000089,"correct":false,"confidence":3},{"trial_n":79,"n_dots":3.15,"target":"right","response":"right","rt":1088.1999999881,"correct":true,"confidence":2},{"trial_n":80,"n_dots":3.15,"target":"right","response":"left","rt":1588.099999994,"correct":false,"confidence":1},{"trial_n":81,"n_dots":3.25,"target":"right","response":"right","rt":169.20000000298,"correct":true,"confidence":4},{"trial_n":82,"n_dots":3.25,"target":"left","response":"right","rt":664.89999999106,"correct":false,"confidence":4},{"trial_n":83,"n_dots":3.35,"target":"right","response":"right","rt":471,"correct":true,"confidence":4},{"trial_n":84,"n_dots":3.35,"target":"right","response":"right","rt":502.19999998808,"correct":true,"confidence":3},{"trial_n":85,"n_dots":3.25,"target":"left","response":"left","rt":449.5,"correct":true,"confidence":3},{"trial_n":86,"n_dots":3.25,"target":"right","response":"left","rt":671.39999999106,"correct":false,"confidence":4},{"trial_n":87,"n_dots":3.35,"target":"right","response":"right","rt":266,"correct":true,"confidence":4},{"trial_n":88,"n_dots":3.35,"target":"left","response":"right","rt":681.20000000298,"correct":false,"confidence":3},{"trial_n":89,"n_dots":3.45,"target":"left","response":"right","rt":950.19999998808,"correct":false,"confidence":3},{"trial_n":90,"n_dots":3.55,"target":"right","response":"right","rt":908.40000000596,"correct":true,"confidence":3},{"trial_n":91,"n_dots":3.55,"target":"left","response":"left","rt":379.80000001192,"correct":true,"confidence":4},{"trial_n":92,"n_dots":3.45,"target":"left","response":"left","rt":840.80000001192,"correct":true,"confidence":3},{"trial_n":93,"n_dots":3.45,"target":"left","response":"left","rt":395.39999999106,"correct":true,"confidence":4},{"trial_n":94,"n_dots":3.35,"target":"left","response":"left","rt":703.80000001192,"correct":true,"confidence":4},{"trial_n":95,"n_dots":3.35,"target":"right","response":"right","rt":758.40000000596,"correct":true,"confidence":4},{"trial_n":96,"n_dots":3.25,"target":"right","response":"right","rt":291.80000001192,"correct":true,"confidence":4},{"trial_n":97,"n_dots":3.25,"target":"right","response":"right","rt":238.39999999106,"correct":true,"confidence":4},{"trial_n":98,"n_dots":3.15,"target":"left","response":"left","rt":502.90000000596,"correct":true,"confidence":4},{"trial_n":99,"n_dots":3.15,"target":"right","response":"right","rt":129.70000000298,"correct":true,"confidence":4},{"trial_n":100,"n_dots":3.05,"target":"right","response":"right","rt":284.70000000298,"correct":true,"confidence":4},{"trial_n":101,"n_dots":3.05,"target":"right","response":"right","rt":195.80000001192,"correct":true,"confidence":3},{"trial_n":102,"n_dots":2.95,"target":"left","response":"left","rt":48.90000000596,"correct":true,"confidence":4},{"trial_n":103,"n_dots":2.95,"target":"right","response":"right","rt":194.59999999404,"correct":true,"confidence":4},{"trial_n":104,"n_dots":2.85,"target":"left","response":"left","rt":69.399999991059,"correct":true,"confidence":5},{"trial_n":105,"n_dots":2.85,"target":"left","response":"right","rt":77.5,"correct":false,"confidence":4},{"trial_n":106,"n_dots":2.95,"target":"right","response":"right","rt":362.09999999404,"correct":true,"confidence":4},{"trial_n":107,"n_dots":2.95,"target":"right","response":"right","rt":18.70000000298,"correct":true,"confidence":4},{"trial_n":108,"n_dots":2.85,"target":"right","response":"right","rt":819.59999999404,"correct":true,"confidence":3},{"trial_n":109,"n_dots":2.85,"target":"left","response":"right","rt":693.60000000894,"correct":false,"confidence":3},{"trial_n":110,"n_dots":2.95,"target":"right","response":"right","rt":754.40000000596,"correct":true,"confidence":4},{"trial_n":111,"n_dots":2.95,"target":"right","response":"left","rt":527.5,"correct":false,"confidence":2},{"trial_n":112,"n_dots":3.05,"target":"left","response":"left","rt":335.09999999404,"correct":true,"confidence":4},{"trial_n":113,"n_dots":3.05,"target":"left","response":"right","rt":527.39999999106,"correct":false,"confidence":3},{"trial_n":114,"n_dots":3.15,"target":"left","response":"left","rt":249.20000000298,"correct":true,"confidence":5},{"trial_n":115,"n_dots":3.15,"target":"left","response":"left","rt":60.29999999702,"correct":true,"confidence":5},{"trial_n":116,"n_dots":3.05,"target":"right","response":"right","rt":64,"correct":true,"confidence":5},{"trial_n":117,"n_dots":3.05,"target":"left","response":"right","rt":496.29999999702,"correct":false,"confidence":4},{"trial_n":118,"n_dots":3.15,"target":"right","response":"right","rt":76.59999999404,"correct":true,"confidence":4},{"trial_n":119,"n_dots":3.15,"target":"left","response":"left","rt":795.20000000298,"correct":true,"confidence":2},{"trial_n":120,"n_dots":3.05,"target":"left","response":"left","rt":98.29999999702,"correct":true,"confidence":3}]