[{"trial_n":1,"min":25,"max":230,"target":"present","response":"present","rt":6494.5,"correct":true,"confidence":-1},{"trial_n":2,"min":25,"max":230,"target":"present","response":"absent","rt":3757.3000000007,"correct":false,"confidence":-1},{"trial_n":3,"min":9,"max":246,"target":"absent","response":"present","rt":2052.2999999998,"correct":false,"confidence":-1},{"trial_n":4,"min":0,"max":255,"target":"absent","response":"absent","rt":707.89999999944,"correct":true,"confidence":-1},{"trial_n":5,"min":0,"max":255,"target":"present","response":"present","rt":1940.7000000002,"correct":true,"confidence":-1},{"trial_n":6,"min":16,"max":239,"target":"absent","response":"absent","rt":964.89999999944,"correct":true,"confidence":-1},{"trial_n":7,"min":16,"max":239,"target":"present","response":"present","rt":789.10000000056,"correct":true,"confidence":-1},{"trial_n":8,"min":32,"max":223,"target":"present","response":"present","rt":665.70000000019,"correct":true,"confidence":-1},{"trial_n":9,"min":32,"max":223,"target":"absent","response":"absent","rt":1266.5999999996,"correct":true,"confidence":-1},{"trial_n":10,"min":48,"max":207,"target":"absent","response":"absent","rt":529.90000000037,"correct":true,"confidence":-1},{"trial_n":11,"min":48,"max":207,"target":"absent","response":"absent","rt":459.79999999981,"correct":true,"confidence":-1},{"trial_n":12,"min":56,"max":199,"target":"present","response":"present","rt":922.40000000037,"correct":true,"confidence":-1},{"trial_n":13,"min":56,"max":199,"target":"absent","response":"absent","rt":841.40000000037,"correct":true,"confidence":-1},{"trial_n":14,"min":64,"max":191,"target":"present","response":"present","rt":645.70000000019,"correct":true,"confidence":-1},{"trial_n":15,"min":64,"max":191,"target":"absent","response":"absent","rt":556.79999999981,"correct":true,"confidence":-1},{"trial_n":16,"min":72,"max":183,"target":"present","response":"present","rt":1037.7999999998,"correct":true,"confidence":-1},{"trial_n":17,"min":72,"max":183,"target":"present","response":"absent","rt":1048.0999999996,"correct":false,"confidence":-1},{"trial_n":18,"min":64,"max":191,"target":"absent","response":"absent","rt":888.79999999981,"correct":true,"confidence":-1},{"trial_n":19,"min":64,"max":191,"target":"absent","response":"absent","rt":340.79999999981,"correct":true,"confidence":-1},{"trial_n":20,"min":72,"max":183,"target":"absent","response":"absent","rt":504,"correct":true,"confidence":-1},{"trial_n":21,"min":72,"max":183,"target":"absent","response":"absent","rt":469.30000000075,"correct":true,"confidence":5},{"trial_n":22,"min":76,"max":179,"target":"present","response":"absent","rt":708.5,"correct":false,"confidence":5},{"trial_n":23,"min":72,"max":183,"target":"absent","response":"absent","rt":643.59999999963,"correct":true,"confidence":5},{"trial_n":24,"min":72,"max":183,"target":"absent","response":"absent","rt":1040.8999999994,"correct":true,"confidence":5},{"trial_n":25,"min":76,"max":179,"target":"absent","response":"absent","rt":700.09999999963,"correct":true,"confidence":5},{"trial_n":26,"min":76,"max":179,"target":"absent","response":"absent","rt":676.5,"correct":true,"confidence":5},{"trial_n":27,"min":80,"max":175,"target":"present","response":"absent","rt":712.70000000019,"correct":false,"confidence":5},{"trial_n":28,"min":76,"max":179,"target":"present","response":"present","rt":637.90000000037,"correct":true,"confidence":4},{"trial_n":29,"min":76,"max":179,"target":"present","response":"present","rt":877.89999999944,"correct":true,"confidence":4},{"trial_n":30,"min":80,"max":175,"target":"present","response":"absent","rt":986.20000000019,"correct":false,"confidence":5},{"trial_n":31,"min":78,"max":177,"target":"present","response":"absent","rt":763.70000000019,"correct":false,"confidence":5},{"trial_n":32,"min":76,"max":179,"target":"absent","response":"absent","rt":641.89999999944,"correct":true,"confidence":5},{"trial_n":33,"min":76,"max":179,"target":"present","response":"present","rt":924,"correct":true,"confidence":3},{"trial_n":34,"min":78,"max":177,"target":"present","response":"absent","rt":913,"correct":false,"confidence":5},{"trial_n":35,"min":76,"max":179,"target":"absent","response":"absent","rt":1364.7999999998,"correct":true,"confidence":3},{"trial_n":36,"min":76,"max":179,"target":"absent","response":"absent","rt":1766.2000000002,"correct":true,"confidence":1},{"trial_n":37,"min":78,"max":177,"target":"present","response":"present","rt":735.20000000019,"correct":true,"confidence":4},{"trial_n":38,"min":78,"max":177,"target":"present","response":"present","rt":853.59999999963,"correct":true,"confidence":4},{"trial_n":39,"min":80,"max":175,"target":"present","response":"present","rt":718.79999999981,"correct":true,"confidence":4},{"trial_n":40,"min":80,"max":175,"target":"present","response":"present","rt":1335,"correct":true,"confidence":2},{"trial_n":41,"min":81,"max":174,"target":"present","response":"present","rt":626.59999999963,"correct":true,"confidence":2},{"trial_n":42,"min":81,"max":174,"target":"absent","response":"absent","rt":1132,"correct":true,"confidence":5},{"trial_n":43,"min":82,"max":173,"target":"absent","response":"absent","rt":1180.7000000002,"correct":true,"confidence":5},{"trial_n":44,"min":82,"max":173,"target":"present","response":"present","rt":713.10000000056,"correct":true,"confidence":3},{"trial_n":45,"min":83,"max":172,"target":"absent","response":"absent","rt":945.60000000056,"correct":true,"confidence":3},{"trial_n":46,"min":83,"max":172,"target":"present","response":"absent","rt":887.89999999944,"correct":false,"confidence":5},{"trial_n":47,"min":82,"max":173,"target":"absent","response":"absent","rt":841.09999999963,"correct":true,"confidence":5},{"trial_n":48,"min":82,"max":173,"target":"present","response":"present","rt":769.29999999981,"correct":true,"confidence":4},{"trial_n":49,"min":83,"max":172,"target":"present","response":"absent","rt":1021.5,"correct":false,"confidence":4},{"trial_n":50,"min":82,"max":173,"target":"present","response":"present","rt":880.59999999963,"correct":true,"confidence":3},{"trial_n":51,"min":82,"max":173,"target":"absent","response":"absent","rt":1141.2000000002,"correct":true,"confidence":4},{"trial_n":52,"min":83,"max":172,"target":"present","response":"absent","rt":804.40000000037,"correct":false,"confidence":4},{"trial_n":53,"min":82,"max":173,"target":"absent","response":"absent","rt":648.5,"correct":true,"confidence":4},{"trial_n":54,"min":82,"max":173,"target":"absent","response":"present","rt":794.30000000075,"correct":false,"confidence":3},{"trial_n":55,"min":81,"max":174,"target":"absent","response":"absent","rt":752.79999999981,"correct":true,"confidence":4},{"trial_n":56,"min":81,"max":174,"target":"absent","response":"absent","rt":656.29999999981,"correct":true,"confidence":4},{"trial_n":57,"min":82,"max":173,"target":"present","response":"present","rt":631.20000000019,"correct":true,"confidence":3},{"trial_n":58,"min":82,"max":173,"target":"present","response":"present","rt":665.40000000037,"correct":true,"confidence":3},{"trial_n":59,"min":83,"max":172,"target":"present","response":"present","rt":870.90000000037,"correct":true,"confidence":3},{"trial_n":60,"min":83,"max":172,"target":"present","response":"present","rt":1529.3000000007,"correct":true,"confidence":1},{"trial_n":61,"min":84,"max":171,"target":"absent","response":"present","rt":1068.0999999996,"correct":false,"confidence":1},{"trial_n":62,"min":83,"max":172,"target":"absent","response":"absent","rt":1095.8999999994,"correct":true,"confidence":4},{"trial_n":63,"min":83,"max":172,"target":"absent","response":"absent","rt":582.79999999981,"correct":true,"confidence":4},{"trial_n":64,"min":84,"max":171,"target":"present","response":"absent","rt":641,"correct":false,"confidence":4},{"trial_n":65,"min":83,"max":172,"target":"present","response":"present","rt":606,"correct":true,"confidence":3},{"trial_n":66,"min":83,"max":172,"target":"present","response":"absent","rt":789.60000000056,"correct":false,"confidence":3},{"trial_n":67,"min":82,"max":173,"target":"absent","response":"absent","rt":626.80000000075,"correct":true,"confidence":3},{"trial_n":68,"min":82,"max":173,"target":"absent","response":"absent","rt":849.70000000019,"correct":true,"confidence":3},{"trial_n":69,"min":83,"max":172,"target":"absent","response":"absent","rt":574.60000000056,"correct":true,"confidence":3},{"trial_n":70,"min":83,"max":172,"target":"present","response":"absent","rt":536.5,"correct":false,"confidence":3},{"trial_n":71,"min":41,"max":214,"target":"present","response":"present","rt":2537.6999999993,"correct":true,"confidence":-1},{"trial_n":72,"min":41,"max":214,"target":"present","response":"present","rt":575.39999999944,"correct":true,"confidence":-1},{"trial_n":73,"min":57,"max":198,"target":"absent","response":"absent","rt":742.59999999963,"correct":true,"confidence":-1},{"trial_n":74,"min":57,"max":198,"target":"absent","response":"present","rt":720.20000000019,"correct":false,"confidence":-1},{"trial_n":75,"min":41,"max":214,"target":"present","response":"present","rt":505.20000000019,"correct":true,"confidence":-1},{"trial_n":76,"min":41,"max":214,"target":"present","response":"present","rt":471.79999999981,"correct":true,"confidence":-1},{"trial_n":77,"min":57,"max":198,"target":"present","response":"present","rt":338.20000000019,"correct":true,"confidence":-1},{"trial_n":78,"min":57,"max":198,"target":"present","response":"present","rt":403.59999999963,"correct":true,"confidence":-1},{"trial_n":79,"min":73,"max":182,"target":"present","response":"present","rt":467.90000000037,"correct":true,"confidence":-1},{"trial_n":80,"min":73,"max":182,"target":"present","response":"present","rt":454.40000000037,"correct":true,"confidence":-1},{"trial_n":81,"min":81,"max":174,"target":"absent","response":"absent","rt":893.70000000019,"correct":true,"confidence":-1},{"trial_n":82,"min":81,"max":174,"target":"present","response":"absent","rt":693,"correct":false,"confidence":-1},{"trial_n":83,"min":73,"max":182,"target":"absent","response":"absent","rt":1089.4000000004,"correct":true,"confidence":-1},{"trial_n":84,"min":73,"max":182,"target":"absent","response":"absent","rt":979.30000000075,"correct":true,"confidence":-1},{"trial_n":85,"min":81,"max":174,"target":"present","response":"present","rt":675.29999999981,"correct":true,"confidence":-1},{"trial_n":86,"min":81,"max":174,"target":"absent","response":"absent","rt":749.40000000037,"correct":true,"confidence":-1},{"trial_n":87,"min":89,"max":166,"target":"present","response":"present","rt":952.20000000019,"correct":true,"confidence":-1},{"trial_n":88,"min":89,"max":166,"target":"present","response":"absent","rt":736.39999999944,"correct":false,"confidence":-1},{"trial_n":89,"min":81,"max":174,"target":"absent","response":"absent","rt":646,"correct":true,"confidence":-1},{"trial_n":90,"min":81,"max":174,"target":"absent","response":"absent","rt":331.5,"correct":true,"confidence":-1},{"trial_n":91,"min":85,"max":170,"target":"absent","response":"present","rt":1015.6999999993,"correct":false,"confidence":1},{"trial_n":92,"min":81,"max":174,"target":"present","response":"absent","rt":1563.0999999996,"correct":false,"confidence":2},{"trial_n":93,"min":77,"max":178,"target":"absent","response":"absent","rt":1016,"correct":true,"confidence":3},{"trial_n":94,"min":77,"max":178,"target":"present","response":"present","rt":581,"correct":true,"confidence":4},{"trial_n":95,"min":81,"max":174,"target":"absent","response":"present","rt":2436.2000000002,"correct":false,"confidence":3},{"trial_n":96,"min":77,"max":178,"target":"present","response":"present","rt":762.70000000019,"correct":true,"confidence":5},{"trial_n":97,"min":77,"max":178,"target":"absent","response":"absent","rt":916.10000000056,"correct":true,"confidence":5},{"trial_n":98,"min":81,"max":174,"target":"absent","response":"absent","rt":2334.4000000004,"correct":true,"confidence":3},{"trial_n":99,"min":81,"max":174,"target":"absent","response":"present","rt":701.29999999981,"correct":false,"confidence":4},{"trial_n":100,"min":77,"max":178,"target":"absent","response":"absent","rt":680,"correct":true,"confidence":3},{"trial_n":101,"min":77,"max":178,"target":"present","response":"present","rt":650,"correct":true,"confidence":5},{"trial_n":102,"min":79,"max":176,"target":"present","response":"present","rt":625.69999999925,"correct":true,"confidence":5},{"trial_n":103,"min":79,"max":176,"target":"present","response":"present","rt":558.5,"correct":true,"confidence":5},{"trial_n":104,"min":81,"max":174,"target":"absent","response":"absent","rt":1064.7000000002,"correct":true,"confidence":4},{"trial_n":105,"min":81,"max":174,"target":"absent","response":"present","rt":621.19999999925,"correct":false,"confidence":4},{"trial_n":106,"min":79,"max":176,"target":"absent","response":"absent","rt":592.5,"correct":true,"confidence":5},{"trial_n":107,"min":79,"max":176,"target":"present","response":"present","rt":995.29999999981,"correct":true,"confidence":5},{"trial_n":108,"min":81,"max":174,"target":"absent","response":"absent","rt":899,"correct":true,"confidence":4},{"trial_n":109,"min":81,"max":174,"target":"present","response":"present","rt":1348.7000000002,"correct":true,"confidence":4},{"trial_n":110,"min":83,"max":172,"target":"absent","response":"present","rt":1336.3999999994,"correct":false,"confidence":1},{"trial_n":111,"min":82,"max":173,"target":"present","response":"present","rt":986.09999999963,"correct":true,"confidence":1},{"trial_n":112,"min":82,"max":173,"target":"absent","response":"absent","rt":1326,"correct":true,"confidence":1},{"trial_n":113,"min":83,"max":172,"target":"present","response":"present","rt":524.70000000019,"correct":true,"confidence":4},{"trial_n":114,"min":83,"max":172,"target":"absent","response":"absent","rt":1420.2999999998,"correct":true,"confidence":1},{"trial_n":115,"min":84,"max":171,"target":"present","response":"present","rt":549.79999999981,"correct":true,"confidence":5},{"trial_n":116,"min":84,"max":171,"target":"absent","response":"absent","rt":1059.5999999996,"correct":true,"confidence":3},{"trial_n":117,"min":85,"max":170,"target":"present","response":"present","rt":638.89999999944,"correct":true,"confidence":4},{"trial_n":118,"min":85,"max":170,"target":"absent","response":"present","rt":783.19999999925,"correct":false,"confidence":4},{"trial_n":119,"min":84,"max":171,"target":"present","response":"present","rt":1581.8000000007,"correct":true,"confidence":5},{"trial_n":120,"min":84,"max":171,"target":"absent","response":"present","rt":1473.5999999996,"correct":false,"confidence":3},{"trial_n":121,"min":83,"max":172,"target":"absent","response":"absent","rt":1353,"correct":true,"confidence":4},{"trial_n":122,"min":83,"max":172,"target":"absent","response":"absent","rt":1463.8000000007,"correct":true,"confidence":1},{"trial_n":123,"min":84,"max":171,"target":"absent","response":"absent","rt":1425.2000000002,"correct":true,"confidence":3},{"trial_n":124,"min":84,"max":171,"target":"present","response":"present","rt":1121.2999999998,"correct":true,"confidence":1},{"trial_n":125,"min":85,"max":170,"target":"present","response":"present","rt":739.79999999981,"correct":true,"confidence":5},{"trial_n":126,"min":85,"max":170,"target":"present","response":"present","rt":718.5,"correct":true,"confidence":4},{"trial_n":127,"min":86,"max":169,"target":"present","response":"present","rt":578.20000000019,"correct":true,"confidence":5},{"trial_n":128,"min":86,"max":169,"target":"present","response":"present","rt":637.89999999944,"correct":true,"confidence":4},{"trial_n":129,"min":87,"max":168,"target":"present","response":"present","rt":553.69999999925,"correct":true,"confidence":5},{"trial_n":130,"min":87,"max":168,"target":"present","response":"present","rt":613.69999999925,"correct":true,"confidence":4},{"trial_n":131,"min":88,"max":167,"target":"present","response":"present","rt":728.19999999925,"correct":true,"confidence":4},{"trial_n":132,"min":88,"max":167,"target":"present","response":"present","rt":522.79999999981,"correct":true,"confidence":4},{"trial_n":133,"min":89,"max":166,"target":"absent","response":"absent","rt":677.89999999944,"correct":true,"confidence":1},{"trial_n":134,"min":89,"max":166,"target":"present","response":"present","rt":986.70000000019,"correct":true,"confidence":4},{"trial_n":135,"min":90,"max":165,"target":"present","response":"absent","rt":1109.5,"correct":false,"confidence":3},{"trial_n":136,"min":89,"max":166,"target":"absent","response":"present","rt":615.09999999963,"correct":false,"confidence":3},{"trial_n":137,"min":88,"max":167,"target":"absent","response":"present","rt":660.5,"correct":false,"confidence":3},{"trial_n":138,"min":87,"max":168,"target":"absent","response":"absent","rt":1005,"correct":true,"confidence":4},{"trial_n":139,"min":87,"max":168,"target":"absent","response":"present","rt":783,"correct":false,"confidence":4},{"trial_n":140,"min":86,"max":169,"target":"absent","response":"present","rt":895.89999999944,"correct":false,"confidence":1}]