[{"trial_n":1,"span":8,"encoder":"02757187","distractor":"02757183","target":"present","response":"present","rt":"6559.799999997","correct":true,"confidence":-1},{"trial_n":2,"span":8,"encoder":"20757508","distractor":"20857508","target":"present","response":"absent","rt":"5510.599999994","correct":false,"confidence":-1},{"trial_n":3,"span":6,"encoder":"622324","distractor":"622323","target":"absent","response":"absent","rt":"3058.5","correct":true,"confidence":-1},{"trial_n":4,"span":6,"encoder":"901654","distractor":"901653","target":"absent","response":"absent","rt":"2397.200000003","correct":true,"confidence":-1},{"trial_n":5,"span":8,"encoder":"88133835","distractor":"88143835","target":"present","response":"present","rt":"3514.900000006","correct":true,"confidence":-1},{"trial_n":6,"span":8,"encoder":"67696214","distractor":"67692214","target":"absent","response":"present","rt":"3714.200000003","correct":false,"confidence":-1},{"trial_n":7,"span":6,"encoder":"012742","distractor":"412742","target":"present","response":"present","rt":"1917.099999994","correct":true,"confidence":-1},{"trial_n":8,"span":6,"encoder":"865593","distractor":"965593","target":"present","response":"present","rt":"1845.1000000089","correct":true,"confidence":-1},{"trial_n":9,"span":8,"encoder":"25612769","distractor":"25612569","target":"present","response":"absent","rt":"2105.900000006","correct":false,"confidence":-1},{"trial_n":10,"span":6,"encoder":"283510","distractor":"273510","target":"absent","response":"present","rt":"2272.5","correct":false,"confidence":-1},{"trial_n":11,"span":4,"encoder":"0560","distractor":"0460","target":"present","response":"present","rt":"1658.3000000119","correct":true,"confidence":-1},{"trial_n":12,"span":4,"encoder":"7053","distractor":"7253","target":"present","response":"present","rt":"1664.3999999911","correct":true,"confidence":-1},{"trial_n":13,"span":5,"encoder":"67121","distractor":"57121","target":"present","response":"present","rt":"1746.099999994","correct":true,"confidence":-1},{"trial_n":14,"span":5,"encoder":"77757","distractor":"77797","target":"absent","response":"absent","rt":"2187.6000000089","correct":true,"confidence":-1},{"trial_n":15,"span":6,"encoder":"226389","distractor":"226309","target":"present","response":"present","rt":"1571.799999997","correct":true,"confidence":-1},{"trial_n":16,"span":6,"encoder":"220539","distractor":"220533","target":"present","response":"present","rt":"1483.3999999911","correct":true,"confidence":-1},{"trial_n":17,"span":7,"encoder":"2284097","distractor":"2284017","target":"absent","response":"present","rt":"2106.400000006","correct":false,"confidence":-1},{"trial_n":18,"span":6,"encoder":"274851","distractor":"274881","target":"absent","response":"present","rt":"1785.200000003","correct":false,"confidence":-1},{"trial_n":19,"span":5,"encoder":"11071","distractor":"11001","target":"present","response":"present","rt":"1215.1000000089","correct":true,"confidence":-1},{"trial_n":20,"span":5,"encoder":"27841","distractor":"27821","target":"absent","response":"present","rt":"1235","correct":false,"confidence":-1},{"trial_n":21,"span":4,"encoder":"1414","distractor":"1415","target":"present","response":"present","rt":"970.90000000596","correct":true,"confidence":5},{"trial_n":22,"span":4,"encoder":"0585","distractor":"0505","target":"absent","response":"absent","rt":"3505.1999999881","correct":true,"confidence":4},{"trial_n":23,"span":5,"encoder":"44853","distractor":"44353","target":"present","response":"present","rt":"2853.3999999911","correct":true,"confidence":5},{"trial_n":24,"span":5,"encoder":"07974","distractor":"07574","target":"absent","response":"absent","rt":"3694.6000000089","correct":true,"confidence":5},{"trial_n":25,"span":6,"encoder":"578656","distractor":"588656","target":"absent","response":"absent","rt":"3265.099999994","correct":true,"confidence":4},{"trial_n":26,"span":6,"encoder":"026040","distractor":"027040","target":"absent","response":"absent","rt":"2575.1000000089","correct":true,"confidence":4},{"trial_n":27,"span":7,"encoder":"4956562","distractor":"4656562","target":"absent","response":"present","rt":"4341.200000003","correct":false,"confidence":3},{"trial_n":28,"span":6,"encoder":"823079","distractor":"823039","target":"present","response":"present","rt":"2800.3999999911","correct":true,"confidence":4},{"trial_n":29,"span":6,"encoder":"532823","distractor":"522823","target":"present","response":"present","rt":"3468.400000006","correct":true,"confidence":3},{"trial_n":30,"span":7,"encoder":"1352660","distractor":"1352760","target":"absent","response":"absent","rt":"1855","correct":true,"confidence":5},{"trial_n":31,"span":7,"encoder":"7592602","distractor":"6592602","target":"absent","response":"absent","rt":"2563.5","correct":true,"confidence":5},{"trial_n":32,"span":8,"encoder":"55032155","distractor":"56032155","target":"present","response":"present","rt":"3390.200000003","correct":true,"confidence":5},{"trial_n":33,"span":8,"encoder":"64621090","distractor":"14621090","target":"absent","response":"absent","rt":"1985.700000003","correct":true,"confidence":5},{"trial_n":34,"span":9,"encoder":"797146428","distractor":"797146426","target":"absent","response":"absent","rt":"5157.200000003","correct":true,"confidence":4},{"trial_n":35,"span":9,"encoder":"473833557","distractor":"673833557","target":"present","response":"present","rt":"2446.400000006","correct":true,"confidence":3},{"trial_n":36,"span":10,"encoder":"1212794749","distractor":"1202794749","target":"present","response":"present","rt":"3241.6000000089","correct":true,"confidence":4},{"trial_n":37,"span":10,"encoder":"1636629094","distractor":"3636629094","target":"absent","response":"absent","rt":"5944.200000003","correct":true,"confidence":2},{"trial_n":38,"span":11,"encoder":"12928724254","distractor":"12923724254","target":"absent","response":"absent","rt":"5062.700000003","correct":true,"confidence":4},{"trial_n":39,"span":11,"encoder":"70804531398","distractor":"50804531398","target":"absent","response":"present","rt":"9533.799999997","correct":false,"confidence":3},{"trial_n":40,"span":10,"encoder":"5637043649","distractor":"5647043649","target":"absent","response":"present","rt":"2813.400000006","correct":false,"confidence":4},{"trial_n":41,"span":9,"encoder":"404908544","distractor":"404508544","target":"present","response":"present","rt":"1780.599999994","correct":true,"confidence":3},{"trial_n":42,"span":9,"encoder":"172514561","distractor":"102514561","target":"present","response":"present","rt":"2746.299999997","correct":true,"confidence":4},{"trial_n":43,"span":10,"encoder":"7000810009","distractor":"7003810009","target":"absent","response":"present","rt":"2135.5","correct":false,"confidence":4},{"trial_n":44,"span":9,"encoder":"669480748","distractor":"669480348","target":"absent","response":"present","rt":"3455.5","correct":false,"confidence":3},{"trial_n":45,"span":8,"encoder":"59960912","distractor":"59960812","target":"absent","response":"absent","rt":"4045.1000000089","correct":true,"confidence":5},{"trial_n":46,"span":8,"encoder":"92471301","distractor":"92471341","target":"present","response":"absent","rt":"5806.799999997","correct":false,"confidence":3},{"trial_n":47,"span":7,"encoder":"2622567","distractor":"2622587","target":"present","response":"absent","rt":"5472.5","correct":false,"confidence":3},{"trial_n":48,"span":6,"encoder":"704282","distractor":"704082","target":"absent","response":"present","rt":"1357.700000003","correct":false,"confidence":4},{"trial_n":49,"span":5,"encoder":"62256","distractor":"72256","target":"absent","response":"absent","rt":"4999.6000000089","correct":true,"confidence":3},{"trial_n":50,"span":5,"encoder":"59361","distractor":"29361","target":"present","response":"present","rt":"1930.6000000089","correct":true,"confidence":5},{"trial_n":51,"span":6,"encoder":"274723","distractor":"274720","target":"present","response":"present","rt":"3694.599999994","correct":true,"confidence":3},{"trial_n":52,"span":6,"encoder":"957678","distractor":"957675","target":"present","response":"present","rt":"3041.8999999911","correct":true,"confidence":5},{"trial_n":53,"span":7,"encoder":"2798469","distractor":"3798469","target":"absent","response":"present","rt":"3506.200000003","correct":false,"confidence":2},{"trial_n":54,"span":6,"encoder":"626909","distractor":"026909","target":"present","response":"present","rt":"2078.599999994","correct":true,"confidence":5},{"trial_n":55,"span":6,"encoder":"637773","distractor":"637673","target":"present","response":"present","rt":"2299.400000006","correct":true,"confidence":4},{"trial_n":56,"span":7,"encoder":"7560643","distractor":"7510643","target":"absent","response":"present","rt":"4062.799999997","correct":false,"confidence":3},{"trial_n":57,"span":6,"encoder":"126570","distractor":"126970","target":"absent","response":"present","rt":"2470.6999999881","correct":false,"confidence":4},{"trial_n":58,"span":5,"encoder":"97200","distractor":"97230","target":"present","response":"present","rt":"2122.700000003","correct":true,"confidence":5},{"trial_n":59,"span":5,"encoder":"94169","distractor":"92169","target":"present","response":"present","rt":"2769.799999997","correct":true,"confidence":4},{"trial_n":60,"span":6,"encoder":"651377","distractor":"656377","target":"present","response":"present","rt":"1898.1999999881","correct":true,"confidence":4},{"trial_n":61,"span":6,"encoder":"081229","distractor":"181229","target":"absent","response":"absent","rt":"3862.299999997","correct":true,"confidence":3},{"trial_n":62,"span":7,"encoder":"9693897","distractor":"9693697","target":"absent","response":"present","rt":"3671.5","correct":false,"confidence":3},{"trial_n":63,"span":6,"encoder":"222120","distractor":"222160","target":"present","response":"present","rt":"1838.799999997","correct":true,"confidence":4},{"trial_n":64,"span":6,"encoder":"824068","distractor":"824088","target":"absent","response":"absent","rt":"5483","correct":true,"confidence":3},{"trial_n":65,"span":7,"encoder":"2312956","distractor":"2712956","target":"present","response":"present","rt":"3826.799999997","correct":true,"confidence":4},{"trial_n":66,"span":7,"encoder":"6304344","distractor":"6904344","target":"present","response":"absent","rt":"4670.099999994","correct":false,"confidence":4},{"trial_n":67,"span":6,"encoder":"742942","distractor":"722942","target":"present","response":"present","rt":"4981.200000003","correct":true,"confidence":4},{"trial_n":68,"span":6,"encoder":"768155","distractor":"763155","target":"present","response":"absent","rt":"3654.799999997","correct":false,"confidence":2},{"trial_n":69,"span":5,"encoder":"71280","distractor":"77280","target":"absent","response":"absent","rt":"4340.700000003","correct":true,"confidence":4},{"trial_n":70,"span":5,"encoder":"63545","distractor":"53545","target":"absent","response":"absent","rt":"3631.1999999881","correct":true,"confidence":3},{"trial_n":71,"span":8,"encoder":"56028562","distractor":"56728562","target":"present","response":"present","rt":"4534.5","correct":true,"confidence":-1},{"trial_n":72,"span":8,"encoder":"12382534","distractor":"12382134","target":"present","response":"absent","rt":"1615","correct":false,"confidence":-1},{"trial_n":73,"span":7,"encoder":"8425770","distractor":"8425760","target":"absent","response":"absent","rt":"1308.3999999911","correct":true,"confidence":-1},{"trial_n":74,"span":7,"encoder":"8614871","distractor":"8614872","target":"absent","response":"absent","rt":"2401.700000003","correct":true,"confidence":-1},{"trial_n":75,"span":8,"encoder":"45730119","distractor":"45732119","target":"present","response":"present","rt":"3385.3999999911","correct":true,"confidence":-1},{"trial_n":76,"span":8,"encoder":"98993740","distractor":"98992740","target":"present","response":"present","rt":"4120.200000003","correct":true,"confidence":-1},{"trial_n":77,"span":9,"encoder":"354781324","distractor":"354781322","target":"present","response":"present","rt":"2360.5","correct":true,"confidence":-1},{"trial_n":78,"span":9,"encoder":"139364894","distractor":"139364594","target":"present","response":"present","rt":"1788.6000000089","correct":true,"confidence":-1},{"trial_n":79,"span":10,"encoder":"1396750119","distractor":"1596750119","target":"present","response":"present","rt":"1487.700000003","correct":true,"confidence":-1},{"trial_n":80,"span":10,"encoder":"9242112076","distractor":"9242192076","target":"present","response":"present","rt":"1786.900000006","correct":true,"confidence":-1},{"trial_n":81,"span":11,"encoder":"30239425930","distractor":"30239425939","target":"present","response":"present","rt":"2033","correct":true,"confidence":-1},{"trial_n":82,"span":11,"encoder":"22588492489","distractor":"22588492484","target":"present","response":"present","rt":"1535.5","correct":true,"confidence":-1},{"trial_n":83,"span":12,"encoder":"167613519679","distractor":"167613519699","target":"absent","response":"absent","rt":"1639","correct":true,"confidence":-1},{"trial_n":84,"span":12,"encoder":"449296861941","distractor":"449298861941","target":"absent","response":"absent","rt":"3834","correct":true,"confidence":-1},{"trial_n":85,"span":13,"encoder":"5574827913565","distractor":"5574827916565","target":"absent","response":"absent","rt":"2455.8999999911","correct":true,"confidence":-1},{"trial_n":86,"span":13,"encoder":"6041962382748","distractor":"6041962380748","target":"present","response":"absent","rt":"1706.700000003","correct":false,"confidence":-1},{"trial_n":87,"span":12,"encoder":"541293612274","distractor":"541293612214","target":"absent","response":"absent","rt":"1586.700000003","correct":true,"confidence":-1},{"trial_n":88,"span":12,"encoder":"358485078848","distractor":"358485074848","target":"absent","response":"absent","rt":"3890.799999997","correct":true,"confidence":-1},{"trial_n":89,"span":13,"encoder":"7009107358291","distractor":"7509107358291","target":"present","response":"present","rt":"2697.599999994","correct":true,"confidence":-1},{"trial_n":90,"span":13,"encoder":"3502316234489","distractor":"3502376234489","target":"absent","response":"present","rt":"3032.799999997","correct":false,"confidence":-1},{"trial_n":91,"span":12,"encoder":"651849068017","distractor":"651849061017","target":"absent","response":"absent","rt":"2391.799999997","correct":true,"confidence":4},{"trial_n":92,"span":12,"encoder":"566025673415","distractor":"566025663415","target":"present","response":"present","rt":"2506","correct":true,"confidence":4},{"trial_n":93,"span":13,"encoder":"8149398403630","distractor":"8149398403530","target":"absent","response":"present","rt":"10974.799999997","correct":false,"confidence":3},{"trial_n":94,"span":12,"encoder":"998911661772","distractor":"998911667772","target":"absent","response":"present","rt":"3136.700000003","correct":false,"confidence":3},{"trial_n":95,"span":11,"encoder":"02473872357","distractor":"02573872357","target":"absent","response":"present","rt":"2811.900000006","correct":false,"confidence":2},{"trial_n":96,"span":10,"encoder":"6321076062","distractor":"1321076062","target":"present","response":"present","rt":"2533.8999999911","correct":true,"confidence":3},{"trial_n":97,"span":10,"encoder":"9699647913","distractor":"9699647923","target":"present","response":"present","rt":"4189.099999994","correct":true,"confidence":5},{"trial_n":98,"span":11,"encoder":"75394327497","distractor":"75394327457","target":"present","response":"present","rt":"9551.200000003","correct":true,"confidence":4},{"trial_n":99,"span":11,"encoder":"10127860211","distractor":"10127860011","target":"absent","response":"absent","rt":"2572.599999994","correct":true,"confidence":5},{"trial_n":100,"span":12,"encoder":"016367477511","distractor":"016367471511","target":"absent","response":"absent","rt":"2104.8999999911","correct":true,"confidence":5},{"trial_n":101,"span":12,"encoder":"840104437841","distractor":"870104437841","target":"absent","response":"present","rt":"2697.5","correct":false,"confidence":2},{"trial_n":102,"span":11,"encoder":"58101272053","distractor":"58101282053","target":"present","response":"present","rt":"9265.900000006","correct":true,"confidence":2},{"trial_n":103,"span":11,"encoder":"00029843683","distractor":"00029883683","target":"absent","response":"absent","rt":"12059.599999994","correct":true,"confidence":3},{"trial_n":104,"span":12,"encoder":"921702870222","distractor":"921706870222","target":"absent","response":"absent","rt":"5715.5","correct":true,"confidence":4},{"trial_n":105,"span":12,"encoder":"102115092753","distractor":"102105092753","target":"absent","response":"absent","rt":"5095.700000003","correct":true,"confidence":3},{"trial_n":106,"span":13,"encoder":"9630637926227","distractor":"9630637926222","target":"present","response":"present","rt":"2458.1999999881","correct":true,"confidence":4},{"trial_n":107,"span":13,"encoder":"0960819766503","distractor":"0960819736503","target":"present","response":"present","rt":"1893.299999997","correct":true,"confidence":5},{"trial_n":108,"span":14,"encoder":"50124565845236","distractor":"58124565845236","target":"present","response":"absent","rt":"11471.700000003","correct":false,"confidence":2},{"trial_n":109,"span":13,"encoder":"7105352567254","distractor":"7105352507254","target":"absent","response":"absent","rt":"5070.700000003","correct":true,"confidence":3},{"trial_n":110,"span":13,"encoder":"1698658423151","distractor":"1698658423159","target":"absent","response":"absent","rt":"1227.099999994","correct":true,"confidence":4},{"trial_n":111,"span":14,"encoder":"45700837442040","distractor":"45700837440040","target":"present","response":"present","rt":"3066.8999999911","correct":true,"confidence":2},{"trial_n":112,"span":14,"encoder":"65637205602679","distractor":"65637205602677","target":"absent","response":"absent","rt":"4542.400000006","correct":true,"confidence":3},{"trial_n":113,"span":15,"encoder":"604479611962289","distractor":"604439611962289","target":"absent","response":"present","rt":"14561.699999988","correct":false,"confidence":3},{"trial_n":114,"span":14,"encoder":"61747334688436","distractor":"61787334688436","target":"present","response":"absent","rt":"4074.200000003","correct":false,"confidence":2},{"trial_n":115,"span":13,"encoder":"2826656268631","distractor":"2826656268637","target":"present","response":"present","rt":"7165","correct":true,"confidence":2},{"trial_n":116,"span":13,"encoder":"2727512939723","distractor":"2727512939783","target":"present","response":"present","rt":"8844.200000003","correct":true,"confidence":1},{"trial_n":117,"span":14,"encoder":"70112997186067","distractor":"70112990186067","target":"absent","response":"absent","rt":"8350.700000003","correct":true,"confidence":1},{"trial_n":118,"span":14,"encoder":"47203659707756","distractor":"47203659707716","target":"present","response":"present","rt":"2073.200000003","correct":true,"confidence":5},{"trial_n":119,"span":15,"encoder":"404692664935261","distractor":"404692664935265","target":"present","response":"present","rt":"2483.200000003","correct":true,"confidence":5},{"trial_n":120,"span":15,"encoder":"035286347806318","distractor":"035286347806618","target":"present","response":"present","rt":"2969.599999994","correct":true,"confidence":4},{"trial_n":121,"span":16,"encoder":"5377477403395303","distractor":"5377477404395303","target":"absent","response":"present","rt":"4427.299999997","correct":false,"confidence":4},{"trial_n":122,"span":15,"encoder":"829336948357179","distractor":"829336948347179","target":"absent","response":"present","rt":"1654.099999994","correct":false,"confidence":1},{"trial_n":123,"span":14,"encoder":"91410548054491","distractor":"61410548054491","target":"present","response":"present","rt":"4165.299999997","correct":true,"confidence":2},{"trial_n":124,"span":14,"encoder":"90769418975211","distractor":"90749418975211","target":"absent","response":"present","rt":"5693.200000003","correct":false,"confidence":2},{"trial_n":125,"span":13,"encoder":"4842382934888","distractor":"4842383934888","target":"present","response":"absent","rt":"5200.8000000119","correct":false,"confidence":3},{"trial_n":126,"span":12,"encoder":"306522653856","distractor":"306522663856","target":"absent","response":"present","rt":"2515.799999997","correct":false,"confidence":2},{"trial_n":127,"span":11,"encoder":"46395359817","distractor":"46695359817","target":"present","response":"present","rt":"8852.400000006","correct":true,"confidence":3},{"trial_n":128,"span":11,"encoder":"03505542772","distractor":"03905542772","target":"present","response":"present","rt":"10508.900000006","correct":true,"confidence":1},{"trial_n":129,"span":12,"encoder":"621074007111","distractor":"621074027111","target":"absent","response":"absent","rt":"3663.3999999911","correct":true,"confidence":4},{"trial_n":130,"span":12,"encoder":"206649844283","distractor":"206649844983","target":"present","response":"present","rt":"10049.599999994","correct":true,"confidence":2},{"trial_n":131,"span":13,"encoder":"5211238523987","distractor":"5011238523987","target":"absent","response":"absent","rt":"11052.100000009","correct":true,"confidence":3},{"trial_n":132,"span":13,"encoder":"1400776054014","distractor":"0400776054014","target":"absent","response":"present","rt":"4932","correct":false,"confidence":2},{"trial_n":133,"span":12,"encoder":"567499592708","distractor":"560499592708","target":"present","response":"present","rt":"2736.200000003","correct":true,"confidence":4},{"trial_n":134,"span":12,"encoder":"253060161026","distractor":"259060161026","target":"absent","response":"absent","rt":"6362.8999999911","correct":true,"confidence":2},{"trial_n":135,"span":13,"encoder":"9061666025795","distractor":"9061666025755","target":"present","response":"present","rt":"1552.1000000089","correct":true,"confidence":5},{"trial_n":136,"span":13,"encoder":"6863763404930","distractor":"6861763404930","target":"absent","response":"absent","rt":"12173.700000003","correct":true,"confidence":3},{"trial_n":137,"span":14,"encoder":"03343369693548","distractor":"03343369593548","target":"present","response":"absent","rt":"12344.099999994","correct":false,"confidence":3},{"trial_n":138,"span":13,"encoder":"4055435430287","distractor":"4055435470287","target":"absent","response":"present","rt":"8164.200000003","correct":false,"confidence":3},{"trial_n":139,"span":12,"encoder":"186107663322","distractor":"186107663422","target":"present","response":"present","rt":"3923.200000003","correct":true,"confidence":3},{"trial_n":140,"span":12,"encoder":"696451162805","distractor":"696421162805","target":"absent","response":"present","rt":"9647.599999994","correct":false,"confidence":3}]