[{"trial_n":1,"min":25,"max":230,"target":"present","response":"present","rt":6344,"correct":true,"confidence":-1},{"trial_n":2,"min":25,"max":230,"target":"present","response":"absent","rt":2367,"correct":false,"confidence":-1},{"trial_n":3,"min":9,"max":246,"target":"absent","response":"present","rt":2483,"correct":false,"confidence":-1},{"trial_n":4,"min":0,"max":255,"target":"absent","response":"absent","rt":1168,"correct":true,"confidence":-1},{"trial_n":5,"min":0,"max":255,"target":"present","response":"present","rt":2682,"correct":true,"confidence":-1},{"trial_n":6,"min":16,"max":239,"target":"present","response":"present","rt":1149,"correct":true,"confidence":-1},{"trial_n":7,"min":16,"max":239,"target":"present","response":"present","rt":1815,"correct":true,"confidence":-1},{"trial_n":8,"min":32,"max":223,"target":"present","response":"present","rt":932,"correct":true,"confidence":-1},{"trial_n":9,"min":32,"max":223,"target":"absent","response":"absent","rt":1034,"correct":true,"confidence":-1},{"trial_n":10,"min":48,"max":207,"target":"absent","response":"absent","rt":1286,"correct":true,"confidence":-1},{"trial_n":11,"min":48,"max":207,"target":"absent","response":"absent","rt":786,"correct":true,"confidence":-1},{"trial_n":12,"min":56,"max":199,"target":"absent","response":"absent","rt":738,"correct":true,"confidence":-1},{"trial_n":13,"min":56,"max":199,"target":"present","response":"absent","rt":994,"correct":false,"confidence":-1},{"trial_n":14,"min":48,"max":207,"target":"absent","response":"absent","rt":754,"correct":true,"confidence":-1},{"trial_n":15,"min":48,"max":207,"target":"present","response":"absent","rt":1695,"correct":false,"confidence":-1},{"trial_n":16,"min":40,"max":215,"target":"present","response":"present","rt":1631,"correct":true,"confidence":-1},{"trial_n":17,"min":40,"max":215,"target":"absent","response":"absent","rt":1737,"correct":true,"confidence":-1},{"trial_n":18,"min":48,"max":207,"target":"absent","response":"absent","rt":1054,"correct":true,"confidence":-1},{"trial_n":19,"min":48,"max":207,"target":"absent","response":"absent","rt":570,"correct":true,"confidence":-1},{"trial_n":20,"min":56,"max":199,"target":"present","response":"present","rt":1331,"correct":true,"confidence":-1},{"trial_n":21,"min":56,"max":199,"target":"absent","response":"absent","rt":2619,"correct":true,"confidence":2},{"trial_n":22,"min":60,"max":195,"target":"absent","response":"present","rt":4102,"correct":false,"confidence":1},{"trial_n":23,"min":56,"max":199,"target":"present","response":"present","rt":1284,"correct":true,"confidence":5},{"trial_n":24,"min":56,"max":199,"target":"absent","response":"absent","rt":1158,"correct":true,"confidence":3},{"trial_n":25,"min":60,"max":195,"target":"absent","response":"absent","rt":1506,"correct":true,"confidence":5},{"trial_n":26,"min":60,"max":195,"target":"present","response":"present","rt":1467,"correct":true,"confidence":5},{"trial_n":27,"min":64,"max":191,"target":"present","response":"present","rt":968.00000000001,"correct":true,"confidence":5},{"trial_n":28,"min":64,"max":191,"target":"present","response":"absent","rt":2518,"correct":false,"confidence":3},{"trial_n":29,"min":60,"max":195,"target":"present","response":"present","rt":1419,"correct":true,"confidence":5},{"trial_n":30,"min":60,"max":195,"target":"present","response":"present","rt":1585,"correct":true,"confidence":4},{"trial_n":31,"min":62,"max":193,"target":"present","response":"present","rt":1319,"correct":true,"confidence":5},{"trial_n":32,"min":62,"max":193,"target":"present","response":"absent","rt":1405,"correct":false,"confidence":3},{"trial_n":33,"min":60,"max":195,"target":"absent","response":"absent","rt":1225,"correct":true,"confidence":4},{"trial_n":34,"min":60,"max":195,"target":"absent","response":"absent","rt":1561,"correct":true,"confidence":5},{"trial_n":35,"min":62,"max":193,"target":"absent","response":"absent","rt":1225,"correct":true,"confidence":5},{"trial_n":36,"min":62,"max":193,"target":"present","response":"present","rt":1440,"correct":true,"confidence":4},{"trial_n":37,"min":64,"max":191,"target":"absent","response":"absent","rt":1157,"correct":true,"confidence":5},{"trial_n":38,"min":64,"max":191,"target":"present","response":"present","rt":1154,"correct":true,"confidence":5},{"trial_n":39,"min":66,"max":189,"target":"present","response":"present","rt":1456,"correct":true,"confidence":5},{"trial_n":40,"min":66,"max":189,"target":"present","response":"absent","rt":1987,"correct":false,"confidence":4},{"trial_n":41,"min":65,"max":190,"target":"present","response":"absent","rt":1622,"correct":false,"confidence":3},{"trial_n":42,"min":64,"max":191,"target":"absent","response":"absent","rt":994,"correct":true,"confidence":5},{"trial_n":43,"min":64,"max":191,"target":"absent","response":"absent","rt":994,"correct":true,"confidence":5},{"trial_n":44,"min":65,"max":190,"target":"present","response":"present","rt":1389,"correct":true,"confidence":4},{"trial_n":45,"min":65,"max":190,"target":"absent","response":"absent","rt":879,"correct":true,"confidence":5},{"trial_n":46,"min":66,"max":189,"target":"absent","response":"absent","rt":878,"correct":true,"confidence":5},{"trial_n":47,"min":66,"max":189,"target":"present","response":"present","rt":1126,"correct":true,"confidence":5},{"trial_n":48,"min":67,"max":188,"target":"absent","response":"absent","rt":1062,"correct":true,"confidence":5},{"trial_n":49,"min":67,"max":188,"target":"absent","response":"absent","rt":794.00000000003,"correct":true,"confidence":4},{"trial_n":50,"min":68,"max":187,"target":"present","response":"present","rt":1407,"correct":true,"confidence":5},{"trial_n":51,"min":68,"max":187,"target":"absent","response":"absent","rt":1263,"correct":true,"confidence":4},{"trial_n":52,"min":69,"max":186,"target":"present","response":"present","rt":1581,"correct":true,"confidence":5},{"trial_n":53,"min":69,"max":186,"target":"present","response":"present","rt":1732,"correct":true,"confidence":5},{"trial_n":54,"min":70,"max":185,"target":"present","response":"present","rt":1193,"correct":true,"confidence":5},{"trial_n":55,"min":70,"max":185,"target":"absent","response":"absent","rt":821.99999999997,"correct":true,"confidence":5},{"trial_n":56,"min":71,"max":184,"target":"absent","response":"absent","rt":2170,"correct":true,"confidence":4},{"trial_n":57,"min":71,"max":184,"target":"present","response":"present","rt":1264,"correct":true,"confidence":3},{"trial_n":58,"min":72,"max":183,"target":"absent","response":"absent","rt":1397,"correct":true,"confidence":4},{"trial_n":59,"min":72,"max":183,"target":"absent","response":"absent","rt":846,"correct":true,"confidence":5},{"trial_n":60,"min":73,"max":182,"target":"absent","response":"absent","rt":1630,"correct":true,"confidence":4},{"trial_n":61,"min":73,"max":182,"target":"absent","response":"absent","rt":1863,"correct":true,"confidence":3},{"trial_n":62,"min":74,"max":181,"target":"present","response":"present","rt":1407,"correct":true,"confidence":4},{"trial_n":63,"min":74,"max":181,"target":"absent","response":"absent","rt":1948,"correct":true,"confidence":4},{"trial_n":64,"min":75,"max":180,"target":"absent","response":"absent","rt":944,"correct":true,"confidence":4},{"trial_n":65,"min":75,"max":180,"target":"present","response":"present","rt":1371,"correct":true,"confidence":4},{"trial_n":66,"min":76,"max":179,"target":"present","response":"present","rt":1293,"correct":true,"confidence":3},{"trial_n":67,"min":76,"max":179,"target":"present","response":"present","rt":996,"correct":true,"confidence":5},{"trial_n":68,"min":77,"max":178,"target":"present","response":"present","rt":1813,"correct":true,"confidence":2},{"trial_n":69,"min":77,"max":178,"target":"absent","response":"present","rt":2128,"correct":false,"confidence":3},{"trial_n":70,"min":76,"max":179,"target":"present","response":"present","rt":1425,"correct":true,"confidence":5},{"trial_n":71,"min":41,"max":214,"target":"present","response":"present","rt":1961,"correct":true,"confidence":-1},{"trial_n":72,"min":41,"max":214,"target":"present","response":"present","rt":1140,"correct":true,"confidence":-1},{"trial_n":73,"min":57,"max":198,"target":"absent","response":"absent","rt":1121,"correct":true,"confidence":-1},{"trial_n":74,"min":57,"max":198,"target":"absent","response":"absent","rt":3826,"correct":true,"confidence":-1},{"trial_n":75,"min":73,"max":182,"target":"present","response":"present","rt":472,"correct":true,"confidence":-1},{"trial_n":76,"min":73,"max":182,"target":"absent","response":"present","rt":1127,"correct":false,"confidence":-1},{"trial_n":77,"min":57,"max":198,"target":"absent","response":"absent","rt":828,"correct":true,"confidence":-1},{"trial_n":78,"min":57,"max":198,"target":"present","response":"present","rt":598,"correct":true,"confidence":-1},{"trial_n":79,"min":73,"max":182,"target":"present","response":"present","rt":457,"correct":true,"confidence":-1},{"trial_n":80,"min":73,"max":182,"target":"absent","response":"absent","rt":815,"correct":true,"confidence":-1},{"trial_n":81,"min":81,"max":174,"target":"absent","response":"present","rt":1291,"correct":false,"confidence":-1},{"trial_n":82,"min":73,"max":182,"target":"present","response":"absent","rt":610,"correct":false,"confidence":-1},{"trial_n":83,"min":65,"max":190,"target":"present","response":"present","rt":420.00000000006,"correct":true,"confidence":-1},{"trial_n":84,"min":65,"max":190,"target":"absent","response":"absent","rt":767,"correct":true,"confidence":-1},{"trial_n":85,"min":73,"max":182,"target":"present","response":"present","rt":706.99999999994,"correct":true,"confidence":-1},{"trial_n":86,"min":73,"max":182,"target":"absent","response":"absent","rt":485,"correct":true,"confidence":-1},{"trial_n":87,"min":81,"max":174,"target":"present","response":"absent","rt":1036,"correct":false,"confidence":-1},{"trial_n":88,"min":73,"max":182,"target":"absent","response":"absent","rt":641,"correct":true,"confidence":-1},{"trial_n":89,"min":73,"max":182,"target":"present","response":"present","rt":336,"correct":true,"confidence":-1},{"trial_n":90,"min":81,"max":174,"target":"absent","response":"present","rt":398.00000000006,"correct":false,"confidence":-1},{"trial_n":91,"min":77,"max":178,"target":"absent","response":"absent","rt":1335,"correct":true,"confidence":1},{"trial_n":92,"min":77,"max":178,"target":"absent","response":"present","rt":758,"correct":false,"confidence":1},{"trial_n":93,"min":73,"max":182,"target":"present","response":"present","rt":503,"correct":true,"confidence":4},{"trial_n":94,"min":73,"max":182,"target":"present","response":"present","rt":399,"correct":true,"confidence":5},{"trial_n":95,"min":77,"max":178,"target":"absent","response":"absent","rt":470,"correct":true,"confidence":5},{"trial_n":96,"min":77,"max":178,"target":"present","response":"present","rt":479,"correct":true,"confidence":3},{"trial_n":97,"min":81,"max":174,"target":"present","response":"present","rt":342,"correct":true,"confidence":4},{"trial_n":98,"min":81,"max":174,"target":"absent","response":"absent","rt":753,"correct":true,"confidence":4},{"trial_n":99,"min":85,"max":170,"target":"absent","response":"absent","rt":659,"correct":true,"confidence":5},{"trial_n":100,"min":85,"max":170,"target":"present","response":"present","rt":925,"correct":true,"confidence":4},{"trial_n":101,"min":87,"max":168,"target":"present","response":"present","rt":1524.0000000001,"correct":true,"confidence":3},{"trial_n":102,"min":87,"max":168,"target":"absent","response":"absent","rt":796,"correct":true,"confidence":3},{"trial_n":103,"min":89,"max":166,"target":"absent","response":"present","rt":2042,"correct":false,"confidence":2},{"trial_n":104,"min":87,"max":168,"target":"absent","response":"present","rt":735,"correct":false,"confidence":4},{"trial_n":105,"min":85,"max":170,"target":"present","response":"present","rt":379,"correct":true,"confidence":5},{"trial_n":106,"min":85,"max":170,"target":"absent","response":"present","rt":1059,"correct":false,"confidence":3},{"trial_n":107,"min":83,"max":172,"target":"absent","response":"absent","rt":2526.0000000001,"correct":true,"confidence":3},{"trial_n":108,"min":83,"max":172,"target":"absent","response":"present","rt":667,"correct":false,"confidence":2},{"trial_n":109,"min":81,"max":174,"target":"absent","response":"absent","rt":981,"correct":true,"confidence":3},{"trial_n":110,"min":81,"max":174,"target":"absent","response":"absent","rt":889,"correct":true,"confidence":1},{"trial_n":111,"min":82,"max":173,"target":"present","response":"present","rt":361,"correct":true,"confidence":5},{"trial_n":112,"min":82,"max":173,"target":"present","response":"present","rt":667,"correct":true,"confidence":4},{"trial_n":113,"min":83,"max":172,"target":"present","response":"present","rt":798,"correct":true,"confidence":3},{"trial_n":114,"min":83,"max":172,"target":"absent","response":"absent","rt":551.00000000012,"correct":true,"confidence":4},{"trial_n":115,"min":84,"max":171,"target":"present","response":"present","rt":436.99999999988,"correct":true,"confidence":4},{"trial_n":116,"min":84,"max":171,"target":"present","response":"present","rt":740,"correct":true,"confidence":3},{"trial_n":117,"min":85,"max":170,"target":"absent","response":"present","rt":844,"correct":false,"confidence":2},{"trial_n":118,"min":84,"max":171,"target":"present","response":"present","rt":635,"correct":true,"confidence":5},{"trial_n":119,"min":84,"max":171,"target":"present","response":"present","rt":702,"correct":true,"confidence":2},{"trial_n":120,"min":85,"max":170,"target":"absent","response":"absent","rt":826,"correct":true,"confidence":5},{"trial_n":121,"min":85,"max":170,"target":"present","response":"present","rt":695,"correct":true,"confidence":4},{"trial_n":122,"min":86,"max":169,"target":"present","response":"present","rt":755.99999999988,"correct":true,"confidence":3},{"trial_n":123,"min":86,"max":169,"target":"absent","response":"absent","rt":996,"correct":true,"confidence":4},{"trial_n":124,"min":87,"max":168,"target":"absent","response":"present","rt":1672,"correct":false,"confidence":1},{"trial_n":125,"min":86,"max":169,"target":"present","response":"present","rt":513,"correct":true,"confidence":4},{"trial_n":126,"min":86,"max":169,"target":"absent","response":"absent","rt":908.00000000012,"correct":true,"confidence":3},{"trial_n":127,"min":87,"max":168,"target":"present","response":"absent","rt":426,"correct":false,"confidence":4},{"trial_n":128,"min":86,"max":169,"target":"absent","response":"absent","rt":1096,"correct":true,"confidence":3},{"trial_n":129,"min":86,"max":169,"target":"present","response":"present","rt":525,"correct":true,"confidence":4},{"trial_n":130,"min":87,"max":168,"target":"absent","response":"present","rt":953,"correct":false,"confidence":2},{"trial_n":131,"min":86,"max":169,"target":"present","response":"present","rt":1316,"correct":true,"confidence":4},{"trial_n":132,"min":86,"max":169,"target":"absent","response":"absent","rt":923,"correct":true,"confidence":4},{"trial_n":133,"min":87,"max":168,"target":"absent","response":"present","rt":584,"correct":false,"confidence":3},{"trial_n":134,"min":86,"max":169,"target":"present","response":"present","rt":714.00000000012,"correct":true,"confidence":4},{"trial_n":135,"min":86,"max":169,"target":"absent","response":"absent","rt":1079.0000000001,"correct":true,"confidence":3},{"trial_n":136,"min":87,"max":168,"target":"present","response":"present","rt":750,"correct":true,"confidence":4},{"trial_n":137,"min":87,"max":168,"target":"present","response":"present","rt":2108,"correct":true,"confidence":3},{"trial_n":138,"min":88,"max":167,"target":"present","response":"absent","rt":1071,"correct":false,"confidence":3},{"trial_n":139,"min":87,"max":168,"target":"present","response":"present","rt":495,"correct":true,"confidence":4},{"trial_n":140,"min":87,"max":168,"target":"present","response":"absent","rt":1033,"correct":false,"confidence":3}]