[{"trial_n":1,"span":8,"encoder":"64573187","distractor":"64573197","target":"present","response":"present","rt":"6070.5","correct":true,"confidence":-1},{"trial_n":2,"span":8,"encoder":"60257782","distractor":"60457782","target":"present","response":"present","rt":"2661.7000000002","correct":true,"confidence":-1},{"trial_n":3,"span":10,"encoder":"0424225012","distractor":"0424225014","target":"absent","response":"absent","rt":"3845.2000000002","correct":true,"confidence":-1},{"trial_n":4,"span":10,"encoder":"6054759116","distractor":"6054799116","target":"absent","response":"present","rt":"2194","correct":false,"confidence":-1},{"trial_n":5,"span":8,"encoder":"20105123","distractor":"20125123","target":"present","response":"present","rt":"1203.2000000002","correct":true,"confidence":-1},{"trial_n":6,"span":8,"encoder":"83750813","distractor":"83750810","target":"absent","response":"present","rt":"1410.1000000001","correct":false,"confidence":-1},{"trial_n":7,"span":6,"encoder":"016457","distractor":"016417","target":"present","response":"present","rt":"1284.7999999998","correct":true,"confidence":-1},{"trial_n":8,"span":6,"encoder":"837269","distractor":"837069","target":"present","response":"present","rt":"1720.1000000001","correct":true,"confidence":-1},{"trial_n":9,"span":8,"encoder":"06256966","distractor":"06256666","target":"absent","response":"present","rt":"1565","correct":false,"confidence":-1},{"trial_n":10,"span":6,"encoder":"761715","distractor":"763715","target":"absent","response":"present","rt":"1153.5","correct":false,"confidence":-1},{"trial_n":11,"span":4,"encoder":"7214","distractor":"4214","target":"present","response":"present","rt":"1261.5","correct":true,"confidence":-1},{"trial_n":12,"span":4,"encoder":"1260","distractor":"1290","target":"present","response":"present","rt":"1035.8999999999","correct":true,"confidence":-1},{"trial_n":13,"span":5,"encoder":"34225","distractor":"64225","target":"present","response":"present","rt":"2162.3000000003","correct":true,"confidence":-1},{"trial_n":14,"span":5,"encoder":"34283","distractor":"34883","target":"absent","response":"absent","rt":"2489.6000000001","correct":true,"confidence":-1},{"trial_n":15,"span":6,"encoder":"998241","distractor":"978241","target":"absent","response":"absent","rt":"1229.3999999999","correct":true,"confidence":-1},{"trial_n":16,"span":6,"encoder":"753137","distractor":"793137","target":"present","response":"absent","rt":"2232.3999999999","correct":false,"confidence":-1},{"trial_n":17,"span":5,"encoder":"65330","distractor":"15330","target":"absent","response":"present","rt":"1511.6000000001","correct":false,"confidence":-1},{"trial_n":18,"span":4,"encoder":"4675","distractor":"4673","target":"absent","response":"present","rt":"1035.1000000001","correct":false,"confidence":-1},{"trial_n":19,"span":3,"encoder":"178","distractor":"177","target":"present","response":"present","rt":"977.79999999981","correct":true,"confidence":-1},{"trial_n":20,"span":3,"encoder":"222","distractor":"822","target":"absent","response":"absent","rt":"1400.6999999997","correct":true,"confidence":-1},{"trial_n":21,"span":4,"encoder":"4322","distractor":"8322","target":"present","response":"present","rt":"1074.5","correct":true,"confidence":5},{"trial_n":22,"span":4,"encoder":"0905","distractor":"0805","target":"absent","response":"absent","rt":"1903.2000000002","correct":true,"confidence":5},{"trial_n":23,"span":5,"encoder":"26174","distractor":"26172","target":"absent","response":"absent","rt":"3646.2000000002","correct":true,"confidence":5},{"trial_n":24,"span":5,"encoder":"12283","distractor":"12783","target":"present","response":"present","rt":"1884.7999999998","correct":true,"confidence":5},{"trial_n":25,"span":6,"encoder":"105836","distractor":"105436","target":"present","response":"present","rt":"3001.2999999998","correct":true,"confidence":4},{"trial_n":26,"span":6,"encoder":"417796","distractor":"417792","target":"absent","response":"absent","rt":"3232.7000000002","correct":true,"confidence":5},{"trial_n":27,"span":7,"encoder":"4207293","distractor":"4207993","target":"present","response":"absent","rt":"5463.2000000002","correct":false,"confidence":3},{"trial_n":28,"span":6,"encoder":"164939","distractor":"464939","target":"present","response":"present","rt":"1813.6000000001","correct":true,"confidence":5},{"trial_n":29,"span":6,"encoder":"687769","distractor":"686769","target":"absent","response":"absent","rt":"2099.7999999998","correct":true,"confidence":5},{"trial_n":30,"span":7,"encoder":"7258519","distractor":"0258519","target":"absent","response":"absent","rt":"2701.3999999999","correct":true,"confidence":2},{"trial_n":31,"span":7,"encoder":"8201868","distractor":"5201868","target":"present","response":"present","rt":"4192.8999999999","correct":true,"confidence":2},{"trial_n":32,"span":8,"encoder":"01702392","distractor":"01702312","target":"present","response":"present","rt":"1737.7000000002","correct":true,"confidence":4},{"trial_n":33,"span":8,"encoder":"51067147","distractor":"51867147","target":"absent","response":"absent","rt":"2992.5","correct":true,"confidence":3},{"trial_n":34,"span":9,"encoder":"172730703","distractor":"172730723","target":"present","response":"present","rt":"2705.5","correct":true,"confidence":5},{"trial_n":35,"span":9,"encoder":"638295402","distractor":"637295402","target":"present","response":"present","rt":"3446.3999999999","correct":true,"confidence":3},{"trial_n":36,"span":10,"encoder":"7427746420","distractor":"7927746420","target":"absent","response":"absent","rt":"5021.4000000004","correct":true,"confidence":3},{"trial_n":37,"span":10,"encoder":"4639224413","distractor":"4609224413","target":"present","response":"present","rt":"2193.7000000002","correct":true,"confidence":4},{"trial_n":38,"span":11,"encoder":"27689404976","distractor":"27649404976","target":"absent","response":"absent","rt":"5003.7999999998","correct":true,"confidence":2},{"trial_n":39,"span":11,"encoder":"80885249623","distractor":"80884249623","target":"present","response":"present","rt":"1644.2999999998","correct":true,"confidence":3},{"trial_n":40,"span":12,"encoder":"940727652819","distractor":"940727652829","target":"present","response":"absent","rt":"3049.0999999996","correct":false,"confidence":1},{"trial_n":41,"span":11,"encoder":"93157597462","distractor":"93159597462","target":"absent","response":"absent","rt":"3643.7999999998","correct":true,"confidence":3},{"trial_n":42,"span":11,"encoder":"67648042933","distractor":"67748042933","target":"absent","response":"absent","rt":"2448.2999999998","correct":true,"confidence":4},{"trial_n":43,"span":12,"encoder":"188217742697","distractor":"188217742617","target":"present","response":"present","rt":"3196.8000000003","correct":true,"confidence":3},{"trial_n":44,"span":12,"encoder":"803867356485","distractor":"803867456485","target":"absent","response":"absent","rt":"3877.3000000003","correct":true,"confidence":1},{"trial_n":45,"span":13,"encoder":"7664311868194","distractor":"7664319868194","target":"present","response":"absent","rt":"3495.8999999999","correct":false,"confidence":3},{"trial_n":46,"span":12,"encoder":"743118120347","distractor":"143118120347","target":"absent","response":"absent","rt":"2278.6000000001","correct":true,"confidence":3},{"trial_n":47,"span":12,"encoder":"544488588914","distractor":"544468588914","target":"present","response":"present","rt":"4821.2000000002","correct":true,"confidence":4},{"trial_n":48,"span":13,"encoder":"2924685734325","distractor":"2924685738325","target":"absent","response":"present","rt":"2690.3999999999","correct":false,"confidence":1},{"trial_n":49,"span":12,"encoder":"328594351413","distractor":"328594355413","target":"present","response":"present","rt":"2217","correct":true,"confidence":4},{"trial_n":50,"span":12,"encoder":"129447918518","distractor":"129547918518","target":"absent","response":"present","rt":"2911.6999999997","correct":false,"confidence":3},{"trial_n":51,"span":11,"encoder":"65807628349","distractor":"65800628349","target":"absent","response":"absent","rt":"2004.5","correct":true,"confidence":3},{"trial_n":52,"span":11,"encoder":"33317193207","distractor":"33311193207","target":"absent","response":"absent","rt":"1924.2000000002","correct":true,"confidence":5},{"trial_n":53,"span":12,"encoder":"514006610270","distractor":"514002610270","target":"absent","response":"present","rt":"2041.7000000002","correct":false,"confidence":3},{"trial_n":54,"span":11,"encoder":"87400933449","distractor":"87400233449","target":"present","response":"present","rt":"3439.6999999997","correct":true,"confidence":3},{"trial_n":55,"span":11,"encoder":"88367499457","distractor":"82367499457","target":"absent","response":"absent","rt":"1977.8999999999","correct":true,"confidence":5},{"trial_n":56,"span":12,"encoder":"750913537685","distractor":"750923537685","target":"present","response":"present","rt":"5621.1000000001","correct":true,"confidence":2},{"trial_n":57,"span":12,"encoder":"415675776106","distractor":"445675776106","target":"absent","response":"absent","rt":"2658.8000000003","correct":true,"confidence":4},{"trial_n":58,"span":13,"encoder":"1603568812357","distractor":"1603568812358","target":"present","response":"present","rt":"3661.1000000001","correct":true,"confidence":3},{"trial_n":59,"span":13,"encoder":"0464172178868","distractor":"0464122178868","target":"present","response":"present","rt":"2426.1999999997","correct":true,"confidence":4},{"trial_n":60,"span":14,"encoder":"84346180636746","distractor":"84366180636746","target":"absent","response":"present","rt":"2159.7000000002","correct":false,"confidence":1},{"trial_n":61,"span":13,"encoder":"1482203375477","distractor":"4482203375477","target":"present","response":"present","rt":"2108.3999999999","correct":true,"confidence":4},{"trial_n":62,"span":13,"encoder":"1283359605801","distractor":"1285359605801","target":"present","response":"present","rt":"3623.7999999998","correct":true,"confidence":3},{"trial_n":63,"span":14,"encoder":"27842572939703","distractor":"27842572939793","target":"present","response":"present","rt":"4175.7999999998","correct":true,"confidence":2},{"trial_n":64,"span":14,"encoder":"25794500057049","distractor":"25744500057049","target":"absent","response":"present","rt":"2327.2999999998","correct":false,"confidence":2},{"trial_n":65,"span":13,"encoder":"8614704629090","distractor":"8614703629090","target":"present","response":"absent","rt":"2604.1000000001","correct":false,"confidence":4},{"trial_n":66,"span":12,"encoder":"267394877672","distractor":"267364877672","target":"absent","response":"absent","rt":"3195.2999999998","correct":true,"confidence":4},{"trial_n":67,"span":12,"encoder":"327538233214","distractor":"327538233614","target":"present","response":"present","rt":"6666.2999999998","correct":true,"confidence":3},{"trial_n":68,"span":13,"encoder":"3083383320550","distractor":"3088383320550","target":"absent","response":"present","rt":"3231.0999999996","correct":false,"confidence":2},{"trial_n":69,"span":12,"encoder":"517551331092","distractor":"517151331092","target":"present","response":"absent","rt":"2827.6000000001","correct":false,"confidence":3},{"trial_n":70,"span":11,"encoder":"09331396638","distractor":"09331396698","target":"absent","response":"present","rt":"2522.6000000001","correct":false,"confidence":3},{"trial_n":71,"span":8,"encoder":"98291565","distractor":"28291565","target":"present","response":"present","rt":"2261.2000000002","correct":true,"confidence":-1},{"trial_n":72,"span":8,"encoder":"80372790","distractor":"80372590","target":"present","response":"absent","rt":"7210.8999999999","correct":false,"confidence":-1},{"trial_n":73,"span":7,"encoder":"1809748","distractor":"7809748","target":"absent","response":"absent","rt":"7629.5","correct":true,"confidence":-1},{"trial_n":74,"span":7,"encoder":"2544943","distractor":"2744943","target":"absent","response":"present","rt":"4420.0999999996","correct":false,"confidence":-1},{"trial_n":75,"span":6,"encoder":"091132","distractor":"051132","target":"present","response":"present","rt":"629.40000000037","correct":true,"confidence":-1},{"trial_n":76,"span":6,"encoder":"565810","distractor":"165810","target":"present","response":"absent","rt":"448.30000000028","correct":false,"confidence":-1},{"trial_n":77,"span":5,"encoder":"55238","distractor":"35238","target":"present","response":"present","rt":"635","correct":true,"confidence":-1},{"trial_n":78,"span":5,"encoder":"76849","distractor":"76809","target":"absent","response":"absent","rt":"2314.8999999999","correct":true,"confidence":-1},{"trial_n":79,"span":6,"encoder":"727505","distractor":"737505","target":"absent","response":"absent","rt":"2598.3999999999","correct":true,"confidence":-1},{"trial_n":80,"span":6,"encoder":"047604","distractor":"087604","target":"absent","response":"absent","rt":"2946.2000000002","correct":true,"confidence":-1},{"trial_n":81,"span":7,"encoder":"5772448","distractor":"5712448","target":"present","response":"present","rt":"2332.3999999999","correct":true,"confidence":-1},{"trial_n":82,"span":7,"encoder":"2392978","distractor":"9392978","target":"present","response":"present","rt":"1570.1999999997","correct":true,"confidence":-1},{"trial_n":83,"span":8,"encoder":"77104759","distractor":"77154759","target":"absent","response":"present","rt":"3288.3999999999","correct":false,"confidence":-1},{"trial_n":84,"span":7,"encoder":"3840521","distractor":"3800521","target":"absent","response":"absent","rt":"1309.3000000003","correct":true,"confidence":-1},{"trial_n":85,"span":7,"encoder":"3351430","distractor":"3351330","target":"present","response":"absent","rt":"4607","correct":false,"confidence":-1},{"trial_n":86,"span":6,"encoder":"353093","distractor":"303093","target":"absent","response":"absent","rt":"2967.2000000002","correct":true,"confidence":-1},{"trial_n":87,"span":6,"encoder":"933873","distractor":"233873","target":"present","response":"present","rt":"1668.1000000001","correct":true,"confidence":-1},{"trial_n":88,"span":7,"encoder":"0789298","distractor":"0789293","target":"present","response":"present","rt":"5032.2999999998","correct":true,"confidence":-1},{"trial_n":89,"span":7,"encoder":"1128919","distractor":"1128916","target":"absent","response":"absent","rt":"3793.6999999997","correct":true,"confidence":-1},{"trial_n":90,"span":8,"encoder":"09425093","distractor":"09425003","target":"present","response":"present","rt":"2508.3999999999","correct":true,"confidence":-1},{"trial_n":91,"span":8,"encoder":"04357128","distractor":"04357118","target":"present","response":"present","rt":"3056.7000000002","correct":true,"confidence":5},{"trial_n":92,"span":9,"encoder":"449112570","distractor":"459112570","target":"present","response":"present","rt":"4077.8999999999","correct":true,"confidence":5},{"trial_n":93,"span":9,"encoder":"749195162","distractor":"749295162","target":"absent","response":"absent","rt":"4365.6000000001","correct":true,"confidence":5},{"trial_n":94,"span":10,"encoder":"8138801444","distractor":"8136801444","target":"absent","response":"absent","rt":"2000.6000000001","correct":true,"confidence":5},{"trial_n":95,"span":10,"encoder":"6714455190","distractor":"6714450190","target":"present","response":"absent","rt":"4554.4000000004","correct":false,"confidence":4},{"trial_n":96,"span":9,"encoder":"007807623","distractor":"007207623","target":"present","response":"present","rt":"2569.9000000004","correct":true,"confidence":4},{"trial_n":97,"span":9,"encoder":"209007523","distractor":"209008523","target":"absent","response":"absent","rt":"6463.1000000001","correct":true,"confidence":3},{"trial_n":98,"span":10,"encoder":"4710160972","distractor":"4714160972","target":"present","response":"present","rt":"12360.1","correct":true,"confidence":2},{"trial_n":99,"span":10,"encoder":"3629680944","distractor":"3629680946","target":"absent","response":"absent","rt":"2258","correct":true,"confidence":5},{"trial_n":100,"span":11,"encoder":"74891259394","distractor":"74291259394","target":"absent","response":"absent","rt":"7113.3999999999","correct":true,"confidence":2},{"trial_n":101,"span":11,"encoder":"49365717300","distractor":"89365717300","target":"present","response":"present","rt":"3395.1000000001","correct":true,"confidence":1},{"trial_n":102,"span":12,"encoder":"340407377767","distractor":"340405377767","target":"present","response":"absent","rt":"8347.5","correct":false,"confidence":3},{"trial_n":103,"span":11,"encoder":"73447333880","distractor":"73447333280","target":"present","response":"present","rt":"3502.3999999999","correct":true,"confidence":5},{"trial_n":104,"span":11,"encoder":"11269105496","distractor":"11289105496","target":"absent","response":"present","rt":"3611.8999999999","correct":false,"confidence":4},{"trial_n":105,"span":10,"encoder":"5605026184","distractor":"5605026284","target":"absent","response":"absent","rt":"8734.2000000002","correct":true,"confidence":3},{"trial_n":106,"span":10,"encoder":"0948614412","distractor":"0938614412","target":"absent","response":"absent","rt":"5633.3999999999","correct":true,"confidence":2},{"trial_n":107,"span":11,"encoder":"28934630508","distractor":"28934630808","target":"present","response":"present","rt":"6538.6000000001","correct":true,"confidence":1},{"trial_n":108,"span":11,"encoder":"58687299420","distractor":"58687299920","target":"absent","response":"absent","rt":"2626.2000000002","correct":true,"confidence":5},{"trial_n":109,"span":12,"encoder":"110630084410","distractor":"110630084310","target":"present","response":"absent","rt":"5471.7000000002","correct":false,"confidence":4},{"trial_n":110,"span":11,"encoder":"52645551380","distractor":"52645551350","target":"present","response":"present","rt":"5395.3999999994","correct":true,"confidence":2},{"trial_n":111,"span":11,"encoder":"78447181873","distractor":"78447081873","target":"absent","response":"absent","rt":"9400.1000000006","correct":true,"confidence":2},{"trial_n":112,"span":12,"encoder":"993063456746","distractor":"993063056746","target":"absent","response":"absent","rt":"6062.7999999998","correct":true,"confidence":1},{"trial_n":113,"span":12,"encoder":"761519712419","distractor":"763519712419","target":"absent","response":"present","rt":"8850.9000000004","correct":false,"confidence":1},{"trial_n":114,"span":11,"encoder":"85514957625","distractor":"85514957622","target":"present","response":"present","rt":"3376.2000000002","correct":true,"confidence":5},{"trial_n":115,"span":11,"encoder":"75203147130","distractor":"75203147132","target":"present","response":"present","rt":"2056.2000000002","correct":true,"confidence":3},{"trial_n":116,"span":12,"encoder":"257965488788","distractor":"257965498788","target":"present","response":"present","rt":"2189.2000000002","correct":true,"confidence":4},{"trial_n":117,"span":12,"encoder":"150792144151","distractor":"150792844151","target":"absent","response":"present","rt":"7054","correct":false,"confidence":1},{"trial_n":118,"span":11,"encoder":"11799953255","distractor":"11799953259","target":"absent","response":"absent","rt":"3616.1999999993","correct":true,"confidence":5},{"trial_n":119,"span":11,"encoder":"08928772795","distractor":"08928702795","target":"absent","response":"absent","rt":"2063","correct":true,"confidence":5},{"trial_n":120,"span":12,"encoder":"708622056249","distractor":"708622036249","target":"present","response":"present","rt":"4946.6000000006","correct":true,"confidence":1},{"trial_n":121,"span":12,"encoder":"483938450634","distractor":"483938450630","target":"absent","response":"absent","rt":"3235","correct":true,"confidence":1},{"trial_n":122,"span":13,"encoder":"1714241875581","distractor":"1714241175581","target":"present","response":"present","rt":"5164.8999999994","correct":true,"confidence":1},{"trial_n":123,"span":13,"encoder":"4521771626827","distractor":"4521771626828","target":"absent","response":"absent","rt":"9581","correct":true,"confidence":1},{"trial_n":124,"span":14,"encoder":"79313371309148","distractor":"79313371309748","target":"absent","response":"present","rt":"3425.8999999994","correct":false,"confidence":1},{"trial_n":125,"span":13,"encoder":"4226364216580","distractor":"4226264216580","target":"present","response":"present","rt":"6558.3999999994","correct":true,"confidence":4},{"trial_n":126,"span":13,"encoder":"8006040188573","distractor":"8001040188573","target":"present","response":"present","rt":"2565.5","correct":true,"confidence":5},{"trial_n":127,"span":14,"encoder":"62599746146867","distractor":"62499746146867","target":"absent","response":"absent","rt":"1602.8999999994","correct":true,"confidence":5},{"trial_n":128,"span":14,"encoder":"82474769473547","distractor":"32474769473547","target":"present","response":"present","rt":"1839.2999999998","correct":true,"confidence":4},{"trial_n":129,"span":15,"encoder":"456020076955810","distractor":"456020076905810","target":"absent","response":"present","rt":"9257.8999999994","correct":false,"confidence":4},{"trial_n":130,"span":14,"encoder":"08695703291397","distractor":"08695703291391","target":"present","response":"present","rt":"1802.7999999998","correct":true,"confidence":5},{"trial_n":131,"span":14,"encoder":"89766866628799","distractor":"89766866628790","target":"absent","response":"present","rt":"1156.6999999993","correct":false,"confidence":1},{"trial_n":132,"span":13,"encoder":"5508467782306","distractor":"5508467782303","target":"present","response":"absent","rt":"7115.0999999996","correct":false,"confidence":3},{"trial_n":133,"span":12,"encoder":"458676965460","distractor":"458675965460","target":"present","response":"present","rt":"6052.7000000002","correct":true,"confidence":4},{"trial_n":134,"span":12,"encoder":"312383074459","distractor":"312283074459","target":"present","response":"present","rt":"2043.2000000002","correct":true,"confidence":5},{"trial_n":135,"span":13,"encoder":"9642372965988","distractor":"9643372965988","target":"present","response":"present","rt":"4116.1999999993","correct":true,"confidence":5},{"trial_n":136,"span":13,"encoder":"6973341044895","distractor":"6973341041895","target":"present","response":"present","rt":"6115.9000000004","correct":true,"confidence":5},{"trial_n":137,"span":14,"encoder":"53441868186855","distractor":"53451868186855","target":"absent","response":"absent","rt":"4266.2999999998","correct":true,"confidence":5},{"trial_n":138,"span":14,"encoder":"45060869074236","distractor":"05060869074236","target":"absent","response":"absent","rt":"11176.5","correct":true,"confidence":5},{"trial_n":139,"span":15,"encoder":"096767414170647","distractor":"096764414170647","target":"absent","response":"absent","rt":"5951.0999999996","correct":true,"confidence":5},{"trial_n":140,"span":15,"encoder":"855203286350359","distractor":"855203886350359","target":"absent","response":"absent","rt":"8272.5","correct":true,"confidence":5}]