[{"trial_n":1,"n_dots":4.25,"target":"left","response":"left","rt":5118.3999999762,"correct":true,"confidence":-1},{"trial_n":2,"n_dots":4.25,"target":"right","response":"left","rt":1631.6000000238,"correct":false,"confidence":-1},{"trial_n":3,"n_dots":4.65,"target":"left","response":"left","rt":436.5,"correct":true,"confidence":-1},{"trial_n":4,"n_dots":4.65,"target":"left","response":"left","rt":1147.8999999762,"correct":true,"confidence":-1},{"trial_n":5,"n_dots":4.25,"target":"right","response":"right","rt":1946.8000000119,"correct":true,"confidence":-1},{"trial_n":6,"n_dots":4.25,"target":"left","response":"left","rt":382.10000002384,"correct":true,"confidence":-1},{"trial_n":7,"n_dots":3.85,"target":"left","response":"left","rt":737.79999995232,"correct":true,"confidence":-1},{"trial_n":8,"n_dots":3.85,"target":"right","response":"right","rt":496.90000003576,"correct":true,"confidence":-1},{"trial_n":9,"n_dots":3.65,"target":"left","response":"right","rt":883.39999997616,"correct":false,"confidence":-1},{"trial_n":10,"n_dots":3.85,"target":"right","response":"left","rt":480.60000002384,"correct":false,"confidence":-1},{"trial_n":11,"n_dots":4.05,"target":"right","response":"right","rt":380.19999998808,"correct":true,"confidence":-1},{"trial_n":12,"n_dots":4.05,"target":"left","response":"left","rt":423.80000001192,"correct":true,"confidence":-1},{"trial_n":13,"n_dots":3.95,"target":"left","response":"right","rt":657.30000001192,"correct":false,"confidence":-1},{"trial_n":14,"n_dots":4.05,"target":"left","response":"left","rt":248.10000002384,"correct":true,"confidence":-1},{"trial_n":15,"n_dots":4.05,"target":"right","response":"right","rt":339.10000002384,"correct":true,"confidence":-1},{"trial_n":16,"n_dots":3.95,"target":"right","response":"right","rt":335.59999996424,"correct":true,"confidence":-1},{"trial_n":17,"n_dots":3.95,"target":"right","response":"right","rt":96.100000023842,"correct":true,"confidence":-1},{"trial_n":18,"n_dots":3.85,"target":"left","response":"left","rt":225.10000002384,"correct":true,"confidence":-1},{"trial_n":19,"n_dots":3.85,"target":"left","response":"left","rt":584,"correct":true,"confidence":-1},{"trial_n":20,"n_dots":3.75,"target":"right","response":"left","rt":424,"correct":false,"confidence":-1},{"trial_n":21,"n_dots":3.85,"target":"right","response":"left","rt":401.80000001192,"correct":false,"confidence":5},{"trial_n":22,"n_dots":3.95,"target":"right","response":"right","rt":419,"correct":true,"confidence":5},{"trial_n":23,"n_dots":3.95,"target":"left","response":"left","rt":321.59999996424,"correct":true,"confidence":4},{"trial_n":24,"n_dots":3.85,"target":"left","response":"left","rt":394.30000001192,"correct":true,"confidence":5},{"trial_n":25,"n_dots":3.85,"target":"left","response":"left","rt":1233.8000000119,"correct":true,"confidence":3},{"trial_n":26,"n_dots":3.75,"target":"right","response":"right","rt":271,"correct":true,"confidence":5},{"trial_n":27,"n_dots":3.75,"target":"left","response":"left","rt":255.5,"correct":true,"confidence":5},{"trial_n":28,"n_dots":3.65,"target":"left","response":"left","rt":343.80000001192,"correct":true,"confidence":5},{"trial_n":29,"n_dots":3.65,"target":"right","response":"right","rt":363.90000003576,"correct":true,"confidence":5},{"trial_n":30,"n_dots":3.55,"target":"left","response":"left","rt":323.5,"correct":true,"confidence":5},{"trial_n":31,"n_dots":3.55,"target":"left","response":"right","rt":462.80000001192,"correct":false,"confidence":3},{"trial_n":32,"n_dots":3.65,"target":"left","response":"left","rt":320,"correct":true,"confidence":5},{"trial_n":33,"n_dots":3.65,"target":"right","response":"right","rt":397.39999997616,"correct":true,"confidence":5},{"trial_n":34,"n_dots":3.55,"target":"right","response":"right","rt":415.80000001192,"correct":true,"confidence":5},{"trial_n":35,"n_dots":3.55,"target":"right","response":"right","rt":344.59999996424,"correct":true,"confidence":5},{"trial_n":36,"n_dots":3.45,"target":"right","response":"left","rt":519.59999996424,"correct":false,"confidence":2},{"trial_n":37,"n_dots":3.55,"target":"left","response":"right","rt":710.40000003576,"correct":false,"confidence":4},{"trial_n":38,"n_dots":3.65,"target":"left","response":"right","rt":463.5,"correct":false,"confidence":5},{"trial_n":39,"n_dots":3.75,"target":"right","response":"left","rt":311.80000001192,"correct":false,"confidence":5},{"trial_n":40,"n_dots":3.85,"target":"left","response":"right","rt":484.39999997616,"correct":false,"confidence":5},{"trial_n":41,"n_dots":3.95,"target":"right","response":"right","rt":1292.4000000358,"correct":true,"confidence":5},{"trial_n":42,"n_dots":3.95,"target":"left","response":"right","rt":6544.8000000119,"correct":false,"confidence":1},{"trial_n":43,"n_dots":4.05,"target":"left","response":"left","rt":313,"correct":true,"confidence":4},{"trial_n":44,"n_dots":4.05,"target":"left","response":"right","rt":362.39999997616,"correct":false,"confidence":4},{"trial_n":45,"n_dots":4.15,"target":"right","response":"right","rt":519.89999997616,"correct":true,"confidence":4},{"trial_n":46,"n_dots":4.15,"target":"right","response":"right","rt":81.100000023842,"correct":true,"confidence":5},{"trial_n":47,"n_dots":4.05,"target":"left","response":"right","rt":387.29999995232,"correct":false,"confidence":5},{"trial_n":48,"n_dots":4.15,"target":"left","response":"right","rt":132,"correct":false,"confidence":5},{"trial_n":49,"n_dots":4.25,"target":"left","response":"left","rt":143.5,"correct":true,"confidence":5},{"trial_n":50,"n_dots":4.25,"target":"left","response":"left","rt":358.70000004768,"correct":true,"confidence":5},{"trial_n":51,"n_dots":4.15,"target":"left","response":"left","rt":436.89999997616,"correct":true,"confidence":5},{"trial_n":52,"n_dots":4.15,"target":"right","response":"left","rt":305.19999998808,"correct":false,"confidence":5},{"trial_n":53,"n_dots":4.25,"target":"right","response":"right","rt":166.10000002384,"correct":true,"confidence":5},{"trial_n":54,"n_dots":4.25,"target":"right","response":"right","rt":389.19999998808,"correct":true,"confidence":5},{"trial_n":55,"n_dots":4.15,"target":"left","response":"left","rt":293.79999995232,"correct":true,"confidence":5},{"trial_n":56,"n_dots":4.15,"target":"right","response":"right","rt":356.89999997616,"correct":true,"confidence":5},{"trial_n":57,"n_dots":4.05,"target":"left","response":"left","rt":334.19999998808,"correct":true,"confidence":5},{"trial_n":58,"n_dots":4.05,"target":"right","response":"left","rt":314.80000001192,"correct":false,"confidence":5},{"trial_n":59,"n_dots":4.15,"target":"left","response":"left","rt":355.69999998808,"correct":true,"confidence":5},{"trial_n":60,"n_dots":4.15,"target":"right","response":"right","rt":344.90000003576,"correct":true,"confidence":5},{"trial_n":61,"n_dots":4.05,"target":"right","response":"right","rt":344.60000002384,"correct":true,"confidence":5},{"trial_n":62,"n_dots":4.05,"target":"right","response":"right","rt":365.5,"correct":true,"confidence":5},{"trial_n":63,"n_dots":3.95,"target":"right","response":"right","rt":846.5,"correct":true,"confidence":1},{"trial_n":64,"n_dots":3.95,"target":"right","response":"right","rt":654,"correct":true,"confidence":5},{"trial_n":65,"n_dots":3.85,"target":"left","response":"left","rt":505.80000001192,"correct":true,"confidence":5},{"trial_n":66,"n_dots":3.85,"target":"left","response":"left","rt":379.19999998808,"correct":true,"confidence":5},{"trial_n":67,"n_dots":3.75,"target":"left","response":"left","rt":308.09999996424,"correct":true,"confidence":5},{"trial_n":68,"n_dots":3.75,"target":"right","response":"right","rt":412.40000003576,"correct":true,"confidence":5},{"trial_n":69,"n_dots":3.65,"target":"right","response":"left","rt":509.69999998808,"correct":false,"confidence":3},{"trial_n":70,"n_dots":3.75,"target":"left","response":"left","rt":747,"correct":true,"confidence":5},{"trial_n":71,"n_dots":3.75,"target":"right","response":"left","rt":671.30000001192,"correct":false,"confidence":5},{"trial_n":72,"n_dots":3.85,"target":"right","response":"right","rt":560.30000001192,"correct":true,"confidence":5},{"trial_n":73,"n_dots":3.85,"target":"right","response":"right","rt":363.5,"correct":true,"confidence":5},{"trial_n":74,"n_dots":3.75,"target":"right","response":"right","rt":570.10000002384,"correct":true,"confidence":5},{"trial_n":75,"n_dots":3.75,"target":"right","response":"right","rt":532.10000002384,"correct":true,"confidence":5},{"trial_n":76,"n_dots":3.65,"target":"right","response":"right","rt":297.80000001192,"correct":true,"confidence":5},{"trial_n":77,"n_dots":3.65,"target":"right","response":"right","rt":331.89999997616,"correct":true,"confidence":5},{"trial_n":78,"n_dots":3.55,"target":"left","response":"left","rt":429.19999998808,"correct":true,"confidence":5},{"trial_n":79,"n_dots":3.55,"target":"right","response":"right","rt":371.80000001192,"correct":true,"confidence":5},{"trial_n":80,"n_dots":3.45,"target":"left","response":"right","rt":95.699999988079,"correct":false,"confidence":5},{"trial_n":81,"n_dots":3.55,"target":"right","response":"left","rt":2543.1999999881,"correct":false,"confidence":5},{"trial_n":82,"n_dots":3.65,"target":"right","response":"left","rt":306,"correct":false,"confidence":5},{"trial_n":83,"n_dots":3.75,"target":"left","response":"left","rt":512.89999997616,"correct":true,"confidence":5},{"trial_n":84,"n_dots":3.75,"target":"right","response":"left","rt":907.19999998808,"correct":false,"confidence":5},{"trial_n":85,"n_dots":3.85,"target":"right","response":"right","rt":197,"correct":true,"confidence":5},{"trial_n":86,"n_dots":3.85,"target":"left","response":"left","rt":317.5,"correct":true,"confidence":5},{"trial_n":87,"n_dots":3.75,"target":"left","response":"left","rt":41.5,"correct":true,"confidence":5},{"trial_n":88,"n_dots":3.75,"target":"left","response":"left","rt":331.5,"correct":true,"confidence":1},{"trial_n":89,"n_dots":3.65,"target":"right","response":"right","rt":308.29999995232,"correct":true,"confidence":5},{"trial_n":90,"n_dots":3.65,"target":"right","response":"left","rt":1447.3999999762,"correct":false,"confidence":3},{"trial_n":91,"n_dots":3.75,"target":"right","response":"right","rt":307.69999998808,"correct":true,"confidence":4},{"trial_n":92,"n_dots":3.75,"target":"left","response":"left","rt":358.09999996424,"correct":true,"confidence":4},{"trial_n":93,"n_dots":3.65,"target":"left","response":"left","rt":463.10000002384,"correct":true,"confidence":4},{"trial_n":94,"n_dots":3.65,"target":"right","response":"right","rt":376.5,"correct":true,"confidence":5},{"trial_n":95,"n_dots":3.55,"target":"left","response":"left","rt":286.5,"correct":true,"confidence":5},{"trial_n":96,"n_dots":3.55,"target":"right","response":"left","rt":533.10000002384,"correct":false,"confidence":1},{"trial_n":97,"n_dots":3.65,"target":"left","response":"left","rt":325,"correct":true,"confidence":5},{"trial_n":98,"n_dots":3.65,"target":"left","response":"left","rt":345.30000001192,"correct":true,"confidence":5},{"trial_n":99,"n_dots":3.55,"target":"right","response":"left","rt":491.89999997616,"correct":false,"confidence":3},{"trial_n":100,"n_dots":3.65,"target":"right","response":"right","rt":378.39999997616,"correct":true,"confidence":4},{"trial_n":101,"n_dots":3.65,"target":"right","response":"right","rt":235.20000004768,"correct":true,"confidence":1},{"trial_n":102,"n_dots":3.55,"target":"left","response":"left","rt":334.69999998808,"correct":true,"confidence":4},{"trial_n":103,"n_dots":3.55,"target":"left","response":"left","rt":364.10000002384,"correct":true,"confidence":1},{"trial_n":104,"n_dots":3.45,"target":"left","response":"left","rt":513.69999998808,"correct":true,"confidence":5},{"trial_n":105,"n_dots":3.45,"target":"left","response":"left","rt":518.39999997616,"correct":true,"confidence":5},{"trial_n":106,"n_dots":3.35,"target":"right","response":"right","rt":764.10000002384,"correct":true,"confidence":3},{"trial_n":107,"n_dots":3.35,"target":"left","response":"left","rt":413.60000002384,"correct":true,"confidence":3},{"trial_n":108,"n_dots":3.25,"target":"right","response":"right","rt":737.5,"correct":true,"confidence":4},{"trial_n":109,"n_dots":3.25,"target":"right","response":"right","rt":408.90000003576,"correct":true,"confidence":4},{"trial_n":110,"n_dots":3.15,"target":"right","response":"left","rt":304.19999998808,"correct":false,"confidence":4},{"trial_n":111,"n_dots":3.25,"target":"right","response":"left","rt":320.60000002384,"correct":false,"confidence":4},{"trial_n":112,"n_dots":3.35,"target":"left","response":"left","rt":339.10000002384,"correct":true,"confidence":4},{"trial_n":113,"n_dots":3.35,"target":"left","response":"left","rt":315.39999997616,"correct":true,"confidence":4},{"trial_n":114,"n_dots":3.25,"target":"left","response":"left","rt":478.80000001192,"correct":true,"confidence":4},{"trial_n":115,"n_dots":3.25,"target":"left","response":"left","rt":351.20000004768,"correct":true,"confidence":4},{"trial_n":116,"n_dots":3.15,"target":"left","response":"left","rt":291.80000001192,"correct":true,"confidence":4},{"trial_n":117,"n_dots":3.15,"target":"right","response":"right","rt":277.90000003576,"correct":true,"confidence":4},{"trial_n":118,"n_dots":3.05,"target":"left","response":"left","rt":358,"correct":true,"confidence":4},{"trial_n":119,"n_dots":3.05,"target":"left","response":"right","rt":282.90000003576,"correct":false,"confidence":4},{"trial_n":120,"n_dots":3.15,"target":"right","response":"right","rt":397.89999997616,"correct":true,"confidence":5}]