[{"trial_n":1,"n_dots":4.25,"target":"right","response":"right","rt":3430.2000000002,"correct":true,"confidence":-1},{"trial_n":2,"n_dots":4.25,"target":"right","response":"right","rt":1032.4000000004,"correct":true,"confidence":-1},{"trial_n":3,"n_dots":3.85,"target":"left","response":"right","rt":1114.7000000002,"correct":false,"confidence":-1},{"trial_n":4,"n_dots":4.25,"target":"right","response":"right","rt":790,"correct":true,"confidence":-1},{"trial_n":5,"n_dots":4.25,"target":"right","response":"right","rt":658,"correct":true,"confidence":-1},{"trial_n":6,"n_dots":3.85,"target":"left","response":"right","rt":995.40000000037,"correct":false,"confidence":-1},{"trial_n":7,"n_dots":4.25,"target":"right","response":"right","rt":315,"correct":true,"confidence":-1},{"trial_n":8,"n_dots":4.25,"target":"right","response":"left","rt":1392,"correct":false,"confidence":-1},{"trial_n":9,"n_dots":4.45,"target":"right","response":"right","rt":285.10000000056,"correct":true,"confidence":-1},{"trial_n":10,"n_dots":4.45,"target":"left","response":"left","rt":993,"correct":true,"confidence":-1},{"trial_n":11,"n_dots":4.25,"target":"right","response":"right","rt":717.5,"correct":true,"confidence":-1},{"trial_n":12,"n_dots":4.25,"target":"left","response":"right","rt":696.5,"correct":false,"confidence":-1},{"trial_n":13,"n_dots":4.35,"target":"right","response":"right","rt":161.79999999981,"correct":true,"confidence":-1},{"trial_n":14,"n_dots":4.35,"target":"right","response":"right","rt":1216.7000000002,"correct":true,"confidence":-1},{"trial_n":15,"n_dots":4.25,"target":"left","response":"left","rt":434.60000000056,"correct":true,"confidence":-1},{"trial_n":16,"n_dots":4.25,"target":"left","response":"left","rt":496.89999999944,"correct":true,"confidence":-1},{"trial_n":17,"n_dots":4.15,"target":"right","response":"right","rt":328.79999999981,"correct":true,"confidence":-1},{"trial_n":18,"n_dots":4.15,"target":"left","response":"left","rt":260.10000000056,"correct":true,"confidence":-1},{"trial_n":19,"n_dots":4.05,"target":"left","response":"left","rt":395.19999999925,"correct":true,"confidence":-1},{"trial_n":20,"n_dots":4.05,"target":"left","response":"left","rt":260.90000000037,"correct":true,"confidence":-1},{"trial_n":21,"n_dots":3.95,"target":"right","response":"right","rt":622.69999999925,"correct":true,"confidence":3},{"trial_n":22,"n_dots":3.95,"target":"left","response":"left","rt":557.70000000019,"correct":true,"confidence":4},{"trial_n":23,"n_dots":3.85,"target":"right","response":"left","rt":1302.9000000004,"correct":false,"confidence":3},{"trial_n":24,"n_dots":3.95,"target":"left","response":"left","rt":722.40000000037,"correct":true,"confidence":2},{"trial_n":25,"n_dots":3.95,"target":"left","response":"left","rt":507.90000000037,"correct":true,"confidence":5},{"trial_n":26,"n_dots":3.85,"target":"right","response":"right","rt":640.79999999981,"correct":true,"confidence":4},{"trial_n":27,"n_dots":3.85,"target":"right","response":"right","rt":546.5,"correct":true,"confidence":3},{"trial_n":28,"n_dots":3.75,"target":"left","response":"left","rt":234.79999999981,"correct":true,"confidence":3},{"trial_n":29,"n_dots":3.75,"target":"right","response":"right","rt":500.89999999944,"correct":true,"confidence":4},{"trial_n":30,"n_dots":3.65,"target":"left","response":"left","rt":327.39999999944,"correct":true,"confidence":4},{"trial_n":31,"n_dots":3.65,"target":"left","response":"left","rt":821.89999999944,"correct":true,"confidence":4},{"trial_n":32,"n_dots":3.55,"target":"left","response":"left","rt":1081,"correct":true,"confidence":1},{"trial_n":33,"n_dots":3.55,"target":"left","response":"left","rt":1756.0999999996,"correct":true,"confidence":1},{"trial_n":34,"n_dots":3.45,"target":"right","response":"right","rt":444,"correct":true,"confidence":3},{"trial_n":35,"n_dots":3.45,"target":"left","response":"right","rt":369.70000000019,"correct":false,"confidence":4},{"trial_n":36,"n_dots":3.55,"target":"right","response":"right","rt":470.20000000019,"correct":true,"confidence":4},{"trial_n":37,"n_dots":3.55,"target":"left","response":"left","rt":924.10000000056,"correct":true,"confidence":1},{"trial_n":38,"n_dots":3.45,"target":"left","response":"right","rt":423.79999999981,"correct":false,"confidence":4},{"trial_n":39,"n_dots":3.55,"target":"right","response":"right","rt":398.79999999981,"correct":true,"confidence":5},{"trial_n":40,"n_dots":3.55,"target":"left","response":"left","rt":1744.3999999994,"correct":true,"confidence":3},{"trial_n":41,"n_dots":3.45,"target":"left","response":"left","rt":813.5,"correct":true,"confidence":3},{"trial_n":42,"n_dots":3.45,"target":"right","response":"right","rt":1254.6000000006,"correct":true,"confidence":3},{"trial_n":43,"n_dots":3.35,"target":"right","response":"right","rt":372.09999999963,"correct":true,"confidence":4},{"trial_n":44,"n_dots":3.35,"target":"left","response":"left","rt":614.10000000056,"correct":true,"confidence":3},{"trial_n":45,"n_dots":3.25,"target":"right","response":"right","rt":490.09999999963,"correct":true,"confidence":4},{"trial_n":46,"n_dots":3.25,"target":"right","response":"right","rt":445.39999999944,"correct":true,"confidence":4},{"trial_n":47,"n_dots":3.15,"target":"left","response":"left","rt":575.90000000037,"correct":true,"confidence":3},{"trial_n":48,"n_dots":3.15,"target":"left","response":"left","rt":531,"correct":true,"confidence":3},{"trial_n":49,"n_dots":3.05,"target":"right","response":"right","rt":372.20000000019,"correct":true,"confidence":4},{"trial_n":50,"n_dots":3.05,"target":"right","response":"right","rt":708.29999999981,"correct":true,"confidence":2},{"trial_n":51,"n_dots":2.95,"target":"left","response":"left","rt":1061,"correct":true,"confidence":3},{"trial_n":52,"n_dots":2.95,"target":"right","response":"right","rt":964.09999999963,"correct":true,"confidence":3},{"trial_n":53,"n_dots":2.85,"target":"right","response":"right","rt":511.29999999981,"correct":true,"confidence":4},{"trial_n":54,"n_dots":2.85,"target":"left","response":"right","rt":606.80000000075,"correct":false,"confidence":4},{"trial_n":55,"n_dots":2.95,"target":"right","response":"right","rt":464.09999999963,"correct":true,"confidence":4},{"trial_n":56,"n_dots":2.95,"target":"left","response":"right","rt":333,"correct":false,"confidence":3},{"trial_n":57,"n_dots":3.05,"target":"right","response":"left","rt":548.30000000075,"correct":false,"confidence":3},{"trial_n":58,"n_dots":3.15,"target":"right","response":"right","rt":390,"correct":true,"confidence":4},{"trial_n":59,"n_dots":3.15,"target":"right","response":"right","rt":397.30000000075,"correct":true,"confidence":4},{"trial_n":60,"n_dots":3.05,"target":"left","response":"right","rt":1318.6999999993,"correct":false,"confidence":2},{"trial_n":61,"n_dots":3.15,"target":"right","response":"right","rt":436.29999999981,"correct":true,"confidence":3},{"trial_n":62,"n_dots":3.15,"target":"left","response":"right","rt":369.39999999944,"correct":false,"confidence":5},{"trial_n":63,"n_dots":3.25,"target":"right","response":"right","rt":490.69999999925,"correct":true,"confidence":5},{"trial_n":64,"n_dots":3.25,"target":"right","response":"right","rt":375.40000000037,"correct":true,"confidence":5},{"trial_n":65,"n_dots":3.15,"target":"left","response":"left","rt":456.70000000019,"correct":true,"confidence":3},{"trial_n":66,"n_dots":3.15,"target":"left","response":"left","rt":824.09999999963,"correct":true,"confidence":2},{"trial_n":67,"n_dots":3.05,"target":"right","response":"right","rt":452,"correct":true,"confidence":3},{"trial_n":68,"n_dots":3.05,"target":"right","response":"right","rt":426.5,"correct":true,"confidence":5},{"trial_n":69,"n_dots":2.95,"target":"right","response":"right","rt":616.40000000037,"correct":true,"confidence":1},{"trial_n":70,"n_dots":2.95,"target":"right","response":"right","rt":484.70000000019,"correct":true,"confidence":3},{"trial_n":71,"n_dots":2.85,"target":"right","response":"right","rt":742.70000000019,"correct":true,"confidence":2},{"trial_n":72,"n_dots":2.85,"target":"right","response":"left","rt":679.29999999981,"correct":false,"confidence":1},{"trial_n":73,"n_dots":2.95,"target":"left","response":"left","rt":520.90000000037,"correct":true,"confidence":3},{"trial_n":74,"n_dots":2.95,"target":"left","response":"right","rt":949,"correct":false,"confidence":1},{"trial_n":75,"n_dots":3.05,"target":"right","response":"left","rt":709.69999999925,"correct":false,"confidence":1},{"trial_n":76,"n_dots":3.15,"target":"right","response":"left","rt":771.09999999963,"correct":false,"confidence":1},{"trial_n":77,"n_dots":3.25,"target":"left","response":"right","rt":700,"correct":false,"confidence":2},{"trial_n":78,"n_dots":3.35,"target":"right","response":"left","rt":648.40000000037,"correct":false,"confidence":1},{"trial_n":79,"n_dots":3.45,"target":"right","response":"right","rt":1153.8000000007,"correct":true,"confidence":3},{"trial_n":80,"n_dots":3.45,"target":"right","response":"left","rt":852.60000000056,"correct":false,"confidence":3},{"trial_n":81,"n_dots":3.55,"target":"left","response":"right","rt":550.5,"correct":false,"confidence":4},{"trial_n":82,"n_dots":3.65,"target":"left","response":"right","rt":751.29999999981,"correct":false,"confidence":4},{"trial_n":83,"n_dots":3.75,"target":"right","response":"right","rt":369.79999999981,"correct":true,"confidence":4},{"trial_n":84,"n_dots":3.75,"target":"left","response":"left","rt":743.20000000019,"correct":true,"confidence":1},{"trial_n":85,"n_dots":3.65,"target":"right","response":"right","rt":596.20000000019,"correct":true,"confidence":4},{"trial_n":86,"n_dots":3.65,"target":"right","response":"right","rt":487.80000000075,"correct":true,"confidence":4},{"trial_n":87,"n_dots":3.55,"target":"right","response":"right","rt":372.20000000019,"correct":true,"confidence":4},{"trial_n":88,"n_dots":3.55,"target":"left","response":"right","rt":585.60000000056,"correct":false,"confidence":3},{"trial_n":89,"n_dots":3.65,"target":"left","response":"left","rt":940.20000000019,"correct":true,"confidence":3},{"trial_n":90,"n_dots":3.65,"target":"left","response":"left","rt":393.40000000037,"correct":true,"confidence":5},{"trial_n":91,"n_dots":3.55,"target":"left","response":"left","rt":626.29999999981,"correct":true,"confidence":3},{"trial_n":92,"n_dots":3.55,"target":"right","response":"right","rt":447.90000000037,"correct":true,"confidence":5},{"trial_n":93,"n_dots":3.45,"target":"left","response":"right","rt":3303.6000000006,"correct":false,"confidence":2},{"trial_n":94,"n_dots":3.55,"target":"left","response":"left","rt":1638.1999999993,"correct":true,"confidence":1},{"trial_n":95,"n_dots":3.55,"target":"left","response":"right","rt":1334.1999999993,"correct":false,"confidence":1},{"trial_n":96,"n_dots":3.65,"target":"right","response":"right","rt":376.70000000019,"correct":true,"confidence":5},{"trial_n":97,"n_dots":3.65,"target":"left","response":"left","rt":362,"correct":true,"confidence":5},{"trial_n":98,"n_dots":3.55,"target":"left","response":"left","rt":520.5,"correct":true,"confidence":4},{"trial_n":99,"n_dots":3.55,"target":"left","response":"left","rt":371.40000000037,"correct":true,"confidence":5},{"trial_n":100,"n_dots":3.45,"target":"left","response":"left","rt":736.20000000019,"correct":true,"confidence":1},{"trial_n":101,"n_dots":3.45,"target":"right","response":"right","rt":676.59999999963,"correct":true,"confidence":1},{"trial_n":102,"n_dots":3.35,"target":"left","response":"left","rt":317.20000000019,"correct":true,"confidence":3},{"trial_n":103,"n_dots":3.35,"target":"left","response":"left","rt":519.69999999925,"correct":true,"confidence":3},{"trial_n":104,"n_dots":3.25,"target":"left","response":"left","rt":614.90000000037,"correct":true,"confidence":4},{"trial_n":105,"n_dots":3.25,"target":"left","response":"right","rt":525.29999999981,"correct":false,"confidence":1},{"trial_n":106,"n_dots":3.35,"target":"left","response":"left","rt":703.90000000037,"correct":true,"confidence":4},{"trial_n":107,"n_dots":3.35,"target":"right","response":"right","rt":699.09999999963,"correct":true,"confidence":5},{"trial_n":108,"n_dots":3.25,"target":"right","response":"left","rt":564.70000000019,"correct":false,"confidence":4},{"trial_n":109,"n_dots":3.35,"target":"left","response":"left","rt":662.90000000037,"correct":true,"confidence":3},{"trial_n":110,"n_dots":3.35,"target":"right","response":"right","rt":250.10000000056,"correct":true,"confidence":5},{"trial_n":111,"n_dots":3.25,"target":"left","response":"left","rt":517.79999999981,"correct":true,"confidence":4},{"trial_n":112,"n_dots":3.25,"target":"left","response":"right","rt":1113.6000000006,"correct":false,"confidence":3},{"trial_n":113,"n_dots":3.35,"target":"right","response":"right","rt":470.5,"correct":true,"confidence":4},{"trial_n":114,"n_dots":3.35,"target":"right","response":"right","rt":314.39999999944,"correct":true,"confidence":3},{"trial_n":115,"n_dots":3.25,"target":"left","response":"left","rt":265.29999999981,"correct":true,"confidence":5},{"trial_n":116,"n_dots":3.25,"target":"left","response":"left","rt":1120.1999999993,"correct":true,"confidence":1},{"trial_n":117,"n_dots":3.15,"target":"right","response":"right","rt":688.29999999981,"correct":true,"confidence":5},{"trial_n":118,"n_dots":3.15,"target":"left","response":"left","rt":335.29999999981,"correct":true,"confidence":4},{"trial_n":119,"n_dots":3.05,"target":"right","response":"right","rt":263,"correct":true,"confidence":5},{"trial_n":120,"n_dots":3.05,"target":"right","response":"left","rt":645.5,"correct":false,"confidence":2}]