[{"trial_n":1,"n_dots":4.25,"target":"left","response":"left","rt":5546.0999999978,"correct":true,"confidence":-1},{"trial_n":2,"n_dots":4.25,"target":"right","response":"right","rt":2798.6999999993,"correct":true,"confidence":-1},{"trial_n":3,"n_dots":3.85,"target":"right","response":"right","rt":657.5,"correct":true,"confidence":-1},{"trial_n":4,"n_dots":3.85,"target":"right","response":"right","rt":592.20000000298,"correct":true,"confidence":-1},{"trial_n":5,"n_dots":3.45,"target":"left","response":"left","rt":1039.1000000015,"correct":true,"confidence":-1},{"trial_n":6,"n_dots":3.45,"target":"right","response":"right","rt":712,"correct":true,"confidence":-1},{"trial_n":7,"n_dots":3.05,"target":"right","response":"right","rt":494.60000000149,"correct":true,"confidence":-1},{"trial_n":8,"n_dots":3.05,"target":"left","response":"right","rt":468.80000000075,"correct":false,"confidence":-1},{"trial_n":9,"n_dots":3.25,"target":"right","response":"right","rt":641.59999999776,"correct":true,"confidence":-1},{"trial_n":10,"n_dots":3.25,"target":"right","response":"right","rt":798.39999999851,"correct":true,"confidence":-1},{"trial_n":11,"n_dots":3.05,"target":"left","response":"right","rt":809.59999999776,"correct":false,"confidence":-1},{"trial_n":12,"n_dots":3.25,"target":"left","response":"left","rt":1507.4000000022,"correct":true,"confidence":-1},{"trial_n":13,"n_dots":3.25,"target":"left","response":"left","rt":959.60000000149,"correct":true,"confidence":-1},{"trial_n":14,"n_dots":3.15,"target":"left","response":"left","rt":833.90000000224,"correct":true,"confidence":-1},{"trial_n":15,"n_dots":3.15,"target":"left","response":"right","rt":866,"correct":false,"confidence":-1},{"trial_n":16,"n_dots":3.25,"target":"left","response":"left","rt":210.29999999702,"correct":true,"confidence":-1},{"trial_n":17,"n_dots":3.25,"target":"right","response":"right","rt":557.10000000149,"correct":true,"confidence":-1},{"trial_n":18,"n_dots":3.15,"target":"left","response":"right","rt":628.40000000224,"correct":false,"confidence":-1},{"trial_n":19,"n_dots":3.25,"target":"right","response":"left","rt":695.60000000149,"correct":false,"confidence":-1},{"trial_n":20,"n_dots":3.35,"target":"left","response":"right","rt":789.29999999702,"correct":false,"confidence":-1},{"trial_n":21,"n_dots":3.45,"target":"left","response":"right","rt":444.5,"correct":false,"confidence":4},{"trial_n":22,"n_dots":3.55,"target":"right","response":"right","rt":744.5,"correct":true,"confidence":5},{"trial_n":23,"n_dots":3.55,"target":"right","response":"right","rt":825,"correct":true,"confidence":4},{"trial_n":24,"n_dots":3.45,"target":"left","response":"right","rt":1241.3000000007,"correct":false,"confidence":4},{"trial_n":25,"n_dots":3.55,"target":"left","response":"right","rt":1217.200000003,"correct":false,"confidence":3},{"trial_n":26,"n_dots":3.65,"target":"right","response":"right","rt":999.80000000075,"correct":true,"confidence":5},{"trial_n":27,"n_dots":3.65,"target":"right","response":"right","rt":817.59999999776,"correct":true,"confidence":4},{"trial_n":28,"n_dots":3.55,"target":"right","response":"right","rt":901.59999999776,"correct":true,"confidence":5},{"trial_n":29,"n_dots":3.55,"target":"right","response":"right","rt":1041.5,"correct":true,"confidence":5},{"trial_n":30,"n_dots":3.45,"target":"left","response":"right","rt":988.30000000075,"correct":false,"confidence":5},{"trial_n":31,"n_dots":3.55,"target":"right","response":"right","rt":995.60000000149,"correct":true,"confidence":4},{"trial_n":32,"n_dots":3.55,"target":"right","response":"right","rt":703.59999999776,"correct":true,"confidence":5},{"trial_n":33,"n_dots":3.45,"target":"right","response":"right","rt":945.80000000075,"correct":true,"confidence":3},{"trial_n":34,"n_dots":3.45,"target":"left","response":"left","rt":1048.0999999978,"correct":true,"confidence":5},{"trial_n":35,"n_dots":3.35,"target":"right","response":"right","rt":1081.5999999978,"correct":true,"confidence":5},{"trial_n":36,"n_dots":3.35,"target":"right","response":"left","rt":1793.6000000015,"correct":false,"confidence":2},{"trial_n":37,"n_dots":3.45,"target":"left","response":"right","rt":985.89999999851,"correct":false,"confidence":5},{"trial_n":38,"n_dots":3.55,"target":"left","response":"right","rt":940.5,"correct":false,"confidence":4},{"trial_n":39,"n_dots":3.65,"target":"left","response":"left","rt":722,"correct":true,"confidence":5},{"trial_n":40,"n_dots":3.65,"target":"left","response":"left","rt":1358.5,"correct":true,"confidence":5},{"trial_n":41,"n_dots":3.55,"target":"left","response":"left","rt":1606.1000000015,"correct":true,"confidence":4},{"trial_n":42,"n_dots":3.55,"target":"right","response":"right","rt":938.60000000149,"correct":true,"confidence":3},{"trial_n":43,"n_dots":3.45,"target":"left","response":"right","rt":2411.6999999993,"correct":false,"confidence":4},{"trial_n":44,"n_dots":3.55,"target":"right","response":"right","rt":703.69999999925,"correct":true,"confidence":4},{"trial_n":45,"n_dots":3.55,"target":"right","response":"right","rt":1078.6000000015,"correct":true,"confidence":4},{"trial_n":46,"n_dots":3.45,"target":"left","response":"right","rt":1652.3000000007,"correct":false,"confidence":4},{"trial_n":47,"n_dots":3.55,"target":"left","response":"left","rt":401.69999999925,"correct":true,"confidence":5},{"trial_n":48,"n_dots":3.55,"target":"right","response":"right","rt":915.10000000149,"correct":true,"confidence":2},{"trial_n":49,"n_dots":3.45,"target":"right","response":"right","rt":589,"correct":true,"confidence":5},{"trial_n":50,"n_dots":3.45,"target":"right","response":"right","rt":369.5,"correct":true,"confidence":5},{"trial_n":51,"n_dots":3.35,"target":"left","response":"right","rt":1105.799999997,"correct":false,"confidence":3},{"trial_n":52,"n_dots":3.45,"target":"right","response":"right","rt":523,"correct":true,"confidence":3},{"trial_n":53,"n_dots":3.45,"target":"left","response":"right","rt":706.79999999702,"correct":false,"confidence":3},{"trial_n":54,"n_dots":3.55,"target":"right","response":"right","rt":634.5,"correct":true,"confidence":3},{"trial_n":55,"n_dots":3.55,"target":"right","response":"right","rt":580,"correct":true,"confidence":3},{"trial_n":56,"n_dots":3.45,"target":"left","response":"left","rt":458.80000000075,"correct":true,"confidence":5},{"trial_n":57,"n_dots":3.45,"target":"right","response":"left","rt":598.40000000224,"correct":false,"confidence":3},{"trial_n":58,"n_dots":3.55,"target":"right","response":"right","rt":293.5,"correct":true,"confidence":5},{"trial_n":59,"n_dots":3.55,"target":"left","response":"right","rt":610.40000000224,"correct":false,"confidence":5},{"trial_n":60,"n_dots":3.65,"target":"right","response":"right","rt":641,"correct":true,"confidence":5},{"trial_n":61,"n_dots":3.65,"target":"right","response":"right","rt":1578.200000003,"correct":true,"confidence":4},{"trial_n":62,"n_dots":3.55,"target":"left","response":"left","rt":414.09999999776,"correct":true,"confidence":5},{"trial_n":63,"n_dots":3.55,"target":"left","response":"left","rt":526.89999999851,"correct":true,"confidence":3},{"trial_n":64,"n_dots":3.45,"target":"left","response":"right","rt":1185.1999999993,"correct":false,"confidence":5},{"trial_n":65,"n_dots":3.55,"target":"left","response":"right","rt":766.60000000149,"correct":false,"confidence":5},{"trial_n":66,"n_dots":3.65,"target":"left","response":"right","rt":960.5,"correct":false,"confidence":5},{"trial_n":67,"n_dots":3.75,"target":"right","response":"left","rt":828.20000000298,"correct":false,"confidence":4},{"trial_n":68,"n_dots":3.85,"target":"right","response":"right","rt":863,"correct":true,"confidence":5},{"trial_n":69,"n_dots":3.85,"target":"right","response":"right","rt":573.5,"correct":true,"confidence":5},{"trial_n":70,"n_dots":3.75,"target":"left","response":"right","rt":1349.8000000007,"correct":false,"confidence":5},{"trial_n":71,"n_dots":3.85,"target":"right","response":"right","rt":1209.6999999993,"correct":true,"confidence":5},{"trial_n":72,"n_dots":3.85,"target":"left","response":"left","rt":1042.3999999985,"correct":true,"confidence":5},{"trial_n":73,"n_dots":3.75,"target":"right","response":"right","rt":441.19999999925,"correct":true,"confidence":1},{"trial_n":74,"n_dots":3.75,"target":"right","response":"right","rt":1531.6999999993,"correct":true,"confidence":5},{"trial_n":75,"n_dots":3.65,"target":"right","response":"right","rt":343,"correct":true,"confidence":5},{"trial_n":76,"n_dots":3.65,"target":"left","response":"left","rt":1103.6000000015,"correct":true,"confidence":5},{"trial_n":77,"n_dots":3.55,"target":"right","response":"right","rt":372.5,"correct":true,"confidence":4},{"trial_n":78,"n_dots":3.55,"target":"left","response":"right","rt":530.09999999776,"correct":false,"confidence":4},{"trial_n":79,"n_dots":3.65,"target":"right","response":"right","rt":421.69999999925,"correct":true,"confidence":5},{"trial_n":80,"n_dots":3.65,"target":"left","response":"right","rt":1168.1999999993,"correct":false,"confidence":5},{"trial_n":81,"n_dots":3.75,"target":"left","response":"right","rt":383.80000000075,"correct":false,"confidence":5},{"trial_n":82,"n_dots":3.85,"target":"left","response":"left","rt":1419.5,"correct":true,"confidence":4},{"trial_n":83,"n_dots":3.85,"target":"right","response":"right","rt":836.69999999925,"correct":true,"confidence":5},{"trial_n":84,"n_dots":3.75,"target":"left","response":"right","rt":746.70000000298,"correct":false,"confidence":1},{"trial_n":85,"n_dots":3.85,"target":"right","response":"right","rt":1329.1999999993,"correct":true,"confidence":4},{"trial_n":86,"n_dots":3.85,"target":"left","response":"right","rt":618.89999999851,"correct":false,"confidence":3},{"trial_n":87,"n_dots":3.95,"target":"right","response":"right","rt":397.59999999776,"correct":true,"confidence":5},{"trial_n":88,"n_dots":3.95,"target":"left","response":"left","rt":572.69999999925,"correct":true,"confidence":5},{"trial_n":89,"n_dots":3.85,"target":"right","response":"right","rt":461.89999999851,"correct":true,"confidence":5},{"trial_n":90,"n_dots":3.85,"target":"right","response":"right","rt":548.69999999925,"correct":true,"confidence":5},{"trial_n":91,"n_dots":3.75,"target":"right","response":"right","rt":644.30000000075,"correct":true,"confidence":4},{"trial_n":92,"n_dots":3.75,"target":"left","response":"right","rt":210.40000000224,"correct":false,"confidence":4},{"trial_n":93,"n_dots":3.85,"target":"right","response":"left","rt":2583,"correct":false,"confidence":3},{"trial_n":94,"n_dots":3.95,"target":"left","response":"right","rt":470.10000000149,"correct":false,"confidence":4},{"trial_n":95,"n_dots":4.05,"target":"left","response":"left","rt":618.39999999851,"correct":true,"confidence":5},{"trial_n":96,"n_dots":4.05,"target":"right","response":"right","rt":340.69999999925,"correct":true,"confidence":5},{"trial_n":97,"n_dots":3.95,"target":"right","response":"right","rt":285.80000000075,"correct":true,"confidence":5},{"trial_n":98,"n_dots":3.95,"target":"right","response":"right","rt":171.69999999925,"correct":true,"confidence":5},{"trial_n":99,"n_dots":3.85,"target":"right","response":"right","rt":248.5,"correct":true,"confidence":5},{"trial_n":100,"n_dots":3.85,"target":"right","response":"right","rt":405.40000000224,"correct":true,"confidence":4},{"trial_n":101,"n_dots":3.75,"target":"left","response":"left","rt":562.09999999776,"correct":true,"confidence":5},{"trial_n":102,"n_dots":3.75,"target":"left","response":"left","rt":596.89999999851,"correct":true,"confidence":5},{"trial_n":103,"n_dots":3.65,"target":"left","response":"left","rt":627.10000000149,"correct":true,"confidence":4},{"trial_n":104,"n_dots":3.65,"target":"right","response":"right","rt":295.39999999851,"correct":true,"confidence":5},{"trial_n":105,"n_dots":3.55,"target":"left","response":"left","rt":733.70000000298,"correct":true,"confidence":4},{"trial_n":106,"n_dots":3.55,"target":"left","response":"left","rt":377.79999999702,"correct":true,"confidence":4},{"trial_n":107,"n_dots":3.45,"target":"left","response":"left","rt":277.5,"correct":true,"confidence":4},{"trial_n":108,"n_dots":3.45,"target":"left","response":"left","rt":210.60000000149,"correct":true,"confidence":4},{"trial_n":109,"n_dots":3.35,"target":"right","response":"right","rt":323.70000000298,"correct":true,"confidence":4},{"trial_n":110,"n_dots":3.35,"target":"right","response":"right","rt":2605.3000000007,"correct":true,"confidence":5},{"trial_n":111,"n_dots":3.25,"target":"left","response":"left","rt":449,"correct":true,"confidence":5},{"trial_n":112,"n_dots":3.25,"target":"left","response":"right","rt":456.70000000298,"correct":false,"confidence":4},{"trial_n":113,"n_dots":3.35,"target":"right","response":"left","rt":1222.6000000015,"correct":false,"confidence":4},{"trial_n":114,"n_dots":3.45,"target":"left","response":"left","rt":189.5,"correct":true,"confidence":5},{"trial_n":115,"n_dots":3.45,"target":"right","response":"right","rt":280,"correct":true,"confidence":4},{"trial_n":116,"n_dots":3.35,"target":"left","response":"left","rt":1123.6999999993,"correct":true,"confidence":3},{"trial_n":117,"n_dots":3.35,"target":"right","response":"left","rt":2368.3999999985,"correct":false,"confidence":1},{"trial_n":118,"n_dots":3.45,"target":"left","response":"left","rt":196.30000000075,"correct":true,"confidence":5},{"trial_n":119,"n_dots":3.45,"target":"left","response":"left","rt":6265,"correct":true,"confidence":4},{"trial_n":120,"n_dots":3.35,"target":"left","response":"left","rt":432.89999999851,"correct":true,"confidence":4}]