[{"trial_n":1,"min":25,"max":230,"target":"present","response":"absent","rt":3985.9000000004,"correct":false,"confidence":-1},{"trial_n":2,"min":25,"max":230,"target":"present","response":"absent","rt":1731.6999999993,"correct":false,"confidence":-1},{"trial_n":3,"min":9,"max":246,"target":"absent","response":"absent","rt":1230.5999999996,"correct":true,"confidence":-1},{"trial_n":4,"min":9,"max":246,"target":"absent","response":"present","rt":3179.8000000007,"correct":false,"confidence":-1},{"trial_n":5,"min":0,"max":255,"target":"present","response":"absent","rt":1686.6999999993,"correct":false,"confidence":-1},{"trial_n":6,"min":0,"max":255,"target":"present","response":"present","rt":1633.5999999996,"correct":true,"confidence":-1},{"trial_n":7,"min":0,"max":255,"target":"absent","response":"absent","rt":1238.8000000007,"correct":true,"confidence":-1},{"trial_n":8,"min":16,"max":239,"target":"present","response":"present","rt":1029,"correct":true,"confidence":-1},{"trial_n":9,"min":16,"max":239,"target":"absent","response":"absent","rt":1026.1999999993,"correct":true,"confidence":-1},{"trial_n":10,"min":32,"max":223,"target":"absent","response":"absent","rt":1536,"correct":true,"confidence":-1},{"trial_n":11,"min":32,"max":223,"target":"present","response":"present","rt":838.39999999851,"correct":true,"confidence":-1},{"trial_n":12,"min":40,"max":215,"target":"absent","response":"absent","rt":1118.1999999993,"correct":true,"confidence":-1},{"trial_n":13,"min":40,"max":215,"target":"absent","response":"present","rt":1525.5,"correct":false,"confidence":-1},{"trial_n":14,"min":32,"max":223,"target":"present","response":"absent","rt":950.10000000149,"correct":false,"confidence":-1},{"trial_n":15,"min":24,"max":231,"target":"present","response":"present","rt":1660.4000000004,"correct":true,"confidence":-1},{"trial_n":16,"min":24,"max":231,"target":"present","response":"absent","rt":6396.2999999989,"correct":false,"confidence":-1},{"trial_n":17,"min":16,"max":239,"target":"present","response":"present","rt":827.5,"correct":true,"confidence":-1},{"trial_n":18,"min":16,"max":239,"target":"absent","response":"present","rt":805.5,"correct":false,"confidence":-1},{"trial_n":19,"min":8,"max":247,"target":"present","response":"absent","rt":770.60000000149,"correct":false,"confidence":-1},{"trial_n":20,"min":0,"max":255,"target":"absent","response":"absent","rt":1158.8000000007,"correct":true,"confidence":-1},{"trial_n":21,"min":0,"max":255,"target":"present","response":"absent","rt":1320.7000000011,"correct":false,"confidence":3},{"trial_n":22,"min":0,"max":255,"target":"absent","response":"absent","rt":2064.3000000007,"correct":true,"confidence":3},{"trial_n":23,"min":0,"max":255,"target":"present","response":"absent","rt":1567.8000000007,"correct":false,"confidence":4},{"trial_n":24,"min":0,"max":255,"target":"present","response":"present","rt":972.09999999963,"correct":true,"confidence":5},{"trial_n":25,"min":0,"max":255,"target":"absent","response":"absent","rt":1027.8000000007,"correct":true,"confidence":4},{"trial_n":26,"min":4,"max":251,"target":"present","response":"present","rt":729.80000000075,"correct":true,"confidence":5},{"trial_n":27,"min":4,"max":251,"target":"present","response":"present","rt":791,"correct":true,"confidence":5},{"trial_n":28,"min":8,"max":247,"target":"absent","response":"absent","rt":785.09999999963,"correct":true,"confidence":4},{"trial_n":29,"min":8,"max":247,"target":"absent","response":"absent","rt":1096.9000000004,"correct":true,"confidence":5},{"trial_n":30,"min":12,"max":243,"target":"absent","response":"absent","rt":1149.1999999993,"correct":true,"confidence":5},{"trial_n":31,"min":12,"max":243,"target":"absent","response":"absent","rt":1273.1999999993,"correct":true,"confidence":5},{"trial_n":32,"min":14,"max":241,"target":"absent","response":"absent","rt":1738.6000000015,"correct":true,"confidence":4},{"trial_n":33,"min":14,"max":241,"target":"absent","response":"absent","rt":928.79999999888,"correct":true,"confidence":5},{"trial_n":34,"min":16,"max":239,"target":"present","response":"present","rt":1077.5,"correct":true,"confidence":5},{"trial_n":35,"min":16,"max":239,"target":"present","response":"present","rt":1029.8000000007,"correct":true,"confidence":5},{"trial_n":36,"min":18,"max":237,"target":"present","response":"present","rt":947.19999999925,"correct":true,"confidence":5},{"trial_n":37,"min":18,"max":237,"target":"absent","response":"present","rt":1226.5999999996,"correct":false,"confidence":4},{"trial_n":38,"min":16,"max":239,"target":"present","response":"present","rt":1244.4000000004,"correct":true,"confidence":5},{"trial_n":39,"min":16,"max":239,"target":"present","response":"present","rt":915.5,"correct":true,"confidence":5},{"trial_n":40,"min":18,"max":237,"target":"absent","response":"present","rt":1612.9000000004,"correct":false,"confidence":3},{"trial_n":41,"min":17,"max":238,"target":"absent","response":"absent","rt":1848.8000000007,"correct":true,"confidence":4},{"trial_n":42,"min":17,"max":238,"target":"absent","response":"absent","rt":1986.9000000004,"correct":true,"confidence":3},{"trial_n":43,"min":18,"max":237,"target":"absent","response":"absent","rt":1600.5999999996,"correct":true,"confidence":5},{"trial_n":44,"min":18,"max":237,"target":"present","response":"present","rt":1124,"correct":true,"confidence":5},{"trial_n":45,"min":19,"max":236,"target":"absent","response":"absent","rt":534.59999999963,"correct":true,"confidence":3},{"trial_n":46,"min":19,"max":236,"target":"present","response":"present","rt":1646.8000000007,"correct":true,"confidence":5},{"trial_n":47,"min":20,"max":235,"target":"present","response":"absent","rt":1577.5,"correct":false,"confidence":4},{"trial_n":48,"min":19,"max":236,"target":"present","response":"present","rt":1388,"correct":true,"confidence":5},{"trial_n":49,"min":19,"max":236,"target":"present","response":"present","rt":1677.6999999993,"correct":true,"confidence":4},{"trial_n":50,"min":20,"max":235,"target":"present","response":"present","rt":1271.1999999993,"correct":true,"confidence":4},{"trial_n":51,"min":20,"max":235,"target":"present","response":"absent","rt":1167.4000000004,"correct":false,"confidence":3},{"trial_n":52,"min":19,"max":236,"target":"present","response":"present","rt":905.30000000075,"correct":true,"confidence":5},{"trial_n":53,"min":19,"max":236,"target":"present","response":"present","rt":881.40000000037,"correct":true,"confidence":5},{"trial_n":54,"min":20,"max":235,"target":"absent","response":"absent","rt":1000.2000000011,"correct":true,"confidence":5},{"trial_n":55,"min":20,"max":235,"target":"present","response":"present","rt":957.19999999925,"correct":true,"confidence":4},{"trial_n":56,"min":21,"max":234,"target":"absent","response":"present","rt":1605.1999999993,"correct":false,"confidence":3},{"trial_n":57,"min":20,"max":235,"target":"absent","response":"absent","rt":1629.6999999993,"correct":true,"confidence":3},{"trial_n":58,"min":20,"max":235,"target":"absent","response":"absent","rt":1007.3000000007,"correct":true,"confidence":5},{"trial_n":59,"min":21,"max":234,"target":"absent","response":"absent","rt":869.30000000075,"correct":true,"confidence":3},{"trial_n":60,"min":21,"max":234,"target":"absent","response":"absent","rt":1293.5999999996,"correct":true,"confidence":3},{"trial_n":61,"min":22,"max":233,"target":"present","response":"absent","rt":1657.3000000007,"correct":false,"confidence":3},{"trial_n":62,"min":21,"max":234,"target":"present","response":"present","rt":975.09999999963,"correct":true,"confidence":5},{"trial_n":63,"min":21,"max":234,"target":"present","response":"present","rt":976.09999999963,"correct":true,"confidence":5},{"trial_n":64,"min":22,"max":233,"target":"absent","response":"absent","rt":1305,"correct":true,"confidence":4},{"trial_n":65,"min":22,"max":233,"target":"absent","response":"absent","rt":1281.5999999996,"correct":true,"confidence":3},{"trial_n":66,"min":23,"max":232,"target":"absent","response":"absent","rt":1049.4000000004,"correct":true,"confidence":5},{"trial_n":67,"min":23,"max":232,"target":"present","response":"present","rt":781.5,"correct":true,"confidence":5},{"trial_n":68,"min":24,"max":231,"target":"absent","response":"absent","rt":822.59999999963,"correct":true,"confidence":4},{"trial_n":69,"min":24,"max":231,"target":"present","response":"absent","rt":900.5,"correct":false,"confidence":5},{"trial_n":70,"min":23,"max":232,"target":"absent","response":"absent","rt":855.29999999888,"correct":true,"confidence":5},{"trial_n":71,"min":41,"max":214,"target":"present","response":"absent","rt":966.90000000037,"correct":false,"confidence":-1},{"trial_n":72,"min":41,"max":214,"target":"present","response":"absent","rt":3337.4000000004,"correct":false,"confidence":-1},{"trial_n":73,"min":25,"max":230,"target":"absent","response":"absent","rt":6493.9000000004,"correct":true,"confidence":-1},{"trial_n":74,"min":25,"max":230,"target":"absent","response":"absent","rt":1121.5,"correct":true,"confidence":-1},{"trial_n":75,"min":41,"max":214,"target":"present","response":"present","rt":793.10000000149,"correct":true,"confidence":-1},{"trial_n":76,"min":41,"max":214,"target":"present","response":"present","rt":1018.3999999985,"correct":true,"confidence":-1},{"trial_n":77,"min":57,"max":198,"target":"absent","response":"absent","rt":1194.6999999993,"correct":true,"confidence":-1},{"trial_n":78,"min":57,"max":198,"target":"present","response":"present","rt":968.90000000037,"correct":true,"confidence":-1},{"trial_n":79,"min":73,"max":182,"target":"present","response":"present","rt":872.19999999925,"correct":true,"confidence":-1},{"trial_n":80,"min":73,"max":182,"target":"present","response":"present","rt":931,"correct":true,"confidence":-1},{"trial_n":81,"min":81,"max":174,"target":"absent","response":"absent","rt":2101.8000000007,"correct":true,"confidence":-1},{"trial_n":82,"min":81,"max":174,"target":"absent","response":"absent","rt":2083.8000000007,"correct":true,"confidence":-1},{"trial_n":83,"min":89,"max":166,"target":"present","response":"present","rt":897.40000000037,"correct":true,"confidence":-1},{"trial_n":84,"min":89,"max":166,"target":"present","response":"present","rt":1070.2999999989,"correct":true,"confidence":-1},{"trial_n":85,"min":97,"max":158,"target":"absent","response":"present","rt":771.70000000112,"correct":false,"confidence":-1},{"trial_n":86,"min":89,"max":166,"target":"absent","response":"absent","rt":1382.2999999989,"correct":true,"confidence":-1},{"trial_n":87,"min":89,"max":166,"target":"absent","response":"absent","rt":1186.0999999996,"correct":true,"confidence":-1},{"trial_n":88,"min":97,"max":158,"target":"absent","response":"present","rt":1871.0999999996,"correct":false,"confidence":-1},{"trial_n":89,"min":89,"max":166,"target":"absent","response":"absent","rt":937.39999999851,"correct":true,"confidence":-1},{"trial_n":90,"min":89,"max":166,"target":"present","response":"present","rt":829.59999999963,"correct":true,"confidence":-1},{"trial_n":91,"min":93,"max":162,"target":"present","response":"absent","rt":1342.5,"correct":false,"confidence":5},{"trial_n":92,"min":89,"max":166,"target":"present","response":"present","rt":1223.0999999996,"correct":true,"confidence":3},{"trial_n":93,"min":89,"max":166,"target":"absent","response":"present","rt":1376.3000000007,"correct":false,"confidence":3},{"trial_n":94,"min":85,"max":170,"target":"present","response":"present","rt":1182.5999999996,"correct":true,"confidence":2},{"trial_n":95,"min":85,"max":170,"target":"absent","response":"present","rt":776.70000000112,"correct":false,"confidence":3},{"trial_n":96,"min":81,"max":174,"target":"absent","response":"absent","rt":1611.5999999996,"correct":true,"confidence":5},{"trial_n":97,"min":81,"max":174,"target":"present","response":"present","rt":1347.9000000004,"correct":true,"confidence":3},{"trial_n":98,"min":85,"max":170,"target":"present","response":"present","rt":890,"correct":true,"confidence":5},{"trial_n":99,"min":85,"max":170,"target":"present","response":"present","rt":925.69999999925,"correct":true,"confidence":5},{"trial_n":100,"min":89,"max":166,"target":"present","response":"present","rt":1083.0999999996,"correct":true,"confidence":4},{"trial_n":101,"min":89,"max":166,"target":"present","response":"present","rt":1733.2000000011,"correct":true,"confidence":3},{"trial_n":102,"min":91,"max":164,"target":"absent","response":"absent","rt":1138.5,"correct":true,"confidence":4},{"trial_n":103,"min":91,"max":164,"target":"present","response":"present","rt":894.80000000075,"correct":true,"confidence":4},{"trial_n":104,"min":93,"max":162,"target":"present","response":"present","rt":927.19999999925,"correct":true,"confidence":5},{"trial_n":105,"min":93,"max":162,"target":"present","response":"present","rt":834.59999999963,"correct":true,"confidence":5},{"trial_n":106,"min":95,"max":160,"target":"absent","response":"present","rt":917.20000000112,"correct":false,"confidence":2},{"trial_n":107,"min":93,"max":162,"target":"present","response":"present","rt":795.20000000112,"correct":true,"confidence":4},{"trial_n":108,"min":93,"max":162,"target":"absent","response":"present","rt":1677.2000000011,"correct":false,"confidence":3},{"trial_n":109,"min":91,"max":164,"target":"absent","response":"absent","rt":2075.1999999993,"correct":true,"confidence":4},{"trial_n":110,"min":91,"max":164,"target":"present","response":"absent","rt":976.69999999925,"correct":false,"confidence":4},{"trial_n":111,"min":90,"max":165,"target":"present","response":"present","rt":673.10000000149,"correct":true,"confidence":5},{"trial_n":112,"min":90,"max":165,"target":"absent","response":"present","rt":2277.6000000015,"correct":false,"confidence":3},{"trial_n":113,"min":89,"max":166,"target":"absent","response":"absent","rt":1417.0999999996,"correct":true,"confidence":3},{"trial_n":114,"min":89,"max":166,"target":"present","response":"present","rt":1047.9000000004,"correct":true,"confidence":3},{"trial_n":115,"min":90,"max":165,"target":"absent","response":"present","rt":963.79999999888,"correct":false,"confidence":4},{"trial_n":116,"min":89,"max":166,"target":"absent","response":"absent","rt":840.30000000075,"correct":true,"confidence":5},{"trial_n":117,"min":89,"max":166,"target":"absent","response":"absent","rt":1406.2000000011,"correct":true,"confidence":4},{"trial_n":118,"min":90,"max":165,"target":"present","response":"present","rt":674.59999999963,"correct":true,"confidence":5},{"trial_n":119,"min":90,"max":165,"target":"present","response":"present","rt":959.40000000037,"correct":true,"confidence":5},{"trial_n":120,"min":91,"max":164,"target":"present","response":"absent","rt":889.90000000037,"correct":false,"confidence":4},{"trial_n":121,"min":90,"max":165,"target":"present","response":"present","rt":662.69999999925,"correct":true,"confidence":5},{"trial_n":122,"min":90,"max":165,"target":"absent","response":"present","rt":1170.8000000007,"correct":false,"confidence":4},{"trial_n":123,"min":89,"max":166,"target":"absent","response":"absent","rt":1185.3000000007,"correct":true,"confidence":3},{"trial_n":124,"min":89,"max":166,"target":"present","response":"present","rt":881.5,"correct":true,"confidence":5},{"trial_n":125,"min":90,"max":165,"target":"absent","response":"present","rt":1166.5,"correct":false,"confidence":2},{"trial_n":126,"min":89,"max":166,"target":"absent","response":"present","rt":999.5,"correct":false,"confidence":2},{"trial_n":127,"min":88,"max":167,"target":"absent","response":"present","rt":1068.8000000007,"correct":false,"confidence":2},{"trial_n":128,"min":87,"max":168,"target":"absent","response":"present","rt":579.80000000075,"correct":false,"confidence":1},{"trial_n":129,"min":86,"max":169,"target":"absent","response":"absent","rt":3679.5999999996,"correct":true,"confidence":2},{"trial_n":130,"min":86,"max":169,"target":"absent","response":"absent","rt":1510.4000000004,"correct":true,"confidence":2},{"trial_n":131,"min":87,"max":168,"target":"present","response":"present","rt":833.60000000149,"correct":true,"confidence":5},{"trial_n":132,"min":87,"max":168,"target":"present","response":"absent","rt":2044.3000000007,"correct":false,"confidence":3},{"trial_n":133,"min":86,"max":169,"target":"present","response":"present","rt":660.40000000037,"correct":true,"confidence":5},{"trial_n":134,"min":86,"max":169,"target":"absent","response":"present","rt":1071.8000000007,"correct":false,"confidence":4},{"trial_n":135,"min":85,"max":170,"target":"absent","response":"absent","rt":1007.5999999996,"correct":true,"confidence":4},{"trial_n":136,"min":85,"max":170,"target":"absent","response":"absent","rt":940.79999999888,"correct":true,"confidence":4},{"trial_n":137,"min":86,"max":169,"target":"present","response":"present","rt":1018,"correct":true,"confidence":3},{"trial_n":138,"min":86,"max":169,"target":"absent","response":"absent","rt":1079.6999999993,"correct":true,"confidence":3},{"trial_n":139,"min":87,"max":168,"target":"present","response":"present","rt":1608.0999999996,"correct":true,"confidence":5},{"trial_n":140,"min":87,"max":168,"target":"present","response":"present","rt":1445.0999999996,"correct":true,"confidence":3}]