[{"trial_n":1,"n_dots":4.25,"target":"right","response":"left","rt":2775.5,"correct":false,"confidence":-1},{"trial_n":2,"n_dots":4.25,"target":"left","response":"left","rt":815,"correct":true,"confidence":-1},{"trial_n":3,"n_dots":4.25,"target":"right","response":"right","rt":539.5,"correct":true,"confidence":-1},{"trial_n":4,"n_dots":3.85,"target":"left","response":"left","rt":562.90000000596,"correct":true,"confidence":-1},{"trial_n":5,"n_dots":3.85,"target":"left","response":"left","rt":904.5,"correct":true,"confidence":-1},{"trial_n":6,"n_dots":3.45,"target":"right","response":"right","rt":278.20000001788,"correct":true,"confidence":-1},{"trial_n":7,"n_dots":3.45,"target":"right","response":"left","rt":504.79999998212,"correct":false,"confidence":-1},{"trial_n":8,"n_dots":3.65,"target":"right","response":"right","rt":195.30000001192,"correct":true,"confidence":-1},{"trial_n":9,"n_dots":3.65,"target":"left","response":"right","rt":615.5,"correct":false,"confidence":-1},{"trial_n":10,"n_dots":3.85,"target":"left","response":"right","rt":403.5,"correct":false,"confidence":-1},{"trial_n":11,"n_dots":4.05,"target":"left","response":"left","rt":712.90000000596,"correct":true,"confidence":-1},{"trial_n":12,"n_dots":4.05,"target":"left","response":"left","rt":684.69999998808,"correct":true,"confidence":-1},{"trial_n":13,"n_dots":3.95,"target":"right","response":"right","rt":449.69999998808,"correct":true,"confidence":-1},{"trial_n":14,"n_dots":3.95,"target":"left","response":"left","rt":572.30000001192,"correct":true,"confidence":-1},{"trial_n":15,"n_dots":3.85,"target":"left","response":"right","rt":781,"correct":false,"confidence":-1},{"trial_n":16,"n_dots":3.95,"target":"left","response":"right","rt":647.79999998212,"correct":false,"confidence":-1},{"trial_n":17,"n_dots":4.05,"target":"left","response":"left","rt":963.5,"correct":true,"confidence":-1},{"trial_n":18,"n_dots":4.05,"target":"left","response":"right","rt":487.5,"correct":false,"confidence":-1},{"trial_n":19,"n_dots":4.15,"target":"right","response":"right","rt":554.80000001192,"correct":true,"confidence":-1},{"trial_n":20,"n_dots":4.15,"target":"left","response":"right","rt":978.30000001192,"correct":false,"confidence":-1},{"trial_n":21,"n_dots":4.25,"target":"right","response":"right","rt":528.90000000596,"correct":true,"confidence":3},{"trial_n":22,"n_dots":4.25,"target":"left","response":"left","rt":498.5,"correct":true,"confidence":4},{"trial_n":23,"n_dots":4.15,"target":"left","response":"right","rt":846.40000000596,"correct":false,"confidence":2},{"trial_n":24,"n_dots":4.25,"target":"right","response":"right","rt":591.09999999404,"correct":true,"confidence":5},{"trial_n":25,"n_dots":4.25,"target":"left","response":"left","rt":1349.5,"correct":true,"confidence":4},{"trial_n":26,"n_dots":4.15,"target":"right","response":"right","rt":466.30000001192,"correct":true,"confidence":5},{"trial_n":27,"n_dots":4.15,"target":"left","response":"right","rt":941.59999999404,"correct":false,"confidence":2},{"trial_n":28,"n_dots":4.25,"target":"left","response":"right","rt":849.09999999404,"correct":false,"confidence":3},{"trial_n":29,"n_dots":4.35,"target":"left","response":"right","rt":832.30000001192,"correct":false,"confidence":4},{"trial_n":30,"n_dots":4.45,"target":"left","response":"left","rt":851.5,"correct":true,"confidence":3},{"trial_n":31,"n_dots":4.45,"target":"left","response":"right","rt":659.80000001192,"correct":false,"confidence":1},{"trial_n":32,"n_dots":4.55,"target":"right","response":"right","rt":41.90000000596,"correct":true,"confidence":5},{"trial_n":33,"n_dots":4.55,"target":"left","response":"left","rt":488.79999998212,"correct":true,"confidence":4},{"trial_n":34,"n_dots":4.45,"target":"left","response":"left","rt":1089,"correct":true,"confidence":4},{"trial_n":35,"n_dots":4.45,"target":"left","response":"right","rt":682.20000001788,"correct":false,"confidence":4},{"trial_n":36,"n_dots":4.55,"target":"left","response":"left","rt":796.40000000596,"correct":true,"confidence":3},{"trial_n":37,"n_dots":4.55,"target":"right","response":"right","rt":558.20000001788,"correct":true,"confidence":5},{"trial_n":38,"n_dots":4.45,"target":"left","response":"left","rt":253.29999998212,"correct":true,"confidence":4},{"trial_n":39,"n_dots":4.45,"target":"left","response":"left","rt":712.80000001192,"correct":true,"confidence":3},{"trial_n":40,"n_dots":4.35,"target":"right","response":"right","rt":557,"correct":true,"confidence":4},{"trial_n":41,"n_dots":4.35,"target":"right","response":"right","rt":251.09999999404,"correct":true,"confidence":3},{"trial_n":42,"n_dots":4.25,"target":"right","response":"right","rt":23.5,"correct":true,"confidence":4},{"trial_n":43,"n_dots":4.25,"target":"left","response":"left","rt":656.40000000596,"correct":true,"confidence":2},{"trial_n":44,"n_dots":4.15,"target":"left","response":"left","rt":486.79999998212,"correct":true,"confidence":3},{"trial_n":45,"n_dots":4.15,"target":"left","response":"left","rt":724.5,"correct":true,"confidence":2},{"trial_n":46,"n_dots":4.05,"target":"left","response":"left","rt":571.40000000596,"correct":true,"confidence":4},{"trial_n":47,"n_dots":4.05,"target":"right","response":"right","rt":306,"correct":true,"confidence":5},{"trial_n":48,"n_dots":3.95,"target":"right","response":"right","rt":592.10000002384,"correct":true,"confidence":5},{"trial_n":49,"n_dots":3.95,"target":"left","response":"right","rt":487,"correct":false,"confidence":4},{"trial_n":50,"n_dots":4.05,"target":"right","response":"right","rt":622.40000000596,"correct":true,"confidence":4},{"trial_n":51,"n_dots":4.05,"target":"right","response":"right","rt":533.90000000596,"correct":true,"confidence":1},{"trial_n":52,"n_dots":3.95,"target":"right","response":"right","rt":276.90000000596,"correct":true,"confidence":5},{"trial_n":53,"n_dots":3.95,"target":"right","response":"right","rt":278.40000000596,"correct":true,"confidence":4},{"trial_n":54,"n_dots":3.85,"target":"right","response":"right","rt":1458.6999999881,"correct":true,"confidence":5},{"trial_n":55,"n_dots":3.85,"target":"right","response":"right","rt":698.10000002384,"correct":true,"confidence":4},{"trial_n":56,"n_dots":3.75,"target":"left","response":"right","rt":847,"correct":false,"confidence":4},{"trial_n":57,"n_dots":3.85,"target":"left","response":"right","rt":607.09999999404,"correct":false,"confidence":5},{"trial_n":58,"n_dots":3.95,"target":"left","response":"left","rt":591.09999999404,"correct":true,"confidence":3},{"trial_n":59,"n_dots":3.95,"target":"right","response":"right","rt":335.79999998212,"correct":true,"confidence":5},{"trial_n":60,"n_dots":3.85,"target":"right","response":"right","rt":231.30000001192,"correct":true,"confidence":5},{"trial_n":61,"n_dots":3.85,"target":"right","response":"right","rt":132.80000001192,"correct":true,"confidence":3},{"trial_n":62,"n_dots":3.75,"target":"left","response":"left","rt":662.30000001192,"correct":true,"confidence":3},{"trial_n":63,"n_dots":3.75,"target":"right","response":"right","rt":593.30000001192,"correct":true,"confidence":5},{"trial_n":64,"n_dots":3.65,"target":"right","response":"right","rt":54.700000017881,"correct":true,"confidence":4},{"trial_n":65,"n_dots":3.65,"target":"right","response":"right","rt":743.19999998808,"correct":true,"confidence":2},{"trial_n":66,"n_dots":3.55,"target":"right","response":"right","rt":569.20000001788,"correct":true,"confidence":4},{"trial_n":67,"n_dots":3.55,"target":"right","response":"right","rt":547.30000001192,"correct":true,"confidence":5},{"trial_n":68,"n_dots":3.45,"target":"right","response":"right","rt":422.60000002384,"correct":true,"confidence":4},{"trial_n":69,"n_dots":3.45,"target":"left","response":"right","rt":999,"correct":false,"confidence":3},{"trial_n":70,"n_dots":3.55,"target":"right","response":"right","rt":492,"correct":true,"confidence":5},{"trial_n":71,"n_dots":3.55,"target":"right","response":"right","rt":364.29999998212,"correct":true,"confidence":5},{"trial_n":72,"n_dots":3.45,"target":"left","response":"right","rt":372,"correct":false,"confidence":5},{"trial_n":73,"n_dots":3.55,"target":"left","response":"left","rt":564.59999999404,"correct":true,"confidence":2},{"trial_n":74,"n_dots":3.55,"target":"right","response":"right","rt":194.79999998212,"correct":true,"confidence":5},{"trial_n":75,"n_dots":3.45,"target":"left","response":"right","rt":480.59999999404,"correct":false,"confidence":5},{"trial_n":76,"n_dots":3.55,"target":"left","response":"left","rt":622.09999999404,"correct":true,"confidence":3},{"trial_n":77,"n_dots":3.55,"target":"right","response":"right","rt":310.69999998808,"correct":true,"confidence":4},{"trial_n":78,"n_dots":3.45,"target":"right","response":"right","rt":233.80000001192,"correct":true,"confidence":5},{"trial_n":79,"n_dots":3.45,"target":"right","response":"right","rt":197.29999998212,"correct":true,"confidence":5},{"trial_n":80,"n_dots":3.35,"target":"right","response":"right","rt":194.90000000596,"correct":true,"confidence":4},{"trial_n":81,"n_dots":3.35,"target":"left","response":"right","rt":393.69999998808,"correct":false,"confidence":4},{"trial_n":82,"n_dots":3.45,"target":"right","response":"right","rt":620,"correct":true,"confidence":5},{"trial_n":83,"n_dots":3.45,"target":"right","response":"right","rt":493.90000000596,"correct":true,"confidence":4},{"trial_n":84,"n_dots":3.35,"target":"right","response":"right","rt":452.69999998808,"correct":true,"confidence":3},{"trial_n":85,"n_dots":3.35,"target":"right","response":"right","rt":199.59999999404,"correct":true,"confidence":4},{"trial_n":86,"n_dots":3.25,"target":"left","response":"right","rt":920.70000001788,"correct":false,"confidence":5},{"trial_n":87,"n_dots":3.35,"target":"right","response":"left","rt":477.90000000596,"correct":false,"confidence":3},{"trial_n":88,"n_dots":3.45,"target":"right","response":"right","rt":96.40000000596,"correct":true,"confidence":4},{"trial_n":89,"n_dots":3.45,"target":"right","response":"left","rt":942.80000001192,"correct":false,"confidence":5},{"trial_n":90,"n_dots":3.55,"target":"right","response":"right","rt":500.59999999404,"correct":true,"confidence":3},{"trial_n":91,"n_dots":3.55,"target":"left","response":"left","rt":178.5,"correct":true,"confidence":4},{"trial_n":92,"n_dots":3.45,"target":"right","response":"left","rt":449.5,"correct":false,"confidence":5},{"trial_n":93,"n_dots":3.55,"target":"left","response":"left","rt":410.5,"correct":true,"confidence":3},{"trial_n":94,"n_dots":3.55,"target":"right","response":"right","rt":114.89999997616,"correct":true,"confidence":4},{"trial_n":95,"n_dots":3.45,"target":"left","response":"left","rt":63.199999988079,"correct":true,"confidence":5},{"trial_n":96,"n_dots":3.45,"target":"right","response":"right","rt":912.40000000596,"correct":true,"confidence":4},{"trial_n":97,"n_dots":3.35,"target":"right","response":"right","rt":582.20000001788,"correct":true,"confidence":4},{"trial_n":98,"n_dots":3.35,"target":"left","response":"left","rt":172.09999999404,"correct":true,"confidence":1},{"trial_n":99,"n_dots":3.25,"target":"right","response":"right","rt":504.40000000596,"correct":true,"confidence":4},{"trial_n":100,"n_dots":3.25,"target":"left","response":"left","rt":467.70000001788,"correct":true,"confidence":5},{"trial_n":101,"n_dots":3.15,"target":"left","response":"left","rt":333.5,"correct":true,"confidence":1},{"trial_n":102,"n_dots":3.15,"target":"left","response":"left","rt":461.40000000596,"correct":true,"confidence":4},{"trial_n":103,"n_dots":3.05,"target":"left","response":"left","rt":530.70000001788,"correct":true,"confidence":4},{"trial_n":104,"n_dots":3.05,"target":"right","response":"left","rt":694.09999999404,"correct":false,"confidence":2},{"trial_n":105,"n_dots":3.15,"target":"left","response":"right","rt":708.29999998212,"correct":false,"confidence":1},{"trial_n":106,"n_dots":3.25,"target":"left","response":"right","rt":536.09999999404,"correct":false,"confidence":4},{"trial_n":107,"n_dots":3.35,"target":"right","response":"right","rt":874,"correct":true,"confidence":3},{"trial_n":108,"n_dots":3.35,"target":"left","response":"left","rt":561.69999998808,"correct":true,"confidence":5},{"trial_n":109,"n_dots":3.25,"target":"right","response":"right","rt":586.79999998212,"correct":true,"confidence":5},{"trial_n":110,"n_dots":3.25,"target":"left","response":"left","rt":483.70000001788,"correct":true,"confidence":5},{"trial_n":111,"n_dots":3.15,"target":"left","response":"right","rt":626.5,"correct":false,"confidence":3},{"trial_n":112,"n_dots":3.25,"target":"left","response":"right","rt":413.09999999404,"correct":false,"confidence":2},{"trial_n":113,"n_dots":3.35,"target":"right","response":"right","rt":469.59999999404,"correct":true,"confidence":5},{"trial_n":114,"n_dots":3.35,"target":"right","response":"right","rt":257.59999999404,"correct":true,"confidence":5},{"trial_n":115,"n_dots":3.25,"target":"left","response":"left","rt":586.09999999404,"correct":true,"confidence":4},{"trial_n":116,"n_dots":3.25,"target":"right","response":"right","rt":248.40000000596,"correct":true,"confidence":5},{"trial_n":117,"n_dots":3.15,"target":"left","response":"right","rt":549.90000000596,"correct":false,"confidence":3},{"trial_n":118,"n_dots":3.25,"target":"right","response":"right","rt":315.5,"correct":true,"confidence":4},{"trial_n":119,"n_dots":3.25,"target":"right","response":"right","rt":437.19999998808,"correct":true,"confidence":4},{"trial_n":120,"n_dots":3.15,"target":"left","response":"left","rt":164,"correct":true,"confidence":3}]