[{"trial_n":1,"min":25,"max":230,"target":"present","response":"absent","rt":22971.300000004,"correct":false,"confidence":-1},{"trial_n":2,"min":25,"max":230,"target":"present","response":"present","rt":617.89999999851,"correct":true,"confidence":-1},{"trial_n":3,"min":25,"max":230,"target":"absent","response":"absent","rt":491.60000000149,"correct":true,"confidence":-1},{"trial_n":4,"min":41,"max":214,"target":"absent","response":"absent","rt":368.5,"correct":true,"confidence":-1},{"trial_n":5,"min":41,"max":214,"target":"present","response":"present","rt":242,"correct":true,"confidence":-1},{"trial_n":6,"min":57,"max":198,"target":"present","response":"present","rt":197.70000000298,"correct":true,"confidence":-1},{"trial_n":7,"min":57,"max":198,"target":"present","response":"present","rt":138.60000000149,"correct":true,"confidence":-1},{"trial_n":8,"min":73,"max":182,"target":"absent","response":"absent","rt":274,"correct":true,"confidence":-1},{"trial_n":9,"min":73,"max":182,"target":"present","response":"present","rt":369.09999999404,"correct":true,"confidence":-1},{"trial_n":10,"min":89,"max":166,"target":"absent","response":"absent","rt":348.70000000298,"correct":true,"confidence":-1},{"trial_n":11,"min":89,"max":166,"target":"absent","response":"absent","rt":439.39999999851,"correct":true,"confidence":-1},{"trial_n":12,"min":97,"max":158,"target":"present","response":"present","rt":781.80000000447,"correct":true,"confidence":-1},{"trial_n":13,"min":97,"max":158,"target":"absent","response":"absent","rt":417.10000000149,"correct":true,"confidence":-1},{"trial_n":14,"min":105,"max":150,"target":"present","response":"present","rt":13621.5,"correct":true,"confidence":-1},{"trial_n":15,"min":105,"max":150,"target":"present","response":"absent","rt":553.19999999553,"correct":false,"confidence":-1},{"trial_n":16,"min":97,"max":158,"target":"present","response":"absent","rt":394.5,"correct":false,"confidence":-1},{"trial_n":17,"min":89,"max":166,"target":"absent","response":"absent","rt":1087.1000000015,"correct":true,"confidence":-1},{"trial_n":18,"min":89,"max":166,"target":"absent","response":"absent","rt":375.5,"correct":true,"confidence":-1},{"trial_n":19,"min":97,"max":158,"target":"absent","response":"present","rt":363,"correct":false,"confidence":-1},{"trial_n":20,"min":89,"max":166,"target":"absent","response":"absent","rt":499.70000000298,"correct":true,"confidence":-1},{"trial_n":21,"min":89,"max":166,"target":"absent","response":"absent","rt":421.19999999553,"correct":true,"confidence":4},{"trial_n":22,"min":93,"max":162,"target":"absent","response":"absent","rt":627.69999999553,"correct":true,"confidence":4},{"trial_n":23,"min":93,"max":162,"target":"absent","response":"absent","rt":2018.8999999985,"correct":true,"confidence":1},{"trial_n":24,"min":97,"max":158,"target":"present","response":"present","rt":891.89999999851,"correct":true,"confidence":4},{"trial_n":25,"min":97,"max":158,"target":"absent","response":"absent","rt":6723.299999997,"correct":true,"confidence":1},{"trial_n":26,"min":101,"max":154,"target":"present","response":"absent","rt":584.89999999851,"correct":false,"confidence":3},{"trial_n":27,"min":97,"max":158,"target":"absent","response":"absent","rt":540,"correct":true,"confidence":4},{"trial_n":28,"min":97,"max":158,"target":"present","response":"absent","rt":617.89999999851,"correct":false,"confidence":1},{"trial_n":29,"min":93,"max":162,"target":"absent","response":"absent","rt":583.09999999404,"correct":true,"confidence":1},{"trial_n":30,"min":93,"max":162,"target":"present","response":"absent","rt":686.5,"correct":false,"confidence":1},{"trial_n":31,"min":91,"max":164,"target":"absent","response":"absent","rt":1856.200000003,"correct":true,"confidence":3},{"trial_n":32,"min":91,"max":164,"target":"present","response":"present","rt":1200.799999997,"correct":true,"confidence":4},{"trial_n":33,"min":93,"max":162,"target":"present","response":"present","rt":801.60000000149,"correct":true,"confidence":4},{"trial_n":34,"min":93,"max":162,"target":"present","response":"present","rt":2178.200000003,"correct":true,"confidence":3},{"trial_n":35,"min":95,"max":160,"target":"present","response":"absent","rt":710.29999999702,"correct":false,"confidence":1},{"trial_n":36,"min":93,"max":162,"target":"absent","response":"absent","rt":440.60000000149,"correct":true,"confidence":1},{"trial_n":37,"min":93,"max":162,"target":"present","response":"absent","rt":390.79999999702,"correct":false,"confidence":1},{"trial_n":38,"min":91,"max":164,"target":"absent","response":"absent","rt":665.10000000149,"correct":true,"confidence":1},{"trial_n":39,"min":91,"max":164,"target":"absent","response":"absent","rt":351.10000000149,"correct":true,"confidence":1},{"trial_n":40,"min":93,"max":162,"target":"absent","response":"absent","rt":393.5,"correct":true,"confidence":1},{"trial_n":41,"min":93,"max":162,"target":"present","response":"absent","rt":1331,"correct":false,"confidence":1},{"trial_n":42,"min":92,"max":163,"target":"present","response":"present","rt":1521.599999994,"correct":true,"confidence":3},{"trial_n":43,"min":92,"max":163,"target":"absent","response":"present","rt":1917.799999997,"correct":false,"confidence":4},{"trial_n":44,"min":91,"max":164,"target":"absent","response":"absent","rt":2230.5,"correct":true,"confidence":3},{"trial_n":45,"min":91,"max":164,"target":"absent","response":"present","rt":858.19999999553,"correct":false,"confidence":4},{"trial_n":46,"min":90,"max":165,"target":"present","response":"present","rt":808.20000000298,"correct":true,"confidence":4},{"trial_n":47,"min":90,"max":165,"target":"present","response":"absent","rt":1476,"correct":false,"confidence":1},{"trial_n":48,"min":89,"max":166,"target":"absent","response":"absent","rt":570.80000000447,"correct":true,"confidence":1},{"trial_n":49,"min":89,"max":166,"target":"present","response":"present","rt":1099.8999999985,"correct":true,"confidence":4},{"trial_n":50,"min":90,"max":165,"target":"present","response":"present","rt":1066,"correct":true,"confidence":4},{"trial_n":51,"min":90,"max":165,"target":"absent","response":"absent","rt":905,"correct":true,"confidence":3},{"trial_n":52,"min":91,"max":164,"target":"absent","response":"absent","rt":507.5,"correct":true,"confidence":1},{"trial_n":53,"min":91,"max":164,"target":"present","response":"absent","rt":1320.200000003,"correct":false,"confidence":5},{"trial_n":54,"min":90,"max":165,"target":"present","response":"present","rt":1035.3999999985,"correct":true,"confidence":4},{"trial_n":55,"min":90,"max":165,"target":"present","response":"present","rt":780.5,"correct":true,"confidence":4},{"trial_n":56,"min":91,"max":164,"target":"absent","response":"present","rt":1468.3999999985,"correct":false,"confidence":4},{"trial_n":57,"min":90,"max":165,"target":"absent","response":"present","rt":822.90000000596,"correct":false,"confidence":4},{"trial_n":58,"min":89,"max":166,"target":"present","response":"present","rt":1077.200000003,"correct":true,"confidence":5},{"trial_n":59,"min":89,"max":166,"target":"absent","response":"absent","rt":715.10000000149,"correct":true,"confidence":1},{"trial_n":60,"min":90,"max":165,"target":"absent","response":"present","rt":2102.8999999985,"correct":false,"confidence":4},{"trial_n":61,"min":89,"max":166,"target":"absent","response":"absent","rt":1135.6000000015,"correct":true,"confidence":1},{"trial_n":62,"min":89,"max":166,"target":"absent","response":"absent","rt":565.70000000298,"correct":true,"confidence":1},{"trial_n":63,"min":90,"max":165,"target":"present","response":"absent","rt":450.70000000298,"correct":false,"confidence":1},{"trial_n":64,"min":89,"max":166,"target":"present","response":"present","rt":1427.200000003,"correct":true,"confidence":4},{"trial_n":65,"min":89,"max":166,"target":"present","response":"present","rt":877.89999999851,"correct":true,"confidence":4},{"trial_n":66,"min":90,"max":165,"target":"present","response":"present","rt":1587.799999997,"correct":true,"confidence":4},{"trial_n":67,"min":90,"max":165,"target":"present","response":"present","rt":701.89999999851,"correct":true,"confidence":4},{"trial_n":68,"min":91,"max":164,"target":"present","response":"present","rt":1291.799999997,"correct":true,"confidence":4},{"trial_n":69,"min":91,"max":164,"target":"absent","response":"absent","rt":1657.1000000015,"correct":true,"confidence":1},{"trial_n":70,"min":92,"max":163,"target":"present","response":"absent","rt":1546.200000003,"correct":false,"confidence":3},{"trial_n":71,"min":41,"max":214,"target":"present","response":"present","rt":6038.900000006,"correct":true,"confidence":-1},{"trial_n":72,"min":41,"max":214,"target":"present","response":"present","rt":385.89999999851,"correct":true,"confidence":-1},{"trial_n":73,"min":57,"max":198,"target":"absent","response":"absent","rt":261.69999999553,"correct":true,"confidence":-1},{"trial_n":74,"min":57,"max":198,"target":"absent","response":"absent","rt":371.70000000298,"correct":true,"confidence":-1},{"trial_n":75,"min":73,"max":182,"target":"present","response":"present","rt":213,"correct":true,"confidence":-1},{"trial_n":76,"min":73,"max":182,"target":"present","response":"present","rt":261.20000000298,"correct":true,"confidence":-1},{"trial_n":77,"min":89,"max":166,"target":"present","response":"present","rt":350.70000000298,"correct":true,"confidence":-1},{"trial_n":78,"min":89,"max":166,"target":"present","response":"absent","rt":434.10000000149,"correct":false,"confidence":-1},{"trial_n":79,"min":73,"max":182,"target":"absent","response":"absent","rt":815.30000000447,"correct":true,"confidence":-1},{"trial_n":80,"min":73,"max":182,"target":"absent","response":"absent","rt":884.10000000149,"correct":true,"confidence":-1},{"trial_n":81,"min":81,"max":174,"target":"present","response":"present","rt":609.19999999553,"correct":true,"confidence":-1},{"trial_n":82,"min":81,"max":174,"target":"absent","response":"present","rt":530.19999999553,"correct":false,"confidence":-1},{"trial_n":83,"min":73,"max":182,"target":"present","response":"present","rt":373.29999999702,"correct":true,"confidence":-1},{"trial_n":84,"min":73,"max":182,"target":"present","response":"present","rt":274,"correct":true,"confidence":-1},{"trial_n":85,"min":81,"max":174,"target":"absent","response":"absent","rt":2145.299999997,"correct":true,"confidence":-1},{"trial_n":86,"min":81,"max":174,"target":"absent","response":"absent","rt":523.20000000298,"correct":true,"confidence":-1},{"trial_n":87,"min":89,"max":166,"target":"present","response":"absent","rt":388.5,"correct":false,"confidence":-1},{"trial_n":88,"min":81,"max":174,"target":"present","response":"present","rt":573.5,"correct":true,"confidence":-1},{"trial_n":89,"min":81,"max":174,"target":"absent","response":"absent","rt":817.70000000298,"correct":true,"confidence":-1},{"trial_n":90,"min":89,"max":166,"target":"present","response":"present","rt":1037.700000003,"correct":true,"confidence":-1},{"trial_n":91,"min":89,"max":166,"target":"absent","response":"absent","rt":755.19999999553,"correct":true,"confidence":3},{"trial_n":92,"min":93,"max":162,"target":"absent","response":"absent","rt":1170.099999994,"correct":true,"confidence":4},{"trial_n":93,"min":93,"max":162,"target":"absent","response":"present","rt":333.39999999851,"correct":false,"confidence":4},{"trial_n":94,"min":89,"max":166,"target":"present","response":"present","rt":610.29999999702,"correct":true,"confidence":4},{"trial_n":95,"min":89,"max":166,"target":"present","response":"present","rt":497.39999999851,"correct":true,"confidence":5},{"trial_n":96,"min":93,"max":162,"target":"absent","response":"absent","rt":1845.200000003,"correct":true,"confidence":3},{"trial_n":97,"min":93,"max":162,"target":"present","response":"present","rt":443.89999999851,"correct":true,"confidence":5},{"trial_n":98,"min":97,"max":158,"target":"absent","response":"present","rt":1610.6000000015,"correct":false,"confidence":3},{"trial_n":99,"min":93,"max":162,"target":"absent","response":"present","rt":772.40000000596,"correct":false,"confidence":3},{"trial_n":100,"min":89,"max":166,"target":"present","response":"present","rt":401.39999999851,"correct":true,"confidence":4},{"trial_n":101,"min":89,"max":166,"target":"absent","response":"present","rt":1161.5,"correct":false,"confidence":1},{"trial_n":102,"min":87,"max":168,"target":"absent","response":"absent","rt":4874.799999997,"correct":true,"confidence":2},{"trial_n":103,"min":87,"max":168,"target":"present","response":"absent","rt":1722.400000006,"correct":false,"confidence":3},{"trial_n":104,"min":85,"max":170,"target":"absent","response":"present","rt":1161.1000000015,"correct":false,"confidence":3},{"trial_n":105,"min":83,"max":172,"target":"absent","response":"present","rt":1091.299999997,"correct":false,"confidence":3},{"trial_n":106,"min":81,"max":174,"target":"absent","response":"present","rt":977.80000000447,"correct":false,"confidence":3},{"trial_n":107,"min":79,"max":176,"target":"present","response":"present","rt":687,"correct":true,"confidence":5},{"trial_n":108,"min":79,"max":176,"target":"absent","response":"absent","rt":653.19999999553,"correct":true,"confidence":4},{"trial_n":109,"min":81,"max":174,"target":"present","response":"present","rt":1334,"correct":true,"confidence":5},{"trial_n":110,"min":81,"max":174,"target":"present","response":"present","rt":556.70000000298,"correct":true,"confidence":4},{"trial_n":111,"min":82,"max":173,"target":"present","response":"present","rt":383.10000000149,"correct":true,"confidence":4},{"trial_n":112,"min":82,"max":173,"target":"absent","response":"absent","rt":3289.1000000015,"correct":true,"confidence":4},{"trial_n":113,"min":83,"max":172,"target":"present","response":"present","rt":244.69999999553,"correct":true,"confidence":5},{"trial_n":114,"min":83,"max":172,"target":"absent","response":"absent","rt":1108.700000003,"correct":true,"confidence":4},{"trial_n":115,"min":84,"max":171,"target":"present","response":"present","rt":368.10000000149,"correct":true,"confidence":4},{"trial_n":116,"min":84,"max":171,"target":"present","response":"present","rt":779.79999999702,"correct":true,"confidence":5},{"trial_n":117,"min":85,"max":170,"target":"absent","response":"absent","rt":1029.200000003,"correct":true,"confidence":4},{"trial_n":118,"min":85,"max":170,"target":"absent","response":"present","rt":703.5,"correct":false,"confidence":4},{"trial_n":119,"min":84,"max":171,"target":"present","response":"present","rt":950.39999999851,"correct":true,"confidence":4},{"trial_n":120,"min":84,"max":171,"target":"present","response":"present","rt":249.60000000149,"correct":true,"confidence":5},{"trial_n":121,"min":85,"max":170,"target":"absent","response":"absent","rt":1918.1000000015,"correct":true,"confidence":4},{"trial_n":122,"min":85,"max":170,"target":"present","response":"absent","rt":833.5,"correct":false,"confidence":4},{"trial_n":123,"min":84,"max":171,"target":"absent","response":"absent","rt":5104.799999997,"correct":true,"confidence":4},{"trial_n":124,"min":84,"max":171,"target":"present","response":"absent","rt":928.80000000447,"correct":false,"confidence":4},{"trial_n":125,"min":83,"max":172,"target":"present","response":"present","rt":288.5,"correct":true,"confidence":4},{"trial_n":126,"min":83,"max":172,"target":"present","response":"present","rt":601.39999999851,"correct":true,"confidence":4},{"trial_n":127,"min":84,"max":171,"target":"absent","response":"absent","rt":848.29999999702,"correct":true,"confidence":4},{"trial_n":128,"min":84,"max":171,"target":"absent","response":"absent","rt":2297.6000000015,"correct":true,"confidence":3},{"trial_n":129,"min":85,"max":170,"target":"present","response":"absent","rt":986.59999999404,"correct":false,"confidence":4},{"trial_n":130,"min":84,"max":171,"target":"present","response":"absent","rt":581.39999999851,"correct":false,"confidence":4},{"trial_n":131,"min":83,"max":172,"target":"absent","response":"absent","rt":560.89999999851,"correct":true,"confidence":5},{"trial_n":132,"min":83,"max":172,"target":"present","response":"absent","rt":741.30000000447,"correct":false,"confidence":5},{"trial_n":133,"min":82,"max":173,"target":"present","response":"present","rt":1799.200000003,"correct":true,"confidence":4},{"trial_n":134,"min":82,"max":173,"target":"absent","response":"absent","rt":944.60000000149,"correct":true,"confidence":3},{"trial_n":135,"min":83,"max":172,"target":"absent","response":"absent","rt":918.89999999851,"correct":true,"confidence":4},{"trial_n":136,"min":83,"max":172,"target":"absent","response":"absent","rt":1657.5,"correct":true,"confidence":4},{"trial_n":137,"min":84,"max":171,"target":"present","response":"absent","rt":1031,"correct":false,"confidence":3},{"trial_n":138,"min":83,"max":172,"target":"absent","response":"present","rt":1963.3999999985,"correct":false,"confidence":4},{"trial_n":139,"min":82,"max":173,"target":"present","response":"present","rt":526.89999999851,"correct":true,"confidence":5},{"trial_n":140,"min":82,"max":173,"target":"absent","response":"absent","rt":898.40000000596,"correct":true,"confidence":5}]