[{"trial_n":1,"span":8,"encoder":"55687842","distractor":"55617842","target":"present","response":"present","rt":"5076.5","correct":true,"confidence":-1},{"trial_n":2,"span":8,"encoder":"18690113","distractor":"58690113","target":"present","response":"present","rt":"1873.1999999993","correct":true,"confidence":-1},{"trial_n":3,"span":10,"encoder":"8562275172","distractor":"8562275175","target":"absent","response":"absent","rt":"3443.0999999996","correct":true,"confidence":-1},{"trial_n":4,"span":10,"encoder":"3247065412","distractor":"3247055412","target":"absent","response":"present","rt":"2415.5999999996","correct":false,"confidence":-1},{"trial_n":5,"span":8,"encoder":"67464199","distractor":"47464199","target":"present","response":"present","rt":"3749.2999999989","correct":true,"confidence":-1},{"trial_n":6,"span":8,"encoder":"43024883","distractor":"43024873","target":"absent","response":"present","rt":"3580.8000000007","correct":false,"confidence":-1},{"trial_n":7,"span":6,"encoder":"387909","distractor":"387979","target":"absent","response":"absent","rt":"3078.2999999989","correct":true,"confidence":-1},{"trial_n":8,"span":6,"encoder":"396924","distractor":"196924","target":"absent","response":"present","rt":"3886.3000000007","correct":false,"confidence":-1},{"trial_n":9,"span":4,"encoder":"9074","distractor":"9014","target":"present","response":"absent","rt":"2424.0999999996","correct":false,"confidence":-1},{"trial_n":10,"span":2,"encoder":"03","distractor":"02","target":"absent","response":"absent","rt":"1838.4000000004","correct":true,"confidence":-1},{"trial_n":11,"span":2,"encoder":"91","distractor":"11","target":"present","response":"present","rt":"3288.5999999996","correct":true,"confidence":-1},{"trial_n":12,"span":3,"encoder":"390","distractor":"393","target":"present","response":"present","rt":"1149.1999999993","correct":true,"confidence":-1},{"trial_n":13,"span":3,"encoder":"463","distractor":"473","target":"absent","response":"absent","rt":"2012.5","correct":true,"confidence":-1},{"trial_n":14,"span":4,"encoder":"0327","distractor":"1327","target":"absent","response":"absent","rt":"1524.5999999996","correct":true,"confidence":-1},{"trial_n":15,"span":4,"encoder":"2680","distractor":"2650","target":"present","response":"present","rt":"2104.4000000004","correct":true,"confidence":-1},{"trial_n":16,"span":5,"encoder":"16544","distractor":"16524","target":"absent","response":"absent","rt":"1986.7999999989","correct":true,"confidence":-1},{"trial_n":17,"span":5,"encoder":"16154","distractor":"16104","target":"present","response":"present","rt":"1937.0999999996","correct":true,"confidence":-1},{"trial_n":18,"span":6,"encoder":"871104","distractor":"871194","target":"present","response":"absent","rt":"2090.8000000007","correct":false,"confidence":-1},{"trial_n":19,"span":5,"encoder":"13345","distractor":"03345","target":"absent","response":"present","rt":"2054.7000000011","correct":false,"confidence":-1},{"trial_n":20,"span":4,"encoder":"4254","distractor":"4284","target":"present","response":"present","rt":"1603.2999999989","correct":true,"confidence":-1},{"trial_n":21,"span":4,"encoder":"3799","distractor":"3759","target":"absent","response":"absent","rt":"1968.2999999989","correct":true,"confidence":5},{"trial_n":22,"span":5,"encoder":"60565","distractor":"60575","target":"absent","response":"absent","rt":"8826.8000000007","correct":true,"confidence":3},{"trial_n":23,"span":5,"encoder":"74528","distractor":"14528","target":"absent","response":"absent","rt":"2097.3000000007","correct":true,"confidence":5},{"trial_n":24,"span":6,"encoder":"097719","distractor":"097716","target":"absent","response":"absent","rt":"3044.7000000011","correct":true,"confidence":5},{"trial_n":25,"span":6,"encoder":"776187","distractor":"756187","target":"present","response":"present","rt":"1882.5999999996","correct":true,"confidence":5},{"trial_n":26,"span":7,"encoder":"9371318","distractor":"9321318","target":"present","response":"present","rt":"2203.7000000011","correct":true,"confidence":5},{"trial_n":27,"span":7,"encoder":"8268644","distractor":"2268644","target":"present","response":"present","rt":"1923.2999999989","correct":true,"confidence":5},{"trial_n":28,"span":8,"encoder":"32542091","distractor":"62542091","target":"absent","response":"present","rt":"2724.8000000007","correct":false,"confidence":5},{"trial_n":29,"span":7,"encoder":"8362898","distractor":"8562898","target":"present","response":"present","rt":"1924.8000000007","correct":true,"confidence":5},{"trial_n":30,"span":7,"encoder":"6945771","distractor":"6245771","target":"absent","response":"absent","rt":"3050.7000000011","correct":true,"confidence":5},{"trial_n":31,"span":8,"encoder":"06960840","distractor":"06960844","target":"present","response":"present","rt":"4463","correct":true,"confidence":4},{"trial_n":32,"span":8,"encoder":"22653063","distractor":"22653069","target":"present","response":"present","rt":"2372.5","correct":true,"confidence":5},{"trial_n":33,"span":9,"encoder":"530132972","distractor":"530142972","target":"present","response":"present","rt":"3461.5","correct":true,"confidence":4},{"trial_n":34,"span":9,"encoder":"056394229","distractor":"055394229","target":"absent","response":"present","rt":"3974.3000000007","correct":false,"confidence":3},{"trial_n":35,"span":8,"encoder":"97582597","distractor":"97562597","target":"absent","response":"present","rt":"2965.5999999996","correct":false,"confidence":4},{"trial_n":36,"span":7,"encoder":"9264940","distractor":"9261940","target":"absent","response":"present","rt":"2718.5999999996","correct":false,"confidence":5},{"trial_n":37,"span":6,"encoder":"180625","distractor":"180125","target":"absent","response":"absent","rt":"2581.6999999993","correct":true,"confidence":3},{"trial_n":38,"span":6,"encoder":"148760","distractor":"108760","target":"present","response":"present","rt":"2086.6999999993","correct":true,"confidence":5},{"trial_n":39,"span":7,"encoder":"9035726","distractor":"9035926","target":"present","response":"present","rt":"2356.0999999996","correct":true,"confidence":5},{"trial_n":40,"span":7,"encoder":"3094527","distractor":"3034527","target":"present","response":"present","rt":"4634.9000000004","correct":true,"confidence":3},{"trial_n":41,"span":8,"encoder":"30199213","distractor":"10199213","target":"absent","response":"absent","rt":"2259.8000000007","correct":true,"confidence":4},{"trial_n":42,"span":8,"encoder":"26530512","distractor":"21530512","target":"present","response":"present","rt":"2669.4000000004","correct":true,"confidence":4},{"trial_n":43,"span":9,"encoder":"888722413","distractor":"838722413","target":"present","response":"present","rt":"2593.5","correct":true,"confidence":5},{"trial_n":44,"span":9,"encoder":"158077417","distractor":"158077418","target":"present","response":"present","rt":"3453.8000000007","correct":true,"confidence":4},{"trial_n":45,"span":10,"encoder":"8332351746","distractor":"8332351744","target":"absent","response":"absent","rt":"2999.1999999993","correct":true,"confidence":3},{"trial_n":46,"span":10,"encoder":"5326442636","distractor":"8326442636","target":"absent","response":"absent","rt":"2539.3000000007","correct":true,"confidence":5},{"trial_n":47,"span":11,"encoder":"06728524677","distractor":"06728554677","target":"absent","response":"present","rt":"3490","correct":false,"confidence":4},{"trial_n":48,"span":10,"encoder":"5721390332","distractor":"5721350332","target":"absent","response":"present","rt":"2921.4000000004","correct":false,"confidence":4},{"trial_n":49,"span":9,"encoder":"785369217","distractor":"785669217","target":"present","response":"absent","rt":"6033.5","correct":false,"confidence":3},{"trial_n":50,"span":8,"encoder":"66298262","distractor":"66298562","target":"absent","response":"absent","rt":"5032.0999999996","correct":true,"confidence":4},{"trial_n":51,"span":8,"encoder":"69496194","distractor":"69496197","target":"absent","response":"absent","rt":"2991.3999999985","correct":true,"confidence":5},{"trial_n":52,"span":9,"encoder":"628375413","distractor":"621375413","target":"present","response":"present","rt":"2598","correct":true,"confidence":4},{"trial_n":53,"span":9,"encoder":"630180332","distractor":"630150332","target":"absent","response":"absent","rt":"2740.700000003","correct":true,"confidence":5},{"trial_n":54,"span":10,"encoder":"0888703920","distractor":"0888703910","target":"present","response":"present","rt":"2781","correct":true,"confidence":4},{"trial_n":55,"span":10,"encoder":"8812068164","distractor":"8812768164","target":"absent","response":"present","rt":"3117.3999999985","correct":false,"confidence":4},{"trial_n":56,"span":9,"encoder":"165739407","distractor":"565739407","target":"absent","response":"absent","rt":"2776.3999999985","correct":true,"confidence":4},{"trial_n":57,"span":9,"encoder":"465138632","distractor":"465138532","target":"absent","response":"present","rt":"2433.5","correct":false,"confidence":3},{"trial_n":58,"span":8,"encoder":"23504150","distractor":"23504120","target":"present","response":"present","rt":"1880.799999997","correct":true,"confidence":3},{"trial_n":59,"span":8,"encoder":"05926629","distractor":"55926629","target":"present","response":"present","rt":"2526.9000000022","correct":true,"confidence":5},{"trial_n":60,"span":9,"encoder":"880017938","distractor":"880017238","target":"present","response":"absent","rt":"5480.3999999985","correct":false,"confidence":4},{"trial_n":61,"span":8,"encoder":"22930135","distractor":"22930335","target":"absent","response":"present","rt":"2934.3999999985","correct":false,"confidence":3},{"trial_n":62,"span":7,"encoder":"4941574","distractor":"4981574","target":"present","response":"present","rt":"2357.3000000007","correct":true,"confidence":5},{"trial_n":63,"span":7,"encoder":"1323615","distractor":"1323815","target":"present","response":"present","rt":"2675.8000000007","correct":true,"confidence":5},{"trial_n":64,"span":8,"encoder":"14958899","distractor":"18958899","target":"absent","response":"absent","rt":"3200.3000000007","correct":true,"confidence":5},{"trial_n":65,"span":8,"encoder":"87571070","distractor":"85571070","target":"present","response":"present","rt":"2876.0999999978","correct":true,"confidence":5},{"trial_n":66,"span":9,"encoder":"482820320","distractor":"482820420","target":"present","response":"present","rt":"3349.0999999978","correct":true,"confidence":5},{"trial_n":67,"span":9,"encoder":"042337680","distractor":"048337680","target":"present","response":"present","rt":"2591.5","correct":true,"confidence":3},{"trial_n":68,"span":10,"encoder":"4112396920","distractor":"5112396920","target":"present","response":"present","rt":"2962.8000000007","correct":true,"confidence":3},{"trial_n":69,"span":10,"encoder":"7483230790","distractor":"7483230795","target":"absent","response":"absent","rt":"3506.3999999985","correct":true,"confidence":3},{"trial_n":70,"span":11,"encoder":"31296745558","distractor":"31296745858","target":"present","response":"present","rt":"2777.6999999993","correct":true,"confidence":5},{"trial_n":71,"span":8,"encoder":"19472711","distractor":"99472711","target":"present","response":"present","rt":"8528.8000000007","correct":true,"confidence":-1},{"trial_n":72,"span":8,"encoder":"28941041","distractor":"28641041","target":"present","response":"present","rt":"2167.8000000007","correct":true,"confidence":-1},{"trial_n":73,"span":9,"encoder":"109750941","distractor":"139750941","target":"absent","response":"absent","rt":"3468.0999999978","correct":true,"confidence":-1},{"trial_n":74,"span":9,"encoder":"882072552","distractor":"882272552","target":"absent","response":"absent","rt":"2857","correct":true,"confidence":-1},{"trial_n":75,"span":10,"encoder":"0757767862","distractor":"0757767860","target":"present","response":"present","rt":"4077.8000000007","correct":true,"confidence":-1},{"trial_n":76,"span":10,"encoder":"7138037340","distractor":"7138037360","target":"absent","response":"absent","rt":"3078.8999999985","correct":true,"confidence":-1},{"trial_n":77,"span":11,"encoder":"97341859657","distractor":"97371859657","target":"present","response":"absent","rt":"6160","correct":false,"confidence":-1},{"trial_n":78,"span":10,"encoder":"7373625869","distractor":"7373625862","target":"present","response":"present","rt":"3493","correct":true,"confidence":-1},{"trial_n":79,"span":10,"encoder":"7483444099","distractor":"7481444099","target":"present","response":"present","rt":"1293.8999999985","correct":true,"confidence":-1},{"trial_n":80,"span":11,"encoder":"19694715066","distractor":"14694715066","target":"absent","response":"present","rt":"2887.5","correct":false,"confidence":-1},{"trial_n":81,"span":10,"encoder":"2091956300","distractor":"2031956300","target":"present","response":"absent","rt":"1160.9000000022","correct":false,"confidence":-1},{"trial_n":82,"span":9,"encoder":"094757227","distractor":"094757229","target":"absent","response":"absent","rt":"1627.3000000007","correct":true,"confidence":-1},{"trial_n":83,"span":9,"encoder":"968016535","distractor":"968816535","target":"present","response":"absent","rt":"8607.3000000007","correct":false,"confidence":-1},{"trial_n":84,"span":8,"encoder":"07532836","distractor":"07531836","target":"absent","response":"absent","rt":"2645","correct":true,"confidence":-1},{"trial_n":85,"span":8,"encoder":"50695778","distractor":"56695778","target":"present","response":"present","rt":"2286.5","correct":true,"confidence":-1},{"trial_n":86,"span":9,"encoder":"867523215","distractor":"867523415","target":"present","response":"present","rt":"1974.8999999985","correct":true,"confidence":-1},{"trial_n":87,"span":9,"encoder":"198401278","distractor":"198401276","target":"present","response":"present","rt":"3182.5999999978","correct":true,"confidence":-1},{"trial_n":88,"span":10,"encoder":"1470073449","distractor":"1479073449","target":"present","response":"present","rt":"1165.6000000015","correct":true,"confidence":-1},{"trial_n":89,"span":10,"encoder":"8435166713","distractor":"8435166753","target":"absent","response":"absent","rt":"2437.8999999985","correct":true,"confidence":-1},{"trial_n":90,"span":11,"encoder":"03029176031","distractor":"03029196031","target":"absent","response":"absent","rt":"1914.6999999993","correct":true,"confidence":-1},{"trial_n":91,"span":11,"encoder":"65502616844","distractor":"65522616844","target":"absent","response":"present","rt":"7992","correct":false,"confidence":4},{"trial_n":92,"span":10,"encoder":"2049939517","distractor":"2049639517","target":"absent","response":"absent","rt":"4397","correct":true,"confidence":5},{"trial_n":93,"span":10,"encoder":"3942966910","distractor":"3942966940","target":"absent","response":"absent","rt":"2677.4000000022","correct":true,"confidence":5},{"trial_n":94,"span":11,"encoder":"60629392422","distractor":"68629392422","target":"present","response":"absent","rt":"3501.5","correct":false,"confidence":4},{"trial_n":95,"span":10,"encoder":"6307631769","distractor":"6307531769","target":"present","response":"absent","rt":"3232.1999999993","correct":false,"confidence":3},{"trial_n":96,"span":9,"encoder":"118977456","distractor":"110977456","target":"absent","response":"absent","rt":"4651.3999999985","correct":true,"confidence":5},{"trial_n":97,"span":9,"encoder":"576482340","distractor":"576489340","target":"present","response":"absent","rt":"5322","correct":false,"confidence":5},{"trial_n":98,"span":8,"encoder":"80008530","distractor":"80088530","target":"absent","response":"absent","rt":"2302.700000003","correct":true,"confidence":5},{"trial_n":99,"span":8,"encoder":"50174104","distractor":"10174104","target":"present","response":"present","rt":"2175","correct":true,"confidence":5},{"trial_n":100,"span":9,"encoder":"380420746","distractor":"380427746","target":"absent","response":"absent","rt":"1994","correct":true,"confidence":5},{"trial_n":101,"span":9,"encoder":"563133898","distractor":"563133818","target":"present","response":"present","rt":"3224.3000000007","correct":true,"confidence":5},{"trial_n":102,"span":10,"encoder":"8288686462","distractor":"8288686262","target":"present","response":"absent","rt":"4274","correct":false,"confidence":3},{"trial_n":103,"span":9,"encoder":"091069836","distractor":"091059836","target":"absent","response":"absent","rt":"3505.3999999985","correct":true,"confidence":5},{"trial_n":104,"span":9,"encoder":"809246605","distractor":"909246605","target":"absent","response":"absent","rt":"5187","correct":true,"confidence":5},{"trial_n":105,"span":10,"encoder":"8124540266","distractor":"8124540261","target":"present","response":"present","rt":"7927.8999999985","correct":true,"confidence":5},{"trial_n":106,"span":10,"encoder":"5860493666","distractor":"5860493366","target":"absent","response":"absent","rt":"1974.1999999993","correct":true,"confidence":5},{"trial_n":107,"span":11,"encoder":"62272610314","distractor":"62772610314","target":"absent","response":"absent","rt":"2697.5","correct":true,"confidence":3},{"trial_n":108,"span":11,"encoder":"82733423635","distractor":"88733423635","target":"present","response":"absent","rt":"4073.6000000015","correct":false,"confidence":3},{"trial_n":109,"span":10,"encoder":"8879367446","distractor":"8876367446","target":"absent","response":"present","rt":"3560.8000000007","correct":false,"confidence":3},{"trial_n":110,"span":9,"encoder":"683144029","distractor":"682144029","target":"present","response":"absent","rt":"6732.1000000015","correct":false,"confidence":3},{"trial_n":111,"span":8,"encoder":"37640236","distractor":"37647236","target":"present","response":"present","rt":"4261.3000000007","correct":true,"confidence":5},{"trial_n":112,"span":8,"encoder":"29714654","distractor":"29714454","target":"absent","response":"absent","rt":"4632.5999999978","correct":true,"confidence":5},{"trial_n":113,"span":9,"encoder":"528715850","distractor":"528715870","target":"present","response":"absent","rt":"3940.9000000022","correct":false,"confidence":4},{"trial_n":114,"span":8,"encoder":"80180396","distractor":"80180596","target":"present","response":"present","rt":"3779.8000000007","correct":true,"confidence":3},{"trial_n":115,"span":8,"encoder":"26076897","distractor":"26046897","target":"absent","response":"absent","rt":"3141.1999999993","correct":true,"confidence":5},{"trial_n":116,"span":9,"encoder":"635909518","distractor":"635609518","target":"present","response":"absent","rt":"4848.5999999978","correct":false,"confidence":5},{"trial_n":117,"span":8,"encoder":"18239858","distractor":"78239858","target":"present","response":"present","rt":"5691.5","correct":true,"confidence":5},{"trial_n":118,"span":8,"encoder":"85175628","distractor":"84175628","target":"absent","response":"absent","rt":"5879.8000000007","correct":true,"confidence":4},{"trial_n":119,"span":9,"encoder":"242925969","distractor":"292925969","target":"absent","response":"absent","rt":"2973.1000000015","correct":true,"confidence":5},{"trial_n":120,"span":9,"encoder":"072241605","distractor":"372241605","target":"absent","response":"absent","rt":"3229.5999999978","correct":true,"confidence":5},{"trial_n":121,"span":10,"encoder":"2468609569","distractor":"2458609569","target":"present","response":"present","rt":"7891","correct":true,"confidence":4},{"trial_n":122,"span":10,"encoder":"9600282240","distractor":"9800282240","target":"present","response":"present","rt":"2198.6000000015","correct":true,"confidence":5},{"trial_n":123,"span":11,"encoder":"99405471982","distractor":"99405471912","target":"absent","response":"present","rt":"2888.5","correct":false,"confidence":4},{"trial_n":124,"span":10,"encoder":"7621264576","distractor":"7621264526","target":"present","response":"present","rt":"2583.5","correct":true,"confidence":4},{"trial_n":125,"span":10,"encoder":"8253284813","distractor":"8253284713","target":"present","response":"present","rt":"4313.799999997","correct":true,"confidence":5},{"trial_n":126,"span":11,"encoder":"98606699322","distractor":"98606699323","target":"absent","response":"absent","rt":"1715.1000000015","correct":true,"confidence":5},{"trial_n":127,"span":11,"encoder":"68402633234","distractor":"68402633237","target":"absent","response":"absent","rt":"1429.6000000015","correct":true,"confidence":5},{"trial_n":128,"span":12,"encoder":"021513690429","distractor":"021517690429","target":"present","response":"present","rt":"4619.6000000015","correct":true,"confidence":3},{"trial_n":129,"span":12,"encoder":"721257948320","distractor":"721857948320","target":"absent","response":"present","rt":"3201","correct":false,"confidence":3},{"trial_n":130,"span":11,"encoder":"74683709685","distractor":"70683709685","target":"absent","response":"present","rt":"3545.1999999993","correct":false,"confidence":3},{"trial_n":131,"span":10,"encoder":"0127083367","distractor":"0187083367","target":"absent","response":"present","rt":"3348.200000003","correct":false,"confidence":3},{"trial_n":132,"span":9,"encoder":"061107790","distractor":"061207790","target":"present","response":"present","rt":"3193","correct":true,"confidence":5},{"trial_n":133,"span":9,"encoder":"734528301","distractor":"734528501","target":"present","response":"present","rt":"2079.8999999985","correct":true,"confidence":5},{"trial_n":134,"span":10,"encoder":"2172416040","distractor":"2172416240","target":"absent","response":"present","rt":"3083.3000000007","correct":false,"confidence":5},{"trial_n":135,"span":9,"encoder":"701377478","distractor":"705377478","target":"present","response":"present","rt":"6815","correct":true,"confidence":5},{"trial_n":136,"span":9,"encoder":"645717159","distractor":"644717159","target":"absent","response":"absent","rt":"3242.6999999993","correct":true,"confidence":4},{"trial_n":137,"span":10,"encoder":"4707530301","distractor":"4737530301","target":"present","response":"absent","rt":"7127","correct":false,"confidence":5},{"trial_n":138,"span":9,"encoder":"210145313","distractor":"250145313","target":"present","response":"present","rt":"2927.8000000007","correct":true,"confidence":5},{"trial_n":139,"span":9,"encoder":"146524774","distractor":"146524775","target":"absent","response":"present","rt":"6455.299999997","correct":false,"confidence":3},{"trial_n":140,"span":8,"encoder":"70572671","distractor":"70572271","target":"absent","response":"absent","rt":"2386.6000000015","correct":true,"confidence":5}]