[{"trial_n":1,"span":8,"encoder":"08431115","distractor":"08631115","target":"present","response":"absent","rt":"4559","correct":false,"confidence":-1},{"trial_n":2,"span":6,"encoder":"426082","distractor":"426382","target":"present","response":"present","rt":"3869.5","correct":true,"confidence":-1},{"trial_n":3,"span":6,"encoder":"612722","distractor":"712722","target":"absent","response":"absent","rt":"3000","correct":true,"confidence":-1},{"trial_n":4,"span":8,"encoder":"93104601","distractor":"93104691","target":"absent","response":"absent","rt":"3456.599999994","correct":true,"confidence":-1},{"trial_n":5,"span":8,"encoder":"30402744","distractor":"30472744","target":"present","response":"present","rt":"3594.700000003","correct":true,"confidence":-1},{"trial_n":6,"span":10,"encoder":"9835825583","distractor":"9895825583","target":"present","response":"absent","rt":"4362.099999994","correct":false,"confidence":-1},{"trial_n":7,"span":8,"encoder":"87460331","distractor":"87460381","target":"absent","response":"absent","rt":"5004","correct":true,"confidence":-1},{"trial_n":8,"span":8,"encoder":"27824968","distractor":"27824768","target":"absent","response":"absent","rt":"4074.1000000015","correct":true,"confidence":-1},{"trial_n":9,"span":10,"encoder":"3574124979","distractor":"3574624979","target":"present","response":"present","rt":"2155.799999997","correct":true,"confidence":-1},{"trial_n":10,"span":10,"encoder":"0650912152","distractor":"0652912152","target":"absent","response":"absent","rt":"2328.1999999955","correct":true,"confidence":-1},{"trial_n":11,"span":12,"encoder":"225271804999","distractor":"225261804999","target":"present","response":"absent","rt":"2987.1999999955","correct":false,"confidence":-1},{"trial_n":12,"span":11,"encoder":"25811933938","distractor":"25811933948","target":"present","response":"present","rt":"433.20000000298","correct":true,"confidence":-1},{"trial_n":13,"span":11,"encoder":"43065950616","distractor":"44065950616","target":"present","response":"present","rt":"4822.799999997","correct":true,"confidence":-1},{"trial_n":14,"span":12,"encoder":"475858892760","distractor":"472858892760","target":"absent","response":"absent","rt":"2517.5","correct":true,"confidence":-1},{"trial_n":15,"span":12,"encoder":"899796963840","distractor":"899796963848","target":"absent","response":"absent","rt":"2361.3999999985","correct":true,"confidence":-1},{"trial_n":16,"span":13,"encoder":"1176999216138","distractor":"1176939216138","target":"present","response":"absent","rt":"1612.200000003","correct":false,"confidence":-1},{"trial_n":17,"span":12,"encoder":"255399368136","distractor":"255399368133","target":"present","response":"present","rt":"4595.200000003","correct":true,"confidence":-1},{"trial_n":18,"span":12,"encoder":"545955355363","distractor":"545957355363","target":"absent","response":"absent","rt":"5515.1000000015","correct":true,"confidence":-1},{"trial_n":19,"span":13,"encoder":"8764376443832","distractor":"3764376443832","target":"absent","response":"absent","rt":"6041","correct":true,"confidence":-1},{"trial_n":20,"span":13,"encoder":"1629868092167","distractor":"1629768092167","target":"absent","response":"present","rt":"1269.900000006","correct":false,"confidence":-1},{"trial_n":21,"span":12,"encoder":"578775801769","distractor":"578775806769","target":"absent","response":"present","rt":"2850.6000000015","correct":false,"confidence":3},{"trial_n":22,"span":11,"encoder":"01034928614","distractor":"01034928612","target":"present","response":"absent","rt":"2775.5","correct":false,"confidence":3},{"trial_n":23,"span":10,"encoder":"8501531492","distractor":"8501531442","target":"present","response":"absent","rt":"6071.5","correct":false,"confidence":4},{"trial_n":24,"span":9,"encoder":"152486167","distractor":"152486767","target":"absent","response":"absent","rt":"8747.200000003","correct":true,"confidence":3},{"trial_n":25,"span":9,"encoder":"338329686","distractor":"338329386","target":"present","response":"present","rt":"4828","correct":true,"confidence":4},{"trial_n":26,"span":10,"encoder":"0287975198","distractor":"0287975178","target":"absent","response":"absent","rt":"3969.8999999985","correct":true,"confidence":4},{"trial_n":27,"span":10,"encoder":"4055791442","distractor":"4056791442","target":"present","response":"absent","rt":"8306.099999994","correct":false,"confidence":4},{"trial_n":28,"span":9,"encoder":"571994485","distractor":"578994485","target":"absent","response":"absent","rt":"3228.3000000045","correct":true,"confidence":4},{"trial_n":29,"span":9,"encoder":"637631505","distractor":"637633505","target":"absent","response":"absent","rt":"3976.299999997","correct":true,"confidence":4},{"trial_n":30,"span":10,"encoder":"6333605285","distractor":"6333605225","target":"present","response":"present","rt":"4796.1000000015","correct":true,"confidence":5},{"trial_n":31,"span":10,"encoder":"8118079646","distractor":"8418079646","target":"absent","response":"absent","rt":"3284.6999999955","correct":true,"confidence":3},{"trial_n":32,"span":11,"encoder":"82866327620","distractor":"82866327629","target":"absent","response":"absent","rt":"6592.6000000015","correct":true,"confidence":4},{"trial_n":33,"span":11,"encoder":"54221310016","distractor":"54221810016","target":"absent","response":"absent","rt":"4317.200000003","correct":true,"confidence":3},{"trial_n":34,"span":12,"encoder":"444576929234","distractor":"744576929234","target":"present","response":"absent","rt":"3512.6000000015","correct":false,"confidence":3},{"trial_n":35,"span":11,"encoder":"90096411716","distractor":"90096421716","target":"present","response":"present","rt":"5535.299999997","correct":true,"confidence":5},{"trial_n":36,"span":11,"encoder":"54835690826","distractor":"54835690823","target":"absent","response":"present","rt":"3702.5","correct":false,"confidence":2},{"trial_n":37,"span":10,"encoder":"8247619197","distractor":"8247119197","target":"present","response":"absent","rt":"7491.3999999985","correct":false,"confidence":3},{"trial_n":38,"span":9,"encoder":"411317162","distractor":"411387162","target":"absent","response":"present","rt":"4801.700000003","correct":false,"confidence":3},{"trial_n":39,"span":8,"encoder":"12080704","distractor":"52080704","target":"present","response":"present","rt":"3266","correct":true,"confidence":5},{"trial_n":40,"span":8,"encoder":"95510994","distractor":"95518994","target":"absent","response":"absent","rt":"6597.200000003","correct":true,"confidence":3},{"trial_n":41,"span":9,"encoder":"431020721","distractor":"439020721","target":"present","response":"present","rt":"5167","correct":true,"confidence":3},{"trial_n":42,"span":9,"encoder":"889327496","distractor":"889317496","target":"absent","response":"absent","rt":"5198.3999999985","correct":true,"confidence":4},{"trial_n":43,"span":10,"encoder":"7261600990","distractor":"7061600990","target":"absent","response":"present","rt":"4731","correct":false,"confidence":4},{"trial_n":44,"span":9,"encoder":"144112800","distractor":"144212800","target":"present","response":"present","rt":"4731.3999999985","correct":true,"confidence":5},{"trial_n":45,"span":9,"encoder":"287364380","distractor":"487364380","target":"present","response":"present","rt":"5854.200000003","correct":true,"confidence":4},{"trial_n":46,"span":10,"encoder":"6408757702","distractor":"6408757752","target":"present","response":"present","rt":"3879.3999999985","correct":true,"confidence":5},{"trial_n":47,"span":10,"encoder":"5154442070","distractor":"5554442070","target":"present","response":"present","rt":"5179.1000000015","correct":true,"confidence":4},{"trial_n":48,"span":11,"encoder":"05510967847","distractor":"05510867847","target":"absent","response":"absent","rt":"79106.900000006","correct":true,"confidence":3},{"trial_n":49,"span":11,"encoder":"68883566582","distractor":"68983566582","target":"absent","response":"absent","rt":"4421.099999994","correct":true,"confidence":3},{"trial_n":50,"span":12,"encoder":"436442041487","distractor":"436441041487","target":"absent","response":"present","rt":"35979.699999996","correct":false,"confidence":4},{"trial_n":51,"span":11,"encoder":"30614870451","distractor":"30614470451","target":"absent","response":"absent","rt":"3146.1000000015","correct":true,"confidence":3},{"trial_n":52,"span":11,"encoder":"48898677582","distractor":"48898677562","target":"absent","response":"absent","rt":"4032.8999999985","correct":true,"confidence":3},{"trial_n":53,"span":12,"encoder":"795885172336","distractor":"797885172336","target":"absent","response":"present","rt":"15751.200000003","correct":false,"confidence":2},{"trial_n":54,"span":11,"encoder":"29130378770","distractor":"29130378870","target":"absent","response":"present","rt":"5039.200000003","correct":false,"confidence":4},{"trial_n":55,"span":10,"encoder":"2009210922","distractor":"2009910922","target":"absent","response":"absent","rt":"3789.6000000015","correct":true,"confidence":5},{"trial_n":56,"span":10,"encoder":"9351081751","distractor":"9351581751","target":"present","response":"present","rt":"4805.3000000045","correct":true,"confidence":5},{"trial_n":57,"span":11,"encoder":"63148112587","distractor":"63148112586","target":"present","response":"absent","rt":"10286.300000004","correct":false,"confidence":4},{"trial_n":58,"span":10,"encoder":"0663084165","distractor":"0463084165","target":"present","response":"absent","rt":"3275.6000000015","correct":false,"confidence":5},{"trial_n":59,"span":9,"encoder":"701055523","distractor":"701855523","target":"present","response":"absent","rt":"2737.8999999985","correct":false,"confidence":5},{"trial_n":60,"span":8,"encoder":"05181962","distractor":"05181965","target":"absent","response":"absent","rt":"5936.8000000045","correct":true,"confidence":3},{"trial_n":61,"span":8,"encoder":"28200995","distractor":"28202995","target":"present","response":"present","rt":"3807.6999999955","correct":true,"confidence":5},{"trial_n":62,"span":9,"encoder":"402194336","distractor":"402194337","target":"present","response":"present","rt":"3685.5","correct":true,"confidence":4},{"trial_n":63,"span":9,"encoder":"857872682","distractor":"857372682","target":"present","response":"present","rt":"4104","correct":true,"confidence":5},{"trial_n":64,"span":10,"encoder":"9718644051","distractor":"9718642051","target":"absent","response":"present","rt":"5478.1000000015","correct":false,"confidence":3},{"trial_n":65,"span":9,"encoder":"581074794","distractor":"581074714","target":"present","response":"present","rt":"5031.799999997","correct":true,"confidence":2},{"trial_n":66,"span":9,"encoder":"865967693","distractor":"865267693","target":"present","response":"absent","rt":"10166.899999999","correct":false,"confidence":4},{"trial_n":67,"span":8,"encoder":"40965007","distractor":"40995007","target":"present","response":"present","rt":"4249.3000000045","correct":true,"confidence":5},{"trial_n":68,"span":8,"encoder":"63958820","distractor":"83958820","target":"present","response":"present","rt":"9409.700000003","correct":true,"confidence":2},{"trial_n":69,"span":9,"encoder":"821356651","distractor":"821356650","target":"absent","response":"present","rt":"4437.3000000045","correct":false,"confidence":5},{"trial_n":70,"span":8,"encoder":"14065118","distractor":"14055118","target":"present","response":"present","rt":"3719.200000003","correct":true,"confidence":3},{"trial_n":71,"span":8,"encoder":"58147567","distractor":"54147567","target":"present","response":"present","rt":"6487.299999997","correct":true,"confidence":-1},{"trial_n":72,"span":8,"encoder":"53750245","distractor":"53760245","target":"present","response":"present","rt":"6760.1000000015","correct":true,"confidence":-1},{"trial_n":73,"span":9,"encoder":"742587881","distractor":"742587581","target":"absent","response":"absent","rt":"3526.3999999985","correct":true,"confidence":-1},{"trial_n":74,"span":9,"encoder":"690972490","distractor":"620972490","target":"absent","response":"absent","rt":"2240.299999997","correct":true,"confidence":-1},{"trial_n":75,"span":10,"encoder":"9699153208","distractor":"9699153408","target":"present","response":"present","rt":"1946.8000000045","correct":true,"confidence":-1},{"trial_n":76,"span":10,"encoder":"7938190770","distractor":"7938190777","target":"absent","response":"absent","rt":"2301.3000000045","correct":true,"confidence":-1},{"trial_n":77,"span":11,"encoder":"27615244232","distractor":"27618244232","target":"present","response":"absent","rt":"1934","correct":false,"confidence":-1},{"trial_n":78,"span":10,"encoder":"7822588130","distractor":"7822588180","target":"absent","response":"absent","rt":"2095.900000006","correct":true,"confidence":-1},{"trial_n":79,"span":10,"encoder":"7247909323","distractor":"7247909423","target":"absent","response":"absent","rt":"2225.8999999985","correct":true,"confidence":-1},{"trial_n":80,"span":11,"encoder":"81080307037","distractor":"81080807037","target":"present","response":"present","rt":"9030.1000000015","correct":true,"confidence":-1},{"trial_n":81,"span":11,"encoder":"54943471666","distractor":"54943461666","target":"absent","response":"absent","rt":"151513.09999999","correct":true,"confidence":-1},{"trial_n":82,"span":12,"encoder":"578845491632","distractor":"578845491692","target":"present","response":"present","rt":"3138","correct":true,"confidence":-1},{"trial_n":83,"span":12,"encoder":"779477064672","distractor":"779477064372","target":"absent","response":"absent","rt":"2870.1999999955","correct":true,"confidence":-1},{"trial_n":84,"span":13,"encoder":"3349556700786","distractor":"3349556705786","target":"present","response":"absent","rt":"28626.5","correct":false,"confidence":-1},{"trial_n":85,"span":12,"encoder":"282759227956","distractor":"282759227953","target":"absent","response":"absent","rt":"13865.900000006","correct":true,"confidence":-1},{"trial_n":86,"span":12,"encoder":"206591835413","distractor":"806591835413","target":"present","response":"absent","rt":"1251.6000000015","correct":false,"confidence":-1},{"trial_n":87,"span":11,"encoder":"19070400904","distractor":"59070400904","target":"present","response":"absent","rt":"22.79999999702","correct":false,"confidence":-1},{"trial_n":88,"span":10,"encoder":"8509292117","distractor":"8509292617","target":"present","response":"absent","rt":"223.10000000149","correct":false,"confidence":-1},{"trial_n":89,"span":9,"encoder":"710711619","distractor":"710751619","target":"absent","response":"absent","rt":"148.20000000298","correct":true,"confidence":-1},{"trial_n":90,"span":9,"encoder":"813811230","distractor":"811811230","target":"absent","response":"absent","rt":"314.90000000596","correct":true,"confidence":-1},{"trial_n":91,"span":10,"encoder":"2087537096","distractor":"2087237096","target":"present","response":"present","rt":"6416.700000003","correct":true,"confidence":5},{"trial_n":92,"span":10,"encoder":"2550098010","distractor":"2950098010","target":"present","response":"absent","rt":"5610.6999999955","correct":false,"confidence":4},{"trial_n":93,"span":9,"encoder":"387062645","distractor":"387060645","target":"present","response":"present","rt":"11731.5","correct":true,"confidence":3},{"trial_n":94,"span":9,"encoder":"631334655","distractor":"631334685","target":"absent","response":"absent","rt":"4028.6999999955","correct":true,"confidence":5},{"trial_n":95,"span":10,"encoder":"4775579805","distractor":"4774579805","target":"absent","response":"present","rt":"7146.400000006","correct":false,"confidence":4},{"trial_n":96,"span":9,"encoder":"368275484","distractor":"168275484","target":"present","response":"present","rt":"88558.699999996","correct":true,"confidence":4},{"trial_n":97,"span":9,"encoder":"046118865","distractor":"046618865","target":"absent","response":"present","rt":"9052.8000000045","correct":false,"confidence":4},{"trial_n":98,"span":8,"encoder":"96904685","distractor":"96904684","target":"absent","response":"absent","rt":"7332.099999994","correct":true,"confidence":4},{"trial_n":99,"span":8,"encoder":"77858007","distractor":"77853007","target":"present","response":"present","rt":"7515.299999997","correct":true,"confidence":3},{"trial_n":100,"span":9,"encoder":"733138586","distractor":"233138586","target":"absent","response":"absent","rt":"4888.099999994","correct":true,"confidence":4},{"trial_n":101,"span":9,"encoder":"658602126","distractor":"658672126","target":"absent","response":"absent","rt":"6090.5","correct":true,"confidence":4},{"trial_n":102,"span":10,"encoder":"5337337117","distractor":"2337337117","target":"absent","response":"absent","rt":"5051.299999997","correct":true,"confidence":3},{"trial_n":103,"span":10,"encoder":"7674830618","distractor":"7674830818","target":"present","response":"absent","rt":"5986.799999997","correct":false,"confidence":3},{"trial_n":104,"span":9,"encoder":"122122108","distractor":"125122108","target":"absent","response":"absent","rt":"3929.8999999985","correct":true,"confidence":3},{"trial_n":105,"span":9,"encoder":"518661182","distractor":"513661182","target":"present","response":"absent","rt":"5394.1999999955","correct":false,"confidence":3},{"trial_n":106,"span":8,"encoder":"73868824","distractor":"73868823","target":"present","response":"present","rt":"2948.5","correct":true,"confidence":5},{"trial_n":107,"span":8,"encoder":"08808300","distractor":"08808302","target":"absent","response":"absent","rt":"4938","correct":true,"confidence":4},{"trial_n":108,"span":9,"encoder":"195664599","distractor":"895664599","target":"present","response":"present","rt":"67890.5","correct":true,"confidence":4},{"trial_n":109,"span":9,"encoder":"638596462","distractor":"638586462","target":"present","response":"absent","rt":"39302.899999999","correct":false,"confidence":3},{"trial_n":110,"span":8,"encoder":"23440068","distractor":"22440068","target":"absent","response":"absent","rt":"5936.1999999955","correct":true,"confidence":2},{"trial_n":111,"span":8,"encoder":"47953163","distractor":"47952163","target":"present","response":"present","rt":"7709.1000000015","correct":true,"confidence":4},{"trial_n":112,"span":9,"encoder":"823077116","distractor":"823077816","target":"present","response":"present","rt":"8133.6000000015","correct":true,"confidence":4},{"trial_n":113,"span":9,"encoder":"541782881","distractor":"541782891","target":"present","response":"present","rt":"5358.799999997","correct":true,"confidence":3},{"trial_n":114,"span":10,"encoder":"6995078960","distractor":"6995008960","target":"present","response":"absent","rt":"6592.8999999985","correct":false,"confidence":3},{"trial_n":115,"span":9,"encoder":"356376631","distractor":"396376631","target":"absent","response":"present","rt":"10441.800000004","correct":false,"confidence":4},{"trial_n":116,"span":8,"encoder":"92685329","distractor":"92681329","target":"present","response":"present","rt":"4953.5","correct":true,"confidence":3},{"trial_n":117,"span":8,"encoder":"84344940","distractor":"84344970","target":"present","response":"present","rt":"2553.6000000015","correct":true,"confidence":3},{"trial_n":118,"span":9,"encoder":"945403696","distractor":"945423696","target":"absent","response":"present","rt":"8055.200000003","correct":false,"confidence":3},{"trial_n":119,"span":8,"encoder":"70356325","distractor":"70356355","target":"present","response":"present","rt":"4289.8000000045","correct":true,"confidence":4},{"trial_n":120,"span":8,"encoder":"55164993","distractor":"55104993","target":"absent","response":"absent","rt":"5336","correct":true,"confidence":4},{"trial_n":121,"span":9,"encoder":"990906232","distractor":"990906230","target":"present","response":"present","rt":"4365.1999999955","correct":true,"confidence":4},{"trial_n":122,"span":9,"encoder":"958565356","distractor":"958565359","target":"absent","response":"absent","rt":"2814.799999997","correct":true,"confidence":4},{"trial_n":123,"span":10,"encoder":"5977067826","distractor":"5975067826","target":"absent","response":"absent","rt":"9376","correct":true,"confidence":3},{"trial_n":124,"span":10,"encoder":"5374639691","distractor":"5374639697","target":"present","response":"present","rt":"2830.6000000015","correct":true,"confidence":3},{"trial_n":125,"span":11,"encoder":"96930461420","distractor":"96930161420","target":"present","response":"present","rt":"14499","correct":true,"confidence":3},{"trial_n":126,"span":11,"encoder":"06129785790","distractor":"02129785790","target":"absent","response":"absent","rt":"1464.6999999955","correct":true,"confidence":3},{"trial_n":127,"span":12,"encoder":"629780169155","distractor":"629780169153","target":"present","response":"present","rt":"1957.8999999985","correct":true,"confidence":4},{"trial_n":128,"span":12,"encoder":"343702263336","distractor":"343702263236","target":"absent","response":"absent","rt":"3341.6000000015","correct":true,"confidence":4},{"trial_n":129,"span":13,"encoder":"7256980021244","distractor":"7656980021244","target":"absent","response":"present","rt":"4488.200000003","correct":false,"confidence":4},{"trial_n":130,"span":12,"encoder":"483092603795","distractor":"483592603795","target":"absent","response":"present","rt":"8625.700000003","correct":false,"confidence":4},{"trial_n":131,"span":11,"encoder":"43263458098","distractor":"23263458098","target":"present","response":"present","rt":"10021","correct":true,"confidence":3},{"trial_n":132,"span":11,"encoder":"91552587450","distractor":"91556587450","target":"absent","response":"absent","rt":"11277.699999996","correct":true,"confidence":3},{"trial_n":133,"span":12,"encoder":"875877729946","distractor":"875077729946","target":"absent","response":"absent","rt":"5921.400000006","correct":true,"confidence":3},{"trial_n":134,"span":12,"encoder":"301106856559","distractor":"301906856559","target":"present","response":"present","rt":"35122.300000004","correct":true,"confidence":3},{"trial_n":135,"span":13,"encoder":"8127306087115","distractor":"8127306087175","target":"absent","response":"absent","rt":"12214.299999997","correct":true,"confidence":5},{"trial_n":136,"span":13,"encoder":"2413825555587","distractor":"2413825755587","target":"present","response":"present","rt":"6515.200000003","correct":true,"confidence":5},{"trial_n":137,"span":14,"encoder":"24350845984498","distractor":"24350815984498","target":"absent","response":"absent","rt":"8138.3999999985","correct":true,"confidence":4},{"trial_n":138,"span":14,"encoder":"37669083053766","distractor":"37669083058766","target":"present","response":"present","rt":"4358.299999997","correct":true,"confidence":5},{"trial_n":139,"span":15,"encoder":"304638658575536","distractor":"504638658575536","target":"absent","response":"absent","rt":"2995","correct":true,"confidence":5},{"trial_n":140,"span":15,"encoder":"050253517488506","distractor":"050253517488566","target":"present","response":"absent","rt":"11681.299999997","correct":false,"confidence":5}]