[{"trial_n":1,"min":25,"max":230,"target":"present","response":"present","rt":7524.400000006,"correct":true,"confidence":-1},{"trial_n":2,"min":25,"max":230,"target":"present","response":"present","rt":5494.5,"correct":true,"confidence":-1},{"trial_n":3,"min":41,"max":214,"target":"absent","response":"present","rt":2471.5,"correct":false,"confidence":-1},{"trial_n":4,"min":25,"max":230,"target":"absent","response":"absent","rt":1437.599999994,"correct":true,"confidence":-1},{"trial_n":5,"min":25,"max":230,"target":"present","response":"present","rt":1637.6999999881,"correct":true,"confidence":-1},{"trial_n":6,"min":41,"max":214,"target":"present","response":"present","rt":1410.5,"correct":true,"confidence":-1},{"trial_n":7,"min":41,"max":214,"target":"absent","response":"absent","rt":1184.900000006,"correct":true,"confidence":-1},{"trial_n":8,"min":57,"max":198,"target":"present","response":"present","rt":2432.3000000119,"correct":true,"confidence":-1},{"trial_n":9,"min":57,"max":198,"target":"present","response":"present","rt":1114.599999994,"correct":true,"confidence":-1},{"trial_n":10,"min":73,"max":182,"target":"absent","response":"absent","rt":1318.5,"correct":true,"confidence":-1},{"trial_n":11,"min":73,"max":182,"target":"absent","response":"absent","rt":931.30000001192,"correct":true,"confidence":-1},{"trial_n":12,"min":81,"max":174,"target":"present","response":"absent","rt":1407.599999994,"correct":false,"confidence":-1},{"trial_n":13,"min":73,"max":182,"target":"absent","response":"present","rt":1367.3000000119,"correct":false,"confidence":-1},{"trial_n":14,"min":65,"max":190,"target":"present","response":"present","rt":1235.900000006,"correct":true,"confidence":-1},{"trial_n":15,"min":65,"max":190,"target":"present","response":"present","rt":976.40000000596,"correct":true,"confidence":-1},{"trial_n":16,"min":73,"max":182,"target":"absent","response":"absent","rt":1662.1000000238,"correct":true,"confidence":-1},{"trial_n":17,"min":73,"max":182,"target":"present","response":"present","rt":1451.7999999821,"correct":true,"confidence":-1},{"trial_n":18,"min":81,"max":174,"target":"absent","response":"absent","rt":748.19999998808,"correct":true,"confidence":-1},{"trial_n":19,"min":81,"max":174,"target":"absent","response":"present","rt":988.89999997616,"correct":false,"confidence":-1},{"trial_n":20,"min":73,"max":182,"target":"absent","response":"absent","rt":799.59999999404,"correct":true,"confidence":-1},{"trial_n":21,"min":73,"max":182,"target":"absent","response":"present","rt":1549.599999994,"correct":false,"confidence":2},{"trial_n":22,"min":69,"max":186,"target":"absent","response":"present","rt":1941.599999994,"correct":false,"confidence":4},{"trial_n":23,"min":65,"max":190,"target":"present","response":"present","rt":1009.5,"correct":true,"confidence":5},{"trial_n":24,"min":65,"max":190,"target":"present","response":"present","rt":1635.8000000119,"correct":true,"confidence":4},{"trial_n":25,"min":69,"max":186,"target":"present","response":"present","rt":1120.7000000179,"correct":true,"confidence":4},{"trial_n":26,"min":69,"max":186,"target":"absent","response":"present","rt":2023.6999999881,"correct":false,"confidence":2},{"trial_n":27,"min":65,"max":190,"target":"absent","response":"absent","rt":2447.8000000119,"correct":true,"confidence":3},{"trial_n":28,"min":65,"max":190,"target":"present","response":"present","rt":960,"correct":true,"confidence":3},{"trial_n":29,"min":69,"max":186,"target":"present","response":"present","rt":1123.2000000179,"correct":true,"confidence":3},{"trial_n":30,"min":69,"max":186,"target":"absent","response":"absent","rt":915.20000001788,"correct":true,"confidence":4},{"trial_n":31,"min":71,"max":184,"target":"absent","response":"absent","rt":2687.2999999821,"correct":true,"confidence":2},{"trial_n":32,"min":71,"max":184,"target":"absent","response":"absent","rt":1855.400000006,"correct":true,"confidence":4},{"trial_n":33,"min":73,"max":182,"target":"present","response":"present","rt":732.69999998808,"correct":true,"confidence":5},{"trial_n":34,"min":73,"max":182,"target":"present","response":"present","rt":725,"correct":true,"confidence":5},{"trial_n":35,"min":75,"max":180,"target":"absent","response":"absent","rt":1315.599999994,"correct":true,"confidence":5},{"trial_n":36,"min":75,"max":180,"target":"absent","response":"absent","rt":1578,"correct":true,"confidence":4},{"trial_n":37,"min":77,"max":178,"target":"present","response":"present","rt":1030.599999994,"correct":true,"confidence":3},{"trial_n":38,"min":77,"max":178,"target":"present","response":"present","rt":941.30000001192,"correct":true,"confidence":4},{"trial_n":39,"min":79,"max":176,"target":"absent","response":"absent","rt":886.59999999404,"correct":true,"confidence":5},{"trial_n":40,"min":79,"max":176,"target":"absent","response":"absent","rt":905.90000000596,"correct":true,"confidence":5},{"trial_n":41,"min":80,"max":175,"target":"absent","response":"present","rt":2281.6000000238,"correct":false,"confidence":3},{"trial_n":42,"min":79,"max":176,"target":"present","response":"present","rt":742.39999997616,"correct":true,"confidence":4},{"trial_n":43,"min":79,"max":176,"target":"present","response":"present","rt":1064.099999994,"correct":true,"confidence":4},{"trial_n":44,"min":80,"max":175,"target":"absent","response":"absent","rt":996.90000000596,"correct":true,"confidence":3},{"trial_n":45,"min":80,"max":175,"target":"present","response":"present","rt":1073.6999999881,"correct":true,"confidence":3},{"trial_n":46,"min":81,"max":174,"target":"present","response":"present","rt":1198.7000000179,"correct":true,"confidence":4},{"trial_n":47,"min":81,"max":174,"target":"present","response":"absent","rt":1056.6999999881,"correct":false,"confidence":3},{"trial_n":48,"min":80,"max":175,"target":"present","response":"absent","rt":1011.400000006,"correct":false,"confidence":4},{"trial_n":49,"min":79,"max":176,"target":"absent","response":"absent","rt":961.10000002384,"correct":true,"confidence":5},{"trial_n":50,"min":79,"max":176,"target":"absent","response":"absent","rt":795.40000000596,"correct":true,"confidence":5},{"trial_n":51,"min":80,"max":175,"target":"absent","response":"absent","rt":1443,"correct":true,"confidence":3},{"trial_n":52,"min":80,"max":175,"target":"present","response":"absent","rt":869.30000001192,"correct":false,"confidence":4},{"trial_n":53,"min":79,"max":176,"target":"absent","response":"absent","rt":757.39999997616,"correct":true,"confidence":3},{"trial_n":54,"min":79,"max":176,"target":"present","response":"present","rt":1611.400000006,"correct":true,"confidence":3},{"trial_n":55,"min":80,"max":175,"target":"absent","response":"present","rt":981.09999999404,"correct":false,"confidence":3},{"trial_n":56,"min":79,"max":176,"target":"absent","response":"absent","rt":857.09999999404,"correct":true,"confidence":5},{"trial_n":57,"min":79,"max":176,"target":"absent","response":"absent","rt":727.20000001788,"correct":true,"confidence":5},{"trial_n":58,"min":80,"max":175,"target":"absent","response":"absent","rt":668.69999998808,"correct":true,"confidence":5},{"trial_n":59,"min":80,"max":175,"target":"absent","response":"absent","rt":1284.3000000119,"correct":true,"confidence":4},{"trial_n":60,"min":81,"max":174,"target":"present","response":"present","rt":772.29999998212,"correct":true,"confidence":4},{"trial_n":61,"min":81,"max":174,"target":"absent","response":"present","rt":1385,"correct":false,"confidence":3},{"trial_n":62,"min":80,"max":175,"target":"present","response":"present","rt":880.79999998212,"correct":true,"confidence":4},{"trial_n":63,"min":80,"max":175,"target":"present","response":"present","rt":784.80000001192,"correct":true,"confidence":4},{"trial_n":64,"min":81,"max":174,"target":"present","response":"present","rt":909.69999998808,"correct":true,"confidence":2},{"trial_n":65,"min":81,"max":174,"target":"absent","response":"absent","rt":922.09999999404,"correct":true,"confidence":3},{"trial_n":66,"min":82,"max":173,"target":"present","response":"present","rt":1492.3999999762,"correct":true,"confidence":4},{"trial_n":67,"min":82,"max":173,"target":"present","response":"present","rt":723.09999999404,"correct":true,"confidence":5},{"trial_n":68,"min":83,"max":172,"target":"present","response":"present","rt":961.59999999404,"correct":true,"confidence":4},{"trial_n":69,"min":83,"max":172,"target":"present","response":"absent","rt":1100.5,"correct":false,"confidence":4},{"trial_n":70,"min":82,"max":173,"target":"present","response":"absent","rt":928.80000001192,"correct":false,"confidence":3},{"trial_n":71,"min":41,"max":214,"target":"present","response":"present","rt":2284.3000000119,"correct":true,"confidence":-1},{"trial_n":72,"min":41,"max":214,"target":"present","response":"present","rt":733.40000000596,"correct":true,"confidence":-1},{"trial_n":73,"min":57,"max":198,"target":"absent","response":"absent","rt":693.70000001788,"correct":true,"confidence":-1},{"trial_n":74,"min":57,"max":198,"target":"absent","response":"absent","rt":816.5,"correct":true,"confidence":-1},{"trial_n":75,"min":73,"max":182,"target":"present","response":"absent","rt":523.20000001788,"correct":false,"confidence":-1},{"trial_n":76,"min":57,"max":198,"target":"absent","response":"present","rt":823.5,"correct":false,"confidence":-1},{"trial_n":77,"min":41,"max":214,"target":"absent","response":"absent","rt":1092.599999994,"correct":true,"confidence":-1},{"trial_n":78,"min":41,"max":214,"target":"present","response":"present","rt":626.5,"correct":true,"confidence":-1},{"trial_n":79,"min":57,"max":198,"target":"absent","response":"absent","rt":520.79999998212,"correct":true,"confidence":-1},{"trial_n":80,"min":57,"max":198,"target":"present","response":"present","rt":470.19999998808,"correct":true,"confidence":-1},{"trial_n":81,"min":65,"max":190,"target":"absent","response":"absent","rt":568.80000001192,"correct":true,"confidence":-1},{"trial_n":82,"min":65,"max":190,"target":"present","response":"present","rt":493.19999998808,"correct":true,"confidence":-1},{"trial_n":83,"min":73,"max":182,"target":"present","response":"present","rt":568.69999998808,"correct":true,"confidence":-1},{"trial_n":84,"min":73,"max":182,"target":"present","response":"present","rt":451.40000000596,"correct":true,"confidence":-1},{"trial_n":85,"min":81,"max":174,"target":"absent","response":"absent","rt":1098,"correct":true,"confidence":-1},{"trial_n":86,"min":81,"max":174,"target":"absent","response":"present","rt":722.69999998808,"correct":false,"confidence":-1},{"trial_n":87,"min":73,"max":182,"target":"absent","response":"absent","rt":1773.3000000119,"correct":true,"confidence":-1},{"trial_n":88,"min":73,"max":182,"target":"present","response":"absent","rt":978.59999999404,"correct":false,"confidence":-1},{"trial_n":89,"min":65,"max":190,"target":"present","response":"present","rt":689.69999998808,"correct":true,"confidence":-1},{"trial_n":90,"min":65,"max":190,"target":"absent","response":"present","rt":761.80000001192,"correct":false,"confidence":-1},{"trial_n":91,"min":61,"max":194,"target":"absent","response":"present","rt":1868.8000000119,"correct":false,"confidence":2},{"trial_n":92,"min":57,"max":198,"target":"present","response":"absent","rt":1317.2000000179,"correct":false,"confidence":5},{"trial_n":93,"min":53,"max":202,"target":"present","response":"present","rt":813.89999997616,"correct":true,"confidence":5},{"trial_n":94,"min":53,"max":202,"target":"present","response":"present","rt":640.59999999404,"correct":true,"confidence":5},{"trial_n":95,"min":57,"max":198,"target":"present","response":"present","rt":544.70000001788,"correct":true,"confidence":5},{"trial_n":96,"min":57,"max":198,"target":"absent","response":"absent","rt":687.5,"correct":true,"confidence":5},{"trial_n":97,"min":61,"max":194,"target":"present","response":"present","rt":1094.900000006,"correct":true,"confidence":5},{"trial_n":98,"min":61,"max":194,"target":"absent","response":"absent","rt":670.10000002384,"correct":true,"confidence":5},{"trial_n":99,"min":65,"max":190,"target":"absent","response":"absent","rt":755.59999999404,"correct":true,"confidence":5},{"trial_n":100,"min":65,"max":190,"target":"present","response":"present","rt":889.80000001192,"correct":true,"confidence":5},{"trial_n":101,"min":67,"max":188,"target":"absent","response":"absent","rt":1525.3000000119,"correct":true,"confidence":4},{"trial_n":102,"min":67,"max":188,"target":"absent","response":"absent","rt":596.40000000596,"correct":true,"confidence":5},{"trial_n":103,"min":69,"max":186,"target":"present","response":"present","rt":707.59999999404,"correct":true,"confidence":5},{"trial_n":104,"min":69,"max":186,"target":"present","response":"absent","rt":2423.3000000119,"correct":false,"confidence":1},{"trial_n":105,"min":67,"max":188,"target":"present","response":"present","rt":719.40000000596,"correct":true,"confidence":4},{"trial_n":106,"min":67,"max":188,"target":"absent","response":"present","rt":1184.2999999821,"correct":false,"confidence":4},{"trial_n":107,"min":65,"max":190,"target":"absent","response":"absent","rt":980.30000001192,"correct":true,"confidence":3},{"trial_n":108,"min":65,"max":190,"target":"absent","response":"present","rt":1471.099999994,"correct":false,"confidence":1},{"trial_n":109,"min":63,"max":192,"target":"absent","response":"absent","rt":882.90000000596,"correct":true,"confidence":3},{"trial_n":110,"min":63,"max":192,"target":"absent","response":"absent","rt":1912.900000006,"correct":true,"confidence":2},{"trial_n":111,"min":64,"max":191,"target":"absent","response":"absent","rt":872.19999998808,"correct":true,"confidence":3},{"trial_n":112,"min":64,"max":191,"target":"absent","response":"absent","rt":1508.5,"correct":true,"confidence":4},{"trial_n":113,"min":65,"max":190,"target":"absent","response":"absent","rt":683.40000000596,"correct":true,"confidence":5},{"trial_n":114,"min":65,"max":190,"target":"absent","response":"absent","rt":760.20000001788,"correct":true,"confidence":5},{"trial_n":115,"min":66,"max":189,"target":"present","response":"present","rt":705.09999999404,"correct":true,"confidence":5},{"trial_n":116,"min":66,"max":189,"target":"present","response":"present","rt":610.09999999404,"correct":true,"confidence":5},{"trial_n":117,"min":67,"max":188,"target":"absent","response":"present","rt":1034.8000000119,"correct":false,"confidence":5},{"trial_n":118,"min":66,"max":189,"target":"present","response":"present","rt":945.30000001192,"correct":true,"confidence":5},{"trial_n":119,"min":66,"max":189,"target":"present","response":"present","rt":583.70000001788,"correct":true,"confidence":4},{"trial_n":120,"min":67,"max":188,"target":"absent","response":"absent","rt":1343.900000006,"correct":true,"confidence":2},{"trial_n":121,"min":67,"max":188,"target":"present","response":"present","rt":1189.599999994,"correct":true,"confidence":3},{"trial_n":122,"min":68,"max":187,"target":"absent","response":"absent","rt":717.5,"correct":true,"confidence":3},{"trial_n":123,"min":68,"max":187,"target":"present","response":"absent","rt":651.29999998212,"correct":false,"confidence":4},{"trial_n":124,"min":67,"max":188,"target":"present","response":"absent","rt":1276.8000000119,"correct":false,"confidence":2},{"trial_n":125,"min":66,"max":189,"target":"present","response":"present","rt":1342.7000000179,"correct":true,"confidence":3},{"trial_n":126,"min":66,"max":189,"target":"absent","response":"absent","rt":746.70000001788,"correct":true,"confidence":5},{"trial_n":127,"min":67,"max":188,"target":"present","response":"absent","rt":1552,"correct":false,"confidence":2},{"trial_n":128,"min":66,"max":189,"target":"absent","response":"present","rt":1000.6999999881,"correct":false,"confidence":2},{"trial_n":129,"min":65,"max":190,"target":"present","response":"present","rt":1285.5,"correct":true,"confidence":5},{"trial_n":130,"min":65,"max":190,"target":"absent","response":"absent","rt":999.10000002384,"correct":true,"confidence":5},{"trial_n":131,"min":66,"max":189,"target":"present","response":"present","rt":1795.2999999821,"correct":true,"confidence":3},{"trial_n":132,"min":66,"max":189,"target":"present","response":"present","rt":1670.8999999762,"correct":true,"confidence":3},{"trial_n":133,"min":67,"max":188,"target":"present","response":"present","rt":742.80000001192,"correct":true,"confidence":4},{"trial_n":134,"min":67,"max":188,"target":"present","response":"present","rt":1899.099999994,"correct":true,"confidence":4},{"trial_n":135,"min":68,"max":187,"target":"absent","response":"absent","rt":731.10000002384,"correct":true,"confidence":5},{"trial_n":136,"min":68,"max":187,"target":"absent","response":"absent","rt":1034.7999999821,"correct":true,"confidence":5},{"trial_n":137,"min":69,"max":186,"target":"present","response":"present","rt":1132.900000006,"correct":true,"confidence":2},{"trial_n":138,"min":69,"max":186,"target":"present","response":"present","rt":1678.900000006,"correct":true,"confidence":5},{"trial_n":139,"min":70,"max":185,"target":"absent","response":"absent","rt":1253.900000006,"correct":true,"confidence":5},{"trial_n":140,"min":70,"max":185,"target":"present","response":"absent","rt":1956.5,"correct":false,"confidence":4}]