[{"trial_n":1,"n_dots":4.25,"target":"left","response":"left","rt":12695.600000001,"correct":true,"confidence":-1},{"trial_n":2,"n_dots":4.25,"target":"left","response":"left","rt":1279.799999997,"correct":true,"confidence":-1},{"trial_n":3,"n_dots":3.85,"target":"left","response":"left","rt":567.5,"correct":true,"confidence":-1},{"trial_n":4,"n_dots":3.85,"target":"left","response":"right","rt":303.39999999851,"correct":false,"confidence":-1},{"trial_n":5,"n_dots":4.25,"target":"right","response":"right","rt":952.70000000298,"correct":true,"confidence":-1},{"trial_n":6,"n_dots":4.25,"target":"left","response":"left","rt":2064,"correct":true,"confidence":-1},{"trial_n":7,"n_dots":3.85,"target":"right","response":"right","rt":359.70000000298,"correct":true,"confidence":-1},{"trial_n":8,"n_dots":3.85,"target":"left","response":"right","rt":865.20000000298,"correct":false,"confidence":-1},{"trial_n":9,"n_dots":4.05,"target":"left","response":"right","rt":505.09999999404,"correct":false,"confidence":-1},{"trial_n":10,"n_dots":4.25,"target":"left","response":"left","rt":558.89999999851,"correct":true,"confidence":-1},{"trial_n":11,"n_dots":4.25,"target":"right","response":"right","rt":174.19999999553,"correct":true,"confidence":-1},{"trial_n":12,"n_dots":4.05,"target":"right","response":"right","rt":569,"correct":true,"confidence":-1},{"trial_n":13,"n_dots":4.05,"target":"left","response":"left","rt":880.29999999702,"correct":true,"confidence":-1},{"trial_n":14,"n_dots":3.95,"target":"right","response":"right","rt":89.39999999851,"correct":true,"confidence":-1},{"trial_n":15,"n_dots":3.95,"target":"right","response":"right","rt":9.2999999970198,"correct":true,"confidence":-1},{"trial_n":16,"n_dots":3.85,"target":"left","response":"left","rt":202.70000000298,"correct":true,"confidence":-1},{"trial_n":17,"n_dots":3.85,"target":"left","response":"left","rt":2405,"correct":true,"confidence":-1},{"trial_n":18,"n_dots":3.75,"target":"left","response":"right","rt":114.09999999404,"correct":false,"confidence":-1},{"trial_n":19,"n_dots":3.85,"target":"left","response":"left","rt":211.70000000298,"correct":true,"confidence":-1},{"trial_n":20,"n_dots":3.85,"target":"left","response":"left","rt":74.69999999553,"correct":true,"confidence":-1},{"trial_n":21,"n_dots":3.75,"target":"right","response":"right","rt":13.20000000298,"correct":true,"confidence":3},{"trial_n":22,"n_dots":3.75,"target":"right","response":"right","rt":1655.299999997,"correct":true,"confidence":5},{"trial_n":23,"n_dots":3.65,"target":"right","response":"right","rt":1351.299999997,"correct":true,"confidence":5},{"trial_n":24,"n_dots":3.65,"target":"left","response":"left","rt":1118.3999999985,"correct":true,"confidence":4},{"trial_n":25,"n_dots":3.55,"target":"right","response":"right","rt":584.69999999553,"correct":true,"confidence":3},{"trial_n":26,"n_dots":3.55,"target":"right","response":"left","rt":1791.700000003,"correct":false,"confidence":4},{"trial_n":27,"n_dots":3.65,"target":"right","response":"right","rt":913.70000000298,"correct":true,"confidence":2},{"trial_n":28,"n_dots":3.65,"target":"right","response":"right","rt":374.39999999851,"correct":true,"confidence":4},{"trial_n":29,"n_dots":3.55,"target":"left","response":"left","rt":962.79999999702,"correct":true,"confidence":4},{"trial_n":30,"n_dots":3.55,"target":"right","response":"right","rt":823.60000000149,"correct":true,"confidence":2},{"trial_n":31,"n_dots":3.45,"target":"left","response":"left","rt":1108,"correct":true,"confidence":3},{"trial_n":32,"n_dots":3.45,"target":"right","response":"left","rt":1024.6999999955,"correct":false,"confidence":3},{"trial_n":33,"n_dots":3.55,"target":"right","response":"left","rt":1495.3999999985,"correct":false,"confidence":2},{"trial_n":34,"n_dots":3.65,"target":"left","response":"left","rt":524.29999999702,"correct":true,"confidence":4},{"trial_n":35,"n_dots":3.65,"target":"left","response":"left","rt":733.60000000149,"correct":true,"confidence":4},{"trial_n":36,"n_dots":3.55,"target":"right","response":"right","rt":1189.799999997,"correct":true,"confidence":3},{"trial_n":37,"n_dots":3.55,"target":"right","response":"right","rt":550.60000000149,"correct":true,"confidence":3},{"trial_n":38,"n_dots":3.45,"target":"left","response":"left","rt":535.70000000298,"correct":true,"confidence":3},{"trial_n":39,"n_dots":3.45,"target":"left","response":"left","rt":532.19999999553,"correct":true,"confidence":2},{"trial_n":40,"n_dots":3.35,"target":"right","response":"left","rt":1923.099999994,"correct":false,"confidence":2},{"trial_n":41,"n_dots":3.45,"target":"left","response":"left","rt":742.5,"correct":true,"confidence":5},{"trial_n":42,"n_dots":3.45,"target":"left","response":"left","rt":668.90000000596,"correct":true,"confidence":3},{"trial_n":43,"n_dots":3.35,"target":"right","response":"right","rt":678.89999999851,"correct":true,"confidence":5},{"trial_n":44,"n_dots":3.35,"target":"right","response":"right","rt":457.69999999553,"correct":true,"confidence":4},{"trial_n":45,"n_dots":3.25,"target":"left","response":"left","rt":204.29999999702,"correct":true,"confidence":5},{"trial_n":46,"n_dots":3.25,"target":"right","response":"right","rt":487.79999999702,"correct":true,"confidence":4},{"trial_n":47,"n_dots":3.15,"target":"right","response":"right","rt":318,"correct":true,"confidence":3},{"trial_n":48,"n_dots":3.15,"target":"right","response":"right","rt":658.5,"correct":true,"confidence":4},{"trial_n":49,"n_dots":3.05,"target":"left","response":"left","rt":477.10000000149,"correct":true,"confidence":4},{"trial_n":50,"n_dots":3.05,"target":"right","response":"right","rt":777.39999999851,"correct":true,"confidence":1},{"trial_n":51,"n_dots":2.95,"target":"right","response":"right","rt":1182.5,"correct":true,"confidence":3},{"trial_n":52,"n_dots":2.95,"target":"right","response":"right","rt":522.70000000298,"correct":true,"confidence":3},{"trial_n":53,"n_dots":2.85,"target":"left","response":"left","rt":672.09999999404,"correct":true,"confidence":3},{"trial_n":54,"n_dots":2.85,"target":"right","response":"right","rt":477.5,"correct":true,"confidence":3},{"trial_n":55,"n_dots":2.75,"target":"right","response":"right","rt":961.5,"correct":true,"confidence":3},{"trial_n":56,"n_dots":2.75,"target":"left","response":"left","rt":1162.1000000015,"correct":true,"confidence":3},{"trial_n":57,"n_dots":2.65,"target":"right","response":"right","rt":3772.299999997,"correct":true,"confidence":3},{"trial_n":58,"n_dots":2.65,"target":"right","response":"right","rt":524.79999999702,"correct":true,"confidence":5},{"trial_n":59,"n_dots":2.55,"target":"left","response":"right","rt":1796.400000006,"correct":false,"confidence":5},{"trial_n":60,"n_dots":2.65,"target":"right","response":"left","rt":1595.6000000015,"correct":false,"confidence":4},{"trial_n":61,"n_dots":2.75,"target":"left","response":"left","rt":785.5,"correct":true,"confidence":4},{"trial_n":62,"n_dots":2.75,"target":"right","response":"left","rt":2825,"correct":false,"confidence":4},{"trial_n":63,"n_dots":2.85,"target":"right","response":"right","rt":1775.5,"correct":true,"confidence":5},{"trial_n":64,"n_dots":2.85,"target":"left","response":"right","rt":1778.099999994,"correct":false,"confidence":4},{"trial_n":65,"n_dots":2.95,"target":"right","response":"left","rt":1263.700000003,"correct":false,"confidence":3},{"trial_n":66,"n_dots":3.05,"target":"right","response":"right","rt":959.89999999851,"correct":true,"confidence":4},{"trial_n":67,"n_dots":3.05,"target":"right","response":"right","rt":3102.5,"correct":true,"confidence":3},{"trial_n":68,"n_dots":2.95,"target":"left","response":"left","rt":952.20000000298,"correct":true,"confidence":5},{"trial_n":69,"n_dots":2.95,"target":"right","response":"right","rt":1438.6000000015,"correct":true,"confidence":4},{"trial_n":70,"n_dots":2.85,"target":"right","response":"left","rt":800.29999999702,"correct":false,"confidence":4},{"trial_n":71,"n_dots":2.95,"target":"left","response":"left","rt":1080.3999999985,"correct":true,"confidence":3},{"trial_n":72,"n_dots":2.95,"target":"left","response":"left","rt":1396.5,"correct":true,"confidence":4},{"trial_n":73,"n_dots":2.85,"target":"right","response":"right","rt":641.39999999851,"correct":true,"confidence":4},{"trial_n":74,"n_dots":2.85,"target":"right","response":"left","rt":1283.6000000015,"correct":false,"confidence":3},{"trial_n":75,"n_dots":2.95,"target":"left","response":"left","rt":1435.8999999985,"correct":true,"confidence":4},{"trial_n":76,"n_dots":2.95,"target":"left","response":"right","rt":621.5,"correct":false,"confidence":5},{"trial_n":77,"n_dots":3.05,"target":"right","response":"left","rt":1257.400000006,"correct":false,"confidence":3},{"trial_n":78,"n_dots":3.15,"target":"left","response":"left","rt":991.20000000298,"correct":true,"confidence":4},{"trial_n":79,"n_dots":3.15,"target":"right","response":"right","rt":2020.1000000015,"correct":true,"confidence":1},{"trial_n":80,"n_dots":3.05,"target":"right","response":"right","rt":934.60000000149,"correct":true,"confidence":5},{"trial_n":81,"n_dots":3.05,"target":"left","response":"right","rt":5868.8999999985,"correct":false,"confidence":1},{"trial_n":82,"n_dots":3.15,"target":"left","response":"left","rt":239,"correct":true,"confidence":4},{"trial_n":83,"n_dots":3.15,"target":"left","response":"left","rt":1272.799999997,"correct":true,"confidence":3},{"trial_n":84,"n_dots":3.05,"target":"left","response":"left","rt":500.89999999851,"correct":true,"confidence":4},{"trial_n":85,"n_dots":3.05,"target":"left","response":"left","rt":1143.6000000015,"correct":true,"confidence":4},{"trial_n":86,"n_dots":2.95,"target":"right","response":"right","rt":2509,"correct":true,"confidence":5},{"trial_n":87,"n_dots":2.95,"target":"right","response":"left","rt":732.89999999851,"correct":false,"confidence":3},{"trial_n":88,"n_dots":3.05,"target":"right","response":"right","rt":770.89999999851,"correct":true,"confidence":5},{"trial_n":89,"n_dots":3.05,"target":"right","response":"right","rt":980.89999999851,"correct":true,"confidence":5},{"trial_n":90,"n_dots":2.95,"target":"right","response":"right","rt":628.5,"correct":true,"confidence":5},{"trial_n":91,"n_dots":2.95,"target":"left","response":"right","rt":1005.799999997,"correct":false,"confidence":3},{"trial_n":92,"n_dots":3.05,"target":"left","response":"right","rt":2122.8999999985,"correct":false,"confidence":3},{"trial_n":93,"n_dots":3.15,"target":"left","response":"right","rt":1164.5,"correct":false,"confidence":4},{"trial_n":94,"n_dots":3.25,"target":"right","response":"right","rt":665,"correct":true,"confidence":4},{"trial_n":95,"n_dots":3.25,"target":"left","response":"left","rt":1043.700000003,"correct":true,"confidence":3},{"trial_n":96,"n_dots":3.15,"target":"left","response":"left","rt":769.5,"correct":true,"confidence":3},{"trial_n":97,"n_dots":3.15,"target":"left","response":"left","rt":1306.3999999985,"correct":true,"confidence":3},{"trial_n":98,"n_dots":3.05,"target":"right","response":"right","rt":496.5,"correct":true,"confidence":3},{"trial_n":99,"n_dots":3.05,"target":"left","response":"left","rt":1052.1999999955,"correct":true,"confidence":2},{"trial_n":100,"n_dots":2.95,"target":"left","response":"left","rt":752.39999999851,"correct":true,"confidence":3},{"trial_n":101,"n_dots":2.95,"target":"left","response":"right","rt":584.39999999851,"correct":false,"confidence":2},{"trial_n":102,"n_dots":3.05,"target":"right","response":"right","rt":322.59999999404,"correct":true,"confidence":2},{"trial_n":103,"n_dots":3.05,"target":"right","response":"left","rt":1132.700000003,"correct":false,"confidence":1},{"trial_n":104,"n_dots":3.15,"target":"right","response":"left","rt":948.30000000447,"correct":false,"confidence":4},{"trial_n":105,"n_dots":3.25,"target":"left","response":"left","rt":522,"correct":true,"confidence":3},{"trial_n":106,"n_dots":3.25,"target":"left","response":"left","rt":667.5,"correct":true,"confidence":4},{"trial_n":107,"n_dots":3.15,"target":"left","response":"left","rt":731.09999999404,"correct":true,"confidence":4},{"trial_n":108,"n_dots":3.15,"target":"left","response":"right","rt":585,"correct":false,"confidence":4},{"trial_n":109,"n_dots":3.25,"target":"left","response":"left","rt":1025.5,"correct":true,"confidence":4},{"trial_n":110,"n_dots":3.25,"target":"left","response":"left","rt":922.79999999702,"correct":true,"confidence":3},{"trial_n":111,"n_dots":3.15,"target":"right","response":"right","rt":809.10000000149,"correct":true,"confidence":4},{"trial_n":112,"n_dots":3.15,"target":"right","response":"right","rt":620.70000000298,"correct":true,"confidence":4},{"trial_n":113,"n_dots":3.05,"target":"right","response":"left","rt":601.89999999851,"correct":false,"confidence":3},{"trial_n":114,"n_dots":3.15,"target":"left","response":"left","rt":1111,"correct":true,"confidence":3},{"trial_n":115,"n_dots":3.15,"target":"left","response":"left","rt":821.30000000447,"correct":true,"confidence":3},{"trial_n":116,"n_dots":3.05,"target":"right","response":"right","rt":563.39999999851,"correct":true,"confidence":3},{"trial_n":117,"n_dots":3.05,"target":"right","response":"right","rt":1745.5,"correct":true,"confidence":3},{"trial_n":118,"n_dots":2.95,"target":"right","response":"left","rt":324.10000000149,"correct":false,"confidence":3},{"trial_n":119,"n_dots":3.05,"target":"left","response":"left","rt":694.39999999851,"correct":true,"confidence":3},{"trial_n":120,"n_dots":3.05,"target":"left","response":"left","rt":703,"correct":true,"confidence":4}]