[{"trial_n":1,"span":8,"encoder":"68842992","distractor":"68842995","target":"present","response":"present","rt":"3644.5","correct":true,"confidence":-1},{"trial_n":2,"span":8,"encoder":"64699162","distractor":"64599162","target":"present","response":"present","rt":"35470.900000006","correct":true,"confidence":-1},{"trial_n":3,"span":10,"encoder":"5753893356","distractor":"1753893356","target":"absent","response":"absent","rt":"1839","correct":true,"confidence":-1},{"trial_n":4,"span":10,"encoder":"7232173069","distractor":"7292173069","target":"absent","response":"present","rt":"3433.599999994","correct":false,"confidence":-1},{"trial_n":5,"span":8,"encoder":"05300844","distractor":"05308844","target":"present","response":"present","rt":"2983.6999999881","correct":true,"confidence":-1},{"trial_n":6,"span":8,"encoder":"76307271","distractor":"76367271","target":"present","response":"present","rt":"3205.099999994","correct":true,"confidence":-1},{"trial_n":7,"span":10,"encoder":"3356074038","distractor":"3356074039","target":"absent","response":"absent","rt":"3751.7000000179","correct":true,"confidence":-1},{"trial_n":8,"span":10,"encoder":"3379015719","distractor":"3319015719","target":"absent","response":"present","rt":"2384.1999999881","correct":false,"confidence":-1},{"trial_n":9,"span":8,"encoder":"86213705","distractor":"86213704","target":"absent","response":"absent","rt":"2383.900000006","correct":true,"confidence":-1},{"trial_n":10,"span":8,"encoder":"83284398","distractor":"83284399","target":"absent","response":"absent","rt":"1888.2000000179","correct":true,"confidence":-1},{"trial_n":11,"span":10,"encoder":"6049319214","distractor":"6047319214","target":"present","response":"absent","rt":"1576.3000000119","correct":false,"confidence":-1},{"trial_n":12,"span":9,"encoder":"066219281","distractor":"067219281","target":"absent","response":"absent","rt":"2150.3000000119","correct":true,"confidence":-1},{"trial_n":13,"span":9,"encoder":"423214237","distractor":"423214937","target":"absent","response":"absent","rt":"1809.8999999762","correct":true,"confidence":-1},{"trial_n":14,"span":10,"encoder":"2454580305","distractor":"2454584305","target":"absent","response":"absent","rt":"2980.7999999821","correct":true,"confidence":-1},{"trial_n":15,"span":10,"encoder":"3533980692","distractor":"3333980692","target":"absent","response":"present","rt":"1848.099999994","correct":false,"confidence":-1},{"trial_n":16,"span":9,"encoder":"992636114","distractor":"990636114","target":"present","response":"present","rt":"1597.6999999881","correct":true,"confidence":-1},{"trial_n":17,"span":9,"encoder":"963668335","distractor":"983668335","target":"present","response":"absent","rt":"6268","correct":false,"confidence":-1},{"trial_n":18,"span":8,"encoder":"80760466","distractor":"80760464","target":"present","response":"present","rt":"5316.599999994","correct":true,"confidence":-1},{"trial_n":19,"span":8,"encoder":"91978278","distractor":"95978278","target":"present","response":"present","rt":"1724.099999994","correct":true,"confidence":-1},{"trial_n":20,"span":9,"encoder":"721280863","distractor":"721280865","target":"present","response":"present","rt":"2019.099999994","correct":true,"confidence":-1},{"trial_n":21,"span":9,"encoder":"258994772","distractor":"253994772","target":"absent","response":"present","rt":"2384.099999994","correct":false,"confidence":4},{"trial_n":22,"span":8,"encoder":"99640418","distractor":"99660418","target":"absent","response":"absent","rt":"2522.900000006","correct":true,"confidence":5},{"trial_n":23,"span":8,"encoder":"39377122","distractor":"39327122","target":"absent","response":"present","rt":"2114.2000000179","correct":false,"confidence":4},{"trial_n":24,"span":7,"encoder":"2753094","distractor":"1753094","target":"present","response":"present","rt":"2124.599999994","correct":true,"confidence":4},{"trial_n":25,"span":7,"encoder":"1065498","distractor":"1065478","target":"present","response":"absent","rt":"4460.1000000238","correct":false,"confidence":2},{"trial_n":26,"span":6,"encoder":"913663","distractor":"613663","target":"present","response":"present","rt":"1380.7000000179","correct":true,"confidence":5},{"trial_n":27,"span":6,"encoder":"127584","distractor":"127583","target":"absent","response":"present","rt":"5273.7000000179","correct":false,"confidence":4},{"trial_n":28,"span":5,"encoder":"67602","distractor":"67692","target":"present","response":"present","rt":"1852.3000000119","correct":true,"confidence":3},{"trial_n":29,"span":5,"encoder":"98525","distractor":"28525","target":"absent","response":"absent","rt":"3241.599999994","correct":true,"confidence":5},{"trial_n":30,"span":6,"encoder":"828550","distractor":"898550","target":"present","response":"present","rt":"1700.7999999821","correct":true,"confidence":5},{"trial_n":31,"span":6,"encoder":"736484","distractor":"636484","target":"absent","response":"absent","rt":"1419.7000000179","correct":true,"confidence":5},{"trial_n":32,"span":7,"encoder":"8745885","distractor":"8765885","target":"present","response":"present","rt":"2032.3000000119","correct":true,"confidence":4},{"trial_n":33,"span":7,"encoder":"1272730","distractor":"1252730","target":"absent","response":"present","rt":"1966.7000000179","correct":false,"confidence":3},{"trial_n":34,"span":6,"encoder":"237055","distractor":"297055","target":"absent","response":"absent","rt":"1856.8000000119","correct":true,"confidence":5},{"trial_n":35,"span":6,"encoder":"654037","distractor":"654030","target":"absent","response":"present","rt":"1817.2999999821","correct":false,"confidence":3},{"trial_n":36,"span":5,"encoder":"98537","distractor":"98597","target":"present","response":"present","rt":"1085.5","correct":true,"confidence":5},{"trial_n":37,"span":5,"encoder":"83889","distractor":"81889","target":"present","response":"present","rt":"939.80000001192","correct":true,"confidence":5},{"trial_n":38,"span":6,"encoder":"185681","distractor":"385681","target":"present","response":"present","rt":"1644.6000000238","correct":true,"confidence":5},{"trial_n":39,"span":6,"encoder":"097387","distractor":"097347","target":"present","response":"present","rt":"1915.6999999881","correct":true,"confidence":5},{"trial_n":40,"span":7,"encoder":"2187391","distractor":"2087391","target":"absent","response":"absent","rt":"2276.400000006","correct":true,"confidence":5},{"trial_n":41,"span":7,"encoder":"0769916","distractor":"5769916","target":"present","response":"present","rt":"1414.6000000238","correct":true,"confidence":4},{"trial_n":42,"span":8,"encoder":"60682452","distractor":"60682252","target":"absent","response":"present","rt":"2467.6999999881","correct":false,"confidence":2},{"trial_n":43,"span":7,"encoder":"5934854","distractor":"3934854","target":"present","response":"present","rt":"1656.6999999881","correct":true,"confidence":4},{"trial_n":44,"span":7,"encoder":"4626006","distractor":"0626006","target":"present","response":"present","rt":"1148.400000006","correct":true,"confidence":5},{"trial_n":45,"span":8,"encoder":"29861214","distractor":"29867214","target":"present","response":"present","rt":"1141.599999994","correct":true,"confidence":4},{"trial_n":46,"span":8,"encoder":"22424523","distractor":"22424526","target":"absent","response":"absent","rt":"1571.1999999881","correct":true,"confidence":5},{"trial_n":47,"span":9,"encoder":"600577190","distractor":"600577192","target":"present","response":"present","rt":"1094.599999994","correct":true,"confidence":4},{"trial_n":48,"span":9,"encoder":"019326827","distractor":"014326827","target":"present","response":"present","rt":"928.10000002384","correct":true,"confidence":4},{"trial_n":49,"span":10,"encoder":"6559731489","distractor":"6559737489","target":"present","response":"present","rt":"2179.400000006","correct":true,"confidence":4},{"trial_n":50,"span":10,"encoder":"0265886317","distractor":"3265886317","target":"present","response":"present","rt":"2746.099999994","correct":true,"confidence":5},{"trial_n":51,"span":11,"encoder":"93178452728","distractor":"13178452728","target":"present","response":"present","rt":"1702.099999994","correct":true,"confidence":3},{"trial_n":52,"span":11,"encoder":"59719485806","distractor":"59719435806","target":"absent","response":"present","rt":"2614.3000000119","correct":false,"confidence":2},{"trial_n":53,"span":10,"encoder":"3854546772","distractor":"6854546772","target":"absent","response":"absent","rt":"4972.599999994","correct":true,"confidence":2},{"trial_n":54,"span":10,"encoder":"7805292934","distractor":"7805292134","target":"present","response":"absent","rt":"3999.3999999762","correct":false,"confidence":3},{"trial_n":55,"span":9,"encoder":"941191928","distractor":"941191924","target":"absent","response":"present","rt":"1715.900000006","correct":false,"confidence":5},{"trial_n":56,"span":8,"encoder":"44017942","distractor":"24017942","target":"present","response":"present","rt":"1610.5","correct":true,"confidence":4},{"trial_n":57,"span":8,"encoder":"38449332","distractor":"38459332","target":"absent","response":"present","rt":"1509.6000000238","correct":false,"confidence":4},{"trial_n":58,"span":7,"encoder":"2822710","distractor":"2842710","target":"absent","response":"present","rt":"1688.8999999762","correct":false,"confidence":2},{"trial_n":59,"span":6,"encoder":"190702","distractor":"196702","target":"absent","response":"present","rt":"1449.7000000179","correct":false,"confidence":5},{"trial_n":60,"span":5,"encoder":"01023","distractor":"01083","target":"present","response":"present","rt":"1463","correct":true,"confidence":5},{"trial_n":61,"span":5,"encoder":"96631","distractor":"90631","target":"absent","response":"absent","rt":"2088","correct":true,"confidence":5},{"trial_n":62,"span":6,"encoder":"115878","distractor":"116878","target":"present","response":"present","rt":"2178.3999999762","correct":true,"confidence":5},{"trial_n":63,"span":6,"encoder":"381109","distractor":"081109","target":"absent","response":"absent","rt":"1585.099999994","correct":true,"confidence":5},{"trial_n":64,"span":7,"encoder":"7767445","distractor":"4767445","target":"present","response":"present","rt":"2658.599999994","correct":true,"confidence":5},{"trial_n":65,"span":7,"encoder":"7231419","distractor":"9231419","target":"absent","response":"absent","rt":"1329.400000006","correct":true,"confidence":5},{"trial_n":66,"span":8,"encoder":"35224552","distractor":"35224555","target":"present","response":"present","rt":"3578.5","correct":true,"confidence":4},{"trial_n":67,"span":8,"encoder":"19913351","distractor":"39913351","target":"present","response":"present","rt":"1700.7000000179","correct":true,"confidence":4},{"trial_n":68,"span":9,"encoder":"599878944","distractor":"599878244","target":"absent","response":"absent","rt":"4277.5","correct":true,"confidence":3},{"trial_n":69,"span":9,"encoder":"823416674","distractor":"823416574","target":"absent","response":"present","rt":"3981","correct":false,"confidence":2},{"trial_n":70,"span":8,"encoder":"85036473","distractor":"85037473","target":"absent","response":"present","rt":"1434.599999994","correct":false,"confidence":4},{"trial_n":71,"span":8,"encoder":"90170656","distractor":"90170606","target":"present","response":"present","rt":"4379.5","correct":true,"confidence":-1},{"trial_n":72,"span":8,"encoder":"02865340","distractor":"02865640","target":"present","response":"present","rt":"6714.099999994","correct":true,"confidence":-1},{"trial_n":73,"span":9,"encoder":"119972169","distractor":"119942169","target":"absent","response":"absent","rt":"2049.900000006","correct":true,"confidence":-1},{"trial_n":74,"span":9,"encoder":"922510455","distractor":"922110455","target":"absent","response":"absent","rt":"3427.5","correct":true,"confidence":-1},{"trial_n":75,"span":10,"encoder":"5604155027","distractor":"5604155527","target":"present","response":"present","rt":"2132.7999999821","correct":true,"confidence":-1},{"trial_n":76,"span":10,"encoder":"6193404616","distractor":"6193406616","target":"present","response":"present","rt":"2820.7000000179","correct":true,"confidence":-1},{"trial_n":77,"span":11,"encoder":"00559937628","distractor":"00559937648","target":"absent","response":"absent","rt":"10287","correct":true,"confidence":-1},{"trial_n":78,"span":11,"encoder":"68411191367","distractor":"68211191367","target":"present","response":"absent","rt":"1593.1999999881","correct":false,"confidence":-1},{"trial_n":79,"span":10,"encoder":"2441828309","distractor":"2441828509","target":"present","response":"present","rt":"3453.6999999881","correct":true,"confidence":-1},{"trial_n":80,"span":10,"encoder":"9814530388","distractor":"9814330388","target":"present","response":"absent","rt":"5391","correct":false,"confidence":-1},{"trial_n":81,"span":9,"encoder":"606788064","distractor":"606708064","target":"present","response":"present","rt":"2944.599999994","correct":true,"confidence":-1},{"trial_n":82,"span":9,"encoder":"720229943","distractor":"729229943","target":"present","response":"present","rt":"3566.900000006","correct":true,"confidence":-1},{"trial_n":83,"span":10,"encoder":"4281638640","distractor":"4281438640","target":"present","response":"present","rt":"1707.599999994","correct":true,"confidence":-1},{"trial_n":84,"span":10,"encoder":"9632218819","distractor":"9632218817","target":"absent","response":"absent","rt":"1395.3000000119","correct":true,"confidence":-1},{"trial_n":85,"span":11,"encoder":"57586052475","distractor":"57586952475","target":"absent","response":"absent","rt":"1306.1999999881","correct":true,"confidence":-1},{"trial_n":86,"span":11,"encoder":"88670896083","distractor":"88870896083","target":"absent","response":"present","rt":"1350.099999994","correct":false,"confidence":-1},{"trial_n":87,"span":10,"encoder":"2309119326","distractor":"2309119426","target":"present","response":"absent","rt":"1332.5","correct":false,"confidence":-1},{"trial_n":88,"span":9,"encoder":"324218475","distractor":"324288475","target":"present","response":"absent","rt":"1224.5","correct":false,"confidence":-1},{"trial_n":89,"span":8,"encoder":"93076917","distractor":"93076947","target":"absent","response":"present","rt":"1373.8000000119","correct":false,"confidence":-1},{"trial_n":90,"span":7,"encoder":"7610013","distractor":"6610013","target":"absent","response":"absent","rt":"2511.900000006","correct":true,"confidence":-1},{"trial_n":91,"span":7,"encoder":"7889804","distractor":"7849804","target":"absent","response":"absent","rt":"2055.099999994","correct":true,"confidence":5},{"trial_n":92,"span":8,"encoder":"94493213","distractor":"94473213","target":"absent","response":"present","rt":"7241.400000006","correct":false,"confidence":1},{"trial_n":93,"span":7,"encoder":"7675068","distractor":"7655068","target":"present","response":"present","rt":"2331.3000000119","correct":true,"confidence":5},{"trial_n":94,"span":7,"encoder":"3194579","distractor":"3197579","target":"absent","response":"absent","rt":"4028.5","correct":true,"confidence":2},{"trial_n":95,"span":8,"encoder":"25727255","distractor":"25727755","target":"present","response":"present","rt":"1979.2999999821","correct":true,"confidence":5},{"trial_n":96,"span":8,"encoder":"52592452","distractor":"52595452","target":"present","response":"absent","rt":"10458.400000006","correct":false,"confidence":2},{"trial_n":97,"span":7,"encoder":"4184426","distractor":"4124426","target":"present","response":"absent","rt":"2792.6000000238","correct":false,"confidence":1},{"trial_n":98,"span":6,"encoder":"836081","distractor":"836071","target":"absent","response":"absent","rt":"2692.5","correct":true,"confidence":5},{"trial_n":99,"span":6,"encoder":"529628","distractor":"529828","target":"absent","response":"absent","rt":"2800.7000000179","correct":true,"confidence":1},{"trial_n":100,"span":7,"encoder":"4329700","distractor":"4339700","target":"present","response":"present","rt":"3924.3000000119","correct":true,"confidence":4},{"trial_n":101,"span":7,"encoder":"1715912","distractor":"1785912","target":"absent","response":"absent","rt":"3279.099999994","correct":true,"confidence":4},{"trial_n":102,"span":8,"encoder":"13488489","distractor":"15488489","target":"absent","response":"absent","rt":"1688.5","correct":true,"confidence":5},{"trial_n":103,"span":8,"encoder":"40259242","distractor":"40259245","target":"absent","response":"absent","rt":"2737.5","correct":true,"confidence":2},{"trial_n":104,"span":9,"encoder":"708863894","distractor":"008863894","target":"absent","response":"absent","rt":"1739","correct":true,"confidence":5},{"trial_n":105,"span":9,"encoder":"774520482","distractor":"774520488","target":"absent","response":"absent","rt":"2295.8000000119","correct":true,"confidence":4},{"trial_n":106,"span":10,"encoder":"8561602642","distractor":"8511602642","target":"absent","response":"absent","rt":"3060.3000000119","correct":true,"confidence":2},{"trial_n":107,"span":10,"encoder":"7897752848","distractor":"7890752848","target":"present","response":"absent","rt":"1998","correct":false,"confidence":1},{"trial_n":108,"span":9,"encoder":"980410267","distractor":"980810267","target":"absent","response":"present","rt":"7286.3999999762","correct":false,"confidence":2},{"trial_n":109,"span":8,"encoder":"51442553","distractor":"51444553","target":"absent","response":"absent","rt":"4128","correct":true,"confidence":3},{"trial_n":110,"span":8,"encoder":"98160215","distractor":"98160213","target":"present","response":"present","rt":"3448.099999994","correct":true,"confidence":3},{"trial_n":111,"span":9,"encoder":"186627433","distractor":"186827433","target":"absent","response":"absent","rt":"2782.599999994","correct":true,"confidence":4},{"trial_n":112,"span":9,"encoder":"148864765","distractor":"748864765","target":"absent","response":"absent","rt":"4839","correct":true,"confidence":2},{"trial_n":113,"span":10,"encoder":"1156730827","distractor":"1156630827","target":"present","response":"present","rt":"4103.400000006","correct":true,"confidence":2},{"trial_n":114,"span":10,"encoder":"6213612962","distractor":"6213712962","target":"absent","response":"absent","rt":"5971.900000006","correct":true,"confidence":2},{"trial_n":115,"span":11,"encoder":"33255380047","distractor":"63255380047","target":"absent","response":"absent","rt":"1754.1999999881","correct":true,"confidence":5},{"trial_n":116,"span":11,"encoder":"43728609919","distractor":"43728609119","target":"present","response":"present","rt":"4956.400000006","correct":true,"confidence":1},{"trial_n":117,"span":12,"encoder":"756916806308","distractor":"753916806308","target":"present","response":"present","rt":"1996.1999999881","correct":true,"confidence":5},{"trial_n":118,"span":12,"encoder":"963744752606","distractor":"963744752600","target":"present","response":"present","rt":"4772.6999999881","correct":true,"confidence":2},{"trial_n":119,"span":13,"encoder":"9739226968426","distractor":"9239226968426","target":"present","response":"present","rt":"2932.400000006","correct":true,"confidence":1},{"trial_n":120,"span":13,"encoder":"3979947914845","distractor":"3973947914845","target":"present","response":"present","rt":"3300.5","correct":true,"confidence":2},{"trial_n":121,"span":14,"encoder":"05943623364284","distractor":"05945623364284","target":"absent","response":"present","rt":"3482","correct":false,"confidence":1},{"trial_n":122,"span":13,"encoder":"6626567386567","distractor":"6626565386567","target":"present","response":"present","rt":"5305.400000006","correct":true,"confidence":1},{"trial_n":123,"span":13,"encoder":"8009770369619","distractor":"8009772369619","target":"present","response":"present","rt":"6974.400000006","correct":true,"confidence":2},{"trial_n":124,"span":14,"encoder":"65278759835791","distractor":"67278759835791","target":"absent","response":"present","rt":"2993.900000006","correct":false,"confidence":2},{"trial_n":125,"span":13,"encoder":"7490354959542","distractor":"7493354959542","target":"present","response":"present","rt":"5215.3000000119","correct":true,"confidence":2},{"trial_n":126,"span":13,"encoder":"9345785316986","distractor":"9345755316986","target":"absent","response":"absent","rt":"6150.5","correct":true,"confidence":2},{"trial_n":127,"span":14,"encoder":"56065897340464","distractor":"54065897340464","target":"absent","response":"present","rt":"3573.2000000179","correct":false,"confidence":2},{"trial_n":128,"span":13,"encoder":"4995927852217","distractor":"4995927852117","target":"absent","response":"absent","rt":"5326.7000000179","correct":true,"confidence":2},{"trial_n":129,"span":13,"encoder":"0821987560985","distractor":"8821987560985","target":"present","response":"present","rt":"1929.6999999881","correct":true,"confidence":5},{"trial_n":130,"span":14,"encoder":"69471675329018","distractor":"69471675320018","target":"present","response":"absent","rt":"2838.599999994","correct":false,"confidence":2},{"trial_n":131,"span":13,"encoder":"2029926338404","distractor":"2026926338404","target":"absent","response":"absent","rt":"2897.900000006","correct":true,"confidence":3},{"trial_n":132,"span":13,"encoder":"3305742784284","distractor":"3305745784284","target":"present","response":"present","rt":"4655.099999994","correct":true,"confidence":2},{"trial_n":133,"span":14,"encoder":"88893776543246","distractor":"88893776143246","target":"absent","response":"present","rt":"6587.5","correct":false,"confidence":2},{"trial_n":134,"span":13,"encoder":"5379829278394","distractor":"5379629278394","target":"present","response":"absent","rt":"2928","correct":false,"confidence":2},{"trial_n":135,"span":12,"encoder":"912650213149","distractor":"972650213149","target":"absent","response":"present","rt":"4178.900000006","correct":false,"confidence":1},{"trial_n":136,"span":11,"encoder":"24927668569","distractor":"28927668569","target":"present","response":"present","rt":"1807.1000000238","correct":true,"confidence":4},{"trial_n":137,"span":11,"encoder":"47551604115","distractor":"27551604115","target":"present","response":"present","rt":"1707.400000006","correct":true,"confidence":5},{"trial_n":138,"span":12,"encoder":"809099461329","distractor":"609099461329","target":"absent","response":"present","rt":"2009.6999999881","correct":false,"confidence":4},{"trial_n":139,"span":11,"encoder":"83856228764","distractor":"83856226764","target":"present","response":"present","rt":"4864","correct":true,"confidence":2},{"trial_n":140,"span":11,"encoder":"02413155384","distractor":"02413155364","target":"present","response":"present","rt":"4509.5","correct":true,"confidence":2}]