[{"trial_n":1,"min":25,"max":230,"target":"present","response":"present","rt":4449.700000003,"correct":true,"confidence":-1},{"trial_n":2,"min":25,"max":230,"target":"present","response":"present","rt":1697.1000000015,"correct":true,"confidence":-1},{"trial_n":3,"min":41,"max":214,"target":"absent","response":"absent","rt":1017.700000003,"correct":true,"confidence":-1},{"trial_n":4,"min":41,"max":214,"target":"absent","response":"present","rt":1175.200000003,"correct":false,"confidence":-1},{"trial_n":5,"min":25,"max":230,"target":"present","response":"present","rt":1275.799999997,"correct":true,"confidence":-1},{"trial_n":6,"min":25,"max":230,"target":"absent","response":"absent","rt":846,"correct":true,"confidence":-1},{"trial_n":7,"min":41,"max":214,"target":"absent","response":"absent","rt":920,"correct":true,"confidence":-1},{"trial_n":8,"min":41,"max":214,"target":"absent","response":"present","rt":597.10000000149,"correct":false,"confidence":-1},{"trial_n":9,"min":25,"max":230,"target":"present","response":"present","rt":459.5,"correct":true,"confidence":-1},{"trial_n":10,"min":25,"max":230,"target":"present","response":"present","rt":544.79999999702,"correct":true,"confidence":-1},{"trial_n":11,"min":33,"max":222,"target":"present","response":"present","rt":225,"correct":true,"confidence":-1},{"trial_n":12,"min":33,"max":222,"target":"absent","response":"absent","rt":828.59999999404,"correct":true,"confidence":-1},{"trial_n":13,"min":41,"max":214,"target":"present","response":"present","rt":308.5,"correct":true,"confidence":-1},{"trial_n":14,"min":41,"max":214,"target":"present","response":"present","rt":601.60000000149,"correct":true,"confidence":-1},{"trial_n":15,"min":49,"max":206,"target":"absent","response":"absent","rt":539.40000000596,"correct":true,"confidence":-1},{"trial_n":16,"min":49,"max":206,"target":"present","response":"present","rt":327.20000000298,"correct":true,"confidence":-1},{"trial_n":17,"min":57,"max":198,"target":"absent","response":"absent","rt":392.70000000298,"correct":true,"confidence":-1},{"trial_n":18,"min":57,"max":198,"target":"present","response":"present","rt":933.79999999702,"correct":true,"confidence":-1},{"trial_n":19,"min":65,"max":190,"target":"present","response":"present","rt":417.20000000298,"correct":true,"confidence":-1},{"trial_n":20,"min":65,"max":190,"target":"present","response":"present","rt":393.39999999851,"correct":true,"confidence":-1},{"trial_n":21,"min":69,"max":186,"target":"absent","response":"absent","rt":1069.700000003,"correct":true,"confidence":3},{"trial_n":22,"min":69,"max":186,"target":"absent","response":"absent","rt":750.10000000149,"correct":true,"confidence":4},{"trial_n":23,"min":73,"max":182,"target":"absent","response":"present","rt":2139.8999999985,"correct":false,"confidence":2},{"trial_n":24,"min":69,"max":186,"target":"present","response":"present","rt":391.5,"correct":true,"confidence":5},{"trial_n":25,"min":69,"max":186,"target":"present","response":"present","rt":291.20000000298,"correct":true,"confidence":5},{"trial_n":26,"min":73,"max":182,"target":"present","response":"present","rt":421.20000000298,"correct":true,"confidence":5},{"trial_n":27,"min":73,"max":182,"target":"absent","response":"absent","rt":1739.799999997,"correct":true,"confidence":3},{"trial_n":28,"min":77,"max":178,"target":"absent","response":"absent","rt":1422.8000000045,"correct":true,"confidence":4},{"trial_n":29,"min":77,"max":178,"target":"present","response":"present","rt":556,"correct":true,"confidence":3},{"trial_n":30,"min":81,"max":174,"target":"absent","response":"absent","rt":1767.6000000015,"correct":true,"confidence":2},{"trial_n":31,"min":81,"max":174,"target":"absent","response":"absent","rt":737.70000000298,"correct":true,"confidence":3},{"trial_n":32,"min":83,"max":172,"target":"present","response":"present","rt":493,"correct":true,"confidence":4},{"trial_n":33,"min":83,"max":172,"target":"present","response":"present","rt":309.89999999851,"correct":true,"confidence":4},{"trial_n":34,"min":85,"max":170,"target":"present","response":"present","rt":384.10000000149,"correct":true,"confidence":5},{"trial_n":35,"min":85,"max":170,"target":"absent","response":"absent","rt":911.80000000447,"correct":true,"confidence":4},{"trial_n":36,"min":87,"max":168,"target":"present","response":"absent","rt":513.89999999851,"correct":false,"confidence":3},{"trial_n":37,"min":85,"max":170,"target":"absent","response":"absent","rt":4453.599999994,"correct":true,"confidence":2},{"trial_n":38,"min":85,"max":170,"target":"absent","response":"absent","rt":1228.200000003,"correct":true,"confidence":3},{"trial_n":39,"min":87,"max":168,"target":"absent","response":"absent","rt":1277.5,"correct":true,"confidence":3},{"trial_n":40,"min":87,"max":168,"target":"present","response":"absent","rt":1203.6999999955,"correct":false,"confidence":4},{"trial_n":41,"min":86,"max":169,"target":"absent","response":"absent","rt":1628.8999999985,"correct":true,"confidence":3},{"trial_n":42,"min":86,"max":169,"target":"absent","response":"absent","rt":1447.3000000045,"correct":true,"confidence":4},{"trial_n":43,"min":87,"max":168,"target":"present","response":"present","rt":1056.5,"correct":true,"confidence":3},{"trial_n":44,"min":87,"max":168,"target":"present","response":"present","rt":483.5,"correct":true,"confidence":5},{"trial_n":45,"min":88,"max":167,"target":"present","response":"present","rt":439.80000000447,"correct":true,"confidence":4},{"trial_n":46,"min":88,"max":167,"target":"absent","response":"absent","rt":1038.700000003,"correct":true,"confidence":2},{"trial_n":47,"min":89,"max":166,"target":"absent","response":"present","rt":1132.799999997,"correct":false,"confidence":3},{"trial_n":48,"min":88,"max":167,"target":"present","response":"absent","rt":1432,"correct":false,"confidence":2},{"trial_n":49,"min":87,"max":168,"target":"present","response":"present","rt":770.60000000149,"correct":true,"confidence":3},{"trial_n":50,"min":87,"max":168,"target":"present","response":"present","rt":1983.8999999985,"correct":true,"confidence":2},{"trial_n":51,"min":88,"max":167,"target":"absent","response":"absent","rt":2308,"correct":true,"confidence":3},{"trial_n":52,"min":88,"max":167,"target":"present","response":"present","rt":1971,"correct":true,"confidence":4},{"trial_n":53,"min":89,"max":166,"target":"present","response":"present","rt":673.29999999702,"correct":true,"confidence":4},{"trial_n":54,"min":89,"max":166,"target":"absent","response":"absent","rt":1503,"correct":true,"confidence":3},{"trial_n":55,"min":90,"max":165,"target":"present","response":"absent","rt":713.70000000298,"correct":false,"confidence":3},{"trial_n":56,"min":89,"max":166,"target":"absent","response":"absent","rt":828,"correct":true,"confidence":3},{"trial_n":57,"min":89,"max":166,"target":"absent","response":"absent","rt":2543.200000003,"correct":true,"confidence":4},{"trial_n":58,"min":90,"max":165,"target":"absent","response":"present","rt":1730.299999997,"correct":false,"confidence":3},{"trial_n":59,"min":89,"max":166,"target":"present","response":"present","rt":2191.200000003,"correct":true,"confidence":3},{"trial_n":60,"min":89,"max":166,"target":"present","response":"present","rt":3453.8999999985,"correct":true,"confidence":4},{"trial_n":61,"min":90,"max":165,"target":"present","response":"present","rt":592.20000000298,"correct":true,"confidence":4},{"trial_n":62,"min":90,"max":165,"target":"absent","response":"absent","rt":506.70000000298,"correct":true,"confidence":2},{"trial_n":63,"min":91,"max":164,"target":"present","response":"present","rt":706.39999999851,"correct":true,"confidence":4},{"trial_n":64,"min":91,"max":164,"target":"absent","response":"absent","rt":461.29999999702,"correct":true,"confidence":4},{"trial_n":65,"min":92,"max":163,"target":"absent","response":"absent","rt":1557.799999997,"correct":true,"confidence":3},{"trial_n":66,"min":92,"max":163,"target":"absent","response":"absent","rt":771.20000000298,"correct":true,"confidence":2},{"trial_n":67,"min":93,"max":162,"target":"absent","response":"absent","rt":2367.5,"correct":true,"confidence":1},{"trial_n":68,"min":93,"max":162,"target":"present","response":"absent","rt":2331,"correct":false,"confidence":4},{"trial_n":69,"min":92,"max":163,"target":"absent","response":"present","rt":1228,"correct":false,"confidence":3},{"trial_n":70,"min":91,"max":164,"target":"present","response":"present","rt":629.39999999851,"correct":true,"confidence":4},{"trial_n":71,"min":41,"max":214,"target":"present","response":"present","rt":1636.3000000045,"correct":true,"confidence":-1},{"trial_n":72,"min":41,"max":214,"target":"present","response":"present","rt":482.20000000298,"correct":true,"confidence":-1},{"trial_n":73,"min":57,"max":198,"target":"absent","response":"absent","rt":465.5,"correct":true,"confidence":-1},{"trial_n":74,"min":57,"max":198,"target":"absent","response":"absent","rt":551.90000000596,"correct":true,"confidence":-1},{"trial_n":75,"min":73,"max":182,"target":"present","response":"present","rt":371.5,"correct":true,"confidence":-1},{"trial_n":76,"min":73,"max":182,"target":"absent","response":"absent","rt":598.60000000149,"correct":true,"confidence":-1},{"trial_n":77,"min":89,"max":166,"target":"present","response":"present","rt":712.69999999553,"correct":true,"confidence":-1},{"trial_n":78,"min":89,"max":166,"target":"present","response":"present","rt":734.79999999702,"correct":true,"confidence":-1},{"trial_n":79,"min":105,"max":150,"target":"absent","response":"absent","rt":505.19999999553,"correct":true,"confidence":-1},{"trial_n":80,"min":105,"max":150,"target":"present","response":"absent","rt":754.70000000298,"correct":false,"confidence":-1},{"trial_n":81,"min":97,"max":158,"target":"absent","response":"present","rt":1924.3000000045,"correct":false,"confidence":-1},{"trial_n":82,"min":89,"max":166,"target":"present","response":"present","rt":383.10000000149,"correct":true,"confidence":-1},{"trial_n":83,"min":89,"max":166,"target":"absent","response":"absent","rt":745,"correct":true,"confidence":-1},{"trial_n":84,"min":97,"max":158,"target":"absent","response":"present","rt":347,"correct":false,"confidence":-1},{"trial_n":85,"min":89,"max":166,"target":"absent","response":"absent","rt":848,"correct":true,"confidence":-1},{"trial_n":86,"min":89,"max":166,"target":"present","response":"present","rt":351.60000000149,"correct":true,"confidence":-1},{"trial_n":87,"min":97,"max":158,"target":"present","response":"present","rt":539.19999999553,"correct":true,"confidence":-1},{"trial_n":88,"min":97,"max":158,"target":"present","response":"present","rt":440.5,"correct":true,"confidence":-1},{"trial_n":89,"min":105,"max":150,"target":"absent","response":"absent","rt":833,"correct":true,"confidence":-1},{"trial_n":90,"min":105,"max":150,"target":"present","response":"present","rt":524.89999999851,"correct":true,"confidence":-1},{"trial_n":91,"min":109,"max":146,"target":"absent","response":"present","rt":544.39999999851,"correct":false,"confidence":3},{"trial_n":92,"min":105,"max":150,"target":"present","response":"present","rt":370.79999999702,"correct":true,"confidence":5},{"trial_n":93,"min":105,"max":150,"target":"present","response":"present","rt":449.29999999702,"correct":true,"confidence":3},{"trial_n":94,"min":109,"max":146,"target":"present","response":"absent","rt":1692.1000000015,"correct":false,"confidence":1},{"trial_n":95,"min":105,"max":150,"target":"present","response":"present","rt":6537.900000006,"correct":true,"confidence":1},{"trial_n":96,"min":105,"max":150,"target":"present","response":"absent","rt":1067.1000000015,"correct":false,"confidence":3},{"trial_n":97,"min":101,"max":154,"target":"present","response":"present","rt":1784.1000000015,"correct":true,"confidence":2},{"trial_n":98,"min":101,"max":154,"target":"present","response":"present","rt":989.70000000298,"correct":true,"confidence":3},{"trial_n":99,"min":105,"max":150,"target":"absent","response":"present","rt":1038.1999999955,"correct":false,"confidence":4},{"trial_n":100,"min":101,"max":154,"target":"present","response":"absent","rt":3542.200000003,"correct":false,"confidence":1},{"trial_n":101,"min":99,"max":156,"target":"present","response":"present","rt":2576.599999994,"correct":true,"confidence":1},{"trial_n":102,"min":99,"max":156,"target":"present","response":"present","rt":989.29999999702,"correct":true,"confidence":2},{"trial_n":103,"min":101,"max":154,"target":"absent","response":"present","rt":446.09999999404,"correct":false,"confidence":3},{"trial_n":104,"min":99,"max":156,"target":"absent","response":"absent","rt":7976.3999999985,"correct":true,"confidence":3},{"trial_n":105,"min":99,"max":156,"target":"present","response":"present","rt":9956.5,"correct":true,"confidence":3},{"trial_n":106,"min":101,"max":154,"target":"absent","response":"present","rt":1252.3000000045,"correct":false,"confidence":2},{"trial_n":107,"min":99,"max":156,"target":"absent","response":"present","rt":1392.3999999985,"correct":false,"confidence":1},{"trial_n":108,"min":97,"max":158,"target":"present","response":"present","rt":6858.5,"correct":true,"confidence":3},{"trial_n":109,"min":97,"max":158,"target":"absent","response":"absent","rt":1416.099999994,"correct":true,"confidence":3},{"trial_n":110,"min":99,"max":156,"target":"absent","response":"present","rt":6788.200000003,"correct":false,"confidence":2},{"trial_n":111,"min":98,"max":157,"target":"present","response":"present","rt":14208.599999994,"correct":true,"confidence":4},{"trial_n":112,"min":98,"max":157,"target":"present","response":"absent","rt":1383.8999999985,"correct":false,"confidence":2},{"trial_n":113,"min":97,"max":158,"target":"present","response":"present","rt":747.39999999851,"correct":true,"confidence":2},{"trial_n":114,"min":97,"max":158,"target":"absent","response":"present","rt":6647.5,"correct":false,"confidence":1},{"trial_n":115,"min":96,"max":159,"target":"present","response":"present","rt":1190.900000006,"correct":true,"confidence":3},{"trial_n":116,"min":96,"max":159,"target":"present","response":"present","rt":4423.700000003,"correct":true,"confidence":2},{"trial_n":117,"min":97,"max":158,"target":"present","response":"present","rt":19173.899999999,"correct":true,"confidence":3},{"trial_n":118,"min":97,"max":158,"target":"absent","response":"absent","rt":18189.600000001,"correct":true,"confidence":4},{"trial_n":119,"min":98,"max":157,"target":"absent","response":"absent","rt":746,"correct":true,"confidence":3},{"trial_n":120,"min":98,"max":157,"target":"present","response":"present","rt":1893.8999999985,"correct":true,"confidence":2},{"trial_n":121,"min":99,"max":156,"target":"absent","response":"absent","rt":1477.900000006,"correct":true,"confidence":2},{"trial_n":122,"min":99,"max":156,"target":"present","response":"present","rt":1032.6000000015,"correct":true,"confidence":3},{"trial_n":123,"min":100,"max":155,"target":"absent","response":"present","rt":1969,"correct":false,"confidence":2},{"trial_n":124,"min":99,"max":156,"target":"present","response":"present","rt":1051.8999999985,"correct":true,"confidence":4},{"trial_n":125,"min":99,"max":156,"target":"present","response":"present","rt":995.89999999851,"correct":true,"confidence":3},{"trial_n":126,"min":100,"max":155,"target":"absent","response":"absent","rt":8150.200000003,"correct":true,"confidence":1},{"trial_n":127,"min":100,"max":155,"target":"absent","response":"present","rt":804,"correct":false,"confidence":2},{"trial_n":128,"min":99,"max":156,"target":"absent","response":"present","rt":6049.6999999955,"correct":false,"confidence":1},{"trial_n":129,"min":98,"max":157,"target":"absent","response":"present","rt":2472.6000000015,"correct":false,"confidence":1},{"trial_n":130,"min":97,"max":158,"target":"absent","response":"absent","rt":4027.3999999985,"correct":true,"confidence":3},{"trial_n":131,"min":97,"max":158,"target":"absent","response":"present","rt":20979.100000001,"correct":false,"confidence":2},{"trial_n":132,"min":96,"max":159,"target":"absent","response":"absent","rt":2089,"correct":true,"confidence":3},{"trial_n":133,"min":96,"max":159,"target":"absent","response":"present","rt":1627.5,"correct":false,"confidence":1},{"trial_n":134,"min":95,"max":160,"target":"absent","response":"present","rt":3042.6000000015,"correct":false,"confidence":2},{"trial_n":135,"min":94,"max":161,"target":"absent","response":"absent","rt":2035.6000000015,"correct":true,"confidence":1},{"trial_n":136,"min":94,"max":161,"target":"present","response":"absent","rt":2738,"correct":false,"confidence":4},{"trial_n":137,"min":93,"max":162,"target":"absent","response":"absent","rt":4853.599999994,"correct":true,"confidence":2},{"trial_n":138,"min":93,"max":162,"target":"absent","response":"present","rt":2630,"correct":false,"confidence":1},{"trial_n":139,"min":92,"max":163,"target":"present","response":"present","rt":1049.6000000015,"correct":true,"confidence":5},{"trial_n":140,"min":92,"max":163,"target":"present","response":"absent","rt":2668.900000006,"correct":false,"confidence":2}]