[{"trial_n":1,"n_dots":4.25,"target":"right","response":"right","rt":8349.7999999523,"correct":true,"confidence":-1},{"trial_n":2,"n_dots":4.25,"target":"right","response":"right","rt":725.70000004768,"correct":true,"confidence":-1},{"trial_n":3,"n_dots":3.85,"target":"right","response":"right","rt":868,"correct":true,"confidence":-1},{"trial_n":4,"n_dots":3.85,"target":"left","response":"left","rt":892.30000001192,"correct":true,"confidence":-1},{"trial_n":5,"n_dots":3.45,"target":"left","response":"left","rt":642.69999998808,"correct":true,"confidence":-1},{"trial_n":6,"n_dots":3.45,"target":"left","response":"right","rt":1041.3000000119,"correct":false,"confidence":-1},{"trial_n":7,"n_dots":3.85,"target":"right","response":"left","rt":880.10000002384,"correct":false,"confidence":-1},{"trial_n":8,"n_dots":4.05,"target":"left","response":"left","rt":637.60000002384,"correct":true,"confidence":-1},{"trial_n":9,"n_dots":4.05,"target":"left","response":"right","rt":639.30000001192,"correct":false,"confidence":-1},{"trial_n":10,"n_dots":4.25,"target":"right","response":"right","rt":535.10000002384,"correct":true,"confidence":-1},{"trial_n":11,"n_dots":4.25,"target":"left","response":"left","rt":434,"correct":true,"confidence":-1},{"trial_n":12,"n_dots":4.05,"target":"right","response":"right","rt":407.80000001192,"correct":true,"confidence":-1},{"trial_n":13,"n_dots":4.05,"target":"left","response":"left","rt":373.80000001192,"correct":true,"confidence":-1},{"trial_n":14,"n_dots":3.95,"target":"left","response":"left","rt":545.09999996424,"correct":true,"confidence":-1},{"trial_n":15,"n_dots":3.95,"target":"right","response":"right","rt":380.69999998808,"correct":true,"confidence":-1},{"trial_n":16,"n_dots":3.85,"target":"left","response":"left","rt":375.59999996424,"correct":true,"confidence":-1},{"trial_n":17,"n_dots":3.85,"target":"right","response":"right","rt":601.89999997616,"correct":true,"confidence":-1},{"trial_n":18,"n_dots":3.75,"target":"right","response":"right","rt":1833.1999999881,"correct":true,"confidence":-1},{"trial_n":19,"n_dots":3.75,"target":"right","response":"right","rt":808.60000002384,"correct":true,"confidence":-1},{"trial_n":20,"n_dots":3.65,"target":"right","response":"right","rt":474.80000001192,"correct":true,"confidence":-1},{"trial_n":21,"n_dots":3.65,"target":"right","response":"right","rt":1241.8000000119,"correct":true,"confidence":2},{"trial_n":22,"n_dots":3.55,"target":"left","response":"left","rt":678.5,"correct":true,"confidence":3},{"trial_n":23,"n_dots":3.55,"target":"right","response":"left","rt":1304.6999999881,"correct":false,"confidence":3},{"trial_n":24,"n_dots":3.65,"target":"right","response":"right","rt":2237.6999999881,"correct":true,"confidence":3},{"trial_n":25,"n_dots":3.65,"target":"left","response":"left","rt":588.39999997616,"correct":true,"confidence":3},{"trial_n":26,"n_dots":3.55,"target":"left","response":"left","rt":481.69999998808,"correct":true,"confidence":3},{"trial_n":27,"n_dots":3.55,"target":"right","response":"left","rt":1718.3999999762,"correct":false,"confidence":3},{"trial_n":28,"n_dots":3.65,"target":"left","response":"left","rt":377.39999997616,"correct":true,"confidence":4},{"trial_n":29,"n_dots":3.65,"target":"right","response":"right","rt":780.5,"correct":true,"confidence":3},{"trial_n":30,"n_dots":3.55,"target":"right","response":"left","rt":665.59999996424,"correct":false,"confidence":3},{"trial_n":31,"n_dots":3.65,"target":"left","response":"left","rt":456.5,"correct":true,"confidence":4},{"trial_n":32,"n_dots":3.65,"target":"left","response":"left","rt":440.5,"correct":true,"confidence":4},{"trial_n":33,"n_dots":3.55,"target":"left","response":"left","rt":677.39999997616,"correct":true,"confidence":3},{"trial_n":34,"n_dots":3.55,"target":"left","response":"left","rt":854.40000003576,"correct":true,"confidence":3},{"trial_n":35,"n_dots":3.45,"target":"right","response":"left","rt":849.69999998808,"correct":false,"confidence":3},{"trial_n":36,"n_dots":3.55,"target":"right","response":"right","rt":432.09999996424,"correct":true,"confidence":4},{"trial_n":37,"n_dots":3.55,"target":"left","response":"left","rt":853.60000002384,"correct":true,"confidence":3},{"trial_n":38,"n_dots":3.45,"target":"right","response":"right","rt":505.80000001192,"correct":true,"confidence":3},{"trial_n":39,"n_dots":3.45,"target":"right","response":"right","rt":1140.2000000477,"correct":true,"confidence":3},{"trial_n":40,"n_dots":3.35,"target":"right","response":"left","rt":975.09999996424,"correct":false,"confidence":3},{"trial_n":41,"n_dots":3.45,"target":"left","response":"left","rt":1140.5,"correct":true,"confidence":3},{"trial_n":42,"n_dots":3.45,"target":"right","response":"right","rt":725.69999998808,"correct":true,"confidence":3},{"trial_n":43,"n_dots":3.35,"target":"right","response":"left","rt":711.19999998808,"correct":false,"confidence":3},{"trial_n":44,"n_dots":3.45,"target":"left","response":"left","rt":346.5,"correct":true,"confidence":3},{"trial_n":45,"n_dots":3.45,"target":"right","response":"left","rt":547.30000001192,"correct":false,"confidence":3},{"trial_n":46,"n_dots":3.55,"target":"left","response":"left","rt":609.59999996424,"correct":true,"confidence":3},{"trial_n":47,"n_dots":3.55,"target":"left","response":"right","rt":1345,"correct":false,"confidence":3},{"trial_n":48,"n_dots":3.65,"target":"right","response":"left","rt":1153.4000000358,"correct":false,"confidence":3},{"trial_n":49,"n_dots":3.75,"target":"right","response":"left","rt":392.90000003576,"correct":false,"confidence":4},{"trial_n":50,"n_dots":3.85,"target":"right","response":"right","rt":449.80000001192,"correct":true,"confidence":3},{"trial_n":51,"n_dots":3.85,"target":"left","response":"left","rt":1039.2999999523,"correct":true,"confidence":3},{"trial_n":52,"n_dots":3.75,"target":"left","response":"left","rt":528.70000004768,"correct":true,"confidence":3},{"trial_n":53,"n_dots":3.75,"target":"right","response":"right","rt":275.5,"correct":true,"confidence":3},{"trial_n":54,"n_dots":3.65,"target":"left","response":"left","rt":694.90000003576,"correct":true,"confidence":3},{"trial_n":55,"n_dots":3.65,"target":"left","response":"left","rt":289.5,"correct":true,"confidence":3},{"trial_n":56,"n_dots":3.55,"target":"left","response":"left","rt":340.19999998808,"correct":true,"confidence":4},{"trial_n":57,"n_dots":3.55,"target":"left","response":"left","rt":477.80000001192,"correct":true,"confidence":4},{"trial_n":58,"n_dots":3.45,"target":"right","response":"right","rt":424.89999997616,"correct":true,"confidence":3},{"trial_n":59,"n_dots":3.45,"target":"left","response":"left","rt":358.40000003576,"correct":true,"confidence":4},{"trial_n":60,"n_dots":3.35,"target":"right","response":"right","rt":530.5,"correct":true,"confidence":4},{"trial_n":61,"n_dots":3.35,"target":"right","response":"right","rt":381.09999996424,"correct":true,"confidence":4},{"trial_n":62,"n_dots":3.25,"target":"left","response":"left","rt":509.5,"correct":true,"confidence":4},{"trial_n":63,"n_dots":3.25,"target":"left","response":"left","rt":595.80000001192,"correct":true,"confidence":4},{"trial_n":64,"n_dots":3.15,"target":"left","response":"left","rt":555,"correct":true,"confidence":4},{"trial_n":65,"n_dots":3.15,"target":"right","response":"right","rt":377.69999998808,"correct":true,"confidence":4},{"trial_n":66,"n_dots":3.05,"target":"left","response":"left","rt":876.90000003576,"correct":true,"confidence":3},{"trial_n":67,"n_dots":3.05,"target":"left","response":"left","rt":370,"correct":true,"confidence":4},{"trial_n":68,"n_dots":2.95,"target":"left","response":"left","rt":422.89999997616,"correct":true,"confidence":4},{"trial_n":69,"n_dots":2.95,"target":"right","response":"left","rt":1954.0999999642,"correct":false,"confidence":3},{"trial_n":70,"n_dots":3.05,"target":"right","response":"right","rt":332,"correct":true,"confidence":4},{"trial_n":71,"n_dots":3.05,"target":"left","response":"left","rt":435.59999996424,"correct":true,"confidence":3},{"trial_n":72,"n_dots":2.95,"target":"left","response":"left","rt":503.30000001192,"correct":true,"confidence":3},{"trial_n":73,"n_dots":2.95,"target":"right","response":"right","rt":433.59999996424,"correct":true,"confidence":3},{"trial_n":74,"n_dots":2.85,"target":"left","response":"left","rt":280,"correct":true,"confidence":4},{"trial_n":75,"n_dots":2.85,"target":"right","response":"left","rt":737.59999996424,"correct":false,"confidence":3},{"trial_n":76,"n_dots":2.95,"target":"right","response":"right","rt":510.30000001192,"correct":true,"confidence":4},{"trial_n":77,"n_dots":2.95,"target":"right","response":"right","rt":384,"correct":true,"confidence":4},{"trial_n":78,"n_dots":2.85,"target":"right","response":"right","rt":438.80000001192,"correct":true,"confidence":3},{"trial_n":79,"n_dots":2.85,"target":"right","response":"left","rt":864.60000002384,"correct":false,"confidence":3},{"trial_n":80,"n_dots":2.95,"target":"left","response":"right","rt":456.5,"correct":false,"confidence":4},{"trial_n":81,"n_dots":3.05,"target":"left","response":"left","rt":451.10000002384,"correct":true,"confidence":3},{"trial_n":82,"n_dots":3.05,"target":"right","response":"right","rt":487,"correct":true,"confidence":3},{"trial_n":83,"n_dots":2.95,"target":"right","response":"right","rt":330.30000001192,"correct":true,"confidence":3},{"trial_n":84,"n_dots":2.95,"target":"right","response":"right","rt":462,"correct":true,"confidence":3},{"trial_n":85,"n_dots":2.85,"target":"right","response":"right","rt":460.70000004768,"correct":true,"confidence":3},{"trial_n":86,"n_dots":2.85,"target":"left","response":"left","rt":448.10000002384,"correct":true,"confidence":3},{"trial_n":87,"n_dots":2.75,"target":"left","response":"right","rt":572.5,"correct":false,"confidence":3},{"trial_n":88,"n_dots":2.85,"target":"left","response":"left","rt":612.60000002384,"correct":true,"confidence":4},{"trial_n":89,"n_dots":2.85,"target":"left","response":"left","rt":433.40000003576,"correct":true,"confidence":4},{"trial_n":90,"n_dots":2.75,"target":"left","response":"left","rt":909,"correct":true,"confidence":4},{"trial_n":91,"n_dots":2.75,"target":"right","response":"left","rt":1134.1000000238,"correct":false,"confidence":3},{"trial_n":92,"n_dots":2.85,"target":"right","response":"left","rt":390.19999998808,"correct":false,"confidence":3},{"trial_n":93,"n_dots":2.95,"target":"right","response":"right","rt":552.89999997616,"correct":true,"confidence":3},{"trial_n":94,"n_dots":2.95,"target":"right","response":"right","rt":601.5,"correct":true,"confidence":3},{"trial_n":95,"n_dots":2.85,"target":"right","response":"left","rt":709.59999996424,"correct":false,"confidence":3},{"trial_n":96,"n_dots":2.95,"target":"right","response":"right","rt":708.90000003576,"correct":true,"confidence":3},{"trial_n":97,"n_dots":2.95,"target":"right","response":"right","rt":260.70000004768,"correct":true,"confidence":4},{"trial_n":98,"n_dots":2.85,"target":"left","response":"right","rt":916.59999996424,"correct":false,"confidence":4},{"trial_n":99,"n_dots":2.95,"target":"right","response":"left","rt":1008.4000000358,"correct":false,"confidence":3},{"trial_n":100,"n_dots":3.05,"target":"left","response":"left","rt":570.69999998808,"correct":true,"confidence":3},{"trial_n":101,"n_dots":3.05,"target":"right","response":"right","rt":154.60000002384,"correct":true,"confidence":4},{"trial_n":102,"n_dots":2.95,"target":"left","response":"left","rt":603.69999998808,"correct":true,"confidence":3},{"trial_n":103,"n_dots":2.95,"target":"left","response":"right","rt":415.90000003576,"correct":false,"confidence":4},{"trial_n":104,"n_dots":3.05,"target":"left","response":"left","rt":523.89999997616,"correct":true,"confidence":4},{"trial_n":105,"n_dots":3.05,"target":"left","response":"left","rt":502.90000003576,"correct":true,"confidence":4},{"trial_n":106,"n_dots":2.95,"target":"right","response":"right","rt":671.19999998808,"correct":true,"confidence":4},{"trial_n":107,"n_dots":2.95,"target":"right","response":"right","rt":333.5,"correct":true,"confidence":3},{"trial_n":108,"n_dots":2.85,"target":"left","response":"left","rt":351.60000002384,"correct":true,"confidence":3},{"trial_n":109,"n_dots":2.85,"target":"left","response":"right","rt":237,"correct":false,"confidence":4},{"trial_n":110,"n_dots":2.95,"target":"right","response":"right","rt":642.60000002384,"correct":true,"confidence":3},{"trial_n":111,"n_dots":2.95,"target":"left","response":"left","rt":328.30000001192,"correct":true,"confidence":4},{"trial_n":112,"n_dots":2.85,"target":"right","response":"left","rt":266.30000001192,"correct":false,"confidence":4},{"trial_n":113,"n_dots":2.95,"target":"left","response":"left","rt":572.69999998808,"correct":true,"confidence":3},{"trial_n":114,"n_dots":2.95,"target":"right","response":"right","rt":239.69999998808,"correct":true,"confidence":4},{"trial_n":115,"n_dots":2.85,"target":"left","response":"left","rt":367.19999998808,"correct":true,"confidence":3},{"trial_n":116,"n_dots":2.85,"target":"left","response":"left","rt":411.10000002384,"correct":true,"confidence":3},{"trial_n":117,"n_dots":2.75,"target":"right","response":"right","rt":443.5,"correct":true,"confidence":4},{"trial_n":118,"n_dots":2.75,"target":"left","response":"left","rt":335,"correct":true,"confidence":4},{"trial_n":119,"n_dots":2.65,"target":"left","response":"left","rt":272.30000001192,"correct":true,"confidence":4},{"trial_n":120,"n_dots":2.65,"target":"left","response":"right","rt":308.29999995232,"correct":false,"confidence":3}]