[{"trial_n":1,"n_dots":4.25,"target":"right","response":"right","rt":3215,"correct":true,"confidence":-1},{"trial_n":2,"n_dots":4.25,"target":"right","response":"left","rt":445,"correct":false,"confidence":-1},{"trial_n":3,"n_dots":4.65,"target":"right","response":"right","rt":490,"correct":true,"confidence":-1},{"trial_n":4,"n_dots":4.65,"target":"right","response":"right","rt":351,"correct":true,"confidence":-1},{"trial_n":5,"n_dots":4.25,"target":"left","response":"left","rt":4916,"correct":true,"confidence":-1},{"trial_n":6,"n_dots":4.25,"target":"right","response":"right","rt":362,"correct":true,"confidence":-1},{"trial_n":7,"n_dots":3.85,"target":"right","response":"left","rt":123,"correct":false,"confidence":-1},{"trial_n":8,"n_dots":4.05,"target":"right","response":"right","rt":534.00000000001,"correct":true,"confidence":-1},{"trial_n":9,"n_dots":4.05,"target":"right","response":"right","rt":9,"correct":true,"confidence":-1},{"trial_n":10,"n_dots":3.85,"target":"left","response":"left","rt":122.99999999999,"correct":true,"confidence":-1},{"trial_n":11,"n_dots":3.85,"target":"right","response":"left","rt":3501,"correct":false,"confidence":-1},{"trial_n":12,"n_dots":4.05,"target":"left","response":"left","rt":31,"correct":true,"confidence":-1},{"trial_n":13,"n_dots":4.05,"target":"left","response":"left","rt":510,"correct":true,"confidence":-1},{"trial_n":14,"n_dots":3.95,"target":"right","response":"left","rt":6075,"correct":false,"confidence":-1},{"trial_n":15,"n_dots":4.05,"target":"left","response":"left","rt":184,"correct":true,"confidence":-1},{"trial_n":16,"n_dots":4.05,"target":"left","response":"left","rt":68.000000000015,"correct":true,"confidence":-1},{"trial_n":17,"n_dots":3.95,"target":"left","response":"right","rt":624,"correct":false,"confidence":-1},{"trial_n":18,"n_dots":4.05,"target":"left","response":"left","rt":552,"correct":true,"confidence":-1},{"trial_n":19,"n_dots":4.05,"target":"left","response":"left","rt":19,"correct":true,"confidence":-1},{"trial_n":20,"n_dots":3.95,"target":"right","response":"right","rt":340,"correct":true,"confidence":-1},{"trial_n":21,"n_dots":3.95,"target":"right","response":"right","rt":308,"correct":true,"confidence":2},{"trial_n":22,"n_dots":3.85,"target":"left","response":"left","rt":2870,"correct":true,"confidence":3},{"trial_n":23,"n_dots":3.85,"target":"left","response":"left","rt":913,"correct":true,"confidence":3},{"trial_n":24,"n_dots":3.75,"target":"right","response":"right","rt":430,"correct":true,"confidence":4},{"trial_n":25,"n_dots":3.75,"target":"right","response":"right","rt":747,"correct":true,"confidence":3},{"trial_n":26,"n_dots":3.65,"target":"left","response":"left","rt":450,"correct":true,"confidence":3},{"trial_n":27,"n_dots":3.65,"target":"left","response":"left","rt":1077,"correct":true,"confidence":3},{"trial_n":28,"n_dots":3.55,"target":"right","response":"left","rt":1112,"correct":false,"confidence":3},{"trial_n":29,"n_dots":3.65,"target":"left","response":"left","rt":540,"correct":true,"confidence":4},{"trial_n":30,"n_dots":3.65,"target":"left","response":"right","rt":563,"correct":false,"confidence":4},{"trial_n":31,"n_dots":3.75,"target":"right","response":"left","rt":978,"correct":false,"confidence":3},{"trial_n":32,"n_dots":3.85,"target":"left","response":"left","rt":673,"correct":true,"confidence":3},{"trial_n":33,"n_dots":3.85,"target":"left","response":"left","rt":822,"correct":true,"confidence":3},{"trial_n":34,"n_dots":3.75,"target":"left","response":"left","rt":878.00000000006,"correct":true,"confidence":3},{"trial_n":35,"n_dots":3.75,"target":"left","response":"left","rt":719.00000000006,"correct":true,"confidence":3},{"trial_n":36,"n_dots":3.65,"target":"left","response":"right","rt":593,"correct":false,"confidence":3},{"trial_n":37,"n_dots":3.75,"target":"right","response":"right","rt":840,"correct":true,"confidence":4},{"trial_n":38,"n_dots":3.75,"target":"left","response":"left","rt":608.99999999994,"correct":true,"confidence":4},{"trial_n":39,"n_dots":3.65,"target":"left","response":"right","rt":935,"correct":false,"confidence":3},{"trial_n":40,"n_dots":3.75,"target":"left","response":"left","rt":1139,"correct":true,"confidence":2},{"trial_n":41,"n_dots":3.75,"target":"left","response":"left","rt":528,"correct":true,"confidence":2},{"trial_n":42,"n_dots":3.65,"target":"right","response":"right","rt":205,"correct":true,"confidence":2},{"trial_n":43,"n_dots":3.65,"target":"right","response":"left","rt":799.99999999994,"correct":false,"confidence":3},{"trial_n":44,"n_dots":3.75,"target":"right","response":"right","rt":1294,"correct":true,"confidence":4},{"trial_n":45,"n_dots":3.75,"target":"right","response":"left","rt":1055.9999999999,"correct":false,"confidence":3},{"trial_n":46,"n_dots":3.85,"target":"right","response":"right","rt":687.99999999994,"correct":true,"confidence":1},{"trial_n":47,"n_dots":3.85,"target":"left","response":"left","rt":970,"correct":true,"confidence":1},{"trial_n":48,"n_dots":3.75,"target":"right","response":"right","rt":404,"correct":true,"confidence":1},{"trial_n":49,"n_dots":3.75,"target":"left","response":"left","rt":561,"correct":true,"confidence":1},{"trial_n":50,"n_dots":3.65,"target":"right","response":"right","rt":503.99999999994,"correct":true,"confidence":1},{"trial_n":51,"n_dots":3.65,"target":"right","response":"right","rt":449.99999999994,"correct":true,"confidence":1},{"trial_n":52,"n_dots":3.55,"target":"right","response":"left","rt":508,"correct":false,"confidence":1},{"trial_n":53,"n_dots":3.65,"target":"left","response":"left","rt":765,"correct":true,"confidence":1},{"trial_n":54,"n_dots":3.65,"target":"right","response":"right","rt":686,"correct":true,"confidence":1},{"trial_n":55,"n_dots":3.55,"target":"left","response":"left","rt":418.99999999994,"correct":true,"confidence":1},{"trial_n":56,"n_dots":3.55,"target":"right","response":"right","rt":236,"correct":true,"confidence":1},{"trial_n":57,"n_dots":3.45,"target":"right","response":"right","rt":774,"correct":true,"confidence":1},{"trial_n":58,"n_dots":3.45,"target":"left","response":"left","rt":740,"correct":true,"confidence":1},{"trial_n":59,"n_dots":3.35,"target":"right","response":"right","rt":923,"correct":true,"confidence":1},{"trial_n":60,"n_dots":3.35,"target":"left","response":"left","rt":642,"correct":true,"confidence":1},{"trial_n":61,"n_dots":3.25,"target":"left","response":"left","rt":428,"correct":true,"confidence":1},{"trial_n":62,"n_dots":3.25,"target":"left","response":"left","rt":259,"correct":true,"confidence":1},{"trial_n":63,"n_dots":3.15,"target":"right","response":"left","rt":271.00000000012,"correct":false,"confidence":1},{"trial_n":64,"n_dots":3.25,"target":"right","response":"right","rt":206.00000000006,"correct":true,"confidence":1},{"trial_n":65,"n_dots":3.25,"target":"right","response":"left","rt":57,"correct":false,"confidence":1},{"trial_n":66,"n_dots":3.35,"target":"right","response":"right","rt":855,"correct":true,"confidence":2},{"trial_n":67,"n_dots":3.35,"target":"right","response":"left","rt":505,"correct":false,"confidence":1},{"trial_n":68,"n_dots":3.45,"target":"right","response":"right","rt":325,"correct":true,"confidence":1},{"trial_n":69,"n_dots":3.45,"target":"left","response":"left","rt":449,"correct":true,"confidence":1},{"trial_n":70,"n_dots":3.35,"target":"right","response":"right","rt":684,"correct":true,"confidence":2},{"trial_n":71,"n_dots":3.35,"target":"right","response":"right","rt":722,"correct":true,"confidence":2},{"trial_n":72,"n_dots":3.25,"target":"left","response":"left","rt":517.00000000012,"correct":true,"confidence":2},{"trial_n":73,"n_dots":3.25,"target":"left","response":"left","rt":663,"correct":true,"confidence":2},{"trial_n":74,"n_dots":3.15,"target":"right","response":"right","rt":618,"correct":true,"confidence":2},{"trial_n":75,"n_dots":3.15,"target":"right","response":"right","rt":1574,"correct":true,"confidence":3},{"trial_n":76,"n_dots":3.05,"target":"right","response":"right","rt":1709.9999999999,"correct":true,"confidence":3},{"trial_n":77,"n_dots":3.05,"target":"left","response":"left","rt":1101,"correct":true,"confidence":2},{"trial_n":78,"n_dots":2.95,"target":"right","response":"left","rt":1548,"correct":false,"confidence":2},{"trial_n":79,"n_dots":3.05,"target":"right","response":"left","rt":227,"correct":false,"confidence":2},{"trial_n":80,"n_dots":3.15,"target":"left","response":"left","rt":173,"correct":true,"confidence":2},{"trial_n":81,"n_dots":3.15,"target":"right","response":"left","rt":695,"correct":false,"confidence":2},{"trial_n":82,"n_dots":3.25,"target":"left","response":"right","rt":204,"correct":false,"confidence":2},{"trial_n":83,"n_dots":3.35,"target":"right","response":"right","rt":548,"correct":true,"confidence":2},{"trial_n":84,"n_dots":3.35,"target":"right","response":"left","rt":1986,"correct":false,"confidence":2},{"trial_n":85,"n_dots":3.45,"target":"left","response":"left","rt":419,"correct":true,"confidence":2},{"trial_n":86,"n_dots":3.45,"target":"left","response":"left","rt":879,"correct":true,"confidence":1},{"trial_n":87,"n_dots":3.35,"target":"left","response":"left","rt":248,"correct":true,"confidence":1},{"trial_n":88,"n_dots":3.35,"target":"right","response":"right","rt":821,"correct":true,"confidence":1},{"trial_n":89,"n_dots":3.25,"target":"right","response":"left","rt":215.99999999988,"correct":false,"confidence":2},{"trial_n":90,"n_dots":3.35,"target":"left","response":"left","rt":356,"correct":true,"confidence":2},{"trial_n":91,"n_dots":3.35,"target":"left","response":"left","rt":1405,"correct":true,"confidence":2},{"trial_n":92,"n_dots":3.25,"target":"left","response":"left","rt":228,"correct":true,"confidence":2},{"trial_n":93,"n_dots":3.25,"target":"left","response":"right","rt":327,"correct":false,"confidence":2},{"trial_n":94,"n_dots":3.35,"target":"right","response":"right","rt":296,"correct":true,"confidence":2},{"trial_n":95,"n_dots":3.35,"target":"left","response":"left","rt":92.000000000116,"correct":true,"confidence":2},{"trial_n":96,"n_dots":3.25,"target":"left","response":"right","rt":443,"correct":false,"confidence":2},{"trial_n":97,"n_dots":3.35,"target":"right","response":"right","rt":115,"correct":true,"confidence":2},{"trial_n":98,"n_dots":3.35,"target":"right","response":"left","rt":452,"correct":false,"confidence":2},{"trial_n":99,"n_dots":3.45,"target":"right","response":"right","rt":502,"correct":true,"confidence":2},{"trial_n":100,"n_dots":3.45,"target":"left","response":"left","rt":989.99999999988,"correct":true,"confidence":2},{"trial_n":101,"n_dots":3.35,"target":"left","response":"left","rt":524,"correct":true,"confidence":2},{"trial_n":102,"n_dots":3.35,"target":"left","response":"left","rt":247,"correct":true,"confidence":2},{"trial_n":103,"n_dots":3.25,"target":"right","response":"right","rt":160,"correct":true,"confidence":2},{"trial_n":104,"n_dots":3.25,"target":"left","response":"left","rt":194,"correct":true,"confidence":2},{"trial_n":105,"n_dots":3.15,"target":"left","response":"left","rt":1415,"correct":true,"confidence":2},{"trial_n":106,"n_dots":3.15,"target":"right","response":"left","rt":121,"correct":false,"confidence":2},{"trial_n":107,"n_dots":3.25,"target":"right","response":"left","rt":553,"correct":false,"confidence":2},{"trial_n":108,"n_dots":3.35,"target":"right","response":"right","rt":145,"correct":true,"confidence":2},{"trial_n":109,"n_dots":3.35,"target":"left","response":"right","rt":326,"correct":false,"confidence":2},{"trial_n":110,"n_dots":3.45,"target":"right","response":"left","rt":17053,"correct":false,"confidence":2},{"trial_n":111,"n_dots":3.55,"target":"left","response":"right","rt":268,"correct":false,"confidence":2},{"trial_n":112,"n_dots":3.65,"target":"right","response":"right","rt":1089,"correct":true,"confidence":3},{"trial_n":113,"n_dots":3.65,"target":"left","response":"left","rt":2539,"correct":true,"confidence":1},{"trial_n":114,"n_dots":3.55,"target":"left","response":"left","rt":143,"correct":true,"confidence":1},{"trial_n":115,"n_dots":3.55,"target":"right","response":"right","rt":400,"correct":true,"confidence":2},{"trial_n":116,"n_dots":3.45,"target":"left","response":"left","rt":174,"correct":true,"confidence":2},{"trial_n":117,"n_dots":3.45,"target":"left","response":"left","rt":649.99999999988,"correct":true,"confidence":2},{"trial_n":118,"n_dots":3.35,"target":"right","response":"left","rt":3561,"correct":false,"confidence":2},{"trial_n":119,"n_dots":3.45,"target":"left","response":"left","rt":102,"correct":true,"confidence":2},{"trial_n":120,"n_dots":3.45,"target":"left","response":"right","rt":2019,"correct":false,"confidence":3}]