[{"trial_n":1,"n_dots":4.25,"target":"right","response":"right","rt":5053.8999999985,"correct":true,"confidence":-1},{"trial_n":2,"n_dots":4.25,"target":"left","response":"left","rt":875.29999999702,"correct":true,"confidence":-1},{"trial_n":3,"n_dots":3.85,"target":"left","response":"left","rt":885.30000000447,"correct":true,"confidence":-1},{"trial_n":4,"n_dots":3.85,"target":"right","response":"right","rt":674.69999999553,"correct":true,"confidence":-1},{"trial_n":5,"n_dots":3.45,"target":"right","response":"right","rt":819,"correct":true,"confidence":-1},{"trial_n":6,"n_dots":3.45,"target":"right","response":"right","rt":672.80000000447,"correct":true,"confidence":-1},{"trial_n":7,"n_dots":3.05,"target":"right","response":"right","rt":951.80000000447,"correct":true,"confidence":-1},{"trial_n":8,"n_dots":3.05,"target":"left","response":"left","rt":1045,"correct":true,"confidence":-1},{"trial_n":9,"n_dots":2.85,"target":"right","response":"right","rt":735.29999999702,"correct":true,"confidence":-1},{"trial_n":10,"n_dots":2.85,"target":"right","response":"right","rt":603.89999999851,"correct":true,"confidence":-1},{"trial_n":11,"n_dots":2.65,"target":"left","response":"left","rt":511.60000000149,"correct":true,"confidence":-1},{"trial_n":12,"n_dots":2.65,"target":"right","response":"left","rt":602.89999999851,"correct":false,"confidence":-1},{"trial_n":13,"n_dots":2.75,"target":"right","response":"right","rt":393.10000000149,"correct":true,"confidence":-1},{"trial_n":14,"n_dots":2.75,"target":"right","response":"right","rt":718.89999999851,"correct":true,"confidence":-1},{"trial_n":15,"n_dots":2.65,"target":"left","response":"left","rt":429.5,"correct":true,"confidence":-1},{"trial_n":16,"n_dots":2.65,"target":"right","response":"left","rt":535.89999999851,"correct":false,"confidence":-1},{"trial_n":17,"n_dots":2.75,"target":"left","response":"left","rt":479.30000000447,"correct":true,"confidence":-1},{"trial_n":18,"n_dots":2.75,"target":"right","response":"left","rt":715,"correct":false,"confidence":-1},{"trial_n":19,"n_dots":2.85,"target":"left","response":"left","rt":737.19999999553,"correct":true,"confidence":-1},{"trial_n":20,"n_dots":2.85,"target":"right","response":"left","rt":693,"correct":false,"confidence":-1},{"trial_n":21,"n_dots":2.95,"target":"left","response":"left","rt":602.20000000298,"correct":true,"confidence":4},{"trial_n":22,"n_dots":2.95,"target":"left","response":"right","rt":705.60000000149,"correct":false,"confidence":2},{"trial_n":23,"n_dots":3.05,"target":"left","response":"left","rt":1276.1000000015,"correct":true,"confidence":4},{"trial_n":24,"n_dots":3.05,"target":"left","response":"left","rt":662.90000000596,"correct":true,"confidence":4},{"trial_n":25,"n_dots":2.95,"target":"left","response":"right","rt":1705,"correct":false,"confidence":1},{"trial_n":26,"n_dots":3.05,"target":"left","response":"left","rt":822.70000000298,"correct":true,"confidence":3},{"trial_n":27,"n_dots":3.05,"target":"left","response":"left","rt":1551.299999997,"correct":true,"confidence":2},{"trial_n":28,"n_dots":2.95,"target":"right","response":"right","rt":754.80000000447,"correct":true,"confidence":3},{"trial_n":29,"n_dots":2.95,"target":"left","response":"right","rt":762.30000000447,"correct":false,"confidence":2},{"trial_n":30,"n_dots":3.05,"target":"left","response":"left","rt":592.19999999553,"correct":true,"confidence":4},{"trial_n":31,"n_dots":3.05,"target":"right","response":"right","rt":1324.299999997,"correct":true,"confidence":2},{"trial_n":32,"n_dots":2.95,"target":"left","response":"left","rt":2317.900000006,"correct":true,"confidence":1},{"trial_n":33,"n_dots":2.95,"target":"left","response":"left","rt":741.5,"correct":true,"confidence":3},{"trial_n":34,"n_dots":2.85,"target":"left","response":"left","rt":605.39999999851,"correct":true,"confidence":5},{"trial_n":35,"n_dots":2.85,"target":"right","response":"right","rt":665.60000000149,"correct":true,"confidence":3},{"trial_n":36,"n_dots":2.75,"target":"right","response":"right","rt":998.39999999851,"correct":true,"confidence":2},{"trial_n":37,"n_dots":2.75,"target":"left","response":"left","rt":901.70000000298,"correct":true,"confidence":3},{"trial_n":38,"n_dots":2.65,"target":"left","response":"left","rt":573.19999999553,"correct":true,"confidence":4},{"trial_n":39,"n_dots":2.65,"target":"right","response":"right","rt":269.80000000447,"correct":true,"confidence":4},{"trial_n":40,"n_dots":2.55,"target":"left","response":"left","rt":522.09999999404,"correct":true,"confidence":4},{"trial_n":41,"n_dots":2.55,"target":"left","response":"left","rt":1740.8999999985,"correct":true,"confidence":2},{"trial_n":42,"n_dots":2.45,"target":"left","response":"right","rt":701.19999999553,"correct":false,"confidence":3},{"trial_n":43,"n_dots":2.55,"target":"left","response":"left","rt":405.29999999702,"correct":true,"confidence":4},{"trial_n":44,"n_dots":2.55,"target":"right","response":"left","rt":724.30000000447,"correct":false,"confidence":4},{"trial_n":45,"n_dots":2.65,"target":"left","response":"left","rt":1784.799999997,"correct":true,"confidence":3},{"trial_n":46,"n_dots":2.65,"target":"right","response":"right","rt":699.29999999702,"correct":true,"confidence":3},{"trial_n":47,"n_dots":2.55,"target":"left","response":"left","rt":583.20000000298,"correct":true,"confidence":3},{"trial_n":48,"n_dots":2.55,"target":"left","response":"left","rt":551.19999999553,"correct":true,"confidence":4},{"trial_n":49,"n_dots":2.45,"target":"right","response":"right","rt":594.39999999851,"correct":true,"confidence":4},{"trial_n":50,"n_dots":2.45,"target":"right","response":"left","rt":1460.3000000045,"correct":false,"confidence":1},{"trial_n":51,"n_dots":2.55,"target":"right","response":"right","rt":669.80000000447,"correct":true,"confidence":3},{"trial_n":52,"n_dots":2.55,"target":"left","response":"right","rt":655.5,"correct":false,"confidence":4},{"trial_n":53,"n_dots":2.65,"target":"left","response":"left","rt":721,"correct":true,"confidence":2},{"trial_n":54,"n_dots":2.65,"target":"left","response":"left","rt":728.5,"correct":true,"confidence":4},{"trial_n":55,"n_dots":2.55,"target":"right","response":"left","rt":894.89999999851,"correct":false,"confidence":1},{"trial_n":56,"n_dots":2.65,"target":"left","response":"right","rt":714.60000000149,"correct":false,"confidence":2},{"trial_n":57,"n_dots":2.75,"target":"right","response":"left","rt":766.70000000298,"correct":false,"confidence":3},{"trial_n":58,"n_dots":2.85,"target":"left","response":"left","rt":677.5,"correct":true,"confidence":4},{"trial_n":59,"n_dots":2.85,"target":"left","response":"left","rt":684.70000000298,"correct":true,"confidence":4},{"trial_n":60,"n_dots":2.75,"target":"right","response":"right","rt":660.80000000447,"correct":true,"confidence":5},{"trial_n":61,"n_dots":2.75,"target":"left","response":"left","rt":776.70000000298,"correct":true,"confidence":2},{"trial_n":62,"n_dots":2.65,"target":"left","response":"right","rt":843.19999999553,"correct":false,"confidence":3},{"trial_n":63,"n_dots":2.75,"target":"left","response":"left","rt":588,"correct":true,"confidence":3},{"trial_n":64,"n_dots":2.75,"target":"right","response":"left","rt":697.19999999553,"correct":false,"confidence":4},{"trial_n":65,"n_dots":2.85,"target":"right","response":"right","rt":668.10000000149,"correct":true,"confidence":4},{"trial_n":66,"n_dots":2.85,"target":"left","response":"left","rt":1023.6000000015,"correct":true,"confidence":2},{"trial_n":67,"n_dots":2.75,"target":"right","response":"right","rt":805.69999999553,"correct":true,"confidence":3},{"trial_n":68,"n_dots":2.75,"target":"right","response":"right","rt":384.10000000149,"correct":true,"confidence":3},{"trial_n":69,"n_dots":2.65,"target":"left","response":"left","rt":511.09999999404,"correct":true,"confidence":4},{"trial_n":70,"n_dots":2.65,"target":"left","response":"left","rt":567.60000000149,"correct":true,"confidence":5},{"trial_n":71,"n_dots":2.55,"target":"left","response":"left","rt":697.20000000298,"correct":true,"confidence":4},{"trial_n":72,"n_dots":2.55,"target":"left","response":"right","rt":1562.5,"correct":false,"confidence":2},{"trial_n":73,"n_dots":2.65,"target":"left","response":"left","rt":482.29999999702,"correct":true,"confidence":4},{"trial_n":74,"n_dots":2.65,"target":"left","response":"left","rt":1089.799999997,"correct":true,"confidence":3},{"trial_n":75,"n_dots":2.55,"target":"left","response":"left","rt":768.5,"correct":true,"confidence":3},{"trial_n":76,"n_dots":2.55,"target":"right","response":"right","rt":645.79999999702,"correct":true,"confidence":4},{"trial_n":77,"n_dots":2.45,"target":"left","response":"left","rt":690.40000000596,"correct":true,"confidence":4},{"trial_n":78,"n_dots":2.45,"target":"right","response":"right","rt":582.80000000447,"correct":true,"confidence":4},{"trial_n":79,"n_dots":2.35,"target":"left","response":"left","rt":1084,"correct":true,"confidence":2},{"trial_n":80,"n_dots":2.35,"target":"right","response":"right","rt":684.10000000149,"correct":true,"confidence":3},{"trial_n":81,"n_dots":2.25,"target":"right","response":"right","rt":887.10000000149,"correct":true,"confidence":4},{"trial_n":82,"n_dots":2.25,"target":"right","response":"right","rt":704.80000000447,"correct":true,"confidence":3},{"trial_n":83,"n_dots":2.15,"target":"left","response":"right","rt":1133.799999997,"correct":false,"confidence":2},{"trial_n":84,"n_dots":2.25,"target":"left","response":"left","rt":550.69999999553,"correct":true,"confidence":4},{"trial_n":85,"n_dots":2.25,"target":"left","response":"left","rt":1150.299999997,"correct":true,"confidence":3},{"trial_n":86,"n_dots":2.15,"target":"right","response":"right","rt":786.59999999404,"correct":true,"confidence":3},{"trial_n":87,"n_dots":2.15,"target":"right","response":"right","rt":704.80000000447,"correct":true,"confidence":2},{"trial_n":88,"n_dots":2.05,"target":"right","response":"right","rt":952.70000000298,"correct":true,"confidence":2},{"trial_n":89,"n_dots":2.05,"target":"right","response":"right","rt":2067.6000000015,"correct":true,"confidence":4},{"trial_n":90,"n_dots":1.95,"target":"right","response":"right","rt":892.10000000149,"correct":true,"confidence":3},{"trial_n":91,"n_dots":1.95,"target":"right","response":"right","rt":589.29999999702,"correct":true,"confidence":3},{"trial_n":92,"n_dots":1.85,"target":"left","response":"right","rt":817.70000000298,"correct":false,"confidence":3},{"trial_n":93,"n_dots":1.95,"target":"right","response":"right","rt":681.19999999553,"correct":true,"confidence":4},{"trial_n":94,"n_dots":1.95,"target":"right","response":"left","rt":601.60000000149,"correct":false,"confidence":4},{"trial_n":95,"n_dots":2.05,"target":"right","response":"right","rt":783.70000000298,"correct":true,"confidence":4},{"trial_n":96,"n_dots":2.05,"target":"right","response":"left","rt":552.89999999851,"correct":false,"confidence":4},{"trial_n":97,"n_dots":2.15,"target":"left","response":"left","rt":1274.5,"correct":true,"confidence":5},{"trial_n":98,"n_dots":2.15,"target":"right","response":"left","rt":884.79999999702,"correct":false,"confidence":4},{"trial_n":99,"n_dots":2.25,"target":"right","response":"right","rt":1356,"correct":true,"confidence":2},{"trial_n":100,"n_dots":2.25,"target":"left","response":"right","rt":642.29999999702,"correct":false,"confidence":2},{"trial_n":101,"n_dots":2.35,"target":"right","response":"right","rt":649.29999999702,"correct":true,"confidence":3},{"trial_n":102,"n_dots":2.35,"target":"right","response":"right","rt":1385.1000000015,"correct":true,"confidence":2},{"trial_n":103,"n_dots":2.25,"target":"left","response":"left","rt":1174.8999999985,"correct":true,"confidence":3},{"trial_n":104,"n_dots":2.25,"target":"right","response":"right","rt":527.09999999404,"correct":true,"confidence":4},{"trial_n":105,"n_dots":2.15,"target":"left","response":"right","rt":1181.3999999985,"correct":false,"confidence":3},{"trial_n":106,"n_dots":2.25,"target":"right","response":"right","rt":482.5,"correct":true,"confidence":3},{"trial_n":107,"n_dots":2.25,"target":"left","response":"right","rt":826.20000000298,"correct":false,"confidence":4},{"trial_n":108,"n_dots":2.35,"target":"right","response":"right","rt":551.70000000298,"correct":true,"confidence":4},{"trial_n":109,"n_dots":2.35,"target":"right","response":"right","rt":424.29999999702,"correct":true,"confidence":3},{"trial_n":110,"n_dots":2.25,"target":"left","response":"right","rt":449.89999999851,"correct":false,"confidence":3},{"trial_n":111,"n_dots":2.35,"target":"right","response":"left","rt":1306.900000006,"correct":false,"confidence":2},{"trial_n":112,"n_dots":2.45,"target":"right","response":"right","rt":466.60000000149,"correct":true,"confidence":4},{"trial_n":113,"n_dots":2.45,"target":"right","response":"right","rt":810.5,"correct":true,"confidence":4},{"trial_n":114,"n_dots":2.35,"target":"right","response":"left","rt":691.09999999404,"correct":false,"confidence":3},{"trial_n":115,"n_dots":2.45,"target":"right","response":"right","rt":166.69999999553,"correct":true,"confidence":3},{"trial_n":116,"n_dots":2.45,"target":"left","response":"left","rt":499.89999999851,"correct":true,"confidence":4},{"trial_n":117,"n_dots":2.35,"target":"right","response":"right","rt":353.10000000149,"correct":true,"confidence":3},{"trial_n":118,"n_dots":2.35,"target":"left","response":"right","rt":384,"correct":false,"confidence":3},{"trial_n":119,"n_dots":2.45,"target":"left","response":"left","rt":717.89999999851,"correct":true,"confidence":2},{"trial_n":120,"n_dots":2.45,"target":"right","response":"left","rt":579,"correct":false,"confidence":4}]