[{"trial_n":1,"span":8,"encoder":"13496696","distractor":"13496636","target":"present","response":"present","rt":"6648","correct":true,"confidence":-1},{"trial_n":2,"span":8,"encoder":"00582760","distractor":"50582760","target":"present","response":"present","rt":"2014","correct":true,"confidence":-1},{"trial_n":3,"span":10,"encoder":"7219629734","distractor":"7219626734","target":"absent","response":"present","rt":"1470","correct":false,"confidence":-1},{"trial_n":4,"span":8,"encoder":"13801657","distractor":"93801657","target":"absent","response":"present","rt":"2290","correct":false,"confidence":-1},{"trial_n":5,"span":6,"encoder":"309450","distractor":"309350","target":"present","response":"present","rt":"1595","correct":true,"confidence":-1},{"trial_n":6,"span":6,"encoder":"863025","distractor":"863085","target":"present","response":"present","rt":"1156","correct":true,"confidence":-1},{"trial_n":7,"span":8,"encoder":"73529756","distractor":"73529856","target":"absent","response":"absent","rt":"2656","correct":true,"confidence":-1},{"trial_n":8,"span":8,"encoder":"04059513","distractor":"04059519","target":"present","response":"present","rt":"3254","correct":true,"confidence":-1},{"trial_n":9,"span":10,"encoder":"2485984322","distractor":"2485584322","target":"absent","response":"absent","rt":"2816","correct":true,"confidence":-1},{"trial_n":10,"span":10,"encoder":"1131003032","distractor":"8131003032","target":"present","response":"present","rt":"1420","correct":true,"confidence":-1},{"trial_n":11,"span":12,"encoder":"163148895517","distractor":"163148893517","target":"present","response":"absent","rt":"3441","correct":false,"confidence":-1},{"trial_n":12,"span":11,"encoder":"55755600959","distractor":"55755620959","target":"absent","response":"present","rt":"1972","correct":false,"confidence":-1},{"trial_n":13,"span":10,"encoder":"9412820683","distractor":"7412820683","target":"absent","response":"present","rt":"18439","correct":false,"confidence":-1},{"trial_n":14,"span":9,"encoder":"540499099","distractor":"540499699","target":"present","response":"present","rt":"2490","correct":true,"confidence":-1},{"trial_n":15,"span":9,"encoder":"972430465","distractor":"972460465","target":"present","response":"present","rt":"1313","correct":true,"confidence":-1},{"trial_n":16,"span":10,"encoder":"7149640131","distractor":"7149640731","target":"absent","response":"present","rt":"2049","correct":false,"confidence":-1},{"trial_n":17,"span":9,"encoder":"820666410","distractor":"820606410","target":"present","response":"present","rt":"2902","correct":true,"confidence":-1},{"trial_n":18,"span":9,"encoder":"725016758","distractor":"785016758","target":"absent","response":"absent","rt":"1978","correct":true,"confidence":-1},{"trial_n":19,"span":10,"encoder":"7366819494","distractor":"7366839494","target":"present","response":"present","rt":"3486","correct":true,"confidence":-1},{"trial_n":20,"span":10,"encoder":"4042174109","distractor":"4042170109","target":"absent","response":"absent","rt":"3134","correct":true,"confidence":-1},{"trial_n":21,"span":11,"encoder":"50179342415","distractor":"40179342415","target":"absent","response":"present","rt":"2420","correct":false,"confidence":3},{"trial_n":22,"span":10,"encoder":"4429552880","distractor":"4429555880","target":"present","response":"present","rt":"1855","correct":true,"confidence":4},{"trial_n":23,"span":10,"encoder":"4461375873","distractor":"4401375873","target":"absent","response":"absent","rt":"1986","correct":true,"confidence":3},{"trial_n":24,"span":11,"encoder":"46539616237","distractor":"46839616237","target":"absent","response":"present","rt":"23968","correct":false,"confidence":3},{"trial_n":25,"span":10,"encoder":"0454184966","distractor":"0454184976","target":"absent","response":"present","rt":"3421","correct":false,"confidence":4},{"trial_n":26,"span":9,"encoder":"009017638","distractor":"059017638","target":"absent","response":"absent","rt":"2387","correct":true,"confidence":5},{"trial_n":27,"span":9,"encoder":"788373592","distractor":"788373599","target":"present","response":"present","rt":"1545","correct":true,"confidence":4},{"trial_n":28,"span":10,"encoder":"5497004539","distractor":"5497004530","target":"present","response":"present","rt":"3343","correct":true,"confidence":4},{"trial_n":29,"span":10,"encoder":"6504500329","distractor":"6504508329","target":"absent","response":"present","rt":"2323","correct":false,"confidence":3},{"trial_n":30,"span":9,"encoder":"614932992","distractor":"614932990","target":"present","response":"absent","rt":"20784","correct":false,"confidence":3},{"trial_n":31,"span":8,"encoder":"83955823","distractor":"03955823","target":"absent","response":"present","rt":"2326","correct":false,"confidence":4},{"trial_n":32,"span":7,"encoder":"3559953","distractor":"3559853","target":"absent","response":"present","rt":"2533","correct":false,"confidence":3},{"trial_n":33,"span":6,"encoder":"385965","distractor":"385905","target":"present","response":"present","rt":"2351.9999999999","correct":true,"confidence":4},{"trial_n":34,"span":6,"encoder":"884734","distractor":"884714","target":"present","response":"absent","rt":"3084.9999999999","correct":false,"confidence":3},{"trial_n":35,"span":5,"encoder":"47787","distractor":"47717","target":"present","response":"present","rt":"1708","correct":true,"confidence":5},{"trial_n":36,"span":5,"encoder":"04257","distractor":"04251","target":"absent","response":"present","rt":"1759","correct":false,"confidence":4},{"trial_n":37,"span":4,"encoder":"4495","distractor":"4795","target":"present","response":"present","rt":"1337.9999999999","correct":true,"confidence":5},{"trial_n":38,"span":4,"encoder":"9676","distractor":"9176","target":"absent","response":"absent","rt":"2261","correct":true,"confidence":4},{"trial_n":39,"span":5,"encoder":"84732","distractor":"84132","target":"present","response":"present","rt":"1548","correct":true,"confidence":5},{"trial_n":40,"span":5,"encoder":"88296","distractor":"78296","target":"absent","response":"absent","rt":"3097","correct":true,"confidence":4},{"trial_n":41,"span":6,"encoder":"558995","distractor":"551995","target":"present","response":"present","rt":"2439","correct":true,"confidence":5},{"trial_n":42,"span":6,"encoder":"885500","distractor":"885590","target":"present","response":"present","rt":"1305.9999999999","correct":true,"confidence":5},{"trial_n":43,"span":7,"encoder":"8258585","distractor":"8238585","target":"present","response":"present","rt":"3102.0000000001","correct":true,"confidence":4},{"trial_n":44,"span":7,"encoder":"4054589","distractor":"4054586","target":"absent","response":"absent","rt":"2992","correct":true,"confidence":3},{"trial_n":45,"span":8,"encoder":"47406796","distractor":"67406796","target":"present","response":"present","rt":"2231.9999999999","correct":true,"confidence":3},{"trial_n":46,"span":8,"encoder":"06753204","distractor":"66753204","target":"absent","response":"absent","rt":"5094","correct":true,"confidence":3},{"trial_n":47,"span":9,"encoder":"256184031","distractor":"256164031","target":"absent","response":"present","rt":"2392","correct":false,"confidence":3},{"trial_n":48,"span":8,"encoder":"27564694","distractor":"37564694","target":"present","response":"present","rt":"2549","correct":true,"confidence":3},{"trial_n":49,"span":8,"encoder":"16950995","distractor":"96950995","target":"present","response":"absent","rt":"4703","correct":false,"confidence":2},{"trial_n":50,"span":7,"encoder":"5783705","distractor":"5783707","target":"absent","response":"present","rt":"1955","correct":false,"confidence":3},{"trial_n":51,"span":6,"encoder":"920947","distractor":"520947","target":"present","response":"present","rt":"1794","correct":true,"confidence":4},{"trial_n":52,"span":6,"encoder":"585868","distractor":"585878","target":"present","response":"present","rt":"1693","correct":true,"confidence":4},{"trial_n":53,"span":7,"encoder":"8668458","distractor":"8661458","target":"present","response":"present","rt":"4133","correct":true,"confidence":3},{"trial_n":54,"span":7,"encoder":"2917561","distractor":"2919561","target":"absent","response":"present","rt":"2223","correct":false,"confidence":3},{"trial_n":55,"span":6,"encoder":"450055","distractor":"450355","target":"absent","response":"absent","rt":"4151","correct":true,"confidence":4},{"trial_n":56,"span":6,"encoder":"634007","distractor":"634003","target":"present","response":"present","rt":"1823.0000000001","correct":true,"confidence":5},{"trial_n":57,"span":7,"encoder":"8334297","distractor":"8834297","target":"present","response":"present","rt":"3248","correct":true,"confidence":4},{"trial_n":58,"span":7,"encoder":"1150018","distractor":"2150018","target":"absent","response":"absent","rt":"2421.9999999999","correct":true,"confidence":4},{"trial_n":59,"span":8,"encoder":"08816497","distractor":"68816497","target":"absent","response":"present","rt":"3984","correct":false,"confidence":2},{"trial_n":60,"span":7,"encoder":"7208462","distractor":"7008462","target":"absent","response":"absent","rt":"1667","correct":true,"confidence":3},{"trial_n":61,"span":7,"encoder":"9584545","distractor":"9584542","target":"absent","response":"present","rt":"1770.9999999999","correct":false,"confidence":3},{"trial_n":62,"span":6,"encoder":"462283","distractor":"460283","target":"present","response":"present","rt":"2179","correct":true,"confidence":5},{"trial_n":63,"span":6,"encoder":"377626","distractor":"347626","target":"present","response":"present","rt":"2092.9999999999","correct":true,"confidence":5},{"trial_n":64,"span":7,"encoder":"8591918","distractor":"8591418","target":"present","response":"present","rt":"1610","correct":true,"confidence":5},{"trial_n":65,"span":7,"encoder":"3688004","distractor":"3668004","target":"present","response":"present","rt":"2316","correct":true,"confidence":3},{"trial_n":66,"span":8,"encoder":"10197963","distractor":"70197963","target":"present","response":"present","rt":"1666","correct":true,"confidence":3},{"trial_n":67,"span":8,"encoder":"73623193","distractor":"73623493","target":"absent","response":"present","rt":"4568","correct":false,"confidence":5},{"trial_n":68,"span":7,"encoder":"9110922","distractor":"9110952","target":"absent","response":"present","rt":"1825.0000000002","correct":false,"confidence":4},{"trial_n":69,"span":6,"encoder":"776712","distractor":"776412","target":"absent","response":"present","rt":"1690","correct":false,"confidence":4},{"trial_n":70,"span":5,"encoder":"18065","distractor":"12065","target":"absent","response":"absent","rt":"6443","correct":true,"confidence":3},{"trial_n":71,"span":8,"encoder":"06612135","distractor":"06614135","target":"present","response":"present","rt":"16598","correct":true,"confidence":-1},{"trial_n":72,"span":8,"encoder":"94252403","distractor":"04252403","target":"present","response":"present","rt":"1270","correct":true,"confidence":-1},{"trial_n":73,"span":9,"encoder":"659662237","distractor":"659663237","target":"absent","response":"absent","rt":"3211","correct":true,"confidence":-1},{"trial_n":74,"span":9,"encoder":"615889791","distractor":"615889771","target":"absent","response":"absent","rt":"60.000000000233","correct":true,"confidence":-1},{"trial_n":75,"span":10,"encoder":"3854111825","distractor":"3854141825","target":"present","response":"present","rt":"1977","correct":true,"confidence":-1},{"trial_n":76,"span":10,"encoder":"9845978567","distractor":"7845978567","target":"absent","response":"absent","rt":"22059","correct":true,"confidence":-1},{"trial_n":77,"span":11,"encoder":"88017567359","distractor":"88037567359","target":"absent","response":"absent","rt":"1923","correct":true,"confidence":-1},{"trial_n":78,"span":11,"encoder":"42952353956","distractor":"42952753956","target":"present","response":"present","rt":"2357","correct":true,"confidence":-1},{"trial_n":79,"span":12,"encoder":"153639739103","distractor":"153679739103","target":"absent","response":"absent","rt":"3965.9999999998","correct":true,"confidence":-1},{"trial_n":80,"span":12,"encoder":"912924498884","distractor":"912924498881","target":"absent","response":"present","rt":"2275","correct":false,"confidence":-1},{"trial_n":81,"span":11,"encoder":"10091489719","distractor":"10091489419","target":"present","response":"present","rt":"1584","correct":true,"confidence":-1},{"trial_n":82,"span":11,"encoder":"94772101423","distractor":"24772101423","target":"present","response":"present","rt":"1294","correct":true,"confidence":-1},{"trial_n":83,"span":12,"encoder":"659747359350","distractor":"659747359340","target":"absent","response":"present","rt":"2269","correct":false,"confidence":-1},{"trial_n":84,"span":11,"encoder":"62592564129","distractor":"62592564109","target":"absent","response":"absent","rt":"1987","correct":true,"confidence":-1},{"trial_n":85,"span":11,"encoder":"16241853782","distractor":"16241883782","target":"absent","response":"present","rt":"2180","correct":false,"confidence":-1},{"trial_n":86,"span":10,"encoder":"1102781771","distractor":"1102781971","target":"absent","response":"present","rt":"2640.9999999998","correct":false,"confidence":-1},{"trial_n":87,"span":9,"encoder":"798682193","distractor":"797682193","target":"present","response":"absent","rt":"1488","correct":false,"confidence":-1},{"trial_n":88,"span":8,"encoder":"92854503","distractor":"92855503","target":"absent","response":"absent","rt":"1634","correct":true,"confidence":-1},{"trial_n":89,"span":8,"encoder":"18462497","distractor":"18462493","target":"absent","response":"absent","rt":"3282","correct":true,"confidence":-1},{"trial_n":90,"span":9,"encoder":"364455110","distractor":"364455113","target":"absent","response":"absent","rt":"2138","correct":true,"confidence":-1},{"trial_n":91,"span":9,"encoder":"777450983","distractor":"777450933","target":"absent","response":"present","rt":"5511","correct":false,"confidence":2},{"trial_n":92,"span":8,"encoder":"91980206","distractor":"41980206","target":"present","response":"present","rt":"6678","correct":true,"confidence":3},{"trial_n":93,"span":8,"encoder":"41285930","distractor":"41285937","target":"present","response":"present","rt":"1690","correct":true,"confidence":4},{"trial_n":94,"span":9,"encoder":"877902867","distractor":"877982867","target":"absent","response":"present","rt":"4684","correct":false,"confidence":2},{"trial_n":95,"span":8,"encoder":"55788547","distractor":"55788542","target":"absent","response":"absent","rt":"1696","correct":true,"confidence":4},{"trial_n":96,"span":8,"encoder":"81589466","distractor":"51589466","target":"present","response":"present","rt":"3462","correct":true,"confidence":4},{"trial_n":97,"span":9,"encoder":"481864521","distractor":"481894521","target":"absent","response":"present","rt":"3254","correct":false,"confidence":2},{"trial_n":98,"span":8,"encoder":"49223702","distractor":"09223702","target":"present","response":"present","rt":"2966","correct":true,"confidence":3},{"trial_n":99,"span":8,"encoder":"27507996","distractor":"27507998","target":"present","response":"present","rt":"1792","correct":true,"confidence":5},{"trial_n":100,"span":9,"encoder":"598635371","distractor":"598631371","target":"present","response":"present","rt":"4094","correct":true,"confidence":3},{"trial_n":101,"span":9,"encoder":"764256227","distractor":"764256327","target":"present","response":"absent","rt":"4471","correct":false,"confidence":2},{"trial_n":102,"span":8,"encoder":"01392168","distractor":"01992168","target":"present","response":"absent","rt":"5561","correct":false,"confidence":1},{"trial_n":103,"span":7,"encoder":"5920897","distractor":"5920807","target":"present","response":"absent","rt":"1559","correct":false,"confidence":3},{"trial_n":104,"span":6,"encoder":"235887","distractor":"935887","target":"present","response":"present","rt":"4225","correct":true,"confidence":4},{"trial_n":105,"span":6,"encoder":"833725","distractor":"833785","target":"absent","response":"present","rt":"4629","correct":false,"confidence":3},{"trial_n":106,"span":5,"encoder":"78827","distractor":"78817","target":"present","response":"present","rt":"2472","correct":true,"confidence":4},{"trial_n":107,"span":5,"encoder":"45116","distractor":"45156","target":"present","response":"present","rt":"2249","correct":true,"confidence":3},{"trial_n":108,"span":6,"encoder":"391167","distractor":"191167","target":"absent","response":"absent","rt":"2292","correct":true,"confidence":5},{"trial_n":109,"span":6,"encoder":"427486","distractor":"423486","target":"absent","response":"absent","rt":"3132","correct":true,"confidence":4},{"trial_n":110,"span":7,"encoder":"5590647","distractor":"4590647","target":"present","response":"present","rt":"3257","correct":true,"confidence":4},{"trial_n":111,"span":7,"encoder":"3874835","distractor":"3870835","target":"absent","response":"absent","rt":"3558","correct":true,"confidence":1},{"trial_n":112,"span":8,"encoder":"40244557","distractor":"40244057","target":"present","response":"present","rt":"2859","correct":true,"confidence":2},{"trial_n":113,"span":8,"encoder":"70746390","distractor":"70746393","target":"present","response":"present","rt":"2315","correct":true,"confidence":4},{"trial_n":114,"span":9,"encoder":"194316307","distractor":"194317307","target":"present","response":"absent","rt":"5737","correct":false,"confidence":2},{"trial_n":115,"span":8,"encoder":"17163928","distractor":"87163928","target":"absent","response":"absent","rt":"3455","correct":true,"confidence":2},{"trial_n":116,"span":8,"encoder":"06973967","distractor":"00973967","target":"present","response":"present","rt":"8587","correct":true,"confidence":1},{"trial_n":117,"span":9,"encoder":"144425552","distractor":"144425352","target":"present","response":"present","rt":"4137.0000000002","correct":true,"confidence":3},{"trial_n":118,"span":9,"encoder":"621754029","distractor":"621764029","target":"absent","response":"present","rt":"7474.0000000002","correct":false,"confidence":1},{"trial_n":119,"span":8,"encoder":"50585870","distractor":"50985870","target":"absent","response":"absent","rt":"14195","correct":true,"confidence":3},{"trial_n":120,"span":8,"encoder":"66543158","distractor":"66543168","target":"present","response":"absent","rt":"3545.9999999998","correct":false,"confidence":2},{"trial_n":121,"span":7,"encoder":"5739850","distractor":"5739851","target":"absent","response":"absent","rt":"5775","correct":true,"confidence":1},{"trial_n":122,"span":7,"encoder":"3724395","distractor":"0724395","target":"present","response":"present","rt":"2190","correct":true,"confidence":1},{"trial_n":123,"span":8,"encoder":"78628814","distractor":"78628815","target":"present","response":"present","rt":"1954","correct":true,"confidence":4},{"trial_n":124,"span":8,"encoder":"34097481","distractor":"34092481","target":"present","response":"present","rt":"2966","correct":true,"confidence":5},{"trial_n":125,"span":9,"encoder":"415072389","distractor":"415572389","target":"absent","response":"present","rt":"3094","correct":false,"confidence":3},{"trial_n":126,"span":8,"encoder":"12596688","distractor":"12896688","target":"absent","response":"absent","rt":"3350.0000000005","correct":true,"confidence":4},{"trial_n":127,"span":8,"encoder":"42397318","distractor":"42397398","target":"present","response":"present","rt":"2261","correct":true,"confidence":4},{"trial_n":128,"span":9,"encoder":"656041982","distractor":"656041782","target":"absent","response":"absent","rt":"5353","correct":true,"confidence":3},{"trial_n":129,"span":9,"encoder":"401922839","distractor":"701922839","target":"absent","response":"present","rt":"3535.0000000005","correct":false,"confidence":2},{"trial_n":130,"span":8,"encoder":"64649966","distractor":"64609966","target":"absent","response":"absent","rt":"2587","correct":true,"confidence":5},{"trial_n":131,"span":8,"encoder":"26147802","distractor":"26147202","target":"present","response":"present","rt":"2219","correct":true,"confidence":5},{"trial_n":132,"span":9,"encoder":"744002576","distractor":"744004576","target":"present","response":"absent","rt":"3226","correct":false,"confidence":1},{"trial_n":133,"span":8,"encoder":"22904182","distractor":"72904182","target":"absent","response":"present","rt":"7707","correct":false,"confidence":3},{"trial_n":134,"span":7,"encoder":"3833268","distractor":"3883268","target":"present","response":"present","rt":"5539","correct":true,"confidence":3},{"trial_n":135,"span":7,"encoder":"6788516","distractor":"3788516","target":"absent","response":"absent","rt":"3845.0000000005","correct":true,"confidence":4},{"trial_n":136,"span":8,"encoder":"06138995","distractor":"06118995","target":"absent","response":"present","rt":"3698","correct":false,"confidence":4},{"trial_n":137,"span":7,"encoder":"5703623","distractor":"5700623","target":"present","response":"present","rt":"4253","correct":true,"confidence":3},{"trial_n":138,"span":7,"encoder":"2233485","distractor":"2231485","target":"absent","response":"present","rt":"2984.0000000005","correct":false,"confidence":1},{"trial_n":139,"span":6,"encoder":"491402","distractor":"491302","target":"present","response":"present","rt":"2455","correct":true,"confidence":3},{"trial_n":140,"span":6,"encoder":"256616","distractor":"456616","target":"present","response":"present","rt":"2580","correct":true,"confidence":4}]