[{"trial_n":1,"span":8,"encoder":"67436909","distractor":"67446909","target":"present","response":"present","rt":"5014.6000000015","correct":true,"confidence":-1},{"trial_n":2,"span":8,"encoder":"90555151","distractor":"90595151","target":"present","response":"absent","rt":"6834.1000000015","correct":false,"confidence":-1},{"trial_n":3,"span":6,"encoder":"669959","distractor":"869959","target":"absent","response":"absent","rt":"1780.5","correct":true,"confidence":-1},{"trial_n":4,"span":6,"encoder":"026218","distractor":"028218","target":"absent","response":"present","rt":"1564.6999999955","correct":false,"confidence":-1},{"trial_n":5,"span":4,"encoder":"8465","distractor":"8965","target":"present","response":"present","rt":"2267.299999997","correct":true,"confidence":-1},{"trial_n":6,"span":4,"encoder":"1293","distractor":"1193","target":"present","response":"absent","rt":"10856.299999997","correct":false,"confidence":-1},{"trial_n":7,"span":2,"encoder":"77","distractor":"79","target":"absent","response":"present","rt":"2548.8000000045","correct":false,"confidence":-1},{"trial_n":8,"span":2,"encoder":"32","distractor":"33","target":"absent","response":"absent","rt":"1124.5","correct":true,"confidence":-1},{"trial_n":9,"span":2,"encoder":"07","distractor":"17","target":"absent","response":"absent","rt":"1417.5","correct":true,"confidence":-1},{"trial_n":10,"span":4,"encoder":"4554","distractor":"4534","target":"absent","response":"absent","rt":"1170.3999999985","correct":true,"confidence":-1},{"trial_n":11,"span":4,"encoder":"4914","distractor":"4934","target":"present","response":"present","rt":"1596.1999999955","correct":true,"confidence":-1},{"trial_n":12,"span":5,"encoder":"74165","distractor":"74162","target":"absent","response":"absent","rt":"2555.3999999985","correct":true,"confidence":-1},{"trial_n":13,"span":5,"encoder":"51309","distractor":"51009","target":"absent","response":"absent","rt":"3243.3000000045","correct":true,"confidence":-1},{"trial_n":14,"span":6,"encoder":"706893","distractor":"746893","target":"present","response":"present","rt":"1690.3000000045","correct":true,"confidence":-1},{"trial_n":15,"span":6,"encoder":"741636","distractor":"791636","target":"present","response":"present","rt":"6368.1999999955","correct":true,"confidence":-1},{"trial_n":16,"span":7,"encoder":"3290830","distractor":"1290830","target":"present","response":"absent","rt":"1860.1000000015","correct":false,"confidence":-1},{"trial_n":17,"span":6,"encoder":"653567","distractor":"653507","target":"absent","response":"absent","rt":"1486.5","correct":true,"confidence":-1},{"trial_n":18,"span":6,"encoder":"948603","distractor":"148603","target":"absent","response":"present","rt":"1669.1999999955","correct":false,"confidence":-1},{"trial_n":19,"span":5,"encoder":"18229","distractor":"18329","target":"present","response":"present","rt":"2270.299999997","correct":true,"confidence":-1},{"trial_n":20,"span":5,"encoder":"58460","distractor":"18460","target":"present","response":"absent","rt":"2331.200000003","correct":false,"confidence":-1},{"trial_n":21,"span":4,"encoder":"8233","distractor":"8333","target":"present","response":"present","rt":"1912.799999997","correct":true,"confidence":4},{"trial_n":22,"span":4,"encoder":"8740","distractor":"8780","target":"absent","response":"absent","rt":"1795.6999999955","correct":true,"confidence":5},{"trial_n":23,"span":5,"encoder":"70700","distractor":"70800","target":"absent","response":"absent","rt":"1243.700000003","correct":true,"confidence":5},{"trial_n":24,"span":5,"encoder":"94700","distractor":"94790","target":"present","response":"absent","rt":"2261.5","correct":false,"confidence":4},{"trial_n":25,"span":4,"encoder":"6412","distractor":"6452","target":"present","response":"present","rt":"1620.200000003","correct":true,"confidence":4},{"trial_n":26,"span":4,"encoder":"7154","distractor":"7354","target":"present","response":"present","rt":"3263","correct":true,"confidence":2},{"trial_n":27,"span":5,"encoder":"47638","distractor":"47632","target":"absent","response":"absent","rt":"1281.200000003","correct":true,"confidence":5},{"trial_n":28,"span":5,"encoder":"78476","distractor":"18476","target":"present","response":"present","rt":"4238.3999999985","correct":true,"confidence":4},{"trial_n":29,"span":6,"encoder":"128738","distractor":"728738","target":"present","response":"present","rt":"2796.1000000015","correct":true,"confidence":5},{"trial_n":30,"span":6,"encoder":"201857","distractor":"291857","target":"absent","response":"absent","rt":"2562.5","correct":true,"confidence":4},{"trial_n":31,"span":7,"encoder":"4316210","distractor":"4314210","target":"present","response":"absent","rt":"6960.900000006","correct":false,"confidence":4},{"trial_n":32,"span":6,"encoder":"798613","distractor":"798615","target":"absent","response":"absent","rt":"2329.900000006","correct":true,"confidence":5},{"trial_n":33,"span":6,"encoder":"101516","distractor":"201516","target":"present","response":"present","rt":"2243.099999994","correct":true,"confidence":5},{"trial_n":34,"span":7,"encoder":"6923666","distractor":"6923466","target":"absent","response":"absent","rt":"2787.599999994","correct":true,"confidence":5},{"trial_n":35,"span":7,"encoder":"3200208","distractor":"3600208","target":"present","response":"present","rt":"3215.2000000179","correct":true,"confidence":5},{"trial_n":36,"span":8,"encoder":"45824050","distractor":"42824050","target":"absent","response":"absent","rt":"4098.2999999821","correct":true,"confidence":5},{"trial_n":37,"span":8,"encoder":"98402290","distractor":"98401290","target":"absent","response":"absent","rt":"3018","correct":true,"confidence":5},{"trial_n":38,"span":9,"encoder":"827990897","distractor":"827990890","target":"absent","response":"present","rt":"2754.7000000179","correct":false,"confidence":4},{"trial_n":39,"span":8,"encoder":"23703038","distractor":"23703030","target":"absent","response":"absent","rt":"3191.7999999821","correct":true,"confidence":5},{"trial_n":40,"span":8,"encoder":"50574347","distractor":"50574337","target":"absent","response":"absent","rt":"3563.400000006","correct":true,"confidence":4},{"trial_n":41,"span":9,"encoder":"070409960","distractor":"070409970","target":"absent","response":"absent","rt":"15995.700000018","correct":true,"confidence":2},{"trial_n":42,"span":9,"encoder":"447074570","distractor":"647074570","target":"absent","response":"absent","rt":"4969.2000000179","correct":true,"confidence":5},{"trial_n":43,"span":10,"encoder":"0831963698","distractor":"0831963638","target":"present","response":"present","rt":"3138.599999994","correct":true,"confidence":3},{"trial_n":44,"span":10,"encoder":"8013167127","distractor":"2013167127","target":"absent","response":"present","rt":"10084","correct":false,"confidence":3},{"trial_n":45,"span":9,"encoder":"824882369","distractor":"524882369","target":"present","response":"present","rt":"2410.400000006","correct":true,"confidence":4},{"trial_n":46,"span":9,"encoder":"687837359","distractor":"687837859","target":"absent","response":"present","rt":"2581.2999999821","correct":false,"confidence":3},{"trial_n":47,"span":8,"encoder":"52936675","distractor":"52916675","target":"present","response":"present","rt":"2012.2000000179","correct":true,"confidence":3},{"trial_n":48,"span":8,"encoder":"84731260","distractor":"74731260","target":"present","response":"present","rt":"2103.099999994","correct":true,"confidence":4},{"trial_n":49,"span":9,"encoder":"493862610","distractor":"493866610","target":"absent","response":"absent","rt":"2707.6000000238","correct":true,"confidence":4},{"trial_n":50,"span":9,"encoder":"974760343","distractor":"874760343","target":"absent","response":"absent","rt":"5778.1999999881","correct":true,"confidence":4},{"trial_n":51,"span":10,"encoder":"1512404380","distractor":"1512404390","target":"absent","response":"absent","rt":"6444.099999994","correct":true,"confidence":4},{"trial_n":52,"span":10,"encoder":"0103808495","distractor":"0803808495","target":"present","response":"present","rt":"2938.5","correct":true,"confidence":4},{"trial_n":53,"span":11,"encoder":"10320079055","distractor":"10320029055","target":"present","response":"present","rt":"2110.2000000179","correct":true,"confidence":3},{"trial_n":54,"span":11,"encoder":"88963251582","distractor":"88963251382","target":"present","response":"present","rt":"2478.7000000179","correct":true,"confidence":4},{"trial_n":55,"span":12,"encoder":"463008415989","distractor":"463008615989","target":"absent","response":"present","rt":"145273.19999999","correct":false,"confidence":1},{"trial_n":56,"span":11,"encoder":"98469469005","distractor":"93469469005","target":"absent","response":"absent","rt":"1863.400000006","correct":true,"confidence":4},{"trial_n":57,"span":11,"encoder":"32762159966","distractor":"32762151966","target":"present","response":"present","rt":"8051","correct":true,"confidence":4},{"trial_n":58,"span":12,"encoder":"242807809374","distractor":"242877809374","target":"present","response":"present","rt":"1835.400000006","correct":true,"confidence":3},{"trial_n":59,"span":12,"encoder":"882172532645","distractor":"882172552645","target":"present","response":"present","rt":"2508.7000000179","correct":true,"confidence":3},{"trial_n":60,"span":13,"encoder":"1375921063114","distractor":"1376921063114","target":"present","response":"absent","rt":"4746.099999994","correct":false,"confidence":2},{"trial_n":61,"span":12,"encoder":"829217301505","distractor":"828217301505","target":"present","response":"present","rt":"1942.5","correct":true,"confidence":4},{"trial_n":62,"span":12,"encoder":"654388484808","distractor":"654388481808","target":"present","response":"absent","rt":"4009","correct":false,"confidence":4},{"trial_n":63,"span":11,"encoder":"22804194348","distractor":"24804194348","target":"absent","response":"absent","rt":"3355.8999999762","correct":true,"confidence":5},{"trial_n":64,"span":11,"encoder":"21468708166","distractor":"21468708266","target":"present","response":"present","rt":"3768.2999999821","correct":true,"confidence":4},{"trial_n":65,"span":12,"encoder":"180535895063","distractor":"180535895062","target":"absent","response":"absent","rt":"2018.900000006","correct":true,"confidence":5},{"trial_n":66,"span":12,"encoder":"768951154418","distractor":"764951154418","target":"present","response":"present","rt":"2637.6999999881","correct":true,"confidence":4},{"trial_n":67,"span":13,"encoder":"8021377291205","distractor":"8025377291205","target":"absent","response":"present","rt":"4533.7000000179","correct":false,"confidence":2},{"trial_n":68,"span":12,"encoder":"656999749127","distractor":"656999349127","target":"absent","response":"present","rt":"2970.8000000119","correct":false,"confidence":4},{"trial_n":69,"span":11,"encoder":"75942465478","distractor":"71942465478","target":"present","response":"present","rt":"2023.1999999881","correct":true,"confidence":2},{"trial_n":70,"span":11,"encoder":"33693223722","distractor":"33693220722","target":"present","response":"present","rt":"2560","correct":true,"confidence":4},{"trial_n":71,"span":8,"encoder":"73640874","distractor":"74640874","target":"present","response":"present","rt":"4706.3000000119","correct":true,"confidence":-1},{"trial_n":72,"span":8,"encoder":"10233141","distractor":"10033141","target":"present","response":"present","rt":"3765.400000006","correct":true,"confidence":-1},{"trial_n":73,"span":9,"encoder":"767852742","distractor":"767802742","target":"absent","response":"absent","rt":"418.70000001788","correct":true,"confidence":-1},{"trial_n":74,"span":9,"encoder":"431873527","distractor":"431873517","target":"absent","response":"present","rt":"579.59999999404","correct":false,"confidence":-1},{"trial_n":75,"span":8,"encoder":"88371739","distractor":"88371789","target":"present","response":"absent","rt":"675.59999999404","correct":false,"confidence":-1},{"trial_n":76,"span":7,"encoder":"7858152","distractor":"7158152","target":"absent","response":"absent","rt":"570","correct":true,"confidence":-1},{"trial_n":77,"span":7,"encoder":"8475617","distractor":"8473617","target":"absent","response":"present","rt":"536.29999998212","correct":false,"confidence":-1},{"trial_n":78,"span":6,"encoder":"374266","distractor":"377266","target":"absent","response":"absent","rt":"879.20000001788","correct":true,"confidence":-1},{"trial_n":79,"span":6,"encoder":"396719","distractor":"396419","target":"absent","response":"absent","rt":"2445.900000006","correct":true,"confidence":-1},{"trial_n":80,"span":7,"encoder":"0022610","distractor":"0622610","target":"absent","response":"absent","rt":"4947.2999999821","correct":true,"confidence":-1},{"trial_n":81,"span":7,"encoder":"5128094","distractor":"1128094","target":"absent","response":"absent","rt":"3917.7999999821","correct":true,"confidence":-1},{"trial_n":82,"span":8,"encoder":"35015795","distractor":"35015095","target":"absent","response":"absent","rt":"2723.6000000238","correct":true,"confidence":-1},{"trial_n":83,"span":8,"encoder":"43706598","distractor":"43766598","target":"present","response":"absent","rt":"729.40000000596","correct":false,"confidence":-1},{"trial_n":84,"span":7,"encoder":"0358630","distractor":"9358630","target":"present","response":"present","rt":"444.09999999404","correct":true,"confidence":-1},{"trial_n":85,"span":7,"encoder":"2806374","distractor":"2808374","target":"present","response":"present","rt":"302.80000001192","correct":true,"confidence":-1},{"trial_n":86,"span":8,"encoder":"98243104","distractor":"98543104","target":"present","response":"present","rt":"285.40000000596","correct":true,"confidence":-1},{"trial_n":87,"span":8,"encoder":"77149457","distractor":"77149477","target":"present","response":"absent","rt":"356.80000001192","correct":false,"confidence":-1},{"trial_n":88,"span":7,"encoder":"3539048","distractor":"3539041","target":"present","response":"present","rt":"355.79999998212","correct":true,"confidence":-1},{"trial_n":89,"span":7,"encoder":"2630507","distractor":"2630587","target":"present","response":"present","rt":"359.69999998808","correct":true,"confidence":-1},{"trial_n":90,"span":8,"encoder":"50302774","distractor":"50702774","target":"absent","response":"absent","rt":"1104","correct":true,"confidence":-1},{"trial_n":91,"span":8,"encoder":"20478084","distractor":"20478081","target":"absent","response":"absent","rt":"968.79999998212","correct":true,"confidence":3},{"trial_n":92,"span":9,"encoder":"165757931","distractor":"165757937","target":"present","response":"absent","rt":"5575","correct":false,"confidence":3},{"trial_n":93,"span":8,"encoder":"86885594","distractor":"86835594","target":"absent","response":"absent","rt":"623.30000001192","correct":true,"confidence":4},{"trial_n":94,"span":8,"encoder":"63106292","distractor":"13106292","target":"absent","response":"present","rt":"811.40000000596","correct":false,"confidence":3},{"trial_n":95,"span":7,"encoder":"9595181","distractor":"9595185","target":"absent","response":"present","rt":"675.70000001788","correct":false,"confidence":3},{"trial_n":96,"span":6,"encoder":"506192","distractor":"506102","target":"absent","response":"absent","rt":"628","correct":true,"confidence":4},{"trial_n":97,"span":6,"encoder":"342235","distractor":"372235","target":"absent","response":"present","rt":"832.70000001788","correct":false,"confidence":2},{"trial_n":98,"span":5,"encoder":"73114","distractor":"33114","target":"present","response":"present","rt":"907","correct":true,"confidence":3},{"trial_n":99,"span":5,"encoder":"52646","distractor":"52746","target":"absent","response":"absent","rt":"1981.900000006","correct":true,"confidence":5},{"trial_n":100,"span":6,"encoder":"589724","distractor":"589764","target":"absent","response":"absent","rt":"2156.1999999881","correct":true,"confidence":5},{"trial_n":101,"span":6,"encoder":"107574","distractor":"307574","target":"absent","response":"absent","rt":"3091.8000000119","correct":true,"confidence":3},{"trial_n":102,"span":7,"encoder":"9010773","distractor":"9010733","target":"present","response":"present","rt":"2578.3000000119","correct":true,"confidence":5},{"trial_n":103,"span":7,"encoder":"3709660","distractor":"3759660","target":"present","response":"present","rt":"3133.1999999881","correct":true,"confidence":5},{"trial_n":104,"span":8,"encoder":"50430756","distractor":"50430751","target":"present","response":"absent","rt":"6663.7000000179","correct":false,"confidence":3},{"trial_n":105,"span":7,"encoder":"5935584","distractor":"5995584","target":"present","response":"present","rt":"5256.6999999881","correct":true,"confidence":5},{"trial_n":106,"span":7,"encoder":"6821623","distractor":"2821623","target":"absent","response":"absent","rt":"2550.099999994","correct":true,"confidence":5},{"trial_n":107,"span":8,"encoder":"79216990","distractor":"19216990","target":"present","response":"present","rt":"4741.8999999762","correct":true,"confidence":5},{"trial_n":108,"span":8,"encoder":"52977269","distractor":"52977469","target":"absent","response":"absent","rt":"5101.2000000179","correct":true,"confidence":5},{"trial_n":109,"span":9,"encoder":"353704257","distractor":"353504257","target":"present","response":"present","rt":"2263.2000000179","correct":true,"confidence":5},{"trial_n":110,"span":9,"encoder":"595825135","distractor":"595825155","target":"present","response":"present","rt":"4691.5","correct":true,"confidence":2},{"trial_n":111,"span":10,"encoder":"5532329989","distractor":"5522329989","target":"present","response":"present","rt":"5254.599999994","correct":true,"confidence":5},{"trial_n":112,"span":10,"encoder":"5751090393","distractor":"5851090393","target":"present","response":"present","rt":"2393.900000006","correct":true,"confidence":5},{"trial_n":113,"span":11,"encoder":"56726208883","distractor":"51726208883","target":"present","response":"absent","rt":"7835.3999999762","correct":false,"confidence":4},{"trial_n":114,"span":10,"encoder":"7079294468","distractor":"7079234468","target":"present","response":"absent","rt":"4736.3000000119","correct":false,"confidence":3},{"trial_n":115,"span":9,"encoder":"847989181","distractor":"877989181","target":"present","response":"absent","rt":"3571.2999999821","correct":false,"confidence":2},{"trial_n":116,"span":8,"encoder":"39179975","distractor":"33179975","target":"present","response":"present","rt":"4939.900000006","correct":true,"confidence":4},{"trial_n":117,"span":8,"encoder":"54033124","distractor":"54033924","target":"absent","response":"present","rt":"3923.400000006","correct":false,"confidence":2},{"trial_n":118,"span":7,"encoder":"4918117","distractor":"4968117","target":"absent","response":"absent","rt":"2558.3999999762","correct":true,"confidence":5},{"trial_n":119,"span":7,"encoder":"5961551","distractor":"5061551","target":"absent","response":"absent","rt":"2821.6999999881","correct":true,"confidence":5},{"trial_n":120,"span":8,"encoder":"16044995","distractor":"16044695","target":"absent","response":"absent","rt":"2839.2999999821","correct":true,"confidence":3},{"trial_n":121,"span":8,"encoder":"95037723","distractor":"95037523","target":"present","response":"present","rt":"3204.7000000477","correct":true,"confidence":5},{"trial_n":122,"span":9,"encoder":"135632240","distractor":"135632247","target":"present","response":"present","rt":"7619.1999999881","correct":true,"confidence":2},{"trial_n":123,"span":9,"encoder":"829719509","distractor":"829719539","target":"present","response":"absent","rt":"7486.3000000119","correct":false,"confidence":3},{"trial_n":124,"span":8,"encoder":"03919006","distractor":"03949006","target":"absent","response":"present","rt":"2845.4000000358","correct":false,"confidence":3},{"trial_n":125,"span":7,"encoder":"4023930","distractor":"4003930","target":"present","response":"present","rt":"4037","correct":true,"confidence":3},{"trial_n":126,"span":7,"encoder":"9429897","distractor":"9429497","target":"present","response":"present","rt":"2736","correct":true,"confidence":5},{"trial_n":127,"span":8,"encoder":"37461204","distractor":"37463204","target":"absent","response":"present","rt":"4694","correct":false,"confidence":3},{"trial_n":128,"span":7,"encoder":"7784001","distractor":"7484001","target":"absent","response":"absent","rt":"1836.5999999642","correct":true,"confidence":5},{"trial_n":129,"span":7,"encoder":"9624103","distractor":"9644103","target":"absent","response":"present","rt":"350068.39999998","correct":false,"confidence":2},{"trial_n":130,"span":6,"encoder":"457835","distractor":"407835","target":"absent","response":"absent","rt":"1964.1999999881","correct":true,"confidence":5},{"trial_n":131,"span":6,"encoder":"744718","distractor":"744118","target":"present","response":"present","rt":"5359.0999999642","correct":true,"confidence":5},{"trial_n":132,"span":7,"encoder":"0300358","distractor":"0300158","target":"present","response":"present","rt":"2158.6000000238","correct":true,"confidence":3},{"trial_n":133,"span":7,"encoder":"8070439","distractor":"8570439","target":"absent","response":"absent","rt":"3184.2999999523","correct":true,"confidence":5},{"trial_n":134,"span":8,"encoder":"03764064","distractor":"93764064","target":"present","response":"absent","rt":"2247","correct":false,"confidence":2},{"trial_n":135,"span":7,"encoder":"4385029","distractor":"4315029","target":"present","response":"absent","rt":"5252.6999999881","correct":false,"confidence":4},{"trial_n":136,"span":6,"encoder":"428484","distractor":"428184","target":"present","response":"present","rt":"2733.0999999642","correct":true,"confidence":5},{"trial_n":137,"span":6,"encoder":"682717","distractor":"682716","target":"absent","response":"absent","rt":"4472.5","correct":true,"confidence":5},{"trial_n":138,"span":7,"encoder":"5511468","distractor":"5511768","target":"present","response":"present","rt":"2877.5999999642","correct":true,"confidence":5},{"trial_n":139,"span":7,"encoder":"3527483","distractor":"3527413","target":"absent","response":"absent","rt":"2659.4000000358","correct":true,"confidence":5},{"trial_n":140,"span":8,"encoder":"08789699","distractor":"08789659","target":"absent","response":"absent","rt":"1510.1999999881","correct":true,"confidence":5}]