[{"trial_n":1,"min":25,"max":230,"target":"present","response":"present","rt":8696.1999999881,"correct":true,"confidence":-1},{"trial_n":2,"min":25,"max":230,"target":"present","response":"present","rt":750.39999997616,"correct":true,"confidence":-1},{"trial_n":3,"min":41,"max":214,"target":"absent","response":"absent","rt":1008.8999999762,"correct":true,"confidence":-1},{"trial_n":4,"min":41,"max":214,"target":"absent","response":"absent","rt":595.80000001192,"correct":true,"confidence":-1},{"trial_n":5,"min":57,"max":198,"target":"present","response":"present","rt":596.5,"correct":true,"confidence":-1},{"trial_n":6,"min":57,"max":198,"target":"absent","response":"absent","rt":850.19999998808,"correct":true,"confidence":-1},{"trial_n":7,"min":73,"max":182,"target":"present","response":"absent","rt":530.09999996424,"correct":false,"confidence":-1},{"trial_n":8,"min":57,"max":198,"target":"absent","response":"absent","rt":486.30000001192,"correct":true,"confidence":-1},{"trial_n":9,"min":57,"max":198,"target":"absent","response":"absent","rt":483.19999998808,"correct":true,"confidence":-1},{"trial_n":10,"min":73,"max":182,"target":"absent","response":"absent","rt":485.5,"correct":true,"confidence":-1},{"trial_n":11,"min":73,"max":182,"target":"absent","response":"absent","rt":441.39999997616,"correct":true,"confidence":-1},{"trial_n":12,"min":81,"max":174,"target":"present","response":"present","rt":752.30000001192,"correct":true,"confidence":-1},{"trial_n":13,"min":81,"max":174,"target":"absent","response":"absent","rt":424.70000004768,"correct":true,"confidence":-1},{"trial_n":14,"min":89,"max":166,"target":"absent","response":"absent","rt":429.39999997616,"correct":true,"confidence":-1},{"trial_n":15,"min":89,"max":166,"target":"present","response":"absent","rt":440,"correct":false,"confidence":-1},{"trial_n":16,"min":81,"max":174,"target":"absent","response":"absent","rt":412,"correct":true,"confidence":-1},{"trial_n":17,"min":81,"max":174,"target":"present","response":"absent","rt":446.30000001192,"correct":false,"confidence":-1},{"trial_n":18,"min":73,"max":182,"target":"absent","response":"present","rt":1418.9000000358,"correct":false,"confidence":-1},{"trial_n":19,"min":65,"max":190,"target":"present","response":"present","rt":823.5,"correct":true,"confidence":-1},{"trial_n":20,"min":65,"max":190,"target":"absent","response":"absent","rt":601,"correct":true,"confidence":-1},{"trial_n":21,"min":69,"max":186,"target":"present","response":"present","rt":758.60000002384,"correct":true,"confidence":5},{"trial_n":22,"min":69,"max":186,"target":"absent","response":"absent","rt":1988.1999999881,"correct":true,"confidence":5},{"trial_n":23,"min":73,"max":182,"target":"present","response":"present","rt":935.09999996424,"correct":true,"confidence":5},{"trial_n":24,"min":73,"max":182,"target":"present","response":"present","rt":1025.1000000238,"correct":true,"confidence":5},{"trial_n":25,"min":77,"max":178,"target":"present","response":"present","rt":881.90000003576,"correct":true,"confidence":5},{"trial_n":26,"min":77,"max":178,"target":"absent","response":"absent","rt":929.60000002384,"correct":true,"confidence":5},{"trial_n":27,"min":81,"max":174,"target":"absent","response":"present","rt":1808.5,"correct":false,"confidence":3},{"trial_n":28,"min":77,"max":178,"target":"absent","response":"present","rt":1561.3000000119,"correct":false,"confidence":3},{"trial_n":29,"min":73,"max":182,"target":"absent","response":"absent","rt":1490.3999999762,"correct":true,"confidence":3},{"trial_n":30,"min":73,"max":182,"target":"present","response":"present","rt":810.69999998808,"correct":true,"confidence":5},{"trial_n":31,"min":75,"max":180,"target":"present","response":"present","rt":724.30000001192,"correct":true,"confidence":5},{"trial_n":32,"min":75,"max":180,"target":"present","response":"present","rt":653,"correct":true,"confidence":5},{"trial_n":33,"min":77,"max":178,"target":"present","response":"present","rt":915.5,"correct":true,"confidence":5},{"trial_n":34,"min":77,"max":178,"target":"present","response":"present","rt":953.30000001192,"correct":true,"confidence":5},{"trial_n":35,"min":79,"max":176,"target":"present","response":"present","rt":854.5,"correct":true,"confidence":5},{"trial_n":36,"min":79,"max":176,"target":"absent","response":"absent","rt":2071.6999999881,"correct":true,"confidence":4},{"trial_n":37,"min":81,"max":174,"target":"absent","response":"absent","rt":874.89999997616,"correct":true,"confidence":4},{"trial_n":38,"min":81,"max":174,"target":"present","response":"present","rt":821.69999998808,"correct":true,"confidence":4},{"trial_n":39,"min":83,"max":172,"target":"absent","response":"absent","rt":946,"correct":true,"confidence":5},{"trial_n":40,"min":83,"max":172,"target":"present","response":"present","rt":912.39999997616,"correct":true,"confidence":4},{"trial_n":41,"min":84,"max":171,"target":"absent","response":"absent","rt":951.70000004768,"correct":true,"confidence":5},{"trial_n":42,"min":84,"max":171,"target":"present","response":"present","rt":825,"correct":true,"confidence":5},{"trial_n":43,"min":85,"max":170,"target":"present","response":"absent","rt":1260.0999999642,"correct":false,"confidence":4},{"trial_n":44,"min":84,"max":171,"target":"present","response":"present","rt":831.10000002384,"correct":true,"confidence":3},{"trial_n":45,"min":84,"max":171,"target":"absent","response":"absent","rt":1054.6000000238,"correct":true,"confidence":3},{"trial_n":46,"min":85,"max":170,"target":"present","response":"present","rt":627,"correct":true,"confidence":5},{"trial_n":47,"min":85,"max":170,"target":"absent","response":"absent","rt":1072.1999999881,"correct":true,"confidence":2},{"trial_n":48,"min":86,"max":169,"target":"present","response":"present","rt":736,"correct":true,"confidence":5},{"trial_n":49,"min":86,"max":169,"target":"absent","response":"absent","rt":3561.2999999523,"correct":true,"confidence":4},{"trial_n":50,"min":87,"max":168,"target":"absent","response":"absent","rt":1647.3999999762,"correct":true,"confidence":4},{"trial_n":51,"min":87,"max":168,"target":"absent","response":"absent","rt":888.90000003576,"correct":true,"confidence":5},{"trial_n":52,"min":88,"max":167,"target":"absent","response":"absent","rt":656.19999998808,"correct":true,"confidence":5},{"trial_n":53,"min":88,"max":167,"target":"absent","response":"present","rt":1726.1000000238,"correct":false,"confidence":3},{"trial_n":54,"min":87,"max":168,"target":"present","response":"absent","rt":1413.9000000358,"correct":false,"confidence":4},{"trial_n":55,"min":86,"max":169,"target":"absent","response":"absent","rt":1185.1999999881,"correct":true,"confidence":5},{"trial_n":56,"min":86,"max":169,"target":"present","response":"present","rt":1060.1000000238,"correct":true,"confidence":5},{"trial_n":57,"min":87,"max":168,"target":"present","response":"present","rt":989.5,"correct":true,"confidence":4},{"trial_n":58,"min":87,"max":168,"target":"present","response":"present","rt":1419.5,"correct":true,"confidence":3},{"trial_n":59,"min":88,"max":167,"target":"present","response":"present","rt":899.5,"correct":true,"confidence":4},{"trial_n":60,"min":88,"max":167,"target":"absent","response":"absent","rt":1433.3999999762,"correct":true,"confidence":3},{"trial_n":61,"min":89,"max":166,"target":"absent","response":"absent","rt":1090.5999999642,"correct":true,"confidence":5},{"trial_n":62,"min":89,"max":166,"target":"absent","response":"absent","rt":749.39999997616,"correct":true,"confidence":5},{"trial_n":63,"min":90,"max":165,"target":"absent","response":"absent","rt":666,"correct":true,"confidence":5},{"trial_n":64,"min":90,"max":165,"target":"absent","response":"absent","rt":652,"correct":true,"confidence":5},{"trial_n":65,"min":91,"max":164,"target":"present","response":"present","rt":721.60000002384,"correct":true,"confidence":4},{"trial_n":66,"min":91,"max":164,"target":"present","response":"present","rt":942.40000003576,"correct":true,"confidence":4},{"trial_n":67,"min":92,"max":163,"target":"present","response":"present","rt":922.90000003576,"correct":true,"confidence":4},{"trial_n":68,"min":92,"max":163,"target":"present","response":"present","rt":802.60000002384,"correct":true,"confidence":5},{"trial_n":69,"min":93,"max":162,"target":"present","response":"present","rt":921.40000003576,"correct":true,"confidence":3},{"trial_n":70,"min":93,"max":162,"target":"present","response":"present","rt":1103.2000000477,"correct":true,"confidence":4},{"trial_n":71,"min":41,"max":214,"target":"present","response":"present","rt":1949.1999999881,"correct":true,"confidence":-1},{"trial_n":72,"min":41,"max":214,"target":"present","response":"absent","rt":1645.1000000238,"correct":false,"confidence":-1},{"trial_n":73,"min":25,"max":230,"target":"absent","response":"absent","rt":1340.5,"correct":true,"confidence":-1},{"trial_n":74,"min":25,"max":230,"target":"absent","response":"absent","rt":992.39999997616,"correct":true,"confidence":-1},{"trial_n":75,"min":41,"max":214,"target":"present","response":"present","rt":628.40000003576,"correct":true,"confidence":-1},{"trial_n":76,"min":41,"max":214,"target":"present","response":"present","rt":561.5,"correct":true,"confidence":-1},{"trial_n":77,"min":57,"max":198,"target":"present","response":"present","rt":410.10000002384,"correct":true,"confidence":-1},{"trial_n":78,"min":57,"max":198,"target":"present","response":"present","rt":424.89999997616,"correct":true,"confidence":-1},{"trial_n":79,"min":73,"max":182,"target":"present","response":"present","rt":865.5,"correct":true,"confidence":-1},{"trial_n":80,"min":73,"max":182,"target":"absent","response":"absent","rt":674.90000003576,"correct":true,"confidence":-1},{"trial_n":81,"min":81,"max":174,"target":"present","response":"present","rt":507.5,"correct":true,"confidence":-1},{"trial_n":82,"min":81,"max":174,"target":"present","response":"present","rt":619.39999997616,"correct":true,"confidence":-1},{"trial_n":83,"min":89,"max":166,"target":"absent","response":"absent","rt":1970.6999999881,"correct":true,"confidence":-1},{"trial_n":84,"min":89,"max":166,"target":"absent","response":"absent","rt":840.59999996424,"correct":true,"confidence":-1},{"trial_n":85,"min":97,"max":158,"target":"absent","response":"present","rt":1338.3999999762,"correct":false,"confidence":-1},{"trial_n":86,"min":89,"max":166,"target":"absent","response":"present","rt":570.69999998808,"correct":false,"confidence":-1},{"trial_n":87,"min":81,"max":174,"target":"present","response":"present","rt":494.30000001192,"correct":true,"confidence":-1},{"trial_n":88,"min":81,"max":174,"target":"absent","response":"absent","rt":792.10000002384,"correct":true,"confidence":-1},{"trial_n":89,"min":89,"max":166,"target":"absent","response":"absent","rt":847.39999997616,"correct":true,"confidence":-1},{"trial_n":90,"min":89,"max":166,"target":"present","response":"present","rt":741.5,"correct":true,"confidence":-1},{"trial_n":91,"min":93,"max":162,"target":"absent","response":"absent","rt":1918.5,"correct":true,"confidence":1},{"trial_n":92,"min":93,"max":162,"target":"absent","response":"present","rt":667.30000001192,"correct":false,"confidence":3},{"trial_n":93,"min":89,"max":166,"target":"absent","response":"absent","rt":1538.1000000238,"correct":true,"confidence":1},{"trial_n":94,"min":89,"max":166,"target":"present","response":"present","rt":637.59999996424,"correct":true,"confidence":4},{"trial_n":95,"min":93,"max":162,"target":"present","response":"present","rt":634.09999996424,"correct":true,"confidence":5},{"trial_n":96,"min":93,"max":162,"target":"absent","response":"present","rt":945.60000002384,"correct":false,"confidence":5},{"trial_n":97,"min":89,"max":166,"target":"absent","response":"present","rt":1588.0999999642,"correct":false,"confidence":2},{"trial_n":98,"min":85,"max":170,"target":"present","response":"present","rt":684.40000003576,"correct":true,"confidence":3},{"trial_n":99,"min":85,"max":170,"target":"absent","response":"absent","rt":1213.5,"correct":true,"confidence":3},{"trial_n":100,"min":89,"max":166,"target":"present","response":"absent","rt":1185.6999999881,"correct":false,"confidence":1},{"trial_n":101,"min":87,"max":168,"target":"absent","response":"present","rt":777.5,"correct":false,"confidence":4},{"trial_n":102,"min":85,"max":170,"target":"absent","response":"present","rt":1357.3000000119,"correct":false,"confidence":4},{"trial_n":103,"min":83,"max":172,"target":"absent","response":"present","rt":1302.1999999881,"correct":false,"confidence":3},{"trial_n":104,"min":81,"max":174,"target":"present","response":"present","rt":613.30000001192,"correct":true,"confidence":5},{"trial_n":105,"min":81,"max":174,"target":"present","response":"present","rt":598.59999996424,"correct":true,"confidence":5},{"trial_n":106,"min":83,"max":172,"target":"present","response":"present","rt":598,"correct":true,"confidence":5},{"trial_n":107,"min":83,"max":172,"target":"absent","response":"present","rt":1615.1999999881,"correct":false,"confidence":3},{"trial_n":108,"min":81,"max":174,"target":"present","response":"present","rt":646.09999996424,"correct":true,"confidence":4},{"trial_n":109,"min":81,"max":174,"target":"absent","response":"absent","rt":1103.9000000358,"correct":true,"confidence":4},{"trial_n":110,"min":83,"max":172,"target":"absent","response":"present","rt":776.30000001192,"correct":false,"confidence":4},{"trial_n":111,"min":82,"max":173,"target":"present","response":"present","rt":479,"correct":true,"confidence":5},{"trial_n":112,"min":82,"max":173,"target":"present","response":"present","rt":669.19999998808,"correct":true,"confidence":5},{"trial_n":113,"min":83,"max":172,"target":"present","response":"present","rt":474.59999996424,"correct":true,"confidence":5},{"trial_n":114,"min":83,"max":172,"target":"absent","response":"present","rt":1018.1999999881,"correct":false,"confidence":4},{"trial_n":115,"min":82,"max":173,"target":"present","response":"present","rt":587.30000001192,"correct":true,"confidence":5},{"trial_n":116,"min":82,"max":173,"target":"absent","response":"absent","rt":1334.5999999642,"correct":true,"confidence":5},{"trial_n":117,"min":83,"max":172,"target":"present","response":"present","rt":520.39999997616,"correct":true,"confidence":4},{"trial_n":118,"min":83,"max":172,"target":"present","response":"present","rt":502.69999998808,"correct":true,"confidence":5},{"trial_n":119,"min":84,"max":171,"target":"present","response":"present","rt":959.59999996424,"correct":true,"confidence":4},{"trial_n":120,"min":84,"max":171,"target":"absent","response":"absent","rt":1316.0999999642,"correct":true,"confidence":4},{"trial_n":121,"min":85,"max":170,"target":"present","response":"present","rt":1417,"correct":true,"confidence":4},{"trial_n":122,"min":85,"max":170,"target":"absent","response":"present","rt":969.09999996424,"correct":false,"confidence":3},{"trial_n":123,"min":84,"max":171,"target":"absent","response":"present","rt":1972.1000000238,"correct":false,"confidence":3},{"trial_n":124,"min":83,"max":172,"target":"present","response":"present","rt":712.30000001192,"correct":true,"confidence":4},{"trial_n":125,"min":83,"max":172,"target":"absent","response":"absent","rt":1135.5,"correct":true,"confidence":4},{"trial_n":126,"min":84,"max":171,"target":"present","response":"present","rt":1752.3999999762,"correct":true,"confidence":5},{"trial_n":127,"min":84,"max":171,"target":"present","response":"present","rt":505.69999998808,"correct":true,"confidence":3},{"trial_n":128,"min":85,"max":170,"target":"present","response":"present","rt":874.89999997616,"correct":true,"confidence":4},{"trial_n":129,"min":85,"max":170,"target":"absent","response":"absent","rt":1182.6999999881,"correct":true,"confidence":4},{"trial_n":130,"min":86,"max":169,"target":"absent","response":"present","rt":1054.4000000358,"correct":false,"confidence":5},{"trial_n":131,"min":85,"max":170,"target":"absent","response":"absent","rt":1162.0999999642,"correct":true,"confidence":2},{"trial_n":132,"min":85,"max":170,"target":"absent","response":"absent","rt":1231.8999999762,"correct":true,"confidence":3},{"trial_n":133,"min":86,"max":169,"target":"absent","response":"present","rt":1493,"correct":false,"confidence":1},{"trial_n":134,"min":85,"max":170,"target":"present","response":"present","rt":1782.7999999523,"correct":true,"confidence":5},{"trial_n":135,"min":85,"max":170,"target":"present","response":"absent","rt":1462.3999999762,"correct":false,"confidence":5},{"trial_n":136,"min":84,"max":171,"target":"absent","response":"present","rt":1466.9000000358,"correct":false,"confidence":4},{"trial_n":137,"min":83,"max":172,"target":"present","response":"present","rt":791.90000003576,"correct":true,"confidence":5},{"trial_n":138,"min":83,"max":172,"target":"present","response":"present","rt":812.5,"correct":true,"confidence":5},{"trial_n":139,"min":84,"max":171,"target":"absent","response":"absent","rt":1213,"correct":true,"confidence":4},{"trial_n":140,"min":84,"max":171,"target":"present","response":"present","rt":1050.3000000119,"correct":true,"confidence":3}]