[{"trial_n":1,"min":25,"max":230,"target":"present","response":"absent","rt":4691,"correct":false,"confidence":-1},{"trial_n":2,"min":25,"max":230,"target":"present","response":"present","rt":542,"correct":true,"confidence":-1},{"trial_n":3,"min":25,"max":230,"target":"absent","response":"absent","rt":461,"correct":true,"confidence":-1},{"trial_n":4,"min":41,"max":214,"target":"absent","response":"absent","rt":525,"correct":true,"confidence":-1},{"trial_n":5,"min":41,"max":214,"target":"present","response":"present","rt":294,"correct":true,"confidence":-1},{"trial_n":6,"min":57,"max":198,"target":"present","response":"absent","rt":198,"correct":false,"confidence":-1},{"trial_n":7,"min":41,"max":214,"target":"present","response":"present","rt":518,"correct":true,"confidence":-1},{"trial_n":8,"min":41,"max":214,"target":"present","response":"present","rt":187,"correct":true,"confidence":-1},{"trial_n":9,"min":57,"max":198,"target":"present","response":"present","rt":344,"correct":true,"confidence":-1},{"trial_n":10,"min":57,"max":198,"target":"absent","response":"absent","rt":290,"correct":true,"confidence":-1},{"trial_n":11,"min":65,"max":190,"target":"absent","response":"absent","rt":202,"correct":true,"confidence":-1},{"trial_n":12,"min":65,"max":190,"target":"absent","response":"absent","rt":199,"correct":true,"confidence":-1},{"trial_n":13,"min":73,"max":182,"target":"present","response":"absent","rt":181,"correct":false,"confidence":-1},{"trial_n":14,"min":65,"max":190,"target":"absent","response":"absent","rt":1556,"correct":true,"confidence":-1},{"trial_n":15,"min":65,"max":190,"target":"present","response":"present","rt":992,"correct":true,"confidence":-1},{"trial_n":16,"min":73,"max":182,"target":"present","response":"present","rt":596,"correct":true,"confidence":-1},{"trial_n":17,"min":73,"max":182,"target":"present","response":"absent","rt":660.00000000001,"correct":false,"confidence":-1},{"trial_n":18,"min":65,"max":190,"target":"absent","response":"absent","rt":463,"correct":true,"confidence":-1},{"trial_n":19,"min":65,"max":190,"target":"present","response":"present","rt":70.999999999993,"correct":true,"confidence":-1},{"trial_n":20,"min":73,"max":182,"target":"present","response":"absent","rt":780,"correct":false,"confidence":-1},{"trial_n":21,"min":69,"max":186,"target":"absent","response":"absent","rt":2076,"correct":true,"confidence":3},{"trial_n":22,"min":69,"max":186,"target":"present","response":"present","rt":901,"correct":true,"confidence":4},{"trial_n":23,"min":73,"max":182,"target":"absent","response":"absent","rt":665,"correct":true,"confidence":5},{"trial_n":24,"min":73,"max":182,"target":"absent","response":"absent","rt":407.99999999999,"correct":true,"confidence":4},{"trial_n":25,"min":77,"max":178,"target":"present","response":"absent","rt":1741,"correct":false,"confidence":4},{"trial_n":26,"min":73,"max":182,"target":"present","response":"present","rt":835,"correct":true,"confidence":5},{"trial_n":27,"min":73,"max":182,"target":"present","response":"present","rt":1446,"correct":true,"confidence":4},{"trial_n":28,"min":77,"max":178,"target":"absent","response":"absent","rt":498.00000000001,"correct":true,"confidence":4},{"trial_n":29,"min":77,"max":178,"target":"absent","response":"absent","rt":770,"correct":true,"confidence":4},{"trial_n":30,"min":81,"max":174,"target":"absent","response":"absent","rt":687,"correct":true,"confidence":4},{"trial_n":31,"min":81,"max":174,"target":"present","response":"present","rt":1051,"correct":true,"confidence":4},{"trial_n":32,"min":83,"max":172,"target":"absent","response":"absent","rt":481,"correct":true,"confidence":4},{"trial_n":33,"min":83,"max":172,"target":"absent","response":"absent","rt":739,"correct":true,"confidence":4},{"trial_n":34,"min":85,"max":170,"target":"absent","response":"absent","rt":522,"correct":true,"confidence":4},{"trial_n":35,"min":85,"max":170,"target":"absent","response":"absent","rt":784,"correct":true,"confidence":4},{"trial_n":36,"min":87,"max":168,"target":"absent","response":"absent","rt":1477,"correct":true,"confidence":4},{"trial_n":37,"min":87,"max":168,"target":"absent","response":"absent","rt":796,"correct":true,"confidence":3},{"trial_n":38,"min":89,"max":166,"target":"present","response":"present","rt":1747,"correct":true,"confidence":3},{"trial_n":39,"min":89,"max":166,"target":"absent","response":"absent","rt":1531,"correct":true,"confidence":3},{"trial_n":40,"min":91,"max":164,"target":"present","response":"present","rt":1178,"correct":true,"confidence":1},{"trial_n":41,"min":91,"max":164,"target":"present","response":"present","rt":828.00000000001,"correct":true,"confidence":4},{"trial_n":42,"min":92,"max":163,"target":"present","response":"absent","rt":1699,"correct":false,"confidence":4},{"trial_n":43,"min":91,"max":164,"target":"present","response":"present","rt":951,"correct":true,"confidence":4},{"trial_n":44,"min":91,"max":164,"target":"absent","response":"absent","rt":551,"correct":true,"confidence":4},{"trial_n":45,"min":92,"max":163,"target":"present","response":"absent","rt":546.99999999997,"correct":false,"confidence":4},{"trial_n":46,"min":91,"max":164,"target":"absent","response":"absent","rt":115.00000000003,"correct":true,"confidence":4},{"trial_n":47,"min":91,"max":164,"target":"absent","response":"absent","rt":425,"correct":true,"confidence":4},{"trial_n":48,"min":92,"max":163,"target":"absent","response":"absent","rt":375,"correct":true,"confidence":4},{"trial_n":49,"min":92,"max":163,"target":"present","response":"absent","rt":484,"correct":false,"confidence":4},{"trial_n":50,"min":91,"max":164,"target":"present","response":"absent","rt":1092,"correct":false,"confidence":4},{"trial_n":51,"min":90,"max":165,"target":"absent","response":"absent","rt":489,"correct":true,"confidence":4},{"trial_n":52,"min":90,"max":165,"target":"present","response":"absent","rt":249,"correct":false,"confidence":4},{"trial_n":53,"min":89,"max":166,"target":"absent","response":"absent","rt":467,"correct":true,"confidence":4},{"trial_n":54,"min":89,"max":166,"target":"absent","response":"absent","rt":957,"correct":true,"confidence":4},{"trial_n":55,"min":90,"max":165,"target":"absent","response":"absent","rt":734,"correct":true,"confidence":5},{"trial_n":56,"min":90,"max":165,"target":"present","response":"absent","rt":546,"correct":false,"confidence":4},{"trial_n":57,"min":89,"max":166,"target":"present","response":"present","rt":2740,"correct":true,"confidence":4},{"trial_n":58,"min":89,"max":166,"target":"present","response":"present","rt":1930,"correct":true,"confidence":4},{"trial_n":59,"min":90,"max":165,"target":"present","response":"present","rt":1290,"correct":true,"confidence":4},{"trial_n":60,"min":90,"max":165,"target":"absent","response":"absent","rt":613,"correct":true,"confidence":4},{"trial_n":61,"min":91,"max":164,"target":"present","response":"absent","rt":392.00000000003,"correct":false,"confidence":4},{"trial_n":62,"min":90,"max":165,"target":"absent","response":"absent","rt":250,"correct":true,"confidence":4},{"trial_n":63,"min":90,"max":165,"target":"absent","response":"absent","rt":311,"correct":true,"confidence":4},{"trial_n":64,"min":91,"max":164,"target":"present","response":"absent","rt":74,"correct":false,"confidence":4},{"trial_n":65,"min":90,"max":165,"target":"absent","response":"absent","rt":138,"correct":true,"confidence":4},{"trial_n":66,"min":90,"max":165,"target":"absent","response":"absent","rt":341,"correct":true,"confidence":4},{"trial_n":67,"min":91,"max":164,"target":"present","response":"present","rt":1233,"correct":true,"confidence":4},{"trial_n":68,"min":91,"max":164,"target":"present","response":"absent","rt":450,"correct":false,"confidence":4},{"trial_n":69,"min":90,"max":165,"target":"absent","response":"absent","rt":183,"correct":true,"confidence":4},{"trial_n":70,"min":90,"max":165,"target":"present","response":"absent","rt":1257,"correct":false,"confidence":5},{"trial_n":71,"min":41,"max":214,"target":"present","response":"present","rt":4229,"correct":true,"confidence":-1},{"trial_n":72,"min":41,"max":214,"target":"present","response":"absent","rt":1458,"correct":false,"confidence":-1},{"trial_n":73,"min":25,"max":230,"target":"absent","response":"absent","rt":845.99999999997,"correct":true,"confidence":-1},{"trial_n":74,"min":25,"max":230,"target":"absent","response":"present","rt":25560,"correct":false,"confidence":-1},{"trial_n":75,"min":9,"max":246,"target":"present","response":"present","rt":424,"correct":true,"confidence":-1},{"trial_n":76,"min":9,"max":246,"target":"present","response":"present","rt":265.00000000003,"correct":true,"confidence":-1},{"trial_n":77,"min":25,"max":230,"target":"absent","response":"absent","rt":269,"correct":true,"confidence":-1},{"trial_n":78,"min":25,"max":230,"target":"present","response":"present","rt":236.99999999997,"correct":true,"confidence":-1},{"trial_n":79,"min":41,"max":214,"target":"present","response":"present","rt":1211,"correct":true,"confidence":-1},{"trial_n":80,"min":41,"max":214,"target":"present","response":"absent","rt":13778,"correct":false,"confidence":-1},{"trial_n":81,"min":33,"max":222,"target":"absent","response":"absent","rt":439,"correct":true,"confidence":-1},{"trial_n":82,"min":33,"max":222,"target":"absent","response":"present","rt":238,"correct":false,"confidence":-1},{"trial_n":83,"min":25,"max":230,"target":"absent","response":"absent","rt":320,"correct":true,"confidence":-1},{"trial_n":84,"min":25,"max":230,"target":"present","response":"present","rt":292,"correct":true,"confidence":-1},{"trial_n":85,"min":33,"max":222,"target":"absent","response":"absent","rt":191,"correct":true,"confidence":-1},{"trial_n":86,"min":33,"max":222,"target":"present","response":"present","rt":422,"correct":true,"confidence":-1},{"trial_n":87,"min":41,"max":214,"target":"present","response":"present","rt":389.99999999994,"correct":true,"confidence":-1},{"trial_n":88,"min":41,"max":214,"target":"absent","response":"absent","rt":340,"correct":true,"confidence":-1},{"trial_n":89,"min":49,"max":206,"target":"present","response":"present","rt":379.00000000006,"correct":true,"confidence":-1},{"trial_n":90,"min":49,"max":206,"target":"present","response":"present","rt":380.00000000006,"correct":true,"confidence":-1},{"trial_n":91,"min":53,"max":202,"target":"absent","response":"absent","rt":443,"correct":true,"confidence":5},{"trial_n":92,"min":53,"max":202,"target":"absent","response":"present","rt":426,"correct":false,"confidence":1},{"trial_n":93,"min":49,"max":206,"target":"present","response":"absent","rt":1864,"correct":false,"confidence":4},{"trial_n":94,"min":45,"max":210,"target":"absent","response":"absent","rt":891.99999999994,"correct":true,"confidence":4},{"trial_n":95,"min":45,"max":210,"target":"absent","response":"absent","rt":501,"correct":true,"confidence":4},{"trial_n":96,"min":49,"max":206,"target":"present","response":"present","rt":236,"correct":true,"confidence":4},{"trial_n":97,"min":49,"max":206,"target":"absent","response":"absent","rt":441,"correct":true,"confidence":4},{"trial_n":98,"min":53,"max":202,"target":"present","response":"present","rt":376,"correct":true,"confidence":5},{"trial_n":99,"min":53,"max":202,"target":"absent","response":"absent","rt":460.99999999994,"correct":true,"confidence":4},{"trial_n":100,"min":57,"max":198,"target":"absent","response":"absent","rt":542,"correct":true,"confidence":4},{"trial_n":101,"min":57,"max":198,"target":"absent","response":"absent","rt":1909,"correct":true,"confidence":5},{"trial_n":102,"min":59,"max":196,"target":"present","response":"present","rt":236.00000000006,"correct":true,"confidence":4},{"trial_n":103,"min":59,"max":196,"target":"present","response":"present","rt":212,"correct":true,"confidence":4},{"trial_n":104,"min":61,"max":194,"target":"present","response":"present","rt":372.99999999994,"correct":true,"confidence":4},{"trial_n":105,"min":61,"max":194,"target":"present","response":"present","rt":118,"correct":true,"confidence":4},{"trial_n":106,"min":63,"max":192,"target":"absent","response":"absent","rt":248,"correct":true,"confidence":1},{"trial_n":107,"min":63,"max":192,"target":"present","response":"present","rt":884,"correct":true,"confidence":4},{"trial_n":108,"min":65,"max":190,"target":"absent","response":"absent","rt":507,"correct":true,"confidence":4},{"trial_n":109,"min":65,"max":190,"target":"absent","response":"absent","rt":509.99999999994,"correct":true,"confidence":5},{"trial_n":110,"min":67,"max":188,"target":"absent","response":"absent","rt":538,"correct":true,"confidence":4},{"trial_n":111,"min":67,"max":188,"target":"present","response":"present","rt":207,"correct":true,"confidence":4},{"trial_n":112,"min":68,"max":187,"target":"absent","response":"absent","rt":180,"correct":true,"confidence":4},{"trial_n":113,"min":68,"max":187,"target":"absent","response":"absent","rt":258,"correct":true,"confidence":4},{"trial_n":114,"min":69,"max":186,"target":"absent","response":"absent","rt":1903,"correct":true,"confidence":1},{"trial_n":115,"min":69,"max":186,"target":"present","response":"present","rt":305,"correct":true,"confidence":4},{"trial_n":116,"min":70,"max":185,"target":"present","response":"present","rt":154,"correct":true,"confidence":4},{"trial_n":117,"min":70,"max":185,"target":"present","response":"present","rt":281,"correct":true,"confidence":4},{"trial_n":118,"min":71,"max":184,"target":"absent","response":"absent","rt":421,"correct":true,"confidence":4},{"trial_n":119,"min":71,"max":184,"target":"present","response":"present","rt":258,"correct":true,"confidence":4},{"trial_n":120,"min":72,"max":183,"target":"absent","response":"absent","rt":411,"correct":true,"confidence":4},{"trial_n":121,"min":72,"max":183,"target":"present","response":"absent","rt":656,"correct":false,"confidence":4},{"trial_n":122,"min":71,"max":184,"target":"absent","response":"absent","rt":927,"correct":true,"confidence":4},{"trial_n":123,"min":71,"max":184,"target":"present","response":"present","rt":206.99999999994,"correct":true,"confidence":4},{"trial_n":124,"min":72,"max":183,"target":"absent","response":"absent","rt":437,"correct":true,"confidence":5},{"trial_n":125,"min":72,"max":183,"target":"absent","response":"present","rt":1698,"correct":false,"confidence":1},{"trial_n":126,"min":71,"max":184,"target":"present","response":"present","rt":234.99999999994,"correct":true,"confidence":4},{"trial_n":127,"min":71,"max":184,"target":"present","response":"absent","rt":170,"correct":false,"confidence":1},{"trial_n":128,"min":70,"max":185,"target":"absent","response":"absent","rt":339,"correct":true,"confidence":1},{"trial_n":129,"min":70,"max":185,"target":"absent","response":"absent","rt":1382,"correct":true,"confidence":4},{"trial_n":130,"min":71,"max":184,"target":"absent","response":"absent","rt":862.00000000006,"correct":true,"confidence":4},{"trial_n":131,"min":71,"max":184,"target":"absent","response":"absent","rt":623,"correct":true,"confidence":3},{"trial_n":132,"min":72,"max":183,"target":"present","response":"present","rt":266,"correct":true,"confidence":4},{"trial_n":133,"min":72,"max":183,"target":"absent","response":"absent","rt":409,"correct":true,"confidence":4},{"trial_n":134,"min":73,"max":182,"target":"absent","response":"absent","rt":620,"correct":true,"confidence":4},{"trial_n":135,"min":73,"max":182,"target":"present","response":"present","rt":237,"correct":true,"confidence":4},{"trial_n":136,"min":74,"max":181,"target":"present","response":"present","rt":467,"correct":true,"confidence":3},{"trial_n":137,"min":74,"max":181,"target":"present","response":"present","rt":407,"correct":true,"confidence":1},{"trial_n":138,"min":75,"max":180,"target":"present","response":"present","rt":149,"correct":true,"confidence":3},{"trial_n":139,"min":75,"max":180,"target":"present","response":"present","rt":396,"correct":true,"confidence":1},{"trial_n":140,"min":76,"max":179,"target":"present","response":"present","rt":564.99999999988,"correct":true,"confidence":4}]