[{"trial_n":1,"span":8,"encoder":"86201866","distractor":"86201865","target":"present","response":"present","rt":"8309.6000000015","correct":true,"confidence":-1},{"trial_n":2,"span":8,"encoder":"13494730","distractor":"13594730","target":"present","response":"present","rt":"3166.700000003","correct":true,"confidence":-1},{"trial_n":3,"span":10,"encoder":"2221879990","distractor":"2221878990","target":"absent","response":"absent","rt":"2726.3999999985","correct":true,"confidence":-1},{"trial_n":4,"span":10,"encoder":"2085881057","distractor":"3085881057","target":"absent","response":"absent","rt":"2567","correct":true,"confidence":-1},{"trial_n":5,"span":12,"encoder":"625103653696","distractor":"625102653696","target":"present","response":"present","rt":"2683.1000000015","correct":true,"confidence":-1},{"trial_n":6,"span":12,"encoder":"182560633476","distractor":"182570633476","target":"absent","response":"absent","rt":"2168.6000000015","correct":true,"confidence":-1},{"trial_n":7,"span":14,"encoder":"83935589943163","distractor":"83935589143163","target":"present","response":"absent","rt":"2407.5","correct":false,"confidence":-1},{"trial_n":8,"span":12,"encoder":"323168267204","distractor":"323168266204","target":"present","response":"present","rt":"2377.700000003","correct":true,"confidence":-1},{"trial_n":9,"span":12,"encoder":"658075838008","distractor":"698075838008","target":"present","response":"absent","rt":"3281.1000000015","correct":false,"confidence":-1},{"trial_n":10,"span":10,"encoder":"0517553802","distractor":"0517853802","target":"present","response":"present","rt":"2955.3999999985","correct":true,"confidence":-1},{"trial_n":11,"span":10,"encoder":"4134719152","distractor":"4134719162","target":"absent","response":"absent","rt":"1882.099999994","correct":true,"confidence":-1},{"trial_n":12,"span":11,"encoder":"90314436607","distractor":"90314476607","target":"absent","response":"absent","rt":"1891.900000006","correct":true,"confidence":-1},{"trial_n":13,"span":11,"encoder":"65523748164","distractor":"65523742164","target":"absent","response":"present","rt":"2607.8999999985","correct":false,"confidence":-1},{"trial_n":14,"span":10,"encoder":"9475054736","distractor":"9475054734","target":"present","response":"present","rt":"3236.1999999955","correct":true,"confidence":-1},{"trial_n":15,"span":10,"encoder":"5051867635","distractor":"5051867035","target":"absent","response":"absent","rt":"3652.200000003","correct":true,"confidence":-1},{"trial_n":16,"span":11,"encoder":"07843955372","distractor":"07843155372","target":"present","response":"present","rt":"2412","correct":true,"confidence":-1},{"trial_n":17,"span":11,"encoder":"33799654071","distractor":"33799654091","target":"present","response":"absent","rt":"3214.1000000015","correct":false,"confidence":-1},{"trial_n":18,"span":10,"encoder":"8445774839","distractor":"8445744839","target":"absent","response":"present","rt":"1706.6000000015","correct":false,"confidence":-1},{"trial_n":19,"span":9,"encoder":"164685535","distractor":"160685535","target":"present","response":"present","rt":"1874.1000000015","correct":true,"confidence":-1},{"trial_n":20,"span":9,"encoder":"337411430","distractor":"337411400","target":"absent","response":"absent","rt":"2744.8000000045","correct":true,"confidence":-1},{"trial_n":21,"span":10,"encoder":"8996830600","distractor":"8996839600","target":"absent","response":"present","rt":"2306.3000000045","correct":false,"confidence":2},{"trial_n":22,"span":9,"encoder":"795814736","distractor":"795812736","target":"present","response":"absent","rt":"5625.5","correct":false,"confidence":3},{"trial_n":23,"span":8,"encoder":"35059632","distractor":"35057632","target":"present","response":"present","rt":"3011.6999999955","correct":true,"confidence":3},{"trial_n":24,"span":8,"encoder":"07203644","distractor":"00203644","target":"present","response":"absent","rt":"3803.8999999985","correct":false,"confidence":3},{"trial_n":25,"span":7,"encoder":"8921791","distractor":"7921791","target":"absent","response":"present","rt":"4063.3999999985","correct":false,"confidence":4},{"trial_n":26,"span":6,"encoder":"762816","distractor":"763816","target":"absent","response":"absent","rt":"3105.5","correct":true,"confidence":4},{"trial_n":27,"span":6,"encoder":"031717","distractor":"071717","target":"present","response":"present","rt":"4035.1000000015","correct":true,"confidence":5},{"trial_n":28,"span":7,"encoder":"7893636","distractor":"7895636","target":"absent","response":"absent","rt":"1879","correct":true,"confidence":5},{"trial_n":29,"span":7,"encoder":"1760667","distractor":"6760667","target":"absent","response":"absent","rt":"2740.400000006","correct":true,"confidence":5},{"trial_n":30,"span":8,"encoder":"46259621","distractor":"46259521","target":"absent","response":"present","rt":"5271.200000003","correct":false,"confidence":3},{"trial_n":31,"span":7,"encoder":"7853455","distractor":"7453455","target":"present","response":"present","rt":"4638.400000006","correct":true,"confidence":2},{"trial_n":32,"span":7,"encoder":"9195867","distractor":"9095867","target":"absent","response":"absent","rt":"2200.6999999955","correct":true,"confidence":4},{"trial_n":33,"span":8,"encoder":"01124502","distractor":"01124302","target":"present","response":"absent","rt":"5829.1000000015","correct":false,"confidence":2},{"trial_n":34,"span":7,"encoder":"1112759","distractor":"1152759","target":"present","response":"present","rt":"1971.3000000045","correct":true,"confidence":5},{"trial_n":35,"span":7,"encoder":"6255294","distractor":"1255294","target":"present","response":"present","rt":"3348.900000006","correct":true,"confidence":4},{"trial_n":36,"span":8,"encoder":"13095199","distractor":"13095149","target":"absent","response":"absent","rt":"2420.1000000015","correct":true,"confidence":5},{"trial_n":37,"span":8,"encoder":"80338001","distractor":"20338001","target":"present","response":"present","rt":"4484.1999999955","correct":true,"confidence":3},{"trial_n":38,"span":9,"encoder":"881472393","distractor":"781472393","target":"absent","response":"present","rt":"2726.6000000015","correct":false,"confidence":2},{"trial_n":39,"span":8,"encoder":"48656988","distractor":"48626988","target":"present","response":"present","rt":"1833.599999994","correct":true,"confidence":4},{"trial_n":40,"span":8,"encoder":"42800452","distractor":"49800452","target":"present","response":"present","rt":"3701.1999999955","correct":true,"confidence":3},{"trial_n":41,"span":9,"encoder":"658834854","distractor":"658234854","target":"absent","response":"absent","rt":"3904.6999999955","correct":true,"confidence":5},{"trial_n":42,"span":9,"encoder":"762846760","distractor":"766846760","target":"present","response":"present","rt":"3003.299999997","correct":true,"confidence":3},{"trial_n":43,"span":10,"encoder":"7743821087","distractor":"7741821087","target":"absent","response":"absent","rt":"3508.599999994","correct":true,"confidence":2},{"trial_n":44,"span":10,"encoder":"6961383741","distractor":"6961383701","target":"absent","response":"absent","rt":"3792.700000003","correct":true,"confidence":3},{"trial_n":45,"span":11,"encoder":"69693627822","distractor":"69693647822","target":"absent","response":"present","rt":"3943.6000000015","correct":false,"confidence":4},{"trial_n":46,"span":10,"encoder":"9405471223","distractor":"9405479223","target":"absent","response":"present","rt":"3771.6000000015","correct":false,"confidence":3},{"trial_n":47,"span":9,"encoder":"275368222","distractor":"273368222","target":"present","response":"absent","rt":"4302.8999999985","correct":false,"confidence":3},{"trial_n":48,"span":8,"encoder":"24553104","distractor":"24553004","target":"present","response":"present","rt":"3889.1999999955","correct":true,"confidence":3},{"trial_n":49,"span":8,"encoder":"29888642","distractor":"20888642","target":"present","response":"present","rt":"2172.1000000015","correct":true,"confidence":4},{"trial_n":50,"span":9,"encoder":"339631797","distractor":"139631797","target":"absent","response":"absent","rt":"3350.6000000015","correct":true,"confidence":5},{"trial_n":51,"span":9,"encoder":"842423021","distractor":"840423021","target":"absent","response":"present","rt":"4383.5","correct":false,"confidence":3},{"trial_n":52,"span":8,"encoder":"46553719","distractor":"46573719","target":"absent","response":"present","rt":"1922.799999997","correct":false,"confidence":1},{"trial_n":53,"span":7,"encoder":"2047178","distractor":"2017178","target":"absent","response":"present","rt":"6786.6999999955","correct":false,"confidence":3},{"trial_n":54,"span":6,"encoder":"876163","distractor":"876162","target":"present","response":"present","rt":"3412.3000000045","correct":true,"confidence":3},{"trial_n":55,"span":6,"encoder":"945777","distractor":"944777","target":"present","response":"present","rt":"1908.200000003","correct":true,"confidence":5},{"trial_n":56,"span":7,"encoder":"4448132","distractor":"4448932","target":"absent","response":"absent","rt":"2471.6000000015","correct":true,"confidence":3},{"trial_n":57,"span":7,"encoder":"2341775","distractor":"2341275","target":"present","response":"present","rt":"2569.299999997","correct":true,"confidence":4},{"trial_n":58,"span":8,"encoder":"05971679","distractor":"05971619","target":"present","response":"present","rt":"3036.1000000015","correct":true,"confidence":3},{"trial_n":59,"span":8,"encoder":"97941589","distractor":"97941569","target":"present","response":"present","rt":"3644.1000000015","correct":true,"confidence":3},{"trial_n":60,"span":9,"encoder":"656939954","distractor":"656939914","target":"absent","response":"absent","rt":"3303.8000000045","correct":true,"confidence":5},{"trial_n":61,"span":9,"encoder":"277064161","distractor":"877064161","target":"present","response":"absent","rt":"3523.6000000015","correct":false,"confidence":2},{"trial_n":62,"span":8,"encoder":"71683542","distractor":"71603542","target":"present","response":"present","rt":"4134.6000000015","correct":true,"confidence":2},{"trial_n":63,"span":8,"encoder":"30089654","distractor":"30089674","target":"absent","response":"absent","rt":"3621.700000003","correct":true,"confidence":5},{"trial_n":64,"span":9,"encoder":"620909457","distractor":"620909459","target":"present","response":"present","rt":"3110.6000000015","correct":true,"confidence":4},{"trial_n":65,"span":9,"encoder":"407485627","distractor":"407485327","target":"absent","response":"absent","rt":"4260.3999999985","correct":true,"confidence":3},{"trial_n":66,"span":10,"encoder":"4736095779","distractor":"4736097779","target":"absent","response":"absent","rt":"3582.8999999985","correct":true,"confidence":4},{"trial_n":67,"span":10,"encoder":"6554442239","distractor":"7554442239","target":"present","response":"present","rt":"3331","correct":true,"confidence":3},{"trial_n":68,"span":11,"encoder":"59638936496","distractor":"59638976496","target":"present","response":"absent","rt":"2561.900000006","correct":false,"confidence":2},{"trial_n":69,"span":10,"encoder":"9021465951","distractor":"1021465951","target":"absent","response":"present","rt":"3377.3999999985","correct":false,"confidence":3},{"trial_n":70,"span":9,"encoder":"030619589","distractor":"030612589","target":"absent","response":"present","rt":"1590.8000000045","correct":false,"confidence":3},{"trial_n":71,"span":8,"encoder":"28880104","distractor":"28860104","target":"present","response":"present","rt":"5790.200000003","correct":true,"confidence":-1},{"trial_n":72,"span":8,"encoder":"51254378","distractor":"51254978","target":"present","response":"present","rt":"2235.6000000015","correct":true,"confidence":-1},{"trial_n":73,"span":9,"encoder":"241034473","distractor":"541034473","target":"absent","response":"absent","rt":"3128.5","correct":true,"confidence":-1},{"trial_n":74,"span":9,"encoder":"176118353","distractor":"176518353","target":"absent","response":"absent","rt":"1466.1999999955","correct":true,"confidence":-1},{"trial_n":75,"span":10,"encoder":"1173930616","distractor":"1573930616","target":"present","response":"present","rt":"3045.099999994","correct":true,"confidence":-1},{"trial_n":76,"span":10,"encoder":"6020735805","distractor":"6020735808","target":"present","response":"absent","rt":"6336.200000003","correct":false,"confidence":-1},{"trial_n":77,"span":9,"encoder":"902014942","distractor":"902010942","target":"present","response":"absent","rt":"4169.3000000045","correct":false,"confidence":-1},{"trial_n":78,"span":8,"encoder":"27852377","distractor":"27852379","target":"absent","response":"absent","rt":"1319.900000006","correct":true,"confidence":-1},{"trial_n":79,"span":8,"encoder":"76540388","distractor":"70540388","target":"absent","response":"absent","rt":"3475.1999999955","correct":true,"confidence":-1},{"trial_n":80,"span":9,"encoder":"316448471","distractor":"316448472","target":"absent","response":"present","rt":"2016.400000006","correct":false,"confidence":-1},{"trial_n":81,"span":8,"encoder":"01186006","distractor":"01486006","target":"present","response":"present","rt":"4309.5","correct":true,"confidence":-1},{"trial_n":82,"span":8,"encoder":"76315098","distractor":"76317098","target":"present","response":"present","rt":"4613.799999997","correct":true,"confidence":-1},{"trial_n":83,"span":9,"encoder":"495530469","distractor":"495530499","target":"absent","response":"absent","rt":"6220.1000000015","correct":true,"confidence":-1},{"trial_n":84,"span":9,"encoder":"738933261","distractor":"738933260","target":"present","response":"absent","rt":"3741.799999997","correct":false,"confidence":-1},{"trial_n":85,"span":8,"encoder":"61499031","distractor":"61599031","target":"present","response":"present","rt":"3630.299999997","correct":true,"confidence":-1},{"trial_n":86,"span":8,"encoder":"68555125","distractor":"68555625","target":"present","response":"present","rt":"3523.6000000015","correct":true,"confidence":-1},{"trial_n":87,"span":9,"encoder":"379924273","distractor":"379934273","target":"absent","response":"absent","rt":"3071.700000003","correct":true,"confidence":-1},{"trial_n":88,"span":9,"encoder":"552497843","distractor":"552697843","target":"absent","response":"absent","rt":"1700.799999997","correct":true,"confidence":-1},{"trial_n":89,"span":10,"encoder":"3963435384","distractor":"3963335384","target":"absent","response":"absent","rt":"5019.3000000045","correct":true,"confidence":-1},{"trial_n":90,"span":10,"encoder":"1652994321","distractor":"1656994321","target":"absent","response":"absent","rt":"5094.3999999985","correct":true,"confidence":-1},{"trial_n":91,"span":11,"encoder":"52680201096","distractor":"52680201095","target":"absent","response":"absent","rt":"3209.799999997","correct":true,"confidence":4},{"trial_n":92,"span":11,"encoder":"28657524396","distractor":"28657544396","target":"present","response":"present","rt":"2986.3999999985","correct":true,"confidence":3},{"trial_n":93,"span":12,"encoder":"391532760651","distractor":"391432760651","target":"absent","response":"present","rt":"4638.6999999955","correct":false,"confidence":2},{"trial_n":94,"span":11,"encoder":"99204368438","distractor":"99204368938","target":"absent","response":"present","rt":"8101.1999999955","correct":false,"confidence":2},{"trial_n":95,"span":10,"encoder":"8173595356","distractor":"8573595356","target":"absent","response":"absent","rt":"6363.8999999985","correct":true,"confidence":3},{"trial_n":96,"span":10,"encoder":"5678860448","distractor":"5608860448","target":"present","response":"present","rt":"4907.299999997","correct":true,"confidence":2},{"trial_n":97,"span":11,"encoder":"64176866614","distractor":"64176856614","target":"absent","response":"absent","rt":"3045.8999999985","correct":true,"confidence":3},{"trial_n":98,"span":11,"encoder":"31962922773","distractor":"31962922778","target":"absent","response":"absent","rt":"6337","correct":true,"confidence":1},{"trial_n":99,"span":12,"encoder":"509205847148","distractor":"509295847148","target":"present","response":"absent","rt":"5873.8999999985","correct":false,"confidence":2},{"trial_n":100,"span":11,"encoder":"56506125923","distractor":"56506525923","target":"absent","response":"absent","rt":"5916.6000000015","correct":true,"confidence":3},{"trial_n":101,"span":11,"encoder":"33863554433","distractor":"63863554433","target":"present","response":"present","rt":"5516.400000006","correct":true,"confidence":4},{"trial_n":102,"span":12,"encoder":"070975400492","distractor":"070975400412","target":"present","response":"present","rt":"3791.3000000045","correct":true,"confidence":3},{"trial_n":103,"span":12,"encoder":"077644319947","distractor":"077684319947","target":"absent","response":"absent","rt":"2846.6999999955","correct":true,"confidence":3},{"trial_n":104,"span":13,"encoder":"6261369573171","distractor":"6261369573177","target":"present","response":"present","rt":"4922.700000003","correct":true,"confidence":3},{"trial_n":105,"span":13,"encoder":"8900331472763","distractor":"8900331472743","target":"absent","response":"absent","rt":"4085.6999999955","correct":true,"confidence":5},{"trial_n":106,"span":14,"encoder":"37788904161855","distractor":"37788954161855","target":"present","response":"absent","rt":"8897","correct":false,"confidence":2},{"trial_n":107,"span":13,"encoder":"9998797680024","distractor":"9998797680028","target":"present","response":"present","rt":"2351.599999994","correct":true,"confidence":3},{"trial_n":108,"span":13,"encoder":"2262676342624","distractor":"2262676347624","target":"absent","response":"present","rt":"4798.6999999955","correct":false,"confidence":2},{"trial_n":109,"span":12,"encoder":"246185772002","distractor":"246185775002","target":"present","response":"present","rt":"2148.8000000045","correct":true,"confidence":4},{"trial_n":110,"span":12,"encoder":"634112845998","distractor":"634115845998","target":"present","response":"absent","rt":"4817.1000000015","correct":false,"confidence":2},{"trial_n":111,"span":11,"encoder":"75010060738","distractor":"75010060638","target":"absent","response":"absent","rt":"6285.799999997","correct":true,"confidence":4},{"trial_n":112,"span":11,"encoder":"15890005331","distractor":"15890005339","target":"absent","response":"absent","rt":"4054.1000000015","correct":true,"confidence":5},{"trial_n":113,"span":12,"encoder":"816902969092","distractor":"814902969092","target":"present","response":"present","rt":"11043.700000003","correct":true,"confidence":3},{"trial_n":114,"span":12,"encoder":"608253508293","distractor":"628253508293","target":"absent","response":"absent","rt":"4008.299999997","correct":true,"confidence":1},{"trial_n":115,"span":13,"encoder":"2215856009940","distractor":"2215156009940","target":"absent","response":"absent","rt":"6755.6000000015","correct":true,"confidence":2},{"trial_n":116,"span":13,"encoder":"3439997322474","distractor":"8439997322474","target":"present","response":"present","rt":"6925.1999999955","correct":true,"confidence":2},{"trial_n":117,"span":14,"encoder":"25606626421555","distractor":"25606426421555","target":"absent","response":"absent","rt":"11084.100000001","correct":true,"confidence":2},{"trial_n":118,"span":14,"encoder":"21995345528319","distractor":"91995345528319","target":"present","response":"present","rt":"7850.6999999955","correct":true,"confidence":2},{"trial_n":119,"span":15,"encoder":"898694472269625","distractor":"898697472269625","target":"absent","response":"absent","rt":"5871.6999999955","correct":true,"confidence":3},{"trial_n":120,"span":15,"encoder":"778781250925440","distractor":"778781250925840","target":"absent","response":"absent","rt":"1605.8999999985","correct":true,"confidence":4},{"trial_n":121,"span":16,"encoder":"9615980448483282","distractor":"9615980448483272","target":"present","response":"present","rt":"2259.5","correct":true,"confidence":5},{"trial_n":122,"span":16,"encoder":"9532464917132393","distractor":"9532464917232393","target":"present","response":"present","rt":"3602.700000003","correct":true,"confidence":1},{"trial_n":123,"span":17,"encoder":"23727243935634961","distractor":"23717243935634961","target":"present","response":"present","rt":"12905.699999996","correct":true,"confidence":2},{"trial_n":124,"span":17,"encoder":"04616171167234488","distractor":"04616171167234487","target":"absent","response":"absent","rt":"1782.5","correct":true,"confidence":5},{"trial_n":125,"span":18,"encoder":"189498512447959609","distractor":"189498512447959605","target":"present","response":"absent","rt":"3118.200000003","correct":false,"confidence":2},{"trial_n":126,"span":17,"encoder":"40133682222559101","distractor":"40133672222559101","target":"absent","response":"present","rt":"8859.299999997","correct":false,"confidence":1},{"trial_n":127,"span":16,"encoder":"9924797097912191","distractor":"9924997097912191","target":"present","response":"absent","rt":"9292.799999997","correct":false,"confidence":2},{"trial_n":128,"span":15,"encoder":"616073630946420","distractor":"016073630946420","target":"present","response":"present","rt":"6820.6000000015","correct":true,"confidence":3},{"trial_n":129,"span":15,"encoder":"719183834167569","distractor":"715183834167569","target":"present","response":"absent","rt":"2484","correct":false,"confidence":1},{"trial_n":130,"span":14,"encoder":"48821575180364","distractor":"48821575180360","target":"absent","response":"absent","rt":"3427.1000000015","correct":true,"confidence":4},{"trial_n":131,"span":14,"encoder":"98018623783103","distractor":"98018223783103","target":"absent","response":"present","rt":"3844.6999999955","correct":false,"confidence":3},{"trial_n":132,"span":13,"encoder":"5210093736787","distractor":"5210073736787","target":"present","response":"present","rt":"7943","correct":true,"confidence":2},{"trial_n":133,"span":13,"encoder":"8689421007648","distractor":"8689421007642","target":"present","response":"present","rt":"5004.6999999955","correct":true,"confidence":3},{"trial_n":134,"span":14,"encoder":"84698639928662","distractor":"84698639228662","target":"absent","response":"absent","rt":"8911.8000000045","correct":true,"confidence":3},{"trial_n":135,"span":14,"encoder":"32843387805874","distractor":"32843387804874","target":"absent","response":"present","rt":"3797.5","correct":false,"confidence":2},{"trial_n":136,"span":13,"encoder":"9988092998170","distractor":"9088092998170","target":"present","response":"present","rt":"5178.1000000015","correct":true,"confidence":4},{"trial_n":137,"span":13,"encoder":"9865716153886","distractor":"9855716153886","target":"present","response":"absent","rt":"5852.3999999985","correct":false,"confidence":3},{"trial_n":138,"span":12,"encoder":"575115259744","distractor":"575115259743","target":"present","response":"present","rt":"1376.3000000045","correct":true,"confidence":5},{"trial_n":139,"span":12,"encoder":"826683228984","distractor":"826683228284","target":"present","response":"present","rt":"6240.1000000015","correct":true,"confidence":4},{"trial_n":140,"span":13,"encoder":"5009851045742","distractor":"5009851045542","target":"absent","response":"absent","rt":"3526.799999997","correct":true,"confidence":4}]