[{"trial_n":1,"span":8,"encoder":"47892268","distractor":"27892268","target":"present","response":"present","rt":"3581.1000000089","correct":true,"confidence":-1},{"trial_n":2,"span":8,"encoder":"62935690","distractor":"62935640","target":"present","response":"present","rt":"2937.099999994","correct":true,"confidence":-1},{"trial_n":3,"span":10,"encoder":"1728550271","distractor":"1728558271","target":"absent","response":"present","rt":"2692.700000003","correct":false,"confidence":-1},{"trial_n":4,"span":8,"encoder":"46594818","distractor":"76594818","target":"absent","response":"absent","rt":"1868.5","correct":true,"confidence":-1},{"trial_n":5,"span":8,"encoder":"48098809","distractor":"78098809","target":"present","response":"present","rt":"2415.400000006","correct":true,"confidence":-1},{"trial_n":6,"span":10,"encoder":"3929016226","distractor":"3929016224","target":"absent","response":"absent","rt":"4420.8000000119","correct":true,"confidence":-1},{"trial_n":7,"span":10,"encoder":"5451677166","distractor":"5451977166","target":"absent","response":"absent","rt":"2445.400000006","correct":true,"confidence":-1},{"trial_n":8,"span":12,"encoder":"092313000744","distractor":"992313000744","target":"present","response":"absent","rt":"3676.200000003","correct":false,"confidence":-1},{"trial_n":9,"span":10,"encoder":"3099369248","distractor":"3099169248","target":"absent","response":"absent","rt":"3175.200000003","correct":true,"confidence":-1},{"trial_n":10,"span":10,"encoder":"9591628771","distractor":"9591628770","target":"absent","response":"absent","rt":"3791","correct":true,"confidence":-1},{"trial_n":11,"span":12,"encoder":"861804446344","distractor":"861824446344","target":"absent","response":"absent","rt":"4443","correct":true,"confidence":-1},{"trial_n":12,"span":12,"encoder":"573422842586","distractor":"573422841586","target":"present","response":"absent","rt":"4153","correct":false,"confidence":-1},{"trial_n":13,"span":11,"encoder":"89938395484","distractor":"89908395484","target":"absent","response":"absent","rt":"2091.900000006","correct":true,"confidence":-1},{"trial_n":14,"span":11,"encoder":"90272195981","distractor":"90232195981","target":"absent","response":"present","rt":"4291.400000006","correct":false,"confidence":-1},{"trial_n":15,"span":10,"encoder":"6097875676","distractor":"6091875676","target":"present","response":"absent","rt":"3904.5","correct":false,"confidence":-1},{"trial_n":16,"span":9,"encoder":"841219166","distractor":"841219165","target":"present","response":"present","rt":"2239.799999997","correct":true,"confidence":-1},{"trial_n":17,"span":9,"encoder":"285501229","distractor":"385501229","target":"absent","response":"absent","rt":"1507.799999997","correct":true,"confidence":-1},{"trial_n":18,"span":10,"encoder":"0330239937","distractor":"8330239937","target":"absent","response":"present","rt":"4345.200000003","correct":false,"confidence":-1},{"trial_n":19,"span":9,"encoder":"654057870","distractor":"054057870","target":"present","response":"present","rt":"4530","correct":true,"confidence":-1},{"trial_n":20,"span":9,"encoder":"887400622","distractor":"887400422","target":"present","response":"present","rt":"3299.3000000119","correct":true,"confidence":-1},{"trial_n":21,"span":10,"encoder":"0697894777","distractor":"0697994777","target":"absent","response":"present","rt":"5037.200000003","correct":false,"confidence":4},{"trial_n":22,"span":9,"encoder":"151622624","distractor":"451622624","target":"absent","response":"present","rt":"6415.099999994","correct":false,"confidence":4},{"trial_n":23,"span":8,"encoder":"36900918","distractor":"31900918","target":"absent","response":"absent","rt":"2411.5","correct":true,"confidence":5},{"trial_n":24,"span":8,"encoder":"44929057","distractor":"44921057","target":"absent","response":"absent","rt":"4535.8000000119","correct":true,"confidence":5},{"trial_n":25,"span":9,"encoder":"141985945","distractor":"141935945","target":"absent","response":"absent","rt":"3987.400000006","correct":true,"confidence":4},{"trial_n":26,"span":9,"encoder":"751525627","distractor":"758525627","target":"present","response":"absent","rt":"3665.900000006","correct":false,"confidence":4},{"trial_n":27,"span":8,"encoder":"13026578","distractor":"18026578","target":"present","response":"present","rt":"3319.799999997","correct":true,"confidence":5},{"trial_n":28,"span":8,"encoder":"89962350","distractor":"89972350","target":"present","response":"present","rt":"3692.1999999881","correct":true,"confidence":4},{"trial_n":29,"span":9,"encoder":"618862650","distractor":"618862670","target":"present","response":"present","rt":"3947.299999997","correct":true,"confidence":5},{"trial_n":30,"span":9,"encoder":"308955345","distractor":"308955347","target":"present","response":"present","rt":"3840.299999997","correct":true,"confidence":4},{"trial_n":31,"span":10,"encoder":"5167738598","distractor":"5167738998","target":"absent","response":"absent","rt":"4758.400000006","correct":true,"confidence":3},{"trial_n":32,"span":10,"encoder":"3670473075","distractor":"3670473005","target":"present","response":"present","rt":"4727.5","correct":true,"confidence":3},{"trial_n":33,"span":11,"encoder":"83067501286","distractor":"73067501286","target":"present","response":"absent","rt":"5954.400000006","correct":false,"confidence":3},{"trial_n":34,"span":10,"encoder":"8827765799","distractor":"8827760799","target":"absent","response":"absent","rt":"3855.400000006","correct":true,"confidence":4},{"trial_n":35,"span":10,"encoder":"8045027790","distractor":"8045025790","target":"absent","response":"absent","rt":"3039.700000003","correct":true,"confidence":5},{"trial_n":36,"span":11,"encoder":"29663964511","distractor":"69663964511","target":"present","response":"present","rt":"2005.1000000089","correct":true,"confidence":1},{"trial_n":37,"span":11,"encoder":"58000649531","distractor":"58000640531","target":"present","response":"present","rt":"6327","correct":true,"confidence":3},{"trial_n":38,"span":12,"encoder":"521309404920","distractor":"524309404920","target":"present","response":"present","rt":"8533.599999994","correct":true,"confidence":2},{"trial_n":39,"span":12,"encoder":"917025706763","distractor":"917025703763","target":"absent","response":"present","rt":"11049.099999994","correct":false,"confidence":4},{"trial_n":40,"span":11,"encoder":"70505358417","distractor":"20505358417","target":"present","response":"absent","rt":"6903","correct":false,"confidence":3},{"trial_n":41,"span":10,"encoder":"9138597954","distractor":"9138557954","target":"absent","response":"absent","rt":"4688.700000003","correct":true,"confidence":5},{"trial_n":42,"span":10,"encoder":"0164408953","distractor":"0164208953","target":"absent","response":"absent","rt":"3630.5","correct":true,"confidence":4},{"trial_n":43,"span":11,"encoder":"79840762661","distractor":"75840762661","target":"absent","response":"absent","rt":"9926.1000000089","correct":true,"confidence":3},{"trial_n":44,"span":11,"encoder":"90030286651","distractor":"90030256651","target":"present","response":"absent","rt":"11943.5","correct":false,"confidence":3},{"trial_n":45,"span":10,"encoder":"7380180634","distractor":"7280180634","target":"present","response":"present","rt":"5246.1000000089","correct":true,"confidence":4},{"trial_n":46,"span":10,"encoder":"3130663782","distractor":"3180663782","target":"absent","response":"absent","rt":"6144.299999997","correct":true,"confidence":4},{"trial_n":47,"span":11,"encoder":"98284195100","distractor":"98284195103","target":"present","response":"present","rt":"7184.700000003","correct":true,"confidence":4},{"trial_n":48,"span":11,"encoder":"34818012733","distractor":"34878012733","target":"present","response":"present","rt":"5636.900000006","correct":true,"confidence":3},{"trial_n":49,"span":12,"encoder":"528660047347","distractor":"528650047347","target":"present","response":"present","rt":"7169.599999994","correct":true,"confidence":4},{"trial_n":50,"span":12,"encoder":"381206873255","distractor":"381306873255","target":"absent","response":"absent","rt":"5417.099999994","correct":true,"confidence":2},{"trial_n":51,"span":13,"encoder":"7039999736750","distractor":"7839999736750","target":"present","response":"present","rt":"6955.599999994","correct":true,"confidence":4},{"trial_n":52,"span":13,"encoder":"6915326772698","distractor":"6915386772698","target":"absent","response":"absent","rt":"5065.5","correct":true,"confidence":3},{"trial_n":53,"span":14,"encoder":"55191080251627","distractor":"55191080451627","target":"absent","response":"present","rt":"2618.1999999881","correct":false,"confidence":2},{"trial_n":54,"span":13,"encoder":"9864140280925","distractor":"9864140280125","target":"present","response":"present","rt":"7390.6000000089","correct":true,"confidence":2},{"trial_n":55,"span":13,"encoder":"8012653729901","distractor":"8013653729901","target":"present","response":"present","rt":"4338.3999999911","correct":true,"confidence":3},{"trial_n":56,"span":14,"encoder":"26589486419952","distractor":"26589486499952","target":"present","response":"present","rt":"4853.599999994","correct":true,"confidence":3},{"trial_n":57,"span":14,"encoder":"86621458405904","distractor":"46621458405904","target":"absent","response":"absent","rt":"14736.400000006","correct":true,"confidence":1},{"trial_n":58,"span":15,"encoder":"092034498147423","distractor":"032034498147423","target":"present","response":"absent","rt":"7690.700000003","correct":false,"confidence":4},{"trial_n":59,"span":14,"encoder":"17614828489992","distractor":"17114828489992","target":"present","response":"present","rt":"8762.200000003","correct":true,"confidence":3},{"trial_n":60,"span":14,"encoder":"32968631881905","distractor":"32968631891905","target":"absent","response":"absent","rt":"2854.200000003","correct":true,"confidence":5},{"trial_n":61,"span":15,"encoder":"332661434128676","distractor":"332661444128676","target":"absent","response":"absent","rt":"3657.6999999881","correct":true,"confidence":4},{"trial_n":62,"span":15,"encoder":"807392486217150","distractor":"807392486517150","target":"absent","response":"absent","rt":"6284","correct":true,"confidence":2},{"trial_n":63,"span":16,"encoder":"9032966683874410","distractor":"9032966683804410","target":"absent","response":"absent","rt":"15792.299999997","correct":true,"confidence":2},{"trial_n":64,"span":16,"encoder":"3653447770413923","distractor":"3653446770413923","target":"present","response":"present","rt":"6201.5","correct":true,"confidence":3},{"trial_n":65,"span":17,"encoder":"56006145337875505","distractor":"56096145337875505","target":"absent","response":"present","rt":"4501.1999999881","correct":false,"confidence":2},{"trial_n":66,"span":16,"encoder":"0589223270705136","distractor":"0589223470705136","target":"present","response":"present","rt":"7237.799999997","correct":true,"confidence":3},{"trial_n":67,"span":16,"encoder":"5450200871586398","distractor":"5450204871586398","target":"present","response":"present","rt":"9401.599999994","correct":true,"confidence":2},{"trial_n":68,"span":17,"encoder":"96500483803680782","distractor":"16500483803680782","target":"present","response":"absent","rt":"7827.200000003","correct":false,"confidence":2},{"trial_n":69,"span":16,"encoder":"5763249481893690","distractor":"5763249981893690","target":"present","response":"absent","rt":"3995.1000000089","correct":false,"confidence":1},{"trial_n":70,"span":15,"encoder":"661414142665103","distractor":"661414140665103","target":"absent","response":"present","rt":"10283.299999997","correct":false,"confidence":4},{"trial_n":71,"span":8,"encoder":"79971786","distractor":"79671786","target":"present","response":"present","rt":"4296.8999999911","correct":true,"confidence":-1},{"trial_n":72,"span":8,"encoder":"63965789","distractor":"33965789","target":"present","response":"present","rt":"2627","correct":true,"confidence":-1},{"trial_n":73,"span":9,"encoder":"708396499","distractor":"709396499","target":"absent","response":"present","rt":"3689.6999999881","correct":false,"confidence":-1},{"trial_n":74,"span":8,"encoder":"85903041","distractor":"85903081","target":"absent","response":"absent","rt":"4551.099999994","correct":true,"confidence":-1},{"trial_n":75,"span":8,"encoder":"85251511","distractor":"85253511","target":"present","response":"present","rt":"3529.799999997","correct":true,"confidence":-1},{"trial_n":76,"span":9,"encoder":"918536110","distractor":"418536110","target":"present","response":"present","rt":"3361.400000006","correct":true,"confidence":-1},{"trial_n":77,"span":9,"encoder":"811198439","distractor":"815198439","target":"present","response":"present","rt":"4348.1999999881","correct":true,"confidence":-1},{"trial_n":78,"span":10,"encoder":"5742700186","distractor":"5742600186","target":"absent","response":"absent","rt":"4481.900000006","correct":true,"confidence":-1},{"trial_n":79,"span":10,"encoder":"1163720498","distractor":"1163120498","target":"absent","response":"absent","rt":"4785.700000003","correct":true,"confidence":-1},{"trial_n":80,"span":11,"encoder":"74702815274","distractor":"74705815274","target":"present","response":"present","rt":"13607.899999991","correct":true,"confidence":-1},{"trial_n":81,"span":11,"encoder":"46477326325","distractor":"46474326325","target":"absent","response":"absent","rt":"3219.599999994","correct":true,"confidence":-1},{"trial_n":82,"span":12,"encoder":"522976511848","distractor":"522975511848","target":"present","response":"absent","rt":"2684.099999994","correct":false,"confidence":-1},{"trial_n":83,"span":11,"encoder":"47571603141","distractor":"47591603141","target":"absent","response":"absent","rt":"92000.5","correct":true,"confidence":-1},{"trial_n":84,"span":11,"encoder":"71134465217","distractor":"71134465211","target":"absent","response":"absent","rt":"2237.599999994","correct":true,"confidence":-1},{"trial_n":85,"span":12,"encoder":"584316969408","distractor":"589316969408","target":"present","response":"present","rt":"2833.8999999911","correct":true,"confidence":-1},{"trial_n":86,"span":12,"encoder":"902246513410","distractor":"906246513410","target":"absent","response":"present","rt":"39788","correct":false,"confidence":-1},{"trial_n":87,"span":11,"encoder":"88007807884","distractor":"88007507884","target":"present","response":"present","rt":"3947.299999997","correct":true,"confidence":-1},{"trial_n":88,"span":11,"encoder":"40434872898","distractor":"40734872898","target":"absent","response":"present","rt":"6751","correct":false,"confidence":-1},{"trial_n":89,"span":10,"encoder":"8907198337","distractor":"8307198337","target":"absent","response":"absent","rt":"7930","correct":true,"confidence":-1},{"trial_n":90,"span":10,"encoder":"7622982323","distractor":"7622912323","target":"absent","response":"absent","rt":"2589.400000006","correct":true,"confidence":-1},{"trial_n":91,"span":11,"encoder":"39943268522","distractor":"39943268592","target":"absent","response":"absent","rt":"2120.8999999911","correct":true,"confidence":5},{"trial_n":92,"span":11,"encoder":"20458761245","distractor":"20458761243","target":"absent","response":"absent","rt":"3550","correct":true,"confidence":5},{"trial_n":93,"span":12,"encoder":"842355053616","distractor":"842355053816","target":"absent","response":"absent","rt":"2458.099999994","correct":true,"confidence":5},{"trial_n":94,"span":12,"encoder":"547863473588","distractor":"547863471588","target":"present","response":"present","rt":"2839.900000006","correct":true,"confidence":4},{"trial_n":95,"span":13,"encoder":"8720649626637","distractor":"8720699626637","target":"present","response":"present","rt":"6734.3999999911","correct":true,"confidence":3},{"trial_n":96,"span":13,"encoder":"3648555603449","distractor":"3648555103449","target":"absent","response":"absent","rt":"3491.799999997","correct":true,"confidence":4},{"trial_n":97,"span":14,"encoder":"29427066271887","distractor":"99427066271887","target":"absent","response":"present","rt":"7488.599999994","correct":false,"confidence":3},{"trial_n":98,"span":13,"encoder":"0236799918779","distractor":"0266799918779","target":"absent","response":"absent","rt":"6404.400000006","correct":true,"confidence":3},{"trial_n":99,"span":13,"encoder":"1306178107193","distractor":"1306178109193","target":"absent","response":"absent","rt":"7943.400000006","correct":true,"confidence":4},{"trial_n":100,"span":14,"encoder":"74123073146035","distractor":"74143073146035","target":"absent","response":"present","rt":"5597.5","correct":false,"confidence":4},{"trial_n":101,"span":13,"encoder":"4199146688501","distractor":"9199146688501","target":"absent","response":"absent","rt":"3116.8999999911","correct":true,"confidence":5},{"trial_n":102,"span":13,"encoder":"3461907825099","distractor":"3461957825099","target":"present","response":"absent","rt":"8792.1999999881","correct":false,"confidence":3},{"trial_n":103,"span":12,"encoder":"669057971218","distractor":"669057571218","target":"present","response":"present","rt":"3837.200000003","correct":true,"confidence":3},{"trial_n":104,"span":12,"encoder":"267541589713","distractor":"267441589713","target":"absent","response":"absent","rt":"8607.6000000089","correct":true,"confidence":4},{"trial_n":105,"span":13,"encoder":"7875797139595","distractor":"7874797139595","target":"present","response":"present","rt":"5305.700000003","correct":true,"confidence":4},{"trial_n":106,"span":13,"encoder":"8205620970351","distractor":"8205620970357","target":"present","response":"present","rt":"2099.3999999911","correct":true,"confidence":5},{"trial_n":107,"span":14,"encoder":"12070057205853","distractor":"12070057225853","target":"present","response":"present","rt":"4391.400000006","correct":true,"confidence":4},{"trial_n":108,"span":14,"encoder":"60471477079988","distractor":"60471477079908","target":"present","response":"present","rt":"2006.099999994","correct":true,"confidence":5},{"trial_n":109,"span":15,"encoder":"247442601341605","distractor":"147442601341605","target":"absent","response":"present","rt":"4786.299999997","correct":false,"confidence":3},{"trial_n":110,"span":14,"encoder":"50751542900026","distractor":"50751542900096","target":"present","response":"present","rt":"2151.700000003","correct":true,"confidence":5},{"trial_n":111,"span":14,"encoder":"05229715997770","distractor":"05329715997770","target":"present","response":"present","rt":"6998.400000006","correct":true,"confidence":3},{"trial_n":112,"span":15,"encoder":"063048427332441","distractor":"063048427338441","target":"present","response":"present","rt":"2356.1000000089","correct":true,"confidence":5},{"trial_n":113,"span":15,"encoder":"625421975453322","distractor":"625421975493322","target":"present","response":"present","rt":"4662","correct":true,"confidence":4},{"trial_n":114,"span":16,"encoder":"4825968657623402","distractor":"4825968657123402","target":"present","response":"present","rt":"5280.799999997","correct":true,"confidence":3},{"trial_n":115,"span":16,"encoder":"4973614927435801","distractor":"4973614922435801","target":"absent","response":"absent","rt":"6445.799999997","correct":true,"confidence":4},{"trial_n":116,"span":17,"encoder":"65429760708432165","distractor":"65429760708436165","target":"present","response":"present","rt":"2786.900000006","correct":true,"confidence":5},{"trial_n":117,"span":17,"encoder":"37192588700409400","distractor":"37192588700009400","target":"present","response":"absent","rt":"4261.099999994","correct":false,"confidence":4},{"trial_n":118,"span":16,"encoder":"0508167534248461","distractor":"0508167534258461","target":"present","response":"present","rt":"3358.299999997","correct":true,"confidence":4},{"trial_n":119,"span":16,"encoder":"3388968058582580","distractor":"3988968058582580","target":"present","response":"present","rt":"6583.200000003","correct":true,"confidence":4},{"trial_n":120,"span":17,"encoder":"44986104278453176","distractor":"44986104278453166","target":"absent","response":"absent","rt":"2026.299999997","correct":true,"confidence":5},{"trial_n":121,"span":17,"encoder":"72751147376913465","distractor":"72751143376913465","target":"present","response":"present","rt":"6684.3000000119","correct":true,"confidence":3},{"trial_n":122,"span":18,"encoder":"123607709488427038","distractor":"123607709428427038","target":"absent","response":"present","rt":"9021.3999999911","correct":false,"confidence":3},{"trial_n":123,"span":17,"encoder":"84866125051570755","distractor":"84861125051570755","target":"present","response":"present","rt":"7903.5","correct":true,"confidence":3},{"trial_n":124,"span":17,"encoder":"41927827478740566","distractor":"41927827478740562","target":"present","response":"present","rt":"2290.700000003","correct":true,"confidence":5},{"trial_n":125,"span":18,"encoder":"491760623222264417","distractor":"491760423222264417","target":"absent","response":"absent","rt":"9300.700000003","correct":true,"confidence":3},{"trial_n":126,"span":18,"encoder":"095866076154885336","distractor":"075866076154885336","target":"absent","response":"present","rt":"6353.5","correct":false,"confidence":3},{"trial_n":127,"span":17,"encoder":"62306651245953116","distractor":"62306651245954116","target":"absent","response":"absent","rt":"4758.200000003","correct":true,"confidence":4},{"trial_n":128,"span":17,"encoder":"32009458120056716","distractor":"32003458120056716","target":"present","response":"absent","rt":"13618.800000012","correct":false,"confidence":5},{"trial_n":129,"span":16,"encoder":"7401517094327441","distractor":"7401517097327441","target":"present","response":"present","rt":"12207.5","correct":true,"confidence":4},{"trial_n":130,"span":16,"encoder":"6759436656342822","distractor":"6759436656242822","target":"absent","response":"present","rt":"11325.400000006","correct":false,"confidence":3},{"trial_n":131,"span":15,"encoder":"002122474757917","distractor":"002122474757957","target":"present","response":"present","rt":"1877.5","correct":true,"confidence":5},{"trial_n":132,"span":15,"encoder":"449251258934647","distractor":"449251258931647","target":"absent","response":"absent","rt":"5759.900000006","correct":true,"confidence":4},{"trial_n":133,"span":16,"encoder":"7875617618641933","distractor":"7875617688641933","target":"absent","response":"present","rt":"3035.1000000089","correct":false,"confidence":1},{"trial_n":134,"span":15,"encoder":"166000498235692","distractor":"163000498235692","target":"absent","response":"present","rt":"9001.599999994","correct":false,"confidence":3},{"trial_n":135,"span":14,"encoder":"25213637444273","distractor":"25213637494273","target":"present","response":"present","rt":"8574.799999997","correct":true,"confidence":4},{"trial_n":136,"span":14,"encoder":"50232354943621","distractor":"50232354945621","target":"present","response":"absent","rt":"2994.799999997","correct":false,"confidence":4},{"trial_n":137,"span":13,"encoder":"0584826903158","distractor":"0584856903158","target":"present","response":"absent","rt":"3992.599999994","correct":false,"confidence":3},{"trial_n":138,"span":12,"encoder":"088445227969","distractor":"088745227969","target":"absent","response":"present","rt":"4643.799999997","correct":false,"confidence":4},{"trial_n":139,"span":11,"encoder":"78969358784","distractor":"78959358784","target":"absent","response":"present","rt":"5323.5","correct":false,"confidence":3},{"trial_n":140,"span":10,"encoder":"5788857012","distractor":"0788857012","target":"present","response":"present","rt":"4627.900000006","correct":true,"confidence":4}]