[{"trial_n":1,"n_dots":4.25,"target":"right","response":"left","rt":12606.5,"correct":false,"confidence":-1},{"trial_n":2,"n_dots":4.25,"target":"right","response":"left","rt":1270.8999999999,"correct":false,"confidence":-1},{"trial_n":3,"n_dots":4.65,"target":"right","response":"right","rt":1172.2000000002,"correct":true,"confidence":-1},{"trial_n":4,"n_dots":4.65,"target":"right","response":"right","rt":1025.7000000002,"correct":true,"confidence":-1},{"trial_n":5,"n_dots":4.25,"target":"left","response":"left","rt":621.80000000028,"correct":true,"confidence":-1},{"trial_n":6,"n_dots":4.25,"target":"left","response":"left","rt":685.89999999991,"correct":true,"confidence":-1},{"trial_n":7,"n_dots":3.85,"target":"left","response":"left","rt":474,"correct":true,"confidence":-1},{"trial_n":8,"n_dots":3.85,"target":"right","response":"left","rt":799.10000000009,"correct":false,"confidence":-1},{"trial_n":9,"n_dots":4.05,"target":"right","response":"left","rt":764.20000000019,"correct":false,"confidence":-1},{"trial_n":10,"n_dots":4.25,"target":"right","response":"left","rt":971,"correct":false,"confidence":-1},{"trial_n":11,"n_dots":4.45,"target":"right","response":"right","rt":736.5,"correct":true,"confidence":-1},{"trial_n":12,"n_dots":4.45,"target":"left","response":"left","rt":666,"correct":true,"confidence":-1},{"trial_n":13,"n_dots":4.35,"target":"left","response":"left","rt":566.60000000009,"correct":true,"confidence":-1},{"trial_n":14,"n_dots":4.35,"target":"left","response":"left","rt":218.10000000009,"correct":true,"confidence":-1},{"trial_n":15,"n_dots":4.25,"target":"right","response":"left","rt":702.5,"correct":false,"confidence":-1},{"trial_n":16,"n_dots":4.35,"target":"right","response":"right","rt":993.60000000009,"correct":true,"confidence":-1},{"trial_n":17,"n_dots":4.35,"target":"left","response":"left","rt":320.5,"correct":true,"confidence":-1},{"trial_n":18,"n_dots":4.25,"target":"left","response":"left","rt":50.799999999814,"correct":true,"confidence":-1},{"trial_n":19,"n_dots":4.25,"target":"right","response":"right","rt":523.10000000009,"correct":true,"confidence":-1},{"trial_n":20,"n_dots":4.15,"target":"left","response":"left","rt":108.89999999991,"correct":true,"confidence":-1},{"trial_n":21,"n_dots":4.15,"target":"right","response":"right","rt":529,"correct":true,"confidence":1},{"trial_n":22,"n_dots":4.05,"target":"left","response":"left","rt":628.5,"correct":true,"confidence":4},{"trial_n":23,"n_dots":4.05,"target":"left","response":"left","rt":69.299999999814,"correct":true,"confidence":4},{"trial_n":24,"n_dots":3.95,"target":"left","response":"left","rt":310.10000000009,"correct":true,"confidence":5},{"trial_n":25,"n_dots":3.95,"target":"left","response":"left","rt":139.69999999972,"correct":true,"confidence":5},{"trial_n":26,"n_dots":3.85,"target":"right","response":"left","rt":226.30000000028,"correct":false,"confidence":3},{"trial_n":27,"n_dots":3.95,"target":"left","response":"left","rt":180.89999999991,"correct":true,"confidence":4},{"trial_n":28,"n_dots":3.95,"target":"left","response":"left","rt":75.299999999814,"correct":true,"confidence":4},{"trial_n":29,"n_dots":3.85,"target":"left","response":"left","rt":120.90000000037,"correct":true,"confidence":4},{"trial_n":30,"n_dots":3.85,"target":"left","response":"left","rt":557.89999999991,"correct":true,"confidence":4},{"trial_n":31,"n_dots":3.75,"target":"right","response":"right","rt":383,"correct":true,"confidence":5},{"trial_n":32,"n_dots":3.75,"target":"right","response":"left","rt":722.39999999991,"correct":false,"confidence":3},{"trial_n":33,"n_dots":3.85,"target":"left","response":"left","rt":109.79999999981,"correct":true,"confidence":4},{"trial_n":34,"n_dots":3.85,"target":"right","response":"left","rt":307.79999999981,"correct":false,"confidence":2},{"trial_n":35,"n_dots":3.95,"target":"left","response":"left","rt":217.89999999991,"correct":true,"confidence":4},{"trial_n":36,"n_dots":3.95,"target":"right","response":"left","rt":47.900000000373,"correct":false,"confidence":2},{"trial_n":37,"n_dots":4.05,"target":"right","response":"right","rt":1148.5,"correct":true,"confidence":1},{"trial_n":38,"n_dots":4.05,"target":"left","response":"left","rt":519.89999999991,"correct":true,"confidence":4},{"trial_n":39,"n_dots":3.95,"target":"right","response":"right","rt":993.5,"correct":true,"confidence":2},{"trial_n":40,"n_dots":3.95,"target":"left","response":"left","rt":581.5,"correct":true,"confidence":3},{"trial_n":41,"n_dots":3.85,"target":"left","response":"left","rt":583.70000000019,"correct":true,"confidence":3},{"trial_n":42,"n_dots":3.85,"target":"right","response":"right","rt":403,"correct":true,"confidence":4},{"trial_n":43,"n_dots":3.75,"target":"left","response":"left","rt":262.80000000028,"correct":true,"confidence":5},{"trial_n":44,"n_dots":3.75,"target":"right","response":"right","rt":1731.6999999997,"correct":true,"confidence":1},{"trial_n":45,"n_dots":3.65,"target":"left","response":"left","rt":3706.1000000001,"correct":true,"confidence":1},{"trial_n":46,"n_dots":3.65,"target":"right","response":"left","rt":2083.2000000002,"correct":false,"confidence":4},{"trial_n":47,"n_dots":3.75,"target":"right","response":"left","rt":359.79999999981,"correct":false,"confidence":2},{"trial_n":48,"n_dots":3.85,"target":"right","response":"right","rt":714.59999999963,"correct":true,"confidence":2},{"trial_n":49,"n_dots":3.85,"target":"right","response":"right","rt":916.20000000019,"correct":true,"confidence":1},{"trial_n":50,"n_dots":3.75,"target":"left","response":"left","rt":339.39999999991,"correct":true,"confidence":4},{"trial_n":51,"n_dots":3.75,"target":"left","response":"left","rt":114.39999999991,"correct":true,"confidence":4},{"trial_n":52,"n_dots":3.65,"target":"right","response":"left","rt":1195.5,"correct":false,"confidence":1},{"trial_n":53,"n_dots":3.75,"target":"right","response":"left","rt":1075.8999999999,"correct":false,"confidence":2},{"trial_n":54,"n_dots":3.85,"target":"right","response":"left","rt":279.80000000028,"correct":false,"confidence":2},{"trial_n":55,"n_dots":3.95,"target":"left","response":"left","rt":379.69999999972,"correct":true,"confidence":3},{"trial_n":56,"n_dots":3.95,"target":"right","response":"right","rt":1159.5,"correct":true,"confidence":2},{"trial_n":57,"n_dots":3.85,"target":"left","response":"left","rt":568.89999999991,"correct":true,"confidence":3},{"trial_n":58,"n_dots":3.85,"target":"right","response":"left","rt":760.30000000028,"correct":false,"confidence":2},{"trial_n":59,"n_dots":3.95,"target":"left","response":"left","rt":174.10000000009,"correct":true,"confidence":4},{"trial_n":60,"n_dots":3.95,"target":"left","response":"left","rt":996.60000000009,"correct":true,"confidence":2},{"trial_n":61,"n_dots":3.85,"target":"left","response":"left","rt":104.39999999991,"correct":true,"confidence":4},{"trial_n":62,"n_dots":3.85,"target":"left","response":"left","rt":557.70000000019,"correct":true,"confidence":4},{"trial_n":63,"n_dots":3.75,"target":"left","response":"right","rt":979.60000000009,"correct":false,"confidence":2},{"trial_n":64,"n_dots":3.85,"target":"right","response":"right","rt":745.39999999991,"correct":true,"confidence":4},{"trial_n":65,"n_dots":3.85,"target":"left","response":"left","rt":627.70000000019,"correct":true,"confidence":4},{"trial_n":66,"n_dots":3.75,"target":"left","response":"left","rt":361.10000000009,"correct":true,"confidence":3},{"trial_n":67,"n_dots":3.75,"target":"right","response":"right","rt":1105.5,"correct":true,"confidence":2},{"trial_n":68,"n_dots":3.65,"target":"left","response":"left","rt":1502.8999999999,"correct":true,"confidence":2},{"trial_n":69,"n_dots":3.65,"target":"right","response":"right","rt":1011.8999999999,"correct":true,"confidence":1},{"trial_n":70,"n_dots":3.55,"target":"left","response":"left","rt":620.19999999972,"correct":true,"confidence":4},{"trial_n":71,"n_dots":3.55,"target":"left","response":"right","rt":1033.6999999997,"correct":false,"confidence":1},{"trial_n":72,"n_dots":3.65,"target":"left","response":"left","rt":716.20000000019,"correct":true,"confidence":4},{"trial_n":73,"n_dots":3.65,"target":"right","response":"right","rt":339.20000000019,"correct":true,"confidence":4},{"trial_n":74,"n_dots":3.55,"target":"right","response":"right","rt":1045.2000000002,"correct":true,"confidence":1},{"trial_n":75,"n_dots":3.55,"target":"left","response":"left","rt":1108.4000000004,"correct":true,"confidence":1},{"trial_n":76,"n_dots":3.45,"target":"left","response":"left","rt":607.89999999991,"correct":true,"confidence":2},{"trial_n":77,"n_dots":3.45,"target":"right","response":"right","rt":959.10000000009,"correct":true,"confidence":1},{"trial_n":78,"n_dots":3.35,"target":"left","response":"left","rt":524.19999999972,"correct":true,"confidence":2},{"trial_n":79,"n_dots":3.35,"target":"right","response":"right","rt":546.09999999963,"correct":true,"confidence":1},{"trial_n":80,"n_dots":3.25,"target":"right","response":"right","rt":1119.2000000002,"correct":true,"confidence":1},{"trial_n":81,"n_dots":3.25,"target":"left","response":"right","rt":1761.6999999997,"correct":false,"confidence":2},{"trial_n":82,"n_dots":3.35,"target":"right","response":"right","rt":890.5,"correct":true,"confidence":1},{"trial_n":83,"n_dots":3.35,"target":"left","response":"left","rt":508.10000000009,"correct":true,"confidence":2},{"trial_n":84,"n_dots":3.25,"target":"left","response":"right","rt":1287.5999999996,"correct":false,"confidence":2},{"trial_n":85,"n_dots":3.35,"target":"right","response":"right","rt":1291.5,"correct":true,"confidence":1},{"trial_n":86,"n_dots":3.35,"target":"right","response":"right","rt":776.80000000028,"correct":true,"confidence":3},{"trial_n":87,"n_dots":3.25,"target":"right","response":"right","rt":877.90000000037,"correct":true,"confidence":2},{"trial_n":88,"n_dots":3.25,"target":"left","response":"right","rt":940.30000000028,"correct":false,"confidence":3},{"trial_n":89,"n_dots":3.35,"target":"right","response":"right","rt":381.90000000037,"correct":true,"confidence":4},{"trial_n":90,"n_dots":3.35,"target":"left","response":"left","rt":482.29999999981,"correct":true,"confidence":3},{"trial_n":91,"n_dots":3.25,"target":"right","response":"left","rt":1322.8999999999,"correct":false,"confidence":1},{"trial_n":92,"n_dots":3.35,"target":"right","response":"right","rt":816.20000000019,"correct":true,"confidence":2},{"trial_n":93,"n_dots":3.35,"target":"left","response":"left","rt":542.10000000009,"correct":true,"confidence":4},{"trial_n":94,"n_dots":3.25,"target":"right","response":"right","rt":1068.7999999998,"correct":true,"confidence":1},{"trial_n":95,"n_dots":3.25,"target":"right","response":"left","rt":628.20000000019,"correct":false,"confidence":3},{"trial_n":96,"n_dots":3.35,"target":"right","response":"right","rt":839.80000000028,"correct":true,"confidence":4},{"trial_n":97,"n_dots":3.35,"target":"right","response":"right","rt":1015.1000000001,"correct":true,"confidence":3},{"trial_n":98,"n_dots":3.25,"target":"right","response":"right","rt":449.20000000019,"correct":true,"confidence":3},{"trial_n":99,"n_dots":3.25,"target":"left","response":"left","rt":1253.2999999998,"correct":true,"confidence":1},{"trial_n":100,"n_dots":3.15,"target":"left","response":"left","rt":704.29999999981,"correct":true,"confidence":3},{"trial_n":101,"n_dots":3.15,"target":"left","response":"right","rt":396.39999999991,"correct":false,"confidence":1},{"trial_n":102,"n_dots":3.25,"target":"left","response":"left","rt":488.89999999991,"correct":true,"confidence":4},{"trial_n":103,"n_dots":3.25,"target":"right","response":"left","rt":1710.8999999999,"correct":false,"confidence":1},{"trial_n":104,"n_dots":3.35,"target":"left","response":"left","rt":330,"correct":true,"confidence":4},{"trial_n":105,"n_dots":3.35,"target":"right","response":"right","rt":1078.2000000002,"correct":true,"confidence":4},{"trial_n":106,"n_dots":3.25,"target":"left","response":"left","rt":911.5,"correct":true,"confidence":3},{"trial_n":107,"n_dots":3.25,"target":"right","response":"right","rt":1014.6000000001,"correct":true,"confidence":1},{"trial_n":108,"n_dots":3.15,"target":"right","response":"left","rt":1200.3999999999,"correct":false,"confidence":1},{"trial_n":109,"n_dots":3.25,"target":"right","response":"left","rt":627.5,"correct":false,"confidence":2},{"trial_n":110,"n_dots":3.35,"target":"left","response":"left","rt":386.39999999991,"correct":true,"confidence":4},{"trial_n":111,"n_dots":3.35,"target":"left","response":"left","rt":513.70000000019,"correct":true,"confidence":3},{"trial_n":112,"n_dots":3.25,"target":"left","response":"left","rt":356.20000000019,"correct":true,"confidence":3},{"trial_n":113,"n_dots":3.25,"target":"right","response":"left","rt":928.20000000019,"correct":false,"confidence":2},{"trial_n":114,"n_dots":3.35,"target":"right","response":"right","rt":868.39999999991,"correct":true,"confidence":1},{"trial_n":115,"n_dots":3.35,"target":"right","response":"right","rt":349.40000000037,"correct":true,"confidence":1},{"trial_n":116,"n_dots":3.25,"target":"left","response":"right","rt":774.10000000009,"correct":false,"confidence":2},{"trial_n":117,"n_dots":3.35,"target":"right","response":"left","rt":960.29999999981,"correct":false,"confidence":1},{"trial_n":118,"n_dots":3.45,"target":"left","response":"right","rt":1196.8999999999,"correct":false,"confidence":1},{"trial_n":119,"n_dots":3.55,"target":"right","response":"right","rt":310.20000000019,"correct":true,"confidence":1},{"trial_n":120,"n_dots":3.55,"target":"left","response":"left","rt":601.09999999963,"correct":true,"confidence":4}]