[{"trial_n":1,"min":25,"max":230,"target":"present","response":"absent","rt":2453.5,"correct":false,"confidence":-1},{"trial_n":2,"min":25,"max":230,"target":"present","response":"present","rt":942.09999999404,"correct":true,"confidence":-1},{"trial_n":3,"min":25,"max":230,"target":"absent","response":"absent","rt":1469.8999999911,"correct":true,"confidence":-1},{"trial_n":4,"min":41,"max":214,"target":"absent","response":"absent","rt":500.60000000894,"correct":true,"confidence":-1},{"trial_n":5,"min":41,"max":214,"target":"present","response":"present","rt":803.20000000298,"correct":true,"confidence":-1},{"trial_n":6,"min":57,"max":198,"target":"present","response":"present","rt":627.59999999404,"correct":true,"confidence":-1},{"trial_n":7,"min":57,"max":198,"target":"absent","response":"absent","rt":583.79999999702,"correct":true,"confidence":-1},{"trial_n":8,"min":73,"max":182,"target":"present","response":"present","rt":785.70000000298,"correct":true,"confidence":-1},{"trial_n":9,"min":73,"max":182,"target":"present","response":"present","rt":764.29999999702,"correct":true,"confidence":-1},{"trial_n":10,"min":89,"max":166,"target":"absent","response":"absent","rt":728.5,"correct":true,"confidence":-1},{"trial_n":11,"min":89,"max":166,"target":"present","response":"absent","rt":727.5,"correct":false,"confidence":-1},{"trial_n":12,"min":81,"max":174,"target":"absent","response":"absent","rt":813.79999999702,"correct":true,"confidence":-1},{"trial_n":13,"min":81,"max":174,"target":"present","response":"present","rt":594.79999999702,"correct":true,"confidence":-1},{"trial_n":14,"min":89,"max":166,"target":"absent","response":"absent","rt":827.90000000596,"correct":true,"confidence":-1},{"trial_n":15,"min":89,"max":166,"target":"present","response":"absent","rt":973.70000000298,"correct":false,"confidence":-1},{"trial_n":16,"min":81,"max":174,"target":"present","response":"present","rt":578.40000000596,"correct":true,"confidence":-1},{"trial_n":17,"min":81,"max":174,"target":"present","response":"absent","rt":755,"correct":false,"confidence":-1},{"trial_n":18,"min":73,"max":182,"target":"present","response":"present","rt":542.90000000596,"correct":true,"confidence":-1},{"trial_n":19,"min":73,"max":182,"target":"absent","response":"present","rt":1016.5,"correct":false,"confidence":-1},{"trial_n":20,"min":65,"max":190,"target":"present","response":"present","rt":808.69999998808,"correct":true,"confidence":-1},{"trial_n":21,"min":65,"max":190,"target":"absent","response":"absent","rt":916.20000000298,"correct":true,"confidence":3},{"trial_n":22,"min":69,"max":186,"target":"present","response":"present","rt":515,"correct":true,"confidence":5},{"trial_n":23,"min":69,"max":186,"target":"absent","response":"absent","rt":904.70000000298,"correct":true,"confidence":3},{"trial_n":24,"min":73,"max":182,"target":"present","response":"present","rt":437.29999999702,"correct":true,"confidence":5},{"trial_n":25,"min":73,"max":182,"target":"absent","response":"absent","rt":3522,"correct":true,"confidence":2},{"trial_n":26,"min":77,"max":178,"target":"present","response":"present","rt":477.30000001192,"correct":true,"confidence":5},{"trial_n":27,"min":77,"max":178,"target":"present","response":"present","rt":555.39999999106,"correct":true,"confidence":5},{"trial_n":28,"min":81,"max":174,"target":"absent","response":"present","rt":2315.299999997,"correct":false,"confidence":3},{"trial_n":29,"min":77,"max":178,"target":"present","response":"present","rt":563.89999999106,"correct":true,"confidence":5},{"trial_n":30,"min":77,"max":178,"target":"absent","response":"absent","rt":938.19999998808,"correct":true,"confidence":2},{"trial_n":31,"min":79,"max":176,"target":"absent","response":"absent","rt":1057.099999994,"correct":true,"confidence":2},{"trial_n":32,"min":79,"max":176,"target":"present","response":"present","rt":498.90000000596,"correct":true,"confidence":5},{"trial_n":33,"min":81,"max":174,"target":"present","response":"present","rt":767.19999998808,"correct":true,"confidence":5},{"trial_n":34,"min":81,"max":174,"target":"absent","response":"absent","rt":1597.299999997,"correct":true,"confidence":4},{"trial_n":35,"min":83,"max":172,"target":"absent","response":"absent","rt":830.39999999106,"correct":true,"confidence":3},{"trial_n":36,"min":83,"max":172,"target":"present","response":"absent","rt":1197.6999999881,"correct":false,"confidence":3},{"trial_n":37,"min":81,"max":174,"target":"absent","response":"absent","rt":885.90000000596,"correct":true,"confidence":3},{"trial_n":38,"min":81,"max":174,"target":"present","response":"present","rt":559.69999998808,"correct":true,"confidence":4},{"trial_n":39,"min":83,"max":172,"target":"present","response":"present","rt":648.29999999702,"correct":true,"confidence":3},{"trial_n":40,"min":83,"max":172,"target":"absent","response":"absent","rt":891.20000000298,"correct":true,"confidence":4},{"trial_n":41,"min":84,"max":171,"target":"absent","response":"absent","rt":640.39999999106,"correct":true,"confidence":3},{"trial_n":42,"min":84,"max":171,"target":"absent","response":"absent","rt":947.29999999702,"correct":true,"confidence":4},{"trial_n":43,"min":85,"max":170,"target":"present","response":"present","rt":754.70000000298,"correct":true,"confidence":5},{"trial_n":44,"min":85,"max":170,"target":"present","response":"present","rt":745.80000001192,"correct":true,"confidence":3},{"trial_n":45,"min":86,"max":169,"target":"absent","response":"absent","rt":836.10000000894,"correct":true,"confidence":4},{"trial_n":46,"min":86,"max":169,"target":"absent","response":"absent","rt":1249.200000003,"correct":true,"confidence":3},{"trial_n":47,"min":87,"max":168,"target":"absent","response":"absent","rt":1848.700000003,"correct":true,"confidence":2},{"trial_n":48,"min":87,"max":168,"target":"present","response":"present","rt":614.79999999702,"correct":true,"confidence":5},{"trial_n":49,"min":88,"max":167,"target":"present","response":"present","rt":692.40000000596,"correct":true,"confidence":3},{"trial_n":50,"min":88,"max":167,"target":"absent","response":"absent","rt":1409.599999994,"correct":true,"confidence":2},{"trial_n":51,"min":89,"max":166,"target":"present","response":"absent","rt":812.70000000298,"correct":false,"confidence":4},{"trial_n":52,"min":88,"max":167,"target":"absent","response":"absent","rt":2018.900000006,"correct":true,"confidence":4},{"trial_n":53,"min":88,"max":167,"target":"present","response":"present","rt":1055.299999997,"correct":true,"confidence":3},{"trial_n":54,"min":89,"max":166,"target":"present","response":"present","rt":1463.200000003,"correct":true,"confidence":4},{"trial_n":55,"min":89,"max":166,"target":"present","response":"absent","rt":956.5,"correct":false,"confidence":3},{"trial_n":56,"min":88,"max":167,"target":"absent","response":"absent","rt":704.70000000298,"correct":true,"confidence":3},{"trial_n":57,"min":88,"max":167,"target":"absent","response":"absent","rt":1349.099999994,"correct":true,"confidence":3},{"trial_n":58,"min":89,"max":166,"target":"absent","response":"present","rt":1241.799999997,"correct":false,"confidence":3},{"trial_n":59,"min":88,"max":167,"target":"present","response":"present","rt":556.5,"correct":true,"confidence":4},{"trial_n":60,"min":88,"max":167,"target":"present","response":"absent","rt":934.69999998808,"correct":false,"confidence":3},{"trial_n":61,"min":87,"max":168,"target":"absent","response":"absent","rt":854.90000000596,"correct":true,"confidence":4},{"trial_n":62,"min":87,"max":168,"target":"absent","response":"absent","rt":2645,"correct":true,"confidence":3},{"trial_n":63,"min":88,"max":167,"target":"absent","response":"absent","rt":972.5,"correct":true,"confidence":4},{"trial_n":64,"min":88,"max":167,"target":"absent","response":"present","rt":743.90000000596,"correct":false,"confidence":2},{"trial_n":65,"min":87,"max":168,"target":"present","response":"present","rt":686.40000000596,"correct":true,"confidence":5},{"trial_n":66,"min":87,"max":168,"target":"absent","response":"absent","rt":873.60000000894,"correct":true,"confidence":3},{"trial_n":67,"min":88,"max":167,"target":"present","response":"present","rt":931.19999998808,"correct":true,"confidence":4},{"trial_n":68,"min":88,"max":167,"target":"absent","response":"absent","rt":1341,"correct":true,"confidence":3},{"trial_n":69,"min":89,"max":166,"target":"absent","response":"absent","rt":1031.200000003,"correct":true,"confidence":4},{"trial_n":70,"min":89,"max":166,"target":"present","response":"present","rt":998,"correct":true,"confidence":3},{"trial_n":71,"min":41,"max":214,"target":"present","response":"present","rt":1662.400000006,"correct":true,"confidence":-1},{"trial_n":72,"min":41,"max":214,"target":"present","response":"present","rt":923.5,"correct":true,"confidence":-1},{"trial_n":73,"min":57,"max":198,"target":"absent","response":"absent","rt":782.90000000596,"correct":true,"confidence":-1},{"trial_n":74,"min":57,"max":198,"target":"absent","response":"absent","rt":862.5,"correct":true,"confidence":-1},{"trial_n":75,"min":73,"max":182,"target":"present","response":"present","rt":954.09999999404,"correct":true,"confidence":-1},{"trial_n":76,"min":73,"max":182,"target":"absent","response":"absent","rt":931.10000000894,"correct":true,"confidence":-1},{"trial_n":77,"min":89,"max":166,"target":"present","response":"present","rt":1244.6000000089,"correct":true,"confidence":-1},{"trial_n":78,"min":89,"max":166,"target":"present","response":"absent","rt":1604.599999994,"correct":false,"confidence":-1},{"trial_n":79,"min":73,"max":182,"target":"present","response":"present","rt":552.09999999404,"correct":true,"confidence":-1},{"trial_n":80,"min":73,"max":182,"target":"present","response":"present","rt":1031.900000006,"correct":true,"confidence":-1},{"trial_n":81,"min":81,"max":174,"target":"absent","response":"absent","rt":1085,"correct":true,"confidence":-1},{"trial_n":82,"min":81,"max":174,"target":"absent","response":"absent","rt":804.5,"correct":true,"confidence":-1},{"trial_n":83,"min":89,"max":166,"target":"absent","response":"present","rt":911.5,"correct":false,"confidence":-1},{"trial_n":84,"min":81,"max":174,"target":"present","response":"present","rt":653.09999999404,"correct":true,"confidence":-1},{"trial_n":85,"min":81,"max":174,"target":"present","response":"present","rt":1024.299999997,"correct":true,"confidence":-1},{"trial_n":86,"min":89,"max":166,"target":"present","response":"absent","rt":1193.900000006,"correct":false,"confidence":-1},{"trial_n":87,"min":81,"max":174,"target":"absent","response":"absent","rt":1222.5,"correct":true,"confidence":-1},{"trial_n":88,"min":81,"max":174,"target":"present","response":"present","rt":971.80000001192,"correct":true,"confidence":-1},{"trial_n":89,"min":89,"max":166,"target":"present","response":"present","rt":727.09999999404,"correct":true,"confidence":-1},{"trial_n":90,"min":89,"max":166,"target":"present","response":"present","rt":1008.400000006,"correct":true,"confidence":-1},{"trial_n":91,"min":93,"max":162,"target":"present","response":"present","rt":1271,"correct":true,"confidence":3},{"trial_n":92,"min":93,"max":162,"target":"absent","response":"present","rt":876.89999999106,"correct":false,"confidence":4},{"trial_n":93,"min":89,"max":166,"target":"absent","response":"present","rt":1186.5,"correct":false,"confidence":1},{"trial_n":94,"min":85,"max":170,"target":"absent","response":"absent","rt":1228.6000000089,"correct":true,"confidence":3},{"trial_n":95,"min":85,"max":170,"target":"absent","response":"absent","rt":1537.400000006,"correct":true,"confidence":4},{"trial_n":96,"min":89,"max":166,"target":"present","response":"present","rt":2893.099999994,"correct":true,"confidence":3},{"trial_n":97,"min":89,"max":166,"target":"present","response":"present","rt":1282.700000003,"correct":true,"confidence":4},{"trial_n":98,"min":93,"max":162,"target":"present","response":"present","rt":845.59999999404,"correct":true,"confidence":5},{"trial_n":99,"min":93,"max":162,"target":"absent","response":"present","rt":1273.099999994,"correct":false,"confidence":3},{"trial_n":100,"min":89,"max":166,"target":"present","response":"present","rt":712.40000000596,"correct":true,"confidence":4},{"trial_n":101,"min":89,"max":166,"target":"absent","response":"absent","rt":1121,"correct":true,"confidence":4},{"trial_n":102,"min":91,"max":164,"target":"present","response":"present","rt":596.5,"correct":true,"confidence":4},{"trial_n":103,"min":91,"max":164,"target":"absent","response":"present","rt":1152.6000000089,"correct":false,"confidence":2},{"trial_n":104,"min":89,"max":166,"target":"absent","response":"absent","rt":1412.599999994,"correct":true,"confidence":2},{"trial_n":105,"min":89,"max":166,"target":"absent","response":"present","rt":1058.299999997,"correct":false,"confidence":3},{"trial_n":106,"min":87,"max":168,"target":"absent","response":"absent","rt":825.5,"correct":true,"confidence":4},{"trial_n":107,"min":87,"max":168,"target":"present","response":"present","rt":2885.099999994,"correct":true,"confidence":3},{"trial_n":108,"min":89,"max":166,"target":"absent","response":"present","rt":1438.8999999911,"correct":false,"confidence":3},{"trial_n":109,"min":87,"max":168,"target":"absent","response":"present","rt":1000.700000003,"correct":false,"confidence":3},{"trial_n":110,"min":85,"max":170,"target":"present","response":"present","rt":607.59999999404,"correct":true,"confidence":4},{"trial_n":111,"min":85,"max":170,"target":"present","response":"present","rt":785.29999999702,"correct":true,"confidence":5},{"trial_n":112,"min":86,"max":169,"target":"absent","response":"present","rt":1252.8999999911,"correct":false,"confidence":3},{"trial_n":113,"min":85,"max":170,"target":"present","response":"present","rt":688.09999999404,"correct":true,"confidence":5},{"trial_n":114,"min":85,"max":170,"target":"present","response":"present","rt":738.80000001192,"correct":true,"confidence":3},{"trial_n":115,"min":86,"max":169,"target":"absent","response":"absent","rt":800.59999999404,"correct":true,"confidence":4},{"trial_n":116,"min":86,"max":169,"target":"present","response":"present","rt":2004.6999999881,"correct":true,"confidence":2},{"trial_n":117,"min":87,"max":168,"target":"present","response":"present","rt":666.40000000596,"correct":true,"confidence":4},{"trial_n":118,"min":87,"max":168,"target":"absent","response":"absent","rt":1798.1000000089,"correct":true,"confidence":2},{"trial_n":119,"min":88,"max":167,"target":"absent","response":"present","rt":1677.400000006,"correct":false,"confidence":3},{"trial_n":120,"min":87,"max":168,"target":"present","response":"present","rt":1231.799999997,"correct":true,"confidence":3},{"trial_n":121,"min":87,"max":168,"target":"absent","response":"present","rt":1231.3999999911,"correct":false,"confidence":1},{"trial_n":122,"min":86,"max":169,"target":"present","response":"present","rt":554,"correct":true,"confidence":4},{"trial_n":123,"min":86,"max":169,"target":"absent","response":"absent","rt":1138.700000003,"correct":true,"confidence":4},{"trial_n":124,"min":87,"max":168,"target":"absent","response":"present","rt":929.20000000298,"correct":false,"confidence":3},{"trial_n":125,"min":86,"max":169,"target":"absent","response":"absent","rt":1176.900000006,"correct":true,"confidence":4},{"trial_n":126,"min":86,"max":169,"target":"absent","response":"absent","rt":834.60000000894,"correct":true,"confidence":4},{"trial_n":127,"min":87,"max":168,"target":"present","response":"present","rt":1420.299999997,"correct":true,"confidence":1},{"trial_n":128,"min":87,"max":168,"target":"absent","response":"present","rt":1384.1999999881,"correct":false,"confidence":1},{"trial_n":129,"min":86,"max":169,"target":"present","response":"present","rt":1155.299999997,"correct":true,"confidence":3},{"trial_n":130,"min":86,"max":169,"target":"present","response":"present","rt":609.59999999404,"correct":true,"confidence":5},{"trial_n":131,"min":87,"max":168,"target":"present","response":"present","rt":897.20000000298,"correct":true,"confidence":4},{"trial_n":132,"min":87,"max":168,"target":"present","response":"present","rt":514.20000000298,"correct":true,"confidence":5},{"trial_n":133,"min":88,"max":167,"target":"absent","response":"absent","rt":1254.900000006,"correct":true,"confidence":3},{"trial_n":134,"min":88,"max":167,"target":"absent","response":"absent","rt":1201.799999997,"correct":true,"confidence":3},{"trial_n":135,"min":89,"max":166,"target":"present","response":"present","rt":1238.099999994,"correct":true,"confidence":4},{"trial_n":136,"min":89,"max":166,"target":"present","response":"present","rt":551.5,"correct":true,"confidence":4},{"trial_n":137,"min":90,"max":165,"target":"absent","response":"absent","rt":1047.6000000089,"correct":true,"confidence":2},{"trial_n":138,"min":90,"max":165,"target":"present","response":"present","rt":664.29999999702,"correct":true,"confidence":3},{"trial_n":139,"min":91,"max":164,"target":"absent","response":"absent","rt":2420.700000003,"correct":true,"confidence":1},{"trial_n":140,"min":91,"max":164,"target":"absent","response":"present","rt":1623.8999999911,"correct":false,"confidence":1}]