[{"trial_n":1,"n_dots":4.25,"target":"right","response":"left","rt":5880.4000000954,"correct":false,"confidence":-1},{"trial_n":2,"n_dots":4.25,"target":"right","response":"right","rt":1263.6000000238,"correct":true,"confidence":-1},{"trial_n":3,"n_dots":4.25,"target":"left","response":"left","rt":939.80000007153,"correct":true,"confidence":-1},{"trial_n":4,"n_dots":3.85,"target":"right","response":"right","rt":3011.8000000715,"correct":true,"confidence":-1},{"trial_n":5,"n_dots":3.85,"target":"right","response":"left","rt":382.19999992847,"correct":false,"confidence":-1},{"trial_n":6,"n_dots":4.25,"target":"right","response":"right","rt":238.60000002384,"correct":true,"confidence":-1},{"trial_n":7,"n_dots":4.25,"target":"left","response":"left","rt":144.59999990463,"correct":true,"confidence":-1},{"trial_n":8,"n_dots":4.05,"target":"right","response":"left","rt":2.2999999523163,"correct":false,"confidence":-1},{"trial_n":9,"n_dots":4.25,"target":"left","response":"right","rt":92.599999904633,"correct":false,"confidence":-1},{"trial_n":10,"n_dots":4.45,"target":"right","response":"right","rt":545.89999997616,"correct":true,"confidence":-1},{"trial_n":11,"n_dots":4.45,"target":"right","response":"left","rt":715.29999995232,"correct":false,"confidence":-1},{"trial_n":12,"n_dots":4.65,"target":"left","response":"left","rt":2564.5999999046,"correct":true,"confidence":-1},{"trial_n":13,"n_dots":4.65,"target":"right","response":"right","rt":272.69999992847,"correct":true,"confidence":-1},{"trial_n":14,"n_dots":4.55,"target":"left","response":"left","rt":342.39999997616,"correct":true,"confidence":-1},{"trial_n":15,"n_dots":4.55,"target":"left","response":"left","rt":49.5,"correct":true,"confidence":-1},{"trial_n":16,"n_dots":4.45,"target":"left","response":"left","rt":769.79999995232,"correct":true,"confidence":-1},{"trial_n":17,"n_dots":4.45,"target":"left","response":"left","rt":420.20000004768,"correct":true,"confidence":-1},{"trial_n":18,"n_dots":4.35,"target":"right","response":"left","rt":485.19999992847,"correct":false,"confidence":-1},{"trial_n":19,"n_dots":4.45,"target":"left","response":"left","rt":1224.8999999762,"correct":true,"confidence":-1},{"trial_n":20,"n_dots":4.45,"target":"right","response":"right","rt":934.70000004768,"correct":true,"confidence":-1},{"trial_n":21,"n_dots":4.35,"target":"right","response":"right","rt":807,"correct":true,"confidence":2},{"trial_n":22,"n_dots":4.35,"target":"right","response":"right","rt":494.69999992847,"correct":true,"confidence":4},{"trial_n":23,"n_dots":4.25,"target":"left","response":"left","rt":409,"correct":true,"confidence":4},{"trial_n":24,"n_dots":4.25,"target":"left","response":"left","rt":446.10000002384,"correct":true,"confidence":4},{"trial_n":25,"n_dots":4.15,"target":"right","response":"right","rt":533.39999997616,"correct":true,"confidence":4},{"trial_n":26,"n_dots":4.15,"target":"right","response":"right","rt":418.5,"correct":true,"confidence":4},{"trial_n":27,"n_dots":4.05,"target":"right","response":"right","rt":767.70000004768,"correct":true,"confidence":3},{"trial_n":28,"n_dots":4.05,"target":"right","response":"left","rt":569.89999997616,"correct":false,"confidence":3},{"trial_n":29,"n_dots":4.15,"target":"right","response":"right","rt":1090.5,"correct":true,"confidence":2},{"trial_n":30,"n_dots":4.15,"target":"right","response":"left","rt":1516.6000000238,"correct":false,"confidence":2},{"trial_n":31,"n_dots":4.25,"target":"left","response":"left","rt":1607.5,"correct":true,"confidence":4},{"trial_n":32,"n_dots":4.25,"target":"right","response":"right","rt":1750,"correct":true,"confidence":4},{"trial_n":33,"n_dots":4.15,"target":"left","response":"left","rt":259.89999997616,"correct":true,"confidence":3},{"trial_n":34,"n_dots":4.15,"target":"right","response":"right","rt":740.60000002384,"correct":true,"confidence":3},{"trial_n":35,"n_dots":4.05,"target":"right","response":"right","rt":366.60000002384,"correct":true,"confidence":3},{"trial_n":36,"n_dots":4.05,"target":"right","response":"right","rt":2686.5,"correct":true,"confidence":3},{"trial_n":37,"n_dots":3.95,"target":"right","response":"right","rt":1182.2000000477,"correct":true,"confidence":4},{"trial_n":38,"n_dots":3.95,"target":"left","response":"left","rt":1452.7999999523,"correct":true,"confidence":3},{"trial_n":39,"n_dots":3.85,"target":"left","response":"left","rt":1197.6000000238,"correct":true,"confidence":3},{"trial_n":40,"n_dots":3.85,"target":"left","response":"left","rt":863.39999997616,"correct":true,"confidence":3},{"trial_n":41,"n_dots":3.75,"target":"left","response":"right","rt":1453.9000000954,"correct":false,"confidence":3},{"trial_n":42,"n_dots":3.85,"target":"right","response":"right","rt":299,"correct":true,"confidence":3},{"trial_n":43,"n_dots":3.85,"target":"right","response":"right","rt":906.10000002384,"correct":true,"confidence":5},{"trial_n":44,"n_dots":3.75,"target":"left","response":"left","rt":765.5,"correct":true,"confidence":4},{"trial_n":45,"n_dots":3.75,"target":"left","response":"left","rt":1107.7000000477,"correct":true,"confidence":4},{"trial_n":46,"n_dots":3.65,"target":"left","response":"left","rt":990.90000009537,"correct":true,"confidence":4},{"trial_n":47,"n_dots":3.65,"target":"left","response":"left","rt":1021.6999999285,"correct":true,"confidence":4},{"trial_n":48,"n_dots":3.55,"target":"left","response":"left","rt":1168.2000000477,"correct":true,"confidence":4},{"trial_n":49,"n_dots":3.55,"target":"left","response":"left","rt":1572.8000000715,"correct":true,"confidence":2},{"trial_n":50,"n_dots":3.45,"target":"right","response":"right","rt":3756.3999999762,"correct":true,"confidence":3},{"trial_n":51,"n_dots":3.45,"target":"left","response":"left","rt":704,"correct":true,"confidence":3},{"trial_n":52,"n_dots":3.35,"target":"right","response":"right","rt":1383.1000000238,"correct":true,"confidence":3},{"trial_n":53,"n_dots":3.35,"target":"left","response":"right","rt":1623.3999999762,"correct":false,"confidence":5},{"trial_n":54,"n_dots":3.45,"target":"right","response":"left","rt":4823.1999999285,"correct":false,"confidence":2},{"trial_n":55,"n_dots":3.55,"target":"right","response":"left","rt":1038.7999999523,"correct":false,"confidence":2},{"trial_n":56,"n_dots":3.65,"target":"right","response":"right","rt":760.10000002384,"correct":true,"confidence":2},{"trial_n":57,"n_dots":3.65,"target":"right","response":"left","rt":1103.0999999046,"correct":false,"confidence":2},{"trial_n":58,"n_dots":3.75,"target":"left","response":"left","rt":1480.8999999762,"correct":true,"confidence":2},{"trial_n":59,"n_dots":3.75,"target":"left","response":"left","rt":1143.2000000477,"correct":true,"confidence":2},{"trial_n":60,"n_dots":3.65,"target":"right","response":"right","rt":872.79999995232,"correct":true,"confidence":3},{"trial_n":61,"n_dots":3.65,"target":"right","response":"right","rt":851.10000002384,"correct":true,"confidence":3},{"trial_n":62,"n_dots":3.55,"target":"left","response":"left","rt":726.79999995232,"correct":true,"confidence":3},{"trial_n":63,"n_dots":3.55,"target":"left","response":"right","rt":924.29999995232,"correct":false,"confidence":3},{"trial_n":64,"n_dots":3.65,"target":"right","response":"right","rt":607.29999995232,"correct":true,"confidence":3},{"trial_n":65,"n_dots":3.65,"target":"left","response":"left","rt":955.29999995232,"correct":true,"confidence":3},{"trial_n":66,"n_dots":3.55,"target":"left","response":"right","rt":767.80000007153,"correct":false,"confidence":2},{"trial_n":67,"n_dots":3.65,"target":"left","response":"left","rt":894.39999997616,"correct":true,"confidence":2},{"trial_n":68,"n_dots":3.65,"target":"left","response":"left","rt":1190.1000000238,"correct":true,"confidence":2},{"trial_n":69,"n_dots":3.55,"target":"left","response":"right","rt":1043,"correct":false,"confidence":1},{"trial_n":70,"n_dots":3.65,"target":"left","response":"left","rt":1893.5,"correct":true,"confidence":2},{"trial_n":71,"n_dots":3.65,"target":"left","response":"right","rt":1126.0999999046,"correct":false,"confidence":3},{"trial_n":72,"n_dots":3.75,"target":"left","response":"left","rt":1063,"correct":true,"confidence":1},{"trial_n":73,"n_dots":3.75,"target":"right","response":"right","rt":396.60000002384,"correct":true,"confidence":1},{"trial_n":74,"n_dots":3.65,"target":"right","response":"left","rt":5,"correct":false,"confidence":2},{"trial_n":75,"n_dots":3.75,"target":"left","response":"left","rt":714,"correct":true,"confidence":2},{"trial_n":76,"n_dots":3.75,"target":"right","response":"right","rt":794.89999997616,"correct":true,"confidence":3},{"trial_n":77,"n_dots":3.65,"target":"left","response":"left","rt":812.29999995232,"correct":true,"confidence":1},{"trial_n":78,"n_dots":3.65,"target":"right","response":"left","rt":454.60000002384,"correct":false,"confidence":4},{"trial_n":79,"n_dots":3.75,"target":"left","response":"left","rt":815.39999997616,"correct":true,"confidence":3},{"trial_n":80,"n_dots":3.75,"target":"left","response":"left","rt":332.19999992847,"correct":true,"confidence":5},{"trial_n":81,"n_dots":3.65,"target":"left","response":"left","rt":547.80000007153,"correct":true,"confidence":3},{"trial_n":82,"n_dots":3.65,"target":"left","response":"right","rt":587.90000009537,"correct":false,"confidence":4},{"trial_n":83,"n_dots":3.75,"target":"left","response":"left","rt":306.30000007153,"correct":true,"confidence":3},{"trial_n":84,"n_dots":3.75,"target":"left","response":"left","rt":1002.1999999285,"correct":true,"confidence":2},{"trial_n":85,"n_dots":3.65,"target":"left","response":"right","rt":629.5,"correct":false,"confidence":4},{"trial_n":86,"n_dots":3.75,"target":"left","response":"left","rt":534,"correct":true,"confidence":3},{"trial_n":87,"n_dots":3.75,"target":"right","response":"right","rt":153.60000002384,"correct":true,"confidence":4},{"trial_n":88,"n_dots":3.65,"target":"right","response":"left","rt":154.60000002384,"correct":false,"confidence":3},{"trial_n":89,"n_dots":3.75,"target":"left","response":"right","rt":173.40000009537,"correct":false,"confidence":1},{"trial_n":90,"n_dots":3.85,"target":"left","response":"left","rt":803.70000004768,"correct":true,"confidence":2},{"trial_n":91,"n_dots":3.85,"target":"right","response":"left","rt":1004,"correct":false,"confidence":2},{"trial_n":92,"n_dots":3.95,"target":"left","response":"right","rt":201.70000004768,"correct":false,"confidence":3},{"trial_n":93,"n_dots":4.05,"target":"left","response":"left","rt":99.600000023842,"correct":true,"confidence":1},{"trial_n":94,"n_dots":4.05,"target":"right","response":"left","rt":230.79999995232,"correct":false,"confidence":4},{"trial_n":95,"n_dots":4.15,"target":"right","response":"right","rt":310.60000002384,"correct":true,"confidence":3},{"trial_n":96,"n_dots":4.15,"target":"right","response":"right","rt":318.80000007153,"correct":true,"confidence":4},{"trial_n":97,"n_dots":4.05,"target":"right","response":"right","rt":776.69999992847,"correct":true,"confidence":3},{"trial_n":98,"n_dots":4.05,"target":"left","response":"left","rt":720.89999997616,"correct":true,"confidence":3},{"trial_n":99,"n_dots":3.95,"target":"right","response":"right","rt":200.89999997616,"correct":true,"confidence":4},{"trial_n":100,"n_dots":3.95,"target":"right","response":"left","rt":734.69999992847,"correct":false,"confidence":3},{"trial_n":101,"n_dots":4.05,"target":"left","response":"left","rt":428.5,"correct":true,"confidence":3},{"trial_n":102,"n_dots":4.05,"target":"left","response":"right","rt":182.40000009537,"correct":false,"confidence":4},{"trial_n":103,"n_dots":4.15,"target":"right","response":"left","rt":217.29999995232,"correct":false,"confidence":3},{"trial_n":104,"n_dots":4.25,"target":"left","response":"right","rt":874.90000009537,"correct":false,"confidence":1},{"trial_n":105,"n_dots":4.35,"target":"right","response":"right","rt":1382.0999999046,"correct":true,"confidence":3},{"trial_n":106,"n_dots":4.35,"target":"left","response":"left","rt":1295.5,"correct":true,"confidence":3},{"trial_n":107,"n_dots":4.25,"target":"right","response":"right","rt":158.5,"correct":true,"confidence":3},{"trial_n":108,"n_dots":4.25,"target":"right","response":"left","rt":69.299999952316,"correct":false,"confidence":3},{"trial_n":109,"n_dots":4.35,"target":"left","response":"right","rt":106,"correct":false,"confidence":2},{"trial_n":110,"n_dots":4.45,"target":"right","response":"right","rt":238.39999997616,"correct":true,"confidence":4},{"trial_n":111,"n_dots":4.45,"target":"right","response":"right","rt":302.80000007153,"correct":true,"confidence":3},{"trial_n":112,"n_dots":4.35,"target":"right","response":"left","rt":116.89999997616,"correct":false,"confidence":3},{"trial_n":113,"n_dots":4.45,"target":"left","response":"right","rt":24.100000023842,"correct":false,"confidence":4},{"trial_n":114,"n_dots":4.55,"target":"right","response":"right","rt":185.10000002384,"correct":true,"confidence":3},{"trial_n":115,"n_dots":4.55,"target":"right","response":"right","rt":244.70000004768,"correct":true,"confidence":4},{"trial_n":116,"n_dots":4.45,"target":"right","response":"right","rt":154,"correct":true,"confidence":4},{"trial_n":117,"n_dots":4.45,"target":"left","response":"left","rt":389.39999997616,"correct":true,"confidence":5},{"trial_n":118,"n_dots":4.35,"target":"left","response":"left","rt":454.89999997616,"correct":true,"confidence":3},{"trial_n":119,"n_dots":4.35,"target":"right","response":"right","rt":120.89999997616,"correct":true,"confidence":3},{"trial_n":120,"n_dots":4.25,"target":"right","response":"right","rt":842.10000002384,"correct":true,"confidence":1}]