[{"trial_n":1,"n_dots":4.25,"target":"left","response":"right","rt":3891,"correct":false,"confidence":-1},{"trial_n":2,"n_dots":4.25,"target":"right","response":"right","rt":532,"correct":true,"confidence":-1},{"trial_n":3,"n_dots":4.25,"target":"right","response":"right","rt":523,"correct":true,"confidence":-1},{"trial_n":4,"n_dots":3.85,"target":"left","response":"right","rt":822,"correct":false,"confidence":-1},{"trial_n":5,"n_dots":4.25,"target":"right","response":"right","rt":456,"correct":true,"confidence":-1},{"trial_n":6,"n_dots":4.25,"target":"right","response":"right","rt":675,"correct":true,"confidence":-1},{"trial_n":7,"n_dots":3.85,"target":"right","response":"right","rt":548,"correct":true,"confidence":-1},{"trial_n":8,"n_dots":3.85,"target":"left","response":"left","rt":340,"correct":true,"confidence":-1},{"trial_n":9,"n_dots":3.65,"target":"right","response":"right","rt":442,"correct":true,"confidence":-1},{"trial_n":10,"n_dots":3.65,"target":"left","response":"left","rt":456.00000000001,"correct":true,"confidence":-1},{"trial_n":11,"n_dots":3.45,"target":"left","response":"left","rt":562,"correct":true,"confidence":-1},{"trial_n":12,"n_dots":3.45,"target":"right","response":"right","rt":338,"correct":true,"confidence":-1},{"trial_n":13,"n_dots":3.35,"target":"right","response":"right","rt":539,"correct":true,"confidence":-1},{"trial_n":14,"n_dots":3.35,"target":"left","response":"left","rt":628,"correct":true,"confidence":-1},{"trial_n":15,"n_dots":3.25,"target":"left","response":"left","rt":664,"correct":true,"confidence":-1},{"trial_n":16,"n_dots":3.25,"target":"left","response":"right","rt":614,"correct":false,"confidence":-1},{"trial_n":17,"n_dots":3.35,"target":"right","response":"right","rt":444,"correct":true,"confidence":-1},{"trial_n":18,"n_dots":3.35,"target":"left","response":"left","rt":331,"correct":true,"confidence":-1},{"trial_n":19,"n_dots":3.25,"target":"left","response":"left","rt":364,"correct":true,"confidence":-1},{"trial_n":20,"n_dots":3.25,"target":"left","response":"left","rt":569,"correct":true,"confidence":-1},{"trial_n":21,"n_dots":3.15,"target":"left","response":"left","rt":1657,"correct":true,"confidence":3},{"trial_n":22,"n_dots":3.15,"target":"left","response":"left","rt":1215,"correct":true,"confidence":4},{"trial_n":23,"n_dots":3.05,"target":"left","response":"left","rt":523,"correct":true,"confidence":5},{"trial_n":24,"n_dots":3.05,"target":"left","response":"left","rt":436,"correct":true,"confidence":5},{"trial_n":25,"n_dots":2.95,"target":"left","response":"right","rt":1098,"correct":false,"confidence":3},{"trial_n":26,"n_dots":3.05,"target":"right","response":"right","rt":523,"correct":true,"confidence":5},{"trial_n":27,"n_dots":3.05,"target":"right","response":"right","rt":765,"correct":true,"confidence":5},{"trial_n":28,"n_dots":2.95,"target":"left","response":"left","rt":611,"correct":true,"confidence":4},{"trial_n":29,"n_dots":2.95,"target":"left","response":"right","rt":964.00000000001,"correct":false,"confidence":4},{"trial_n":30,"n_dots":3.05,"target":"right","response":"right","rt":429,"correct":true,"confidence":5},{"trial_n":31,"n_dots":3.05,"target":"left","response":"left","rt":808,"correct":true,"confidence":2},{"trial_n":32,"n_dots":2.95,"target":"right","response":"right","rt":556,"correct":true,"confidence":4},{"trial_n":33,"n_dots":2.95,"target":"left","response":"left","rt":587.00000000001,"correct":true,"confidence":3},{"trial_n":34,"n_dots":2.85,"target":"right","response":"right","rt":429,"correct":true,"confidence":5},{"trial_n":35,"n_dots":2.85,"target":"left","response":"left","rt":1099,"correct":true,"confidence":3},{"trial_n":36,"n_dots":2.75,"target":"right","response":"right","rt":398,"correct":true,"confidence":5},{"trial_n":37,"n_dots":2.75,"target":"left","response":"left","rt":473,"correct":true,"confidence":5},{"trial_n":38,"n_dots":2.65,"target":"left","response":"right","rt":1490,"correct":false,"confidence":2},{"trial_n":39,"n_dots":2.75,"target":"right","response":"right","rt":462.00000000003,"correct":true,"confidence":5},{"trial_n":40,"n_dots":2.75,"target":"left","response":"left","rt":453.00000000003,"correct":true,"confidence":4},{"trial_n":41,"n_dots":2.65,"target":"right","response":"right","rt":438.00000000003,"correct":true,"confidence":5},{"trial_n":42,"n_dots":2.65,"target":"right","response":"right","rt":887,"correct":true,"confidence":3},{"trial_n":43,"n_dots":2.55,"target":"right","response":"right","rt":498.00000000003,"correct":true,"confidence":4},{"trial_n":44,"n_dots":2.55,"target":"right","response":"left","rt":847.99999999997,"correct":false,"confidence":3},{"trial_n":45,"n_dots":2.65,"target":"left","response":"right","rt":479,"correct":false,"confidence":4},{"trial_n":46,"n_dots":2.75,"target":"left","response":"left","rt":762,"correct":true,"confidence":5},{"trial_n":47,"n_dots":2.75,"target":"left","response":"left","rt":830.00000000003,"correct":true,"confidence":4},{"trial_n":48,"n_dots":2.65,"target":"right","response":"left","rt":527.00000000003,"correct":false,"confidence":5},{"trial_n":49,"n_dots":2.75,"target":"right","response":"left","rt":1124,"correct":false,"confidence":3},{"trial_n":50,"n_dots":2.85,"target":"right","response":"left","rt":690,"correct":false,"confidence":4},{"trial_n":51,"n_dots":2.95,"target":"left","response":"left","rt":766,"correct":true,"confidence":4},{"trial_n":52,"n_dots":2.95,"target":"left","response":"left","rt":606,"correct":true,"confidence":5},{"trial_n":53,"n_dots":2.85,"target":"right","response":"right","rt":439.00000000003,"correct":true,"confidence":5},{"trial_n":54,"n_dots":2.85,"target":"left","response":"left","rt":651,"correct":true,"confidence":3},{"trial_n":55,"n_dots":2.75,"target":"right","response":"right","rt":120.00000000003,"correct":true,"confidence":5},{"trial_n":56,"n_dots":2.75,"target":"right","response":"left","rt":527,"correct":false,"confidence":5},{"trial_n":57,"n_dots":2.85,"target":"right","response":"left","rt":837,"correct":false,"confidence":2},{"trial_n":58,"n_dots":2.95,"target":"right","response":"right","rt":615,"correct":true,"confidence":4},{"trial_n":59,"n_dots":2.95,"target":"right","response":"right","rt":388,"correct":true,"confidence":5},{"trial_n":60,"n_dots":2.85,"target":"right","response":"left","rt":1160,"correct":false,"confidence":4},{"trial_n":61,"n_dots":2.95,"target":"left","response":"left","rt":364.00000000003,"correct":true,"confidence":4},{"trial_n":62,"n_dots":2.95,"target":"right","response":"right","rt":457,"correct":true,"confidence":5},{"trial_n":63,"n_dots":2.85,"target":"right","response":"right","rt":1256,"correct":true,"confidence":4},{"trial_n":64,"n_dots":2.85,"target":"left","response":"left","rt":444,"correct":true,"confidence":4},{"trial_n":65,"n_dots":2.75,"target":"right","response":"right","rt":378,"correct":true,"confidence":5},{"trial_n":66,"n_dots":2.75,"target":"left","response":"left","rt":605,"correct":true,"confidence":4},{"trial_n":67,"n_dots":2.65,"target":"left","response":"left","rt":752,"correct":true,"confidence":3},{"trial_n":68,"n_dots":2.65,"target":"left","response":"left","rt":402,"correct":true,"confidence":5},{"trial_n":69,"n_dots":2.55,"target":"right","response":"right","rt":507,"correct":true,"confidence":5},{"trial_n":70,"n_dots":2.55,"target":"right","response":"right","rt":1039,"correct":true,"confidence":4},{"trial_n":71,"n_dots":2.45,"target":"left","response":"left","rt":549.00000000006,"correct":true,"confidence":5},{"trial_n":72,"n_dots":2.45,"target":"left","response":"left","rt":731.99999999997,"correct":true,"confidence":4},{"trial_n":73,"n_dots":2.35,"target":"left","response":"right","rt":602,"correct":false,"confidence":4},{"trial_n":74,"n_dots":2.45,"target":"left","response":"left","rt":432,"correct":true,"confidence":3},{"trial_n":75,"n_dots":2.45,"target":"left","response":"right","rt":562,"correct":false,"confidence":3},{"trial_n":76,"n_dots":2.55,"target":"left","response":"left","rt":384.99999999994,"correct":true,"confidence":5},{"trial_n":77,"n_dots":2.55,"target":"right","response":"right","rt":1281,"correct":true,"confidence":2},{"trial_n":78,"n_dots":2.45,"target":"right","response":"right","rt":314,"correct":true,"confidence":4},{"trial_n":79,"n_dots":2.45,"target":"right","response":"right","rt":238.99999999994,"correct":true,"confidence":4},{"trial_n":80,"n_dots":2.35,"target":"left","response":"left","rt":239,"correct":true,"confidence":4},{"trial_n":81,"n_dots":2.35,"target":"left","response":"left","rt":573,"correct":true,"confidence":2},{"trial_n":82,"n_dots":2.25,"target":"right","response":"right","rt":916,"correct":true,"confidence":3},{"trial_n":83,"n_dots":2.25,"target":"left","response":"left","rt":890,"correct":true,"confidence":2},{"trial_n":84,"n_dots":2.15,"target":"right","response":"right","rt":548,"correct":true,"confidence":5},{"trial_n":85,"n_dots":2.15,"target":"left","response":"right","rt":761.00000000006,"correct":false,"confidence":4},{"trial_n":86,"n_dots":2.25,"target":"right","response":"right","rt":505.99999999994,"correct":true,"confidence":5},{"trial_n":87,"n_dots":2.25,"target":"right","response":"left","rt":956,"correct":false,"confidence":4},{"trial_n":88,"n_dots":2.35,"target":"right","response":"right","rt":706,"correct":true,"confidence":4},{"trial_n":89,"n_dots":2.35,"target":"right","response":"left","rt":540,"correct":false,"confidence":3},{"trial_n":90,"n_dots":2.45,"target":"right","response":"left","rt":281,"correct":false,"confidence":4},{"trial_n":91,"n_dots":2.55,"target":"left","response":"left","rt":682,"correct":true,"confidence":4},{"trial_n":92,"n_dots":2.55,"target":"left","response":"left","rt":765,"correct":true,"confidence":4},{"trial_n":93,"n_dots":2.45,"target":"right","response":"right","rt":364,"correct":true,"confidence":5},{"trial_n":94,"n_dots":2.45,"target":"left","response":"right","rt":1077,"correct":false,"confidence":4},{"trial_n":95,"n_dots":2.55,"target":"right","response":"right","rt":482.00000000006,"correct":true,"confidence":4},{"trial_n":96,"n_dots":2.55,"target":"right","response":"right","rt":440,"correct":true,"confidence":4},{"trial_n":97,"n_dots":2.45,"target":"left","response":"left","rt":453,"correct":true,"confidence":5},{"trial_n":98,"n_dots":2.45,"target":"right","response":"right","rt":557,"correct":true,"confidence":4},{"trial_n":99,"n_dots":2.35,"target":"right","response":"left","rt":529,"correct":false,"confidence":3},{"trial_n":100,"n_dots":2.45,"target":"left","response":"left","rt":1619,"correct":true,"confidence":2},{"trial_n":101,"n_dots":2.45,"target":"right","response":"right","rt":233,"correct":true,"confidence":5},{"trial_n":102,"n_dots":2.35,"target":"left","response":"right","rt":1106,"correct":false,"confidence":2},{"trial_n":103,"n_dots":2.45,"target":"left","response":"left","rt":723,"correct":true,"confidence":3},{"trial_n":104,"n_dots":2.45,"target":"right","response":"right","rt":395,"correct":true,"confidence":5},{"trial_n":105,"n_dots":2.35,"target":"right","response":"right","rt":549,"correct":true,"confidence":5},{"trial_n":106,"n_dots":2.35,"target":"left","response":"left","rt":474,"correct":true,"confidence":3},{"trial_n":107,"n_dots":2.25,"target":"right","response":"right","rt":361,"correct":true,"confidence":5},{"trial_n":108,"n_dots":2.25,"target":"left","response":"right","rt":280,"correct":false,"confidence":5},{"trial_n":109,"n_dots":2.35,"target":"left","response":"left","rt":1783,"correct":true,"confidence":4},{"trial_n":110,"n_dots":2.35,"target":"right","response":"left","rt":357,"correct":false,"confidence":4},{"trial_n":111,"n_dots":2.45,"target":"left","response":"right","rt":573,"correct":false,"confidence":2},{"trial_n":112,"n_dots":2.55,"target":"right","response":"right","rt":706,"correct":true,"confidence":3},{"trial_n":113,"n_dots":2.55,"target":"left","response":"right","rt":656,"correct":false,"confidence":2},{"trial_n":114,"n_dots":2.65,"target":"right","response":"right","rt":737,"correct":true,"confidence":4},{"trial_n":115,"n_dots":2.65,"target":"right","response":"left","rt":952,"correct":false,"confidence":4},{"trial_n":116,"n_dots":2.75,"target":"right","response":"left","rt":479,"correct":false,"confidence":1},{"trial_n":117,"n_dots":2.85,"target":"left","response":"right","rt":773,"correct":false,"confidence":4},{"trial_n":118,"n_dots":2.95,"target":"left","response":"left","rt":656.99999999994,"correct":true,"confidence":4},{"trial_n":119,"n_dots":2.95,"target":"right","response":"right","rt":637,"correct":true,"confidence":3},{"trial_n":120,"n_dots":2.85,"target":"left","response":"left","rt":567,"correct":true,"confidence":4}]