[{"trial_n":1,"span":8,"encoder":"22620103","distractor":"22620303","target":"present","response":"present","rt":"39984.700000048","correct":true,"confidence":-1},{"trial_n":2,"span":8,"encoder":"43250745","distractor":"43210745","target":"present","response":"present","rt":"3402.2999999523","correct":true,"confidence":-1},{"trial_n":3,"span":10,"encoder":"9396767984","distractor":"6396767984","target":"absent","response":"absent","rt":"2493.5","correct":true,"confidence":-1},{"trial_n":4,"span":10,"encoder":"1098335950","distractor":"1098334950","target":"absent","response":"present","rt":"2503.3999998569","correct":false,"confidence":-1},{"trial_n":5,"span":8,"encoder":"09100576","distractor":"09120576","target":"present","response":"present","rt":"1369.7999999523","correct":true,"confidence":-1},{"trial_n":6,"span":8,"encoder":"85753148","distractor":"81753148","target":"absent","response":"present","rt":"1302.2999999523","correct":false,"confidence":-1},{"trial_n":7,"span":6,"encoder":"009803","distractor":"009903","target":"absent","response":"absent","rt":"2575.3000001907","correct":true,"confidence":-1},{"trial_n":8,"span":6,"encoder":"984397","distractor":"484397","target":"absent","response":"present","rt":"2484.5","correct":false,"confidence":-1},{"trial_n":9,"span":4,"encoder":"2262","distractor":"2267","target":"present","response":"present","rt":"1748.6000001431","correct":true,"confidence":-1},{"trial_n":10,"span":4,"encoder":"3333","distractor":"0333","target":"present","response":"present","rt":"1345.7999999523","correct":true,"confidence":-1},{"trial_n":11,"span":6,"encoder":"309922","distractor":"309952","target":"absent","response":"present","rt":"1925.8999998569","correct":false,"confidence":-1},{"trial_n":12,"span":5,"encoder":"86861","distractor":"86461","target":"present","response":"present","rt":"613.5","correct":true,"confidence":-1},{"trial_n":13,"span":5,"encoder":"51477","distractor":"55477","target":"present","response":"absent","rt":"1291.5","correct":false,"confidence":-1},{"trial_n":14,"span":4,"encoder":"0303","distractor":"0353","target":"present","response":"absent","rt":"3542.7999999523","correct":false,"confidence":-1},{"trial_n":15,"span":3,"encoder":"296","distractor":"266","target":"absent","response":"absent","rt":"8697.7999999523","correct":true,"confidence":-1},{"trial_n":16,"span":3,"encoder":"236","distractor":"286","target":"present","response":"absent","rt":"30160.200000048","correct":false,"confidence":-1},{"trial_n":17,"span":2,"encoder":"32","distractor":"92","target":"absent","response":"present","rt":"2298.9000000954","correct":false,"confidence":-1},{"trial_n":18,"span":2,"encoder":"49","distractor":"99","target":"present","response":"present","rt":"1351.6000001431","correct":true,"confidence":-1},{"trial_n":19,"span":2,"encoder":"34","distractor":"31","target":"absent","response":"absent","rt":"1787.8999998569","correct":true,"confidence":-1},{"trial_n":20,"span":3,"encoder":"296","distractor":"096","target":"absent","response":"absent","rt":"1467.5","correct":true,"confidence":-1},{"trial_n":21,"span":3,"encoder":"569","distractor":"509","target":"absent","response":"absent","rt":"1274.2000000477","correct":true,"confidence":5},{"trial_n":22,"span":4,"encoder":"6305","distractor":"6325","target":"present","response":"present","rt":"1567","correct":true,"confidence":5},{"trial_n":23,"span":4,"encoder":"5143","distractor":"0143","target":"present","response":"present","rt":"1728.7000000477","correct":true,"confidence":5},{"trial_n":24,"span":5,"encoder":"70932","distractor":"70937","target":"absent","response":"absent","rt":"2105.7999999523","correct":true,"confidence":5},{"trial_n":25,"span":5,"encoder":"14168","distractor":"14268","target":"present","response":"present","rt":"1980","correct":true,"confidence":5},{"trial_n":26,"span":6,"encoder":"429226","distractor":"129226","target":"present","response":"present","rt":"1687","correct":true,"confidence":5},{"trial_n":27,"span":6,"encoder":"735915","distractor":"736915","target":"present","response":"present","rt":"1666.2999999523","correct":true,"confidence":5},{"trial_n":28,"span":7,"encoder":"4334002","distractor":"9334002","target":"absent","response":"present","rt":"2308.3999998569","correct":false,"confidence":5},{"trial_n":29,"span":6,"encoder":"737662","distractor":"737682","target":"absent","response":"present","rt":"2645.1000001431","correct":false,"confidence":3},{"trial_n":30,"span":5,"encoder":"66016","distractor":"67016","target":"absent","response":"absent","rt":"2705.0999999046","correct":true,"confidence":5},{"trial_n":31,"span":5,"encoder":"11863","distractor":"11873","target":"absent","response":"absent","rt":"1873.9000000954","correct":true,"confidence":5},{"trial_n":32,"span":6,"encoder":"274079","distractor":"274879","target":"absent","response":"present","rt":"1497.5999999046","correct":false,"confidence":5},{"trial_n":33,"span":5,"encoder":"70926","distractor":"73926","target":"present","response":"present","rt":"2243.2999999523","correct":true,"confidence":5},{"trial_n":34,"span":5,"encoder":"22298","distractor":"42298","target":"absent","response":"absent","rt":"2144.6000001431","correct":true,"confidence":5},{"trial_n":35,"span":6,"encoder":"137940","distractor":"137540","target":"present","response":"present","rt":"1764.9000000954","correct":true,"confidence":5},{"trial_n":36,"span":6,"encoder":"580557","distractor":"580555","target":"absent","response":"absent","rt":"2514.3000001907","correct":true,"confidence":5},{"trial_n":37,"span":7,"encoder":"7848740","distractor":"7842740","target":"present","response":"present","rt":"3027.9000000954","correct":true,"confidence":5},{"trial_n":38,"span":7,"encoder":"1255643","distractor":"0255643","target":"absent","response":"absent","rt":"1930.7000000477","correct":true,"confidence":4},{"trial_n":39,"span":8,"encoder":"72524300","distractor":"72554300","target":"absent","response":"absent","rt":"3435.7000000477","correct":true,"confidence":4},{"trial_n":40,"span":8,"encoder":"36325546","distractor":"36321546","target":"present","response":"present","rt":"2520.7999999523","correct":true,"confidence":4},{"trial_n":41,"span":9,"encoder":"278352046","distractor":"078352046","target":"present","response":"present","rt":"3302.2999999523","correct":true,"confidence":4},{"trial_n":42,"span":9,"encoder":"769114527","distractor":"769115527","target":"present","response":"present","rt":"1710.3999998569","correct":true,"confidence":5},{"trial_n":43,"span":10,"encoder":"5155837243","distractor":"5145837243","target":"present","response":"present","rt":"1596.1000001431","correct":true,"confidence":5},{"trial_n":44,"span":10,"encoder":"3882914260","distractor":"3882914220","target":"absent","response":"absent","rt":"2865.5","correct":true,"confidence":5},{"trial_n":45,"span":11,"encoder":"04401260310","distractor":"04401210310","target":"present","response":"present","rt":"3342.6999998093","correct":true,"confidence":4},{"trial_n":46,"span":11,"encoder":"87737475603","distractor":"87737475600","target":"present","response":"absent","rt":"2242.0999999046","correct":false,"confidence":3},{"trial_n":47,"span":10,"encoder":"7409134651","distractor":"7409134681","target":"present","response":"present","rt":"2075.5","correct":true,"confidence":4},{"trial_n":48,"span":10,"encoder":"8289830098","distractor":"8289830094","target":"present","response":"absent","rt":"9348.7000000477","correct":false,"confidence":4},{"trial_n":49,"span":9,"encoder":"423604522","distractor":"423624522","target":"present","response":"absent","rt":"1885.6000001431","correct":false,"confidence":5},{"trial_n":50,"span":8,"encoder":"53138958","distractor":"53131958","target":"absent","response":"present","rt":"1358.3000001907","correct":false,"confidence":5},{"trial_n":51,"span":7,"encoder":"2482545","distractor":"2487545","target":"absent","response":"absent","rt":"1742.2000000477","correct":true,"confidence":5},{"trial_n":52,"span":7,"encoder":"2772772","distractor":"2772762","target":"absent","response":"present","rt":"3662.7999999523","correct":false,"confidence":5},{"trial_n":53,"span":6,"encoder":"189419","distractor":"789419","target":"present","response":"present","rt":"1458.7000000477","correct":true,"confidence":5},{"trial_n":54,"span":6,"encoder":"139477","distractor":"139077","target":"present","response":"absent","rt":"1726.4000000954","correct":false,"confidence":3},{"trial_n":55,"span":5,"encoder":"04398","distractor":"94398","target":"absent","response":"present","rt":"11658.5","correct":false,"confidence":4},{"trial_n":56,"span":4,"encoder":"5728","distractor":"3728","target":"present","response":"present","rt":"16612.700000048","correct":true,"confidence":5},{"trial_n":57,"span":4,"encoder":"2496","distractor":"2486","target":"absent","response":"absent","rt":"1449.2999999523","correct":true,"confidence":4},{"trial_n":58,"span":5,"encoder":"37706","distractor":"47706","target":"present","response":"present","rt":"1288.3000001907","correct":true,"confidence":5},{"trial_n":59,"span":5,"encoder":"94209","distractor":"64209","target":"present","response":"present","rt":"2524.4000000954","correct":true,"confidence":5},{"trial_n":60,"span":6,"encoder":"791089","distractor":"791084","target":"present","response":"present","rt":"6263.5","correct":true,"confidence":5},{"trial_n":61,"span":6,"encoder":"329864","distractor":"389864","target":"absent","response":"absent","rt":"2409.7999999523","correct":true,"confidence":4},{"trial_n":62,"span":7,"encoder":"1892350","distractor":"1892370","target":"present","response":"present","rt":"4509.8999998569","correct":true,"confidence":4},{"trial_n":63,"span":7,"encoder":"9034219","distractor":"9034210","target":"present","response":"present","rt":"1821.5","correct":true,"confidence":5},{"trial_n":64,"span":8,"encoder":"38122348","distractor":"38129348","target":"absent","response":"present","rt":"1629.6000001431","correct":false,"confidence":1},{"trial_n":65,"span":7,"encoder":"3777866","distractor":"6777866","target":"absent","response":"present","rt":"1897.9000000954","correct":false,"confidence":5},{"trial_n":66,"span":6,"encoder":"993165","distractor":"990165","target":"present","response":"present","rt":"2028.5","correct":true,"confidence":5},{"trial_n":67,"span":6,"encoder":"525685","distractor":"585685","target":"absent","response":"absent","rt":"1825.2000000477","correct":true,"confidence":5},{"trial_n":68,"span":7,"encoder":"7602235","distractor":"7302235","target":"absent","response":"absent","rt":"1939.2999999523","correct":true,"confidence":5},{"trial_n":69,"span":7,"encoder":"5047982","distractor":"5047962","target":"absent","response":"absent","rt":"2666.7999999523","correct":true,"confidence":5},{"trial_n":70,"span":8,"encoder":"15319926","distractor":"15319986","target":"absent","response":"present","rt":"1719.2999999523","correct":false,"confidence":5},{"trial_n":71,"span":8,"encoder":"35697834","distractor":"35797834","target":"present","response":"present","rt":"5362.5","correct":true,"confidence":-1},{"trial_n":72,"span":8,"encoder":"09068245","distractor":"69068245","target":"present","response":"present","rt":"1481.5999999046","correct":true,"confidence":-1},{"trial_n":73,"span":9,"encoder":"005795640","distractor":"005715640","target":"absent","response":"absent","rt":"1605.1000001431","correct":true,"confidence":-1},{"trial_n":74,"span":9,"encoder":"783769987","distractor":"583769987","target":"absent","response":"absent","rt":"3685.5999999046","correct":true,"confidence":-1},{"trial_n":75,"span":10,"encoder":"8742806952","distractor":"8742806962","target":"present","response":"absent","rt":"2365.7999999523","correct":false,"confidence":-1},{"trial_n":76,"span":9,"encoder":"061957276","distractor":"061957976","target":"absent","response":"present","rt":"1707.1000001431","correct":false,"confidence":-1},{"trial_n":77,"span":8,"encoder":"90466036","distractor":"20466036","target":"present","response":"present","rt":"586.09999990463","correct":true,"confidence":-1},{"trial_n":78,"span":8,"encoder":"34466517","distractor":"34466597","target":"present","response":"present","rt":"729","correct":true,"confidence":-1},{"trial_n":79,"span":9,"encoder":"091267865","distractor":"095267865","target":"present","response":"absent","rt":"4031.4000000954","correct":false,"confidence":-1},{"trial_n":80,"span":8,"encoder":"96916149","distractor":"96986149","target":"absent","response":"absent","rt":"1980.5999999046","correct":true,"confidence":-1},{"trial_n":81,"span":8,"encoder":"25845483","distractor":"25845403","target":"present","response":"absent","rt":"1961.0999999046","correct":false,"confidence":-1},{"trial_n":82,"span":7,"encoder":"3986060","distractor":"3986260","target":"absent","response":"absent","rt":"2333.9000000954","correct":true,"confidence":-1},{"trial_n":83,"span":7,"encoder":"3735467","distractor":"3735267","target":"absent","response":"absent","rt":"2582.7999999523","correct":true,"confidence":-1},{"trial_n":84,"span":8,"encoder":"61742327","distractor":"61742326","target":"present","response":"present","rt":"1941.1000001431","correct":true,"confidence":-1},{"trial_n":85,"span":8,"encoder":"60397181","distractor":"65397181","target":"absent","response":"present","rt":"1152.2999999523","correct":false,"confidence":-1},{"trial_n":86,"span":7,"encoder":"4421009","distractor":"4421709","target":"absent","response":"present","rt":"1824.5","correct":false,"confidence":-1},{"trial_n":87,"span":6,"encoder":"542830","distractor":"544830","target":"present","response":"absent","rt":"2290.9000000954","correct":false,"confidence":-1},{"trial_n":88,"span":5,"encoder":"59474","distractor":"59974","target":"absent","response":"absent","rt":"637.59999990463","correct":true,"confidence":-1},{"trial_n":89,"span":5,"encoder":"31187","distractor":"34187","target":"absent","response":"absent","rt":"717.69999980927","correct":true,"confidence":-1},{"trial_n":90,"span":6,"encoder":"201956","distractor":"201936","target":"absent","response":"present","rt":"928.59999990463","correct":false,"confidence":-1},{"trial_n":91,"span":5,"encoder":"13647","distractor":"13640","target":"present","response":"present","rt":"1194.1000001431","correct":true,"confidence":5},{"trial_n":92,"span":5,"encoder":"18426","distractor":"18424","target":"present","response":"present","rt":"1547.5","correct":true,"confidence":5},{"trial_n":93,"span":6,"encoder":"370881","distractor":"310881","target":"absent","response":"absent","rt":"2210.8000001907","correct":true,"confidence":5},{"trial_n":94,"span":6,"encoder":"222179","distractor":"222178","target":"absent","response":"absent","rt":"2641.9000000954","correct":true,"confidence":4},{"trial_n":95,"span":7,"encoder":"4650895","distractor":"1650895","target":"present","response":"present","rt":"2275.7999999523","correct":true,"confidence":4},{"trial_n":96,"span":7,"encoder":"9517810","distractor":"9317810","target":"absent","response":"absent","rt":"2498.4000000954","correct":true,"confidence":5},{"trial_n":97,"span":8,"encoder":"77291612","distractor":"17291612","target":"absent","response":"absent","rt":"2853.3999998569","correct":true,"confidence":5},{"trial_n":98,"span":8,"encoder":"79550614","distractor":"79551614","target":"present","response":"present","rt":"1753.8999998569","correct":true,"confidence":5},{"trial_n":99,"span":9,"encoder":"383893486","distractor":"983893486","target":"absent","response":"absent","rt":"1475.2999999523","correct":true,"confidence":3},{"trial_n":100,"span":9,"encoder":"648919586","distractor":"648719586","target":"absent","response":"absent","rt":"1783.5","correct":true,"confidence":5},{"trial_n":101,"span":10,"encoder":"4365986076","distractor":"4065986076","target":"present","response":"present","rt":"2001.2000000477","correct":true,"confidence":5},{"trial_n":102,"span":10,"encoder":"1747276824","distractor":"0747276824","target":"present","response":"present","rt":"2281.3000001907","correct":true,"confidence":5},{"trial_n":103,"span":11,"encoder":"46252218733","distractor":"49252218733","target":"absent","response":"absent","rt":"2641.7999999523","correct":true,"confidence":5},{"trial_n":104,"span":11,"encoder":"03227916206","distractor":"02227916206","target":"absent","response":"absent","rt":"4696.2999999523","correct":true,"confidence":5},{"trial_n":105,"span":12,"encoder":"625882341710","distractor":"625882344710","target":"absent","response":"absent","rt":"1526.4000000954","correct":true,"confidence":4},{"trial_n":106,"span":12,"encoder":"133901827805","distractor":"183901827805","target":"present","response":"present","rt":"1495.5","correct":true,"confidence":5},{"trial_n":107,"span":13,"encoder":"8602689256074","distractor":"8002689256074","target":"absent","response":"absent","rt":"2447.3999998569","correct":true,"confidence":5},{"trial_n":108,"span":13,"encoder":"2577427429272","distractor":"2677427429272","target":"absent","response":"absent","rt":"2473.3999998569","correct":true,"confidence":1},{"trial_n":109,"span":14,"encoder":"43859443187590","distractor":"83859443187590","target":"present","response":"present","rt":"6755.7999999523","correct":true,"confidence":1},{"trial_n":110,"span":14,"encoder":"09767153654787","distractor":"01767153654787","target":"present","response":"absent","rt":"14012.399999857","correct":false,"confidence":1},{"trial_n":111,"span":13,"encoder":"2823854712842","distractor":"2823854412842","target":"present","response":"absent","rt":"2197.5999999046","correct":false,"confidence":1},{"trial_n":112,"span":12,"encoder":"969957370145","distractor":"969957370545","target":"present","response":"present","rt":"3623.2999999523","correct":true,"confidence":2},{"trial_n":113,"span":12,"encoder":"723083492205","distractor":"723083442205","target":"absent","response":"absent","rt":"14248.299999952","correct":true,"confidence":1},{"trial_n":114,"span":13,"encoder":"3634317106911","distractor":"3614317106911","target":"present","response":"present","rt":"4628.9000000954","correct":true,"confidence":5},{"trial_n":115,"span":13,"encoder":"2959762734808","distractor":"2959762734898","target":"present","response":"present","rt":"2099.7999999523","correct":true,"confidence":5},{"trial_n":116,"span":14,"encoder":"26134756164087","distractor":"26134756164037","target":"absent","response":"absent","rt":"5419","correct":true,"confidence":4},{"trial_n":117,"span":14,"encoder":"49128700031099","distractor":"49428700031099","target":"present","response":"present","rt":"6800","correct":true,"confidence":1},{"trial_n":118,"span":15,"encoder":"530008338088080","distractor":"530008338088030","target":"present","response":"present","rt":"2527.1999998093","correct":true,"confidence":1},{"trial_n":119,"span":15,"encoder":"706193226996485","distractor":"706193326996485","target":"absent","response":"absent","rt":"1054.7000000477","correct":true,"confidence":1},{"trial_n":120,"span":16,"encoder":"7450685515871165","distractor":"7250685515871165","target":"absent","response":"present","rt":"1818.4000000954","correct":false,"confidence":3},{"trial_n":121,"span":15,"encoder":"022396298119607","distractor":"022396298119407","target":"absent","response":"absent","rt":"2586.9000000954","correct":true,"confidence":1},{"trial_n":122,"span":15,"encoder":"192957559440006","distractor":"892957559440006","target":"present","response":"absent","rt":"2654.5","correct":false,"confidence":4},{"trial_n":123,"span":14,"encoder":"61679091360538","distractor":"61679041360538","target":"present","response":"present","rt":"6106.8999998569","correct":true,"confidence":3},{"trial_n":124,"span":14,"encoder":"82073629150161","distractor":"22073629150161","target":"present","response":"absent","rt":"1897.7000000477","correct":false,"confidence":4},{"trial_n":125,"span":13,"encoder":"0483151196311","distractor":"0483151796311","target":"present","response":"present","rt":"1348","correct":true,"confidence":4},{"trial_n":126,"span":13,"encoder":"3748943911232","distractor":"3748941911232","target":"absent","response":"absent","rt":"1158.1999998093","correct":true,"confidence":1},{"trial_n":127,"span":14,"encoder":"07949837701796","distractor":"57949837701796","target":"absent","response":"absent","rt":"3347.2999999523","correct":true,"confidence":5},{"trial_n":128,"span":14,"encoder":"36474188772187","distractor":"36474188772087","target":"absent","response":"absent","rt":"3739.2000000477","correct":true,"confidence":5},{"trial_n":129,"span":15,"encoder":"389592879100915","distractor":"389592899100915","target":"present","response":"absent","rt":"1976.0999999046","correct":false,"confidence":1},{"trial_n":130,"span":14,"encoder":"73491369203178","distractor":"73491369204178","target":"present","response":"present","rt":"2842","correct":true,"confidence":1},{"trial_n":131,"span":14,"encoder":"59888857155555","distractor":"59888847155555","target":"absent","response":"absent","rt":"1177.7999999523","correct":true,"confidence":1},{"trial_n":132,"span":15,"encoder":"242517941795353","distractor":"242517941795753","target":"present","response":"absent","rt":"1664","correct":false,"confidence":1},{"trial_n":133,"span":14,"encoder":"10386080273169","distractor":"11386080273169","target":"absent","response":"present","rt":"1116.5","correct":false,"confidence":1},{"trial_n":134,"span":13,"encoder":"1354339582172","distractor":"1354339982172","target":"present","response":"present","rt":"1368.7999999523","correct":true,"confidence":3},{"trial_n":135,"span":13,"encoder":"1772929566852","distractor":"1772924566852","target":"absent","response":"present","rt":"1183","correct":false,"confidence":1},{"trial_n":136,"span":12,"encoder":"668937119512","distractor":"668997119512","target":"present","response":"absent","rt":"6840.0999999046","correct":false,"confidence":1},{"trial_n":137,"span":11,"encoder":"95440983883","distractor":"25440983883","target":"present","response":"absent","rt":"2562","correct":false,"confidence":1},{"trial_n":138,"span":10,"encoder":"9837098804","distractor":"4837098804","target":"present","response":"present","rt":"1199.7000000477","correct":true,"confidence":1},{"trial_n":139,"span":10,"encoder":"9171637815","distractor":"9171637855","target":"present","response":"present","rt":"1648.7999999523","correct":true,"confidence":1},{"trial_n":140,"span":11,"encoder":"31380022603","distractor":"31380022605","target":"absent","response":"absent","rt":"2059.9000000954","correct":true,"confidence":5}]