[{"trial_n":1,"span":8,"encoder":"55146377","distractor":"55446377","target":"present","response":"absent","rt":"4892.3000000715","correct":false,"confidence":-1},{"trial_n":2,"span":6,"encoder":"489332","distractor":"469332","target":"present","response":"present","rt":"1679.7000000477","correct":true,"confidence":-1},{"trial_n":3,"span":6,"encoder":"842848","distractor":"842868","target":"absent","response":"absent","rt":"2745.1000000238","correct":true,"confidence":-1},{"trial_n":4,"span":8,"encoder":"08416646","distractor":"08436646","target":"absent","response":"present","rt":"3311.7000000477","correct":false,"confidence":-1},{"trial_n":5,"span":6,"encoder":"006695","distractor":"002695","target":"present","response":"present","rt":"2609.1000000238","correct":true,"confidence":-1},{"trial_n":6,"span":6,"encoder":"299407","distractor":"299402","target":"present","response":"present","rt":"1285.1999999285","correct":true,"confidence":-1},{"trial_n":7,"span":8,"encoder":"86448158","distractor":"86448858","target":"absent","response":"absent","rt":"2751.9000000954","correct":true,"confidence":-1},{"trial_n":8,"span":8,"encoder":"08494839","distractor":"08414839","target":"absent","response":"absent","rt":"1581.5","correct":true,"confidence":-1},{"trial_n":9,"span":10,"encoder":"9499229508","distractor":"9499229503","target":"present","response":"present","rt":"3653.7000000477","correct":true,"confidence":-1},{"trial_n":10,"span":10,"encoder":"3269310461","distractor":"3269310411","target":"absent","response":"absent","rt":"3479.5999999046","correct":true,"confidence":-1},{"trial_n":11,"span":12,"encoder":"873238104153","distractor":"873238104154","target":"absent","response":"absent","rt":"2569.8999999762","correct":true,"confidence":-1},{"trial_n":12,"span":12,"encoder":"326911300676","distractor":"326911300076","target":"absent","response":"present","rt":"2430.1999999285","correct":false,"confidence":-1},{"trial_n":13,"span":11,"encoder":"44845532294","distractor":"44895532294","target":"absent","response":"absent","rt":"1711.6000000238","correct":true,"confidence":-1},{"trial_n":14,"span":11,"encoder":"88714558702","distractor":"88754558702","target":"absent","response":"present","rt":"3877.3999999762","correct":false,"confidence":-1},{"trial_n":15,"span":10,"encoder":"8878270091","distractor":"8874270091","target":"present","response":"present","rt":"3317.3000000715","correct":true,"confidence":-1},{"trial_n":16,"span":10,"encoder":"0962465426","distractor":"0952465426","target":"present","response":"present","rt":"4496.1000000238","correct":true,"confidence":-1},{"trial_n":17,"span":11,"encoder":"84908111485","distractor":"34908111485","target":"present","response":"present","rt":"3165","correct":true,"confidence":-1},{"trial_n":18,"span":11,"encoder":"11240885460","distractor":"11240885360","target":"present","response":"present","rt":"3392.5","correct":true,"confidence":-1},{"trial_n":19,"span":12,"encoder":"450698928241","distractor":"950698928241","target":"absent","response":"absent","rt":"3621.1000000238","correct":true,"confidence":-1},{"trial_n":20,"span":12,"encoder":"573047831886","distractor":"573447831886","target":"absent","response":"absent","rt":"2414","correct":true,"confidence":-1},{"trial_n":21,"span":13,"encoder":"4054213778662","distractor":"4054213776662","target":"present","response":"absent","rt":"5094.3999999762","correct":false,"confidence":4},{"trial_n":22,"span":12,"encoder":"571827088365","distractor":"571827088364","target":"present","response":"present","rt":"6609.5","correct":true,"confidence":4},{"trial_n":23,"span":12,"encoder":"989302635471","distractor":"980302635471","target":"absent","response":"present","rt":"5532.3999999762","correct":false,"confidence":4},{"trial_n":24,"span":11,"encoder":"69415862511","distractor":"69615862511","target":"absent","response":"absent","rt":"2895.2000000477","correct":true,"confidence":4},{"trial_n":25,"span":11,"encoder":"46251795099","distractor":"46251785099","target":"absent","response":"absent","rt":"4918.0999999046","correct":true,"confidence":3},{"trial_n":26,"span":12,"encoder":"571027606689","distractor":"571027606685","target":"present","response":"present","rt":"5253.6000000238","correct":true,"confidence":5},{"trial_n":27,"span":12,"encoder":"365047977637","distractor":"365087977637","target":"present","response":"absent","rt":"5045.7000000477","correct":false,"confidence":4},{"trial_n":28,"span":11,"encoder":"63679570401","distractor":"63579570401","target":"present","response":"present","rt":"4650.9000000954","correct":true,"confidence":1},{"trial_n":29,"span":11,"encoder":"40175602150","distractor":"40175609150","target":"present","response":"present","rt":"3141.3999999762","correct":true,"confidence":3},{"trial_n":30,"span":12,"encoder":"931301556869","distractor":"931301156869","target":"present","response":"present","rt":"4386.7999999523","correct":true,"confidence":5},{"trial_n":31,"span":12,"encoder":"233406917782","distractor":"273406917782","target":"present","response":"present","rt":"5001.5999999046","correct":true,"confidence":5},{"trial_n":32,"span":13,"encoder":"8771592498113","distractor":"8771592498111","target":"absent","response":"absent","rt":"2354.1999999285","correct":true,"confidence":5},{"trial_n":33,"span":13,"encoder":"4591553086456","distractor":"4591553083456","target":"absent","response":"absent","rt":"4780.5","correct":true,"confidence":5},{"trial_n":34,"span":14,"encoder":"97388388930289","distractor":"97368388930289","target":"absent","response":"present","rt":"4387.9000000954","correct":false,"confidence":5},{"trial_n":35,"span":13,"encoder":"3547136914759","distractor":"3447136914759","target":"absent","response":"present","rt":"5950.2000000477","correct":false,"confidence":4},{"trial_n":36,"span":12,"encoder":"235577677673","distractor":"235577177673","target":"absent","response":"present","rt":"3180.1000000238","correct":false,"confidence":5},{"trial_n":37,"span":11,"encoder":"82115412178","distractor":"82115418178","target":"absent","response":"absent","rt":"2460.8999999762","correct":true,"confidence":3},{"trial_n":38,"span":11,"encoder":"65706516534","distractor":"65716516534","target":"present","response":"present","rt":"5095.8999999762","correct":true,"confidence":5},{"trial_n":39,"span":12,"encoder":"417179300132","distractor":"417174300132","target":"present","response":"present","rt":"4476.1999999285","correct":true,"confidence":4},{"trial_n":40,"span":12,"encoder":"946332775496","distractor":"946332875496","target":"present","response":"present","rt":"4826.1000000238","correct":true,"confidence":5},{"trial_n":41,"span":13,"encoder":"3895591837863","distractor":"3895591837843","target":"present","response":"present","rt":"5540.7999999523","correct":true,"confidence":5},{"trial_n":42,"span":13,"encoder":"1402189645445","distractor":"8402189645445","target":"absent","response":"present","rt":"5990.7999999523","correct":false,"confidence":4},{"trial_n":43,"span":12,"encoder":"889583083248","distractor":"883583083248","target":"absent","response":"present","rt":"8001.8000000715","correct":false,"confidence":3},{"trial_n":44,"span":11,"encoder":"01747297482","distractor":"01767297482","target":"present","response":"absent","rt":"4883.3000000715","correct":false,"confidence":1},{"trial_n":45,"span":10,"encoder":"4472049332","distractor":"4471049332","target":"present","response":"present","rt":"1614","correct":true,"confidence":5},{"trial_n":46,"span":10,"encoder":"8906988516","distractor":"8906968516","target":"absent","response":"present","rt":"4908.5","correct":false,"confidence":4},{"trial_n":47,"span":9,"encoder":"447091608","distractor":"747091608","target":"present","response":"present","rt":"2323.3999999762","correct":true,"confidence":5},{"trial_n":48,"span":9,"encoder":"455205383","distractor":"455205393","target":"absent","response":"absent","rt":"2188.1000000238","correct":true,"confidence":5},{"trial_n":49,"span":10,"encoder":"6021100760","distractor":"6071100760","target":"absent","response":"absent","rt":"4658.8999999762","correct":true,"confidence":3},{"trial_n":50,"span":10,"encoder":"9519711452","distractor":"9519761452","target":"present","response":"present","rt":"3135.3999999762","correct":true,"confidence":5},{"trial_n":51,"span":11,"encoder":"98235728518","distractor":"08235728518","target":"absent","response":"present","rt":"4773","correct":false,"confidence":4},{"trial_n":52,"span":10,"encoder":"8057006582","distractor":"8057009582","target":"present","response":"present","rt":"1616.2999999523","correct":true,"confidence":5},{"trial_n":53,"span":10,"encoder":"3560666193","distractor":"3560666196","target":"present","response":"absent","rt":"3774.0999999046","correct":false,"confidence":4},{"trial_n":54,"span":9,"encoder":"323607552","distractor":"323607558","target":"present","response":"present","rt":"3248.1000000238","correct":true,"confidence":5},{"trial_n":55,"span":9,"encoder":"719266000","distractor":"719266600","target":"present","response":"present","rt":"2528.1000000238","correct":true,"confidence":5},{"trial_n":56,"span":10,"encoder":"5250722393","distractor":"5258722393","target":"present","response":"present","rt":"2192.3000000715","correct":true,"confidence":5},{"trial_n":57,"span":10,"encoder":"4913238687","distractor":"4913638687","target":"absent","response":"absent","rt":"3177.8000000715","correct":true,"confidence":5},{"trial_n":58,"span":11,"encoder":"64369129995","distractor":"64369129999","target":"present","response":"absent","rt":"3517.3000000715","correct":false,"confidence":3},{"trial_n":59,"span":10,"encoder":"9561455205","distractor":"9561425205","target":"absent","response":"absent","rt":"3333","correct":true,"confidence":3},{"trial_n":60,"span":10,"encoder":"0430495781","distractor":"0470495781","target":"present","response":"present","rt":"1833.3999999762","correct":true,"confidence":5},{"trial_n":61,"span":11,"encoder":"42582517605","distractor":"42582517655","target":"present","response":"absent","rt":"3341.3000000715","correct":false,"confidence":3},{"trial_n":62,"span":10,"encoder":"1114017518","distractor":"1114017519","target":"present","response":"present","rt":"1844.7999999523","correct":true,"confidence":5},{"trial_n":63,"span":10,"encoder":"1985697329","distractor":"5985697329","target":"absent","response":"absent","rt":"4393.7999999523","correct":true,"confidence":3},{"trial_n":64,"span":11,"encoder":"14803502573","distractor":"13803502573","target":"absent","response":"absent","rt":"2945.2999999523","correct":true,"confidence":3},{"trial_n":65,"span":11,"encoder":"17386732653","distractor":"17386332653","target":"present","response":"present","rt":"3932.6000000238","correct":true,"confidence":5},{"trial_n":66,"span":12,"encoder":"909398745503","distractor":"909338745503","target":"absent","response":"absent","rt":"7251.1000000238","correct":true,"confidence":3},{"trial_n":67,"span":12,"encoder":"454483709866","distractor":"454483209866","target":"absent","response":"absent","rt":"4229.5","correct":true,"confidence":4},{"trial_n":68,"span":13,"encoder":"0944373280023","distractor":"0344373280023","target":"present","response":"present","rt":"5618.6000000238","correct":true,"confidence":5},{"trial_n":69,"span":13,"encoder":"2460169471008","distractor":"2463169471008","target":"absent","response":"present","rt":"2363.7000000477","correct":false,"confidence":5},{"trial_n":70,"span":12,"encoder":"491856913060","distractor":"491856013060","target":"absent","response":"absent","rt":"4283.8999999762","correct":true,"confidence":3},{"trial_n":71,"span":8,"encoder":"49532591","distractor":"46532591","target":"present","response":"present","rt":"4275.1000000238","correct":true,"confidence":-1},{"trial_n":72,"span":8,"encoder":"64140531","distractor":"64130531","target":"present","response":"present","rt":"5598.6000000238","correct":true,"confidence":-1},{"trial_n":73,"span":9,"encoder":"669704596","distractor":"669004596","target":"absent","response":"absent","rt":"1952.2999999523","correct":true,"confidence":-1},{"trial_n":74,"span":9,"encoder":"894844673","distractor":"894834673","target":"absent","response":"absent","rt":"3901","correct":true,"confidence":-1},{"trial_n":75,"span":10,"encoder":"1220601197","distractor":"1220602197","target":"present","response":"present","rt":"4806.6000000238","correct":true,"confidence":-1},{"trial_n":76,"span":10,"encoder":"9258983829","distractor":"9258983879","target":"absent","response":"absent","rt":"7577.1000000238","correct":true,"confidence":-1},{"trial_n":77,"span":11,"encoder":"03130149563","distractor":"03930149563","target":"absent","response":"absent","rt":"8200.8999999762","correct":true,"confidence":-1},{"trial_n":78,"span":11,"encoder":"42990304870","distractor":"42990304850","target":"present","response":"present","rt":"2705.2999999523","correct":true,"confidence":-1},{"trial_n":79,"span":12,"encoder":"448487737274","distractor":"448487437274","target":"present","response":"absent","rt":"11169.200000048","correct":false,"confidence":-1},{"trial_n":80,"span":11,"encoder":"84814902058","distractor":"84814902056","target":"absent","response":"absent","rt":"2883.1000000238","correct":true,"confidence":-1},{"trial_n":81,"span":11,"encoder":"03040526757","distractor":"03049526757","target":"present","response":"present","rt":"4224.4000000954","correct":true,"confidence":-1},{"trial_n":82,"span":12,"encoder":"717901005177","distractor":"727901005177","target":"present","response":"present","rt":"6115","correct":true,"confidence":-1},{"trial_n":83,"span":12,"encoder":"637555126328","distractor":"637556126328","target":"present","response":"present","rt":"4868.8999999762","correct":true,"confidence":-1},{"trial_n":84,"span":13,"encoder":"9128662958031","distractor":"9128562958031","target":"absent","response":"absent","rt":"7516.2000000477","correct":true,"confidence":-1},{"trial_n":85,"span":13,"encoder":"6896333726779","distractor":"6896333126779","target":"absent","response":"absent","rt":"8167.5","correct":true,"confidence":-1},{"trial_n":86,"span":14,"encoder":"29789541659629","distractor":"27789541659629","target":"absent","response":"absent","rt":"4061.8999999762","correct":true,"confidence":-1},{"trial_n":87,"span":14,"encoder":"10833092136145","distractor":"10833092136115","target":"absent","response":"absent","rt":"2354.5","correct":true,"confidence":-1},{"trial_n":88,"span":15,"encoder":"555662398130099","distractor":"555612398130099","target":"absent","response":"absent","rt":"6286","correct":true,"confidence":-1},{"trial_n":89,"span":15,"encoder":"002226389090146","distractor":"002226389090144","target":"present","response":"absent","rt":"5330.6000000238","correct":false,"confidence":-1},{"trial_n":90,"span":14,"encoder":"45274189266291","distractor":"45294189266291","target":"absent","response":"absent","rt":"6458.3000000715","correct":true,"confidence":-1},{"trial_n":91,"span":14,"encoder":"61404676532048","distractor":"61408676532048","target":"absent","response":"absent","rt":"6764.8000000715","correct":true,"confidence":3},{"trial_n":92,"span":15,"encoder":"437730330128512","distractor":"437730330178512","target":"present","response":"absent","rt":"7774.1999999285","correct":false,"confidence":4},{"trial_n":93,"span":14,"encoder":"08888429087664","distractor":"08888479087664","target":"absent","response":"present","rt":"6506.8999999762","correct":false,"confidence":2},{"trial_n":94,"span":13,"encoder":"2179931702407","distractor":"2179731702407","target":"present","response":"present","rt":"2724.8999999762","correct":true,"confidence":4},{"trial_n":95,"span":13,"encoder":"0145154510285","distractor":"0145134510285","target":"present","response":"present","rt":"7901","correct":true,"confidence":4},{"trial_n":96,"span":14,"encoder":"35414180648278","distractor":"35414180648271","target":"present","response":"absent","rt":"6342","correct":false,"confidence":4},{"trial_n":97,"span":13,"encoder":"8420101208503","distractor":"8440101208503","target":"present","response":"present","rt":"9841.1999999285","correct":true,"confidence":4},{"trial_n":98,"span":13,"encoder":"2939936592563","distractor":"2939936592553","target":"absent","response":"absent","rt":"6350.8999999762","correct":true,"confidence":2},{"trial_n":99,"span":14,"encoder":"18798349765801","distractor":"14798349765801","target":"absent","response":"absent","rt":"3547.5","correct":true,"confidence":3},{"trial_n":100,"span":14,"encoder":"40133207863370","distractor":"40633207863370","target":"absent","response":"absent","rt":"6478.7000000477","correct":true,"confidence":3},{"trial_n":101,"span":15,"encoder":"876018588345044","distractor":"876018888345044","target":"present","response":"present","rt":"5359","correct":true,"confidence":4},{"trial_n":102,"span":15,"encoder":"480220599919077","distractor":"480620599919077","target":"present","response":"present","rt":"6674.4000000954","correct":true,"confidence":3},{"trial_n":103,"span":16,"encoder":"0459749579663218","distractor":"0459749579663918","target":"absent","response":"absent","rt":"10338","correct":true,"confidence":3},{"trial_n":104,"span":16,"encoder":"6455036757729134","distractor":"7455036757729134","target":"absent","response":"absent","rt":"2056.2999999523","correct":true,"confidence":5},{"trial_n":105,"span":17,"encoder":"64337657131740252","distractor":"64337657131770252","target":"present","response":"absent","rt":"10385.100000024","correct":false,"confidence":3},{"trial_n":106,"span":16,"encoder":"0445092404101310","distractor":"0445092407101310","target":"absent","response":"absent","rt":"8346.2999999523","correct":true,"confidence":5},{"trial_n":107,"span":16,"encoder":"4378654776412876","distractor":"4178654776412876","target":"present","response":"present","rt":"3792.5","correct":true,"confidence":3},{"trial_n":108,"span":17,"encoder":"18515666253681197","distractor":"18513666253681197","target":"absent","response":"present","rt":"9685.6000000238","correct":false,"confidence":1},{"trial_n":109,"span":16,"encoder":"9430823189535081","distractor":"9430823159535081","target":"absent","response":"present","rt":"5460","correct":false,"confidence":2},{"trial_n":110,"span":15,"encoder":"374671935222349","distractor":"374671935222949","target":"present","response":"present","rt":"3441.7000000477","correct":true,"confidence":5},{"trial_n":111,"span":15,"encoder":"414407658383353","distractor":"414007658383353","target":"absent","response":"present","rt":"5012.3999999762","correct":false,"confidence":4},{"trial_n":112,"span":14,"encoder":"49212040615116","distractor":"49212040619116","target":"absent","response":"absent","rt":"2690.6000000238","correct":true,"confidence":5},{"trial_n":113,"span":14,"encoder":"71915906925750","distractor":"71915606925750","target":"present","response":"present","rt":"10107.900000095","correct":true,"confidence":4},{"trial_n":114,"span":15,"encoder":"893538855536185","distractor":"893528855536185","target":"present","response":"present","rt":"6503.4000000954","correct":true,"confidence":4},{"trial_n":115,"span":15,"encoder":"426801400279198","distractor":"426801402279198","target":"absent","response":"absent","rt":"6640.6000000238","correct":true,"confidence":4},{"trial_n":116,"span":16,"encoder":"3898015431923025","distractor":"3898415431923025","target":"present","response":"absent","rt":"5401.6000000238","correct":false,"confidence":3},{"trial_n":117,"span":15,"encoder":"123590237969169","distractor":"123590237969163","target":"present","response":"present","rt":"7863.3000000715","correct":true,"confidence":4},{"trial_n":118,"span":15,"encoder":"626013340044701","distractor":"626013340074701","target":"absent","response":"absent","rt":"4391.6000000238","correct":true,"confidence":4},{"trial_n":119,"span":16,"encoder":"8012530408688073","distractor":"8015530408688073","target":"present","response":"absent","rt":"6006.0999999046","correct":false,"confidence":3},{"trial_n":120,"span":15,"encoder":"458673539542232","distractor":"458673539547232","target":"present","response":"absent","rt":"12122.799999952","correct":false,"confidence":3},{"trial_n":121,"span":14,"encoder":"92917415009199","distractor":"92917715009199","target":"absent","response":"present","rt":"9450.6000000238","correct":false,"confidence":3},{"trial_n":122,"span":13,"encoder":"6401373833776","distractor":"6481373833776","target":"absent","response":"absent","rt":"2253.2999999523","correct":true,"confidence":4},{"trial_n":123,"span":13,"encoder":"0245670629847","distractor":"0245675629847","target":"present","response":"present","rt":"6183.0999999046","correct":true,"confidence":2},{"trial_n":124,"span":14,"encoder":"21125956523750","distractor":"21125956023750","target":"present","response":"absent","rt":"6535.6999999285","correct":false,"confidence":3},{"trial_n":125,"span":13,"encoder":"5991203959843","distractor":"5991203959543","target":"absent","response":"present","rt":"6168.5","correct":false,"confidence":3},{"trial_n":126,"span":12,"encoder":"322026479427","distractor":"372026479427","target":"present","response":"present","rt":"8098.1999999285","correct":true,"confidence":3},{"trial_n":127,"span":12,"encoder":"938900459688","distractor":"936900459688","target":"absent","response":"present","rt":"5206.5","correct":false,"confidence":2},{"trial_n":128,"span":11,"encoder":"19553250585","distractor":"19552250585","target":"absent","response":"absent","rt":"3280.7999999523","correct":true,"confidence":5},{"trial_n":129,"span":11,"encoder":"96634937122","distractor":"96034937122","target":"absent","response":"absent","rt":"2764.6000000238","correct":true,"confidence":5},{"trial_n":130,"span":12,"encoder":"758234257746","distractor":"758234297746","target":"present","response":"absent","rt":"3536.2999999523","correct":false,"confidence":3},{"trial_n":131,"span":11,"encoder":"79340986082","distractor":"09340986082","target":"present","response":"present","rt":"4679.6000000238","correct":true,"confidence":5},{"trial_n":132,"span":11,"encoder":"80763007027","distractor":"80763007037","target":"absent","response":"absent","rt":"4284.3000000715","correct":true,"confidence":4},{"trial_n":133,"span":12,"encoder":"435728706174","distractor":"405728706174","target":"absent","response":"absent","rt":"19317.900000095","correct":true,"confidence":2},{"trial_n":134,"span":12,"encoder":"754605151758","distractor":"754605155758","target":"present","response":"present","rt":"12538.600000024","correct":true,"confidence":3},{"trial_n":135,"span":13,"encoder":"4352944343363","distractor":"4352944349363","target":"present","response":"absent","rt":"5586","correct":false,"confidence":5},{"trial_n":136,"span":12,"encoder":"818100952823","distractor":"018100952823","target":"present","response":"present","rt":"5178.5","correct":true,"confidence":5},{"trial_n":137,"span":12,"encoder":"699730271633","distractor":"609730271633","target":"present","response":"present","rt":"4853.7000000477","correct":true,"confidence":4},{"trial_n":138,"span":13,"encoder":"8996899733967","distractor":"8996894733967","target":"present","response":"present","rt":"8265.2999999523","correct":true,"confidence":5},{"trial_n":139,"span":13,"encoder":"5945443556232","distractor":"5945043556232","target":"present","response":"present","rt":"2703.6999999285","correct":true,"confidence":5},{"trial_n":140,"span":14,"encoder":"59623565823579","distractor":"59663565823579","target":"absent","response":"absent","rt":"2597.1000000238","correct":true,"confidence":5}]