[{"trial_n":1,"n_dots":4.25,"target":"right","response":"right","rt":3932.1999999285,"correct":true,"confidence":-1},{"trial_n":2,"n_dots":4.25,"target":"left","response":"right","rt":1269.9000000954,"correct":false,"confidence":-1},{"trial_n":3,"n_dots":4.65,"target":"left","response":"left","rt":536.10000002384,"correct":true,"confidence":-1},{"trial_n":4,"n_dots":4.65,"target":"right","response":"right","rt":457.5,"correct":true,"confidence":-1},{"trial_n":5,"n_dots":4.25,"target":"right","response":"right","rt":918.39999997616,"correct":true,"confidence":-1},{"trial_n":6,"n_dots":4.25,"target":"right","response":"right","rt":988.5,"correct":true,"confidence":-1},{"trial_n":7,"n_dots":3.85,"target":"left","response":"left","rt":1852,"correct":true,"confidence":-1},{"trial_n":8,"n_dots":3.85,"target":"left","response":"left","rt":1434.7000000477,"correct":true,"confidence":-1},{"trial_n":9,"n_dots":3.65,"target":"right","response":"right","rt":742.30000007153,"correct":true,"confidence":-1},{"trial_n":10,"n_dots":3.65,"target":"right","response":"left","rt":658.69999992847,"correct":false,"confidence":-1},{"trial_n":11,"n_dots":3.85,"target":"left","response":"left","rt":385.89999997616,"correct":true,"confidence":-1},{"trial_n":12,"n_dots":3.85,"target":"right","response":"right","rt":963.79999995232,"correct":true,"confidence":-1},{"trial_n":13,"n_dots":3.75,"target":"left","response":"left","rt":814.60000002384,"correct":true,"confidence":-1},{"trial_n":14,"n_dots":3.75,"target":"left","response":"left","rt":519,"correct":true,"confidence":-1},{"trial_n":15,"n_dots":3.65,"target":"left","response":"left","rt":499.89999997616,"correct":true,"confidence":-1},{"trial_n":16,"n_dots":3.65,"target":"left","response":"left","rt":207.39999997616,"correct":true,"confidence":-1},{"trial_n":17,"n_dots":3.55,"target":"left","response":"left","rt":262.5,"correct":true,"confidence":-1},{"trial_n":18,"n_dots":3.55,"target":"right","response":"left","rt":414.39999997616,"correct":false,"confidence":-1},{"trial_n":19,"n_dots":3.65,"target":"right","response":"right","rt":502.40000009537,"correct":true,"confidence":-1},{"trial_n":20,"n_dots":3.65,"target":"left","response":"left","rt":259.90000009537,"correct":true,"confidence":-1},{"trial_n":21,"n_dots":3.55,"target":"right","response":"right","rt":261,"correct":true,"confidence":4},{"trial_n":22,"n_dots":3.55,"target":"right","response":"right","rt":585.20000004768,"correct":true,"confidence":4},{"trial_n":23,"n_dots":3.45,"target":"right","response":"right","rt":701.10000002384,"correct":true,"confidence":4},{"trial_n":24,"n_dots":3.45,"target":"right","response":"right","rt":577,"correct":true,"confidence":3},{"trial_n":25,"n_dots":3.35,"target":"right","response":"left","rt":1021.2999999523,"correct":false,"confidence":3},{"trial_n":26,"n_dots":3.45,"target":"left","response":"left","rt":563.39999997616,"correct":true,"confidence":4},{"trial_n":27,"n_dots":3.45,"target":"right","response":"left","rt":798.19999992847,"correct":false,"confidence":4},{"trial_n":28,"n_dots":3.55,"target":"left","response":"left","rt":895.20000004768,"correct":true,"confidence":4},{"trial_n":29,"n_dots":3.55,"target":"left","response":"left","rt":425,"correct":true,"confidence":4},{"trial_n":30,"n_dots":3.45,"target":"right","response":"right","rt":1034.6000000238,"correct":true,"confidence":4},{"trial_n":31,"n_dots":3.45,"target":"left","response":"left","rt":935.60000002384,"correct":true,"confidence":2},{"trial_n":32,"n_dots":3.35,"target":"right","response":"left","rt":1213,"correct":false,"confidence":1},{"trial_n":33,"n_dots":3.45,"target":"right","response":"left","rt":1595.3000000715,"correct":false,"confidence":1},{"trial_n":34,"n_dots":3.55,"target":"right","response":"left","rt":2781.7000000477,"correct":false,"confidence":1},{"trial_n":35,"n_dots":3.65,"target":"left","response":"left","rt":1095.1000000238,"correct":true,"confidence":1},{"trial_n":36,"n_dots":3.65,"target":"right","response":"left","rt":1039.3999999762,"correct":false,"confidence":1},{"trial_n":37,"n_dots":3.75,"target":"left","response":"left","rt":1049.6000000238,"correct":true,"confidence":4},{"trial_n":38,"n_dots":3.75,"target":"right","response":"right","rt":837.5,"correct":true,"confidence":1},{"trial_n":39,"n_dots":3.65,"target":"right","response":"right","rt":656.60000002384,"correct":true,"confidence":3},{"trial_n":40,"n_dots":3.65,"target":"right","response":"right","rt":966.40000009537,"correct":true,"confidence":3},{"trial_n":41,"n_dots":3.55,"target":"left","response":"left","rt":724.20000004768,"correct":true,"confidence":4},{"trial_n":42,"n_dots":3.55,"target":"right","response":"left","rt":1213.5,"correct":false,"confidence":3},{"trial_n":43,"n_dots":3.65,"target":"right","response":"right","rt":520.10000002384,"correct":true,"confidence":4},{"trial_n":44,"n_dots":3.65,"target":"left","response":"left","rt":966.10000002384,"correct":true,"confidence":3},{"trial_n":45,"n_dots":3.55,"target":"left","response":"left","rt":643.10000002384,"correct":true,"confidence":5},{"trial_n":46,"n_dots":3.55,"target":"right","response":"left","rt":1362.7999999523,"correct":false,"confidence":3},{"trial_n":47,"n_dots":3.65,"target":"right","response":"right","rt":432.70000004768,"correct":true,"confidence":5},{"trial_n":48,"n_dots":3.65,"target":"left","response":"left","rt":996.89999997616,"correct":true,"confidence":5},{"trial_n":49,"n_dots":3.55,"target":"right","response":"right","rt":418.5,"correct":true,"confidence":5},{"trial_n":50,"n_dots":3.55,"target":"right","response":"right","rt":786,"correct":true,"confidence":3},{"trial_n":51,"n_dots":3.45,"target":"right","response":"right","rt":371,"correct":true,"confidence":5},{"trial_n":52,"n_dots":3.45,"target":"left","response":"left","rt":1885.7999999523,"correct":true,"confidence":4},{"trial_n":53,"n_dots":3.35,"target":"right","response":"right","rt":604.19999992847,"correct":true,"confidence":5},{"trial_n":54,"n_dots":3.35,"target":"left","response":"left","rt":1130.2000000477,"correct":true,"confidence":3},{"trial_n":55,"n_dots":3.25,"target":"right","response":"right","rt":797.5,"correct":true,"confidence":3},{"trial_n":56,"n_dots":3.25,"target":"left","response":"left","rt":903.30000007153,"correct":true,"confidence":4},{"trial_n":57,"n_dots":3.15,"target":"left","response":"left","rt":885.29999995232,"correct":true,"confidence":2},{"trial_n":58,"n_dots":3.15,"target":"right","response":"left","rt":924.30000007153,"correct":false,"confidence":1},{"trial_n":59,"n_dots":3.25,"target":"right","response":"left","rt":1081.1000000238,"correct":false,"confidence":1},{"trial_n":60,"n_dots":3.35,"target":"right","response":"right","rt":934.70000004768,"correct":true,"confidence":3},{"trial_n":61,"n_dots":3.35,"target":"left","response":"left","rt":701.5,"correct":true,"confidence":4},{"trial_n":62,"n_dots":3.25,"target":"right","response":"left","rt":803.79999995232,"correct":false,"confidence":3},{"trial_n":63,"n_dots":3.35,"target":"right","response":"right","rt":926.20000004768,"correct":true,"confidence":3},{"trial_n":64,"n_dots":3.35,"target":"right","response":"right","rt":669.09999990463,"correct":true,"confidence":3},{"trial_n":65,"n_dots":3.25,"target":"right","response":"right","rt":918.5,"correct":true,"confidence":4},{"trial_n":66,"n_dots":3.25,"target":"left","response":"left","rt":937,"correct":true,"confidence":4},{"trial_n":67,"n_dots":3.15,"target":"right","response":"left","rt":1519.6000000238,"correct":false,"confidence":3},{"trial_n":68,"n_dots":3.25,"target":"right","response":"left","rt":1338.1000000238,"correct":false,"confidence":1},{"trial_n":69,"n_dots":3.35,"target":"left","response":"left","rt":1019.1000000238,"correct":true,"confidence":1},{"trial_n":70,"n_dots":3.35,"target":"left","response":"left","rt":1020.2999999523,"correct":true,"confidence":1},{"trial_n":71,"n_dots":3.25,"target":"left","response":"left","rt":1646.8000000715,"correct":true,"confidence":1},{"trial_n":72,"n_dots":3.25,"target":"left","response":"left","rt":1320.6000000238,"correct":true,"confidence":2},{"trial_n":73,"n_dots":3.15,"target":"right","response":"left","rt":949.39999997616,"correct":false,"confidence":1},{"trial_n":74,"n_dots":3.25,"target":"left","response":"left","rt":870.79999995232,"correct":true,"confidence":1},{"trial_n":75,"n_dots":3.25,"target":"right","response":"right","rt":969.10000002384,"correct":true,"confidence":3},{"trial_n":76,"n_dots":3.15,"target":"right","response":"left","rt":1939.2999999523,"correct":false,"confidence":2},{"trial_n":77,"n_dots":3.25,"target":"right","response":"left","rt":870.39999997616,"correct":false,"confidence":1},{"trial_n":78,"n_dots":3.35,"target":"right","response":"left","rt":1253,"correct":false,"confidence":2},{"trial_n":79,"n_dots":3.45,"target":"left","response":"left","rt":626.5,"correct":true,"confidence":4},{"trial_n":80,"n_dots":3.45,"target":"right","response":"left","rt":698.89999997616,"correct":false,"confidence":4},{"trial_n":81,"n_dots":3.55,"target":"right","response":"right","rt":257.20000004768,"correct":true,"confidence":4},{"trial_n":82,"n_dots":3.55,"target":"left","response":"left","rt":647.80000007153,"correct":true,"confidence":4},{"trial_n":83,"n_dots":3.45,"target":"right","response":"left","rt":916.39999997616,"correct":false,"confidence":3},{"trial_n":84,"n_dots":3.55,"target":"right","response":"right","rt":1125.7000000477,"correct":true,"confidence":3},{"trial_n":85,"n_dots":3.55,"target":"left","response":"left","rt":1360.6999999285,"correct":true,"confidence":2},{"trial_n":86,"n_dots":3.45,"target":"left","response":"left","rt":888.10000002384,"correct":true,"confidence":2},{"trial_n":87,"n_dots":3.45,"target":"right","response":"right","rt":881.39999997616,"correct":true,"confidence":2},{"trial_n":88,"n_dots":3.35,"target":"left","response":"left","rt":1221.7999999523,"correct":true,"confidence":3},{"trial_n":89,"n_dots":3.35,"target":"right","response":"right","rt":936.79999995232,"correct":true,"confidence":3},{"trial_n":90,"n_dots":3.25,"target":"right","response":"left","rt":869.59999990463,"correct":false,"confidence":3},{"trial_n":91,"n_dots":3.35,"target":"right","response":"right","rt":784.5,"correct":true,"confidence":3},{"trial_n":92,"n_dots":3.35,"target":"left","response":"left","rt":972.19999992847,"correct":true,"confidence":3},{"trial_n":93,"n_dots":3.25,"target":"left","response":"left","rt":1252.7000000477,"correct":true,"confidence":1},{"trial_n":94,"n_dots":3.25,"target":"left","response":"left","rt":592.10000002384,"correct":true,"confidence":4},{"trial_n":95,"n_dots":3.15,"target":"right","response":"left","rt":1181,"correct":false,"confidence":2},{"trial_n":96,"n_dots":3.25,"target":"left","response":"left","rt":663.29999995232,"correct":true,"confidence":4},{"trial_n":97,"n_dots":3.25,"target":"left","response":"left","rt":642.29999995232,"correct":true,"confidence":4},{"trial_n":98,"n_dots":3.15,"target":"left","response":"left","rt":672.5,"correct":true,"confidence":4},{"trial_n":99,"n_dots":3.15,"target":"left","response":"left","rt":606,"correct":true,"confidence":3},{"trial_n":100,"n_dots":3.05,"target":"left","response":"left","rt":819.10000002384,"correct":true,"confidence":3},{"trial_n":101,"n_dots":3.05,"target":"left","response":"right","rt":721.69999992847,"correct":false,"confidence":4},{"trial_n":102,"n_dots":3.15,"target":"left","response":"left","rt":490.59999990463,"correct":true,"confidence":3},{"trial_n":103,"n_dots":3.15,"target":"left","response":"left","rt":798.90000009537,"correct":true,"confidence":3},{"trial_n":104,"n_dots":3.05,"target":"left","response":"right","rt":1472.2999999523,"correct":false,"confidence":3},{"trial_n":105,"n_dots":3.15,"target":"left","response":"left","rt":787.5,"correct":true,"confidence":3},{"trial_n":106,"n_dots":3.15,"target":"left","response":"left","rt":887.29999995232,"correct":true,"confidence":2},{"trial_n":107,"n_dots":3.05,"target":"left","response":"right","rt":787.19999992847,"correct":false,"confidence":2},{"trial_n":108,"n_dots":3.15,"target":"right","response":"left","rt":837.29999995232,"correct":false,"confidence":2},{"trial_n":109,"n_dots":3.25,"target":"right","response":"right","rt":949,"correct":true,"confidence":2},{"trial_n":110,"n_dots":3.25,"target":"left","response":"left","rt":616.20000004768,"correct":true,"confidence":4},{"trial_n":111,"n_dots":3.15,"target":"left","response":"left","rt":1334.1999999285,"correct":true,"confidence":3},{"trial_n":112,"n_dots":3.15,"target":"right","response":"right","rt":626.70000004768,"correct":true,"confidence":4},{"trial_n":113,"n_dots":3.05,"target":"left","response":"left","rt":610.89999997616,"correct":true,"confidence":4},{"trial_n":114,"n_dots":3.05,"target":"right","response":"right","rt":719.60000002384,"correct":true,"confidence":4},{"trial_n":115,"n_dots":2.95,"target":"left","response":"left","rt":1066,"correct":true,"confidence":1},{"trial_n":116,"n_dots":2.95,"target":"left","response":"left","rt":1207.2999999523,"correct":true,"confidence":3},{"trial_n":117,"n_dots":2.85,"target":"left","response":"left","rt":1331.0999999046,"correct":true,"confidence":2},{"trial_n":118,"n_dots":2.85,"target":"right","response":"left","rt":874.5,"correct":false,"confidence":2},{"trial_n":119,"n_dots":2.95,"target":"left","response":"left","rt":738.19999992847,"correct":true,"confidence":2},{"trial_n":120,"n_dots":2.95,"target":"left","response":"left","rt":1146.6000000238,"correct":true,"confidence":3}]