[{"trial_n":1,"n_dots":4.25,"target":"left","response":"left","rt":4097.799999997,"correct":true,"confidence":-1},{"trial_n":2,"n_dots":4.25,"target":"right","response":"left","rt":1517.200000003,"correct":false,"confidence":-1},{"trial_n":3,"n_dots":4.65,"target":"right","response":"right","rt":1401.200000003,"correct":true,"confidence":-1},{"trial_n":4,"n_dots":4.65,"target":"left","response":"right","rt":1486.1000000089,"correct":false,"confidence":-1},{"trial_n":5,"n_dots":5.05,"target":"right","response":"right","rt":544.09999999404,"correct":true,"confidence":-1},{"trial_n":6,"n_dots":5.05,"target":"left","response":"left","rt":582.5,"correct":true,"confidence":-1},{"trial_n":7,"n_dots":4.65,"target":"right","response":"right","rt":812.5,"correct":true,"confidence":-1},{"trial_n":8,"n_dots":4.65,"target":"right","response":"right","rt":925.79999999702,"correct":true,"confidence":-1},{"trial_n":9,"n_dots":4.45,"target":"left","response":"left","rt":888.09999999404,"correct":true,"confidence":-1},{"trial_n":10,"n_dots":4.45,"target":"left","response":"left","rt":517.29999999702,"correct":true,"confidence":-1},{"trial_n":11,"n_dots":4.25,"target":"left","response":"left","rt":550.59999999404,"correct":true,"confidence":-1},{"trial_n":12,"n_dots":4.25,"target":"left","response":"left","rt":638.10000000894,"correct":true,"confidence":-1},{"trial_n":13,"n_dots":4.15,"target":"left","response":"left","rt":497.5,"correct":true,"confidence":-1},{"trial_n":14,"n_dots":4.15,"target":"left","response":"right","rt":625.09999999404,"correct":false,"confidence":-1},{"trial_n":15,"n_dots":4.25,"target":"right","response":"right","rt":894,"correct":true,"confidence":-1},{"trial_n":16,"n_dots":4.25,"target":"right","response":"right","rt":454,"correct":true,"confidence":-1},{"trial_n":17,"n_dots":4.15,"target":"left","response":"left","rt":414.70000000298,"correct":true,"confidence":-1},{"trial_n":18,"n_dots":4.15,"target":"right","response":"right","rt":464.29999999702,"correct":true,"confidence":-1},{"trial_n":19,"n_dots":4.05,"target":"left","response":"left","rt":911.59999999404,"correct":true,"confidence":-1},{"trial_n":20,"n_dots":4.05,"target":"right","response":"right","rt":350.70000000298,"correct":true,"confidence":-1},{"trial_n":21,"n_dots":3.95,"target":"left","response":"left","rt":425.20000000298,"correct":true,"confidence":4},{"trial_n":22,"n_dots":3.95,"target":"right","response":"right","rt":1111.5,"correct":true,"confidence":4},{"trial_n":23,"n_dots":3.85,"target":"right","response":"right","rt":710.70000000298,"correct":true,"confidence":3},{"trial_n":24,"n_dots":3.85,"target":"right","response":"right","rt":587.39999999106,"correct":true,"confidence":4},{"trial_n":25,"n_dots":3.75,"target":"right","response":"right","rt":361.09999999404,"correct":true,"confidence":5},{"trial_n":26,"n_dots":3.75,"target":"left","response":"left","rt":744.39999999106,"correct":true,"confidence":3},{"trial_n":27,"n_dots":3.65,"target":"right","response":"right","rt":532.60000000894,"correct":true,"confidence":4},{"trial_n":28,"n_dots":3.65,"target":"left","response":"left","rt":673.70000000298,"correct":true,"confidence":3},{"trial_n":29,"n_dots":3.55,"target":"left","response":"left","rt":1889.400000006,"correct":true,"confidence":2},{"trial_n":30,"n_dots":3.55,"target":"right","response":"right","rt":552,"correct":true,"confidence":4},{"trial_n":31,"n_dots":3.45,"target":"left","response":"right","rt":2112.3999999911,"correct":false,"confidence":3},{"trial_n":32,"n_dots":3.55,"target":"left","response":"left","rt":537.59999999404,"correct":true,"confidence":4},{"trial_n":33,"n_dots":3.55,"target":"right","response":"left","rt":1456.299999997,"correct":false,"confidence":3},{"trial_n":34,"n_dots":3.65,"target":"left","response":"left","rt":1962.1000000089,"correct":true,"confidence":3},{"trial_n":35,"n_dots":3.65,"target":"right","response":"right","rt":4121.200000003,"correct":true,"confidence":2},{"trial_n":36,"n_dots":3.55,"target":"right","response":"right","rt":645.5,"correct":true,"confidence":4},{"trial_n":37,"n_dots":3.55,"target":"right","response":"right","rt":654.89999999106,"correct":true,"confidence":5},{"trial_n":38,"n_dots":3.45,"target":"right","response":"right","rt":1452.299999997,"correct":true,"confidence":3},{"trial_n":39,"n_dots":3.45,"target":"right","response":"right","rt":980.29999999702,"correct":true,"confidence":3},{"trial_n":40,"n_dots":3.35,"target":"right","response":"right","rt":1766.700000003,"correct":true,"confidence":3},{"trial_n":41,"n_dots":3.35,"target":"left","response":"left","rt":1900.3000000119,"correct":true,"confidence":2},{"trial_n":42,"n_dots":3.25,"target":"left","response":"right","rt":1161.099999994,"correct":false,"confidence":1},{"trial_n":43,"n_dots":3.35,"target":"right","response":"left","rt":1208,"correct":false,"confidence":2},{"trial_n":44,"n_dots":3.45,"target":"left","response":"left","rt":778.5,"correct":true,"confidence":2},{"trial_n":45,"n_dots":3.45,"target":"left","response":"left","rt":444.20000000298,"correct":true,"confidence":4},{"trial_n":46,"n_dots":3.35,"target":"right","response":"right","rt":1129.5,"correct":true,"confidence":2},{"trial_n":47,"n_dots":3.35,"target":"right","response":"left","rt":1251.6999999881,"correct":false,"confidence":2},{"trial_n":48,"n_dots":3.45,"target":"left","response":"left","rt":572.70000000298,"correct":true,"confidence":3},{"trial_n":49,"n_dots":3.45,"target":"right","response":"right","rt":838.20000000298,"correct":true,"confidence":2},{"trial_n":50,"n_dots":3.35,"target":"left","response":"left","rt":1706.8999999911,"correct":true,"confidence":3},{"trial_n":51,"n_dots":3.35,"target":"left","response":"left","rt":11618.299999997,"correct":true,"confidence":1},{"trial_n":52,"n_dots":3.25,"target":"left","response":"left","rt":2208.299999997,"correct":true,"confidence":3},{"trial_n":53,"n_dots":3.25,"target":"left","response":"left","rt":628.89999999106,"correct":true,"confidence":4},{"trial_n":54,"n_dots":3.15,"target":"right","response":"right","rt":546,"correct":true,"confidence":4},{"trial_n":55,"n_dots":3.15,"target":"left","response":"left","rt":831.59999999404,"correct":true,"confidence":3},{"trial_n":56,"n_dots":3.05,"target":"left","response":"right","rt":2726,"correct":false,"confidence":2},{"trial_n":57,"n_dots":3.15,"target":"left","response":"left","rt":529.89999999106,"correct":true,"confidence":3},{"trial_n":58,"n_dots":3.15,"target":"left","response":"right","rt":1354.599999994,"correct":false,"confidence":2},{"trial_n":59,"n_dots":3.25,"target":"left","response":"left","rt":621.09999999404,"correct":true,"confidence":4},{"trial_n":60,"n_dots":3.25,"target":"right","response":"right","rt":973.29999999702,"correct":true,"confidence":3},{"trial_n":61,"n_dots":3.15,"target":"left","response":"left","rt":604.70000000298,"correct":true,"confidence":4},{"trial_n":62,"n_dots":3.15,"target":"left","response":"left","rt":656.09999999404,"correct":true,"confidence":4},{"trial_n":63,"n_dots":3.05,"target":"left","response":"left","rt":252.20000000298,"correct":true,"confidence":4},{"trial_n":64,"n_dots":3.05,"target":"right","response":"right","rt":305.20000000298,"correct":true,"confidence":4},{"trial_n":65,"n_dots":2.95,"target":"left","response":"left","rt":367.69999998808,"correct":true,"confidence":5},{"trial_n":66,"n_dots":2.95,"target":"right","response":"left","rt":1121.5,"correct":false,"confidence":2},{"trial_n":67,"n_dots":3.05,"target":"left","response":"left","rt":584.29999999702,"correct":true,"confidence":3},{"trial_n":68,"n_dots":3.05,"target":"right","response":"right","rt":482.09999999404,"correct":true,"confidence":3},{"trial_n":69,"n_dots":2.95,"target":"right","response":"right","rt":535.90000000596,"correct":true,"confidence":3},{"trial_n":70,"n_dots":2.95,"target":"left","response":"left","rt":352.20000000298,"correct":true,"confidence":4},{"trial_n":71,"n_dots":2.85,"target":"right","response":"right","rt":343.90000000596,"correct":true,"confidence":4},{"trial_n":72,"n_dots":2.85,"target":"left","response":"right","rt":547.60000000894,"correct":false,"confidence":3},{"trial_n":73,"n_dots":2.95,"target":"right","response":"right","rt":351.39999999106,"correct":true,"confidence":4},{"trial_n":74,"n_dots":2.95,"target":"left","response":"left","rt":499.60000000894,"correct":true,"confidence":4},{"trial_n":75,"n_dots":2.85,"target":"left","response":"right","rt":590.19999998808,"correct":false,"confidence":2},{"trial_n":76,"n_dots":2.95,"target":"left","response":"left","rt":537.40000000596,"correct":true,"confidence":4},{"trial_n":77,"n_dots":2.95,"target":"right","response":"right","rt":314.5,"correct":true,"confidence":3},{"trial_n":78,"n_dots":2.85,"target":"right","response":"left","rt":777.40000000596,"correct":false,"confidence":3},{"trial_n":79,"n_dots":2.95,"target":"right","response":"right","rt":645,"correct":true,"confidence":2},{"trial_n":80,"n_dots":2.95,"target":"right","response":"left","rt":2081.799999997,"correct":false,"confidence":2},{"trial_n":81,"n_dots":3.05,"target":"left","response":"left","rt":813.70000000298,"correct":true,"confidence":5},{"trial_n":82,"n_dots":3.05,"target":"right","response":"right","rt":444.40000000596,"correct":true,"confidence":4},{"trial_n":83,"n_dots":2.95,"target":"left","response":"left","rt":732.20000000298,"correct":true,"confidence":3},{"trial_n":84,"n_dots":2.95,"target":"right","response":"left","rt":906.09999999404,"correct":false,"confidence":3},{"trial_n":85,"n_dots":3.05,"target":"right","response":"right","rt":201.89999999106,"correct":true,"confidence":4},{"trial_n":86,"n_dots":3.05,"target":"left","response":"left","rt":432.09999999404,"correct":true,"confidence":4},{"trial_n":87,"n_dots":2.95,"target":"left","response":"left","rt":242.60000000894,"correct":true,"confidence":4},{"trial_n":88,"n_dots":2.95,"target":"left","response":"left","rt":509,"correct":true,"confidence":4},{"trial_n":89,"n_dots":2.85,"target":"right","response":"left","rt":665.59999999404,"correct":false,"confidence":3},{"trial_n":90,"n_dots":2.95,"target":"right","response":"right","rt":760.90000000596,"correct":true,"confidence":2},{"trial_n":91,"n_dots":2.95,"target":"right","response":"right","rt":596.19999998808,"correct":true,"confidence":3},{"trial_n":92,"n_dots":2.85,"target":"left","response":"left","rt":575.20000000298,"correct":true,"confidence":3},{"trial_n":93,"n_dots":2.85,"target":"right","response":"right","rt":515.39999999106,"correct":true,"confidence":3},{"trial_n":94,"n_dots":2.75,"target":"right","response":"right","rt":490,"correct":true,"confidence":3},{"trial_n":95,"n_dots":2.75,"target":"right","response":"left","rt":464.90000000596,"correct":false,"confidence":3},{"trial_n":96,"n_dots":2.85,"target":"right","response":"right","rt":553.09999999404,"correct":true,"confidence":3},{"trial_n":97,"n_dots":2.85,"target":"left","response":"left","rt":952.20000000298,"correct":true,"confidence":2},{"trial_n":98,"n_dots":2.75,"target":"right","response":"right","rt":299.89999999106,"correct":true,"confidence":4},{"trial_n":99,"n_dots":2.75,"target":"left","response":"left","rt":1814.8999999911,"correct":true,"confidence":1},{"trial_n":100,"n_dots":2.65,"target":"right","response":"right","rt":483.09999999404,"correct":true,"confidence":3},{"trial_n":101,"n_dots":2.65,"target":"right","response":"right","rt":625.09999999404,"correct":true,"confidence":3},{"trial_n":102,"n_dots":2.55,"target":"right","response":"right","rt":422.79999999702,"correct":true,"confidence":5},{"trial_n":103,"n_dots":2.55,"target":"left","response":"left","rt":804.79999999702,"correct":true,"confidence":3},{"trial_n":104,"n_dots":2.45,"target":"right","response":"left","rt":568.29999999702,"correct":false,"confidence":3},{"trial_n":105,"n_dots":2.55,"target":"left","response":"left","rt":538.09999999404,"correct":true,"confidence":4},{"trial_n":106,"n_dots":2.55,"target":"left","response":"right","rt":598.70000000298,"correct":false,"confidence":3},{"trial_n":107,"n_dots":2.65,"target":"right","response":"right","rt":493.70000000298,"correct":true,"confidence":4},{"trial_n":108,"n_dots":2.65,"target":"right","response":"right","rt":1699.700000003,"correct":true,"confidence":2},{"trial_n":109,"n_dots":2.55,"target":"right","response":"right","rt":477,"correct":true,"confidence":3},{"trial_n":110,"n_dots":2.55,"target":"left","response":"left","rt":650.90000000596,"correct":true,"confidence":3},{"trial_n":111,"n_dots":2.45,"target":"right","response":"right","rt":381.10000000894,"correct":true,"confidence":3},{"trial_n":112,"n_dots":2.45,"target":"left","response":"left","rt":1108.299999997,"correct":true,"confidence":1},{"trial_n":113,"n_dots":2.35,"target":"right","response":"right","rt":356.89999999106,"correct":true,"confidence":3},{"trial_n":114,"n_dots":2.35,"target":"left","response":"right","rt":1135.099999994,"correct":false,"confidence":2},{"trial_n":115,"n_dots":2.45,"target":"left","response":"right","rt":1035.099999994,"correct":false,"confidence":3},{"trial_n":116,"n_dots":2.55,"target":"right","response":"right","rt":564.90000000596,"correct":true,"confidence":4},{"trial_n":117,"n_dots":2.55,"target":"left","response":"left","rt":2437.1000000089,"correct":true,"confidence":2},{"trial_n":118,"n_dots":2.45,"target":"right","response":"right","rt":533.70000000298,"correct":true,"confidence":2},{"trial_n":119,"n_dots":2.45,"target":"left","response":"left","rt":388.80000001192,"correct":true,"confidence":3},{"trial_n":120,"n_dots":2.35,"target":"left","response":"left","rt":782.59999999404,"correct":true,"confidence":3}]