[{"trial_n":1,"min":25,"max":230,"target":"present","response":"present","rt":4139,"correct":true,"confidence":-1},{"trial_n":2,"min":25,"max":230,"target":"present","response":"present","rt":1134,"correct":true,"confidence":-1},{"trial_n":3,"min":41,"max":214,"target":"absent","response":"absent","rt":1025,"correct":true,"confidence":-1},{"trial_n":4,"min":41,"max":214,"target":"absent","response":"present","rt":930,"correct":false,"confidence":-1},{"trial_n":5,"min":25,"max":230,"target":"present","response":"present","rt":795,"correct":true,"confidence":-1},{"trial_n":6,"min":25,"max":230,"target":"present","response":"present","rt":799,"correct":true,"confidence":-1},{"trial_n":7,"min":41,"max":214,"target":"present","response":"present","rt":745,"correct":true,"confidence":-1},{"trial_n":8,"min":41,"max":214,"target":"absent","response":"absent","rt":747,"correct":true,"confidence":-1},{"trial_n":9,"min":57,"max":198,"target":"present","response":"present","rt":778,"correct":true,"confidence":-1},{"trial_n":10,"min":57,"max":198,"target":"absent","response":"absent","rt":645.99999999999,"correct":true,"confidence":-1},{"trial_n":11,"min":65,"max":190,"target":"absent","response":"absent","rt":738,"correct":true,"confidence":-1},{"trial_n":12,"min":65,"max":190,"target":"present","response":"present","rt":766,"correct":true,"confidence":-1},{"trial_n":13,"min":73,"max":182,"target":"absent","response":"absent","rt":739,"correct":true,"confidence":-1},{"trial_n":14,"min":73,"max":182,"target":"absent","response":"absent","rt":687,"correct":true,"confidence":-1},{"trial_n":15,"min":81,"max":174,"target":"present","response":"absent","rt":1123,"correct":false,"confidence":-1},{"trial_n":16,"min":73,"max":182,"target":"present","response":"present","rt":643,"correct":true,"confidence":-1},{"trial_n":17,"min":73,"max":182,"target":"absent","response":"absent","rt":621,"correct":true,"confidence":-1},{"trial_n":18,"min":81,"max":174,"target":"absent","response":"absent","rt":629.00000000001,"correct":true,"confidence":-1},{"trial_n":19,"min":81,"max":174,"target":"present","response":"present","rt":690.00000000001,"correct":true,"confidence":-1},{"trial_n":20,"min":89,"max":166,"target":"present","response":"absent","rt":815,"correct":false,"confidence":-1},{"trial_n":21,"min":85,"max":170,"target":"present","response":"present","rt":2249,"correct":true,"confidence":3},{"trial_n":22,"min":85,"max":170,"target":"present","response":"present","rt":937,"correct":true,"confidence":5},{"trial_n":23,"min":89,"max":166,"target":"present","response":"present","rt":2346,"correct":true,"confidence":2},{"trial_n":24,"min":89,"max":166,"target":"present","response":"present","rt":1232,"correct":true,"confidence":2},{"trial_n":25,"min":93,"max":162,"target":"absent","response":"absent","rt":1141,"correct":true,"confidence":4},{"trial_n":26,"min":93,"max":162,"target":"absent","response":"absent","rt":955.00000000001,"correct":true,"confidence":4},{"trial_n":27,"min":97,"max":158,"target":"absent","response":"absent","rt":833,"correct":true,"confidence":4},{"trial_n":28,"min":97,"max":158,"target":"absent","response":"absent","rt":1449,"correct":true,"confidence":4},{"trial_n":29,"min":101,"max":154,"target":"present","response":"absent","rt":839.99999999999,"correct":false,"confidence":3},{"trial_n":30,"min":97,"max":158,"target":"present","response":"absent","rt":1376,"correct":false,"confidence":3},{"trial_n":31,"min":95,"max":160,"target":"present","response":"present","rt":3595,"correct":true,"confidence":2},{"trial_n":32,"min":95,"max":160,"target":"absent","response":"absent","rt":1264,"correct":true,"confidence":3},{"trial_n":33,"min":97,"max":158,"target":"present","response":"absent","rt":2989,"correct":false,"confidence":2},{"trial_n":34,"min":95,"max":160,"target":"present","response":"present","rt":734,"correct":true,"confidence":4},{"trial_n":35,"min":95,"max":160,"target":"absent","response":"absent","rt":2015,"correct":true,"confidence":2},{"trial_n":36,"min":97,"max":158,"target":"present","response":"present","rt":2309,"correct":true,"confidence":2},{"trial_n":37,"min":97,"max":158,"target":"present","response":"present","rt":939.99999999997,"correct":true,"confidence":4},{"trial_n":38,"min":99,"max":156,"target":"absent","response":"absent","rt":756,"correct":true,"confidence":4},{"trial_n":39,"min":99,"max":156,"target":"absent","response":"absent","rt":797.99999999997,"correct":true,"confidence":5},{"trial_n":40,"min":101,"max":154,"target":"absent","response":"absent","rt":815,"correct":true,"confidence":4},{"trial_n":41,"min":101,"max":154,"target":"present","response":"absent","rt":955,"correct":false,"confidence":4},{"trial_n":42,"min":100,"max":155,"target":"present","response":"absent","rt":762,"correct":false,"confidence":4},{"trial_n":43,"min":99,"max":156,"target":"absent","response":"absent","rt":790,"correct":true,"confidence":3},{"trial_n":44,"min":99,"max":156,"target":"absent","response":"absent","rt":815,"correct":true,"confidence":4},{"trial_n":45,"min":100,"max":155,"target":"present","response":"absent","rt":741,"correct":false,"confidence":4},{"trial_n":46,"min":99,"max":156,"target":"absent","response":"absent","rt":814,"correct":true,"confidence":4},{"trial_n":47,"min":99,"max":156,"target":"absent","response":"absent","rt":1315,"correct":true,"confidence":3},{"trial_n":48,"min":100,"max":155,"target":"absent","response":"absent","rt":797,"correct":true,"confidence":4},{"trial_n":49,"min":100,"max":155,"target":"absent","response":"absent","rt":781,"correct":true,"confidence":4},{"trial_n":50,"min":101,"max":154,"target":"present","response":"absent","rt":3356,"correct":false,"confidence":2},{"trial_n":51,"min":100,"max":155,"target":"present","response":"absent","rt":1025,"correct":false,"confidence":4},{"trial_n":52,"min":99,"max":156,"target":"absent","response":"absent","rt":931,"correct":true,"confidence":3},{"trial_n":53,"min":99,"max":156,"target":"present","response":"present","rt":1091,"correct":true,"confidence":3},{"trial_n":54,"min":100,"max":155,"target":"present","response":"absent","rt":5193,"correct":false,"confidence":3},{"trial_n":55,"min":99,"max":156,"target":"present","response":"absent","rt":812,"correct":false,"confidence":4},{"trial_n":56,"min":98,"max":157,"target":"absent","response":"absent","rt":681,"correct":true,"confidence":5},{"trial_n":57,"min":98,"max":157,"target":"present","response":"absent","rt":811,"correct":false,"confidence":5},{"trial_n":58,"min":97,"max":158,"target":"absent","response":"absent","rt":1324,"correct":true,"confidence":3},{"trial_n":59,"min":97,"max":158,"target":"absent","response":"absent","rt":707,"correct":true,"confidence":4},{"trial_n":60,"min":98,"max":157,"target":"absent","response":"absent","rt":857,"correct":true,"confidence":5},{"trial_n":61,"min":98,"max":157,"target":"absent","response":"absent","rt":1216,"correct":true,"confidence":3},{"trial_n":62,"min":99,"max":156,"target":"absent","response":"absent","rt":805,"correct":true,"confidence":4},{"trial_n":63,"min":99,"max":156,"target":"absent","response":"absent","rt":699,"correct":true,"confidence":5},{"trial_n":64,"min":100,"max":155,"target":"present","response":"absent","rt":646,"correct":false,"confidence":4},{"trial_n":65,"min":99,"max":156,"target":"absent","response":"absent","rt":598,"correct":true,"confidence":4},{"trial_n":66,"min":99,"max":156,"target":"present","response":"absent","rt":687,"correct":false,"confidence":4},{"trial_n":67,"min":98,"max":157,"target":"present","response":"present","rt":1726,"correct":true,"confidence":2},{"trial_n":68,"min":98,"max":157,"target":"present","response":"present","rt":891,"correct":true,"confidence":2},{"trial_n":69,"min":99,"max":156,"target":"absent","response":"absent","rt":1483,"correct":true,"confidence":4},{"trial_n":70,"min":99,"max":156,"target":"present","response":"absent","rt":566.99999999994,"correct":false,"confidence":4},{"trial_n":71,"min":41,"max":214,"target":"present","response":"present","rt":896,"correct":true,"confidence":-1},{"trial_n":72,"min":41,"max":214,"target":"present","response":"absent","rt":770,"correct":false,"confidence":-1},{"trial_n":73,"min":25,"max":230,"target":"absent","response":"absent","rt":712,"correct":true,"confidence":-1},{"trial_n":74,"min":25,"max":230,"target":"absent","response":"absent","rt":705,"correct":true,"confidence":-1},{"trial_n":75,"min":41,"max":214,"target":"present","response":"present","rt":563,"correct":true,"confidence":-1},{"trial_n":76,"min":41,"max":214,"target":"absent","response":"absent","rt":836,"correct":true,"confidence":-1},{"trial_n":77,"min":57,"max":198,"target":"absent","response":"absent","rt":662,"correct":true,"confidence":-1},{"trial_n":78,"min":57,"max":198,"target":"present","response":"present","rt":737,"correct":true,"confidence":-1},{"trial_n":79,"min":73,"max":182,"target":"present","response":"present","rt":621,"correct":true,"confidence":-1},{"trial_n":80,"min":73,"max":182,"target":"absent","response":"present","rt":1095.0000000001,"correct":false,"confidence":-1},{"trial_n":81,"min":65,"max":190,"target":"present","response":"absent","rt":980.99999999994,"correct":false,"confidence":-1},{"trial_n":82,"min":57,"max":198,"target":"absent","response":"absent","rt":748,"correct":true,"confidence":-1},{"trial_n":83,"min":57,"max":198,"target":"absent","response":"absent","rt":703,"correct":true,"confidence":-1},{"trial_n":84,"min":65,"max":190,"target":"absent","response":"absent","rt":758,"correct":true,"confidence":-1},{"trial_n":85,"min":65,"max":190,"target":"absent","response":"absent","rt":1245.0000000001,"correct":true,"confidence":-1},{"trial_n":86,"min":73,"max":182,"target":"present","response":"present","rt":531,"correct":true,"confidence":-1},{"trial_n":87,"min":73,"max":182,"target":"present","response":"present","rt":720,"correct":true,"confidence":-1},{"trial_n":88,"min":81,"max":174,"target":"absent","response":"absent","rt":671,"correct":true,"confidence":-1},{"trial_n":89,"min":81,"max":174,"target":"present","response":"present","rt":672,"correct":true,"confidence":-1},{"trial_n":90,"min":89,"max":166,"target":"present","response":"present","rt":775,"correct":true,"confidence":-1},{"trial_n":91,"min":89,"max":166,"target":"absent","response":"present","rt":1058,"correct":false,"confidence":4},{"trial_n":92,"min":85,"max":170,"target":"absent","response":"absent","rt":836,"correct":true,"confidence":5},{"trial_n":93,"min":85,"max":170,"target":"present","response":"present","rt":788,"correct":true,"confidence":4},{"trial_n":94,"min":89,"max":166,"target":"present","response":"present","rt":822,"correct":true,"confidence":3},{"trial_n":95,"min":89,"max":166,"target":"absent","response":"absent","rt":879,"correct":true,"confidence":3},{"trial_n":96,"min":93,"max":162,"target":"present","response":"present","rt":763,"correct":true,"confidence":4},{"trial_n":97,"min":93,"max":162,"target":"absent","response":"absent","rt":788,"correct":true,"confidence":2},{"trial_n":98,"min":97,"max":158,"target":"absent","response":"absent","rt":797,"correct":true,"confidence":5},{"trial_n":99,"min":97,"max":158,"target":"present","response":"present","rt":761,"correct":true,"confidence":4},{"trial_n":100,"min":101,"max":154,"target":"absent","response":"absent","rt":1311,"correct":true,"confidence":1},{"trial_n":101,"min":101,"max":154,"target":"present","response":"present","rt":803,"correct":true,"confidence":4},{"trial_n":102,"min":103,"max":152,"target":"absent","response":"present","rt":1099,"correct":false,"confidence":3},{"trial_n":103,"min":101,"max":154,"target":"absent","response":"absent","rt":3182.9999999999,"correct":true,"confidence":2},{"trial_n":104,"min":101,"max":154,"target":"present","response":"present","rt":748,"correct":true,"confidence":4},{"trial_n":105,"min":103,"max":152,"target":"present","response":"present","rt":822,"correct":true,"confidence":4},{"trial_n":106,"min":103,"max":152,"target":"present","response":"absent","rt":1076,"correct":false,"confidence":1},{"trial_n":107,"min":101,"max":154,"target":"present","response":"absent","rt":768,"correct":false,"confidence":4},{"trial_n":108,"min":99,"max":156,"target":"present","response":"present","rt":901,"correct":true,"confidence":2},{"trial_n":109,"min":99,"max":156,"target":"absent","response":"present","rt":938,"correct":false,"confidence":2},{"trial_n":110,"min":97,"max":158,"target":"present","response":"present","rt":820,"correct":true,"confidence":2},{"trial_n":111,"min":97,"max":158,"target":"absent","response":"absent","rt":989,"correct":true,"confidence":3},{"trial_n":112,"min":98,"max":157,"target":"present","response":"present","rt":1705,"correct":true,"confidence":1},{"trial_n":113,"min":98,"max":157,"target":"present","response":"present","rt":764,"correct":true,"confidence":1},{"trial_n":114,"min":99,"max":156,"target":"absent","response":"absent","rt":941.00000000006,"correct":true,"confidence":1},{"trial_n":115,"min":99,"max":156,"target":"absent","response":"absent","rt":1204.0000000001,"correct":true,"confidence":1},{"trial_n":116,"min":100,"max":155,"target":"present","response":"absent","rt":913,"correct":false,"confidence":1},{"trial_n":117,"min":99,"max":156,"target":"present","response":"present","rt":1187,"correct":true,"confidence":2},{"trial_n":118,"min":99,"max":156,"target":"present","response":"present","rt":1051,"correct":true,"confidence":1},{"trial_n":119,"min":100,"max":155,"target":"absent","response":"absent","rt":544,"correct":true,"confidence":1},{"trial_n":120,"min":100,"max":155,"target":"absent","response":"absent","rt":697,"correct":true,"confidence":1},{"trial_n":121,"min":101,"max":154,"target":"absent","response":"present","rt":976,"correct":false,"confidence":1},{"trial_n":122,"min":100,"max":155,"target":"present","response":"present","rt":880,"correct":true,"confidence":1},{"trial_n":123,"min":100,"max":155,"target":"present","response":"absent","rt":1182.0000000001,"correct":false,"confidence":1},{"trial_n":124,"min":99,"max":156,"target":"absent","response":"present","rt":855,"correct":false,"confidence":2},{"trial_n":125,"min":98,"max":157,"target":"absent","response":"present","rt":1114,"correct":false,"confidence":1},{"trial_n":126,"min":97,"max":158,"target":"absent","response":"present","rt":696.99999999994,"correct":false,"confidence":1},{"trial_n":127,"min":96,"max":159,"target":"absent","response":"absent","rt":1014,"correct":true,"confidence":3},{"trial_n":128,"min":96,"max":159,"target":"present","response":"present","rt":1022,"correct":true,"confidence":1},{"trial_n":129,"min":97,"max":158,"target":"absent","response":"present","rt":735.99999999994,"correct":false,"confidence":4},{"trial_n":130,"min":96,"max":159,"target":"present","response":"absent","rt":1322,"correct":false,"confidence":1},{"trial_n":131,"min":95,"max":160,"target":"present","response":"present","rt":854.99999999988,"correct":true,"confidence":4},{"trial_n":132,"min":95,"max":160,"target":"present","response":"absent","rt":1102.9999999999,"correct":false,"confidence":1},{"trial_n":133,"min":94,"max":161,"target":"present","response":"absent","rt":572,"correct":false,"confidence":1},{"trial_n":134,"min":93,"max":162,"target":"present","response":"present","rt":681,"correct":true,"confidence":1},{"trial_n":135,"min":93,"max":162,"target":"absent","response":"absent","rt":873,"correct":true,"confidence":1},{"trial_n":136,"min":94,"max":161,"target":"present","response":"present","rt":1041,"correct":true,"confidence":3},{"trial_n":137,"min":94,"max":161,"target":"absent","response":"present","rt":962,"correct":false,"confidence":1},{"trial_n":138,"min":93,"max":162,"target":"absent","response":"absent","rt":569,"correct":true,"confidence":1},{"trial_n":139,"min":93,"max":162,"target":"present","response":"present","rt":654,"correct":true,"confidence":1},{"trial_n":140,"min":94,"max":161,"target":"absent","response":"present","rt":742,"correct":false,"confidence":1}]