[{"trial_n":1,"min":25,"max":230,"target":"present","response":"present","rt":8448.1000000238,"correct":true,"confidence":-1},{"trial_n":2,"min":25,"max":230,"target":"present","response":"present","rt":2253,"correct":true,"confidence":-1},{"trial_n":3,"min":41,"max":214,"target":"absent","response":"absent","rt":1152.2000000477,"correct":true,"confidence":-1},{"trial_n":4,"min":41,"max":214,"target":"absent","response":"absent","rt":986.39999997616,"correct":true,"confidence":-1},{"trial_n":5,"min":57,"max":198,"target":"present","response":"present","rt":866.69999992847,"correct":true,"confidence":-1},{"trial_n":6,"min":57,"max":198,"target":"present","response":"present","rt":858.39999997616,"correct":true,"confidence":-1},{"trial_n":7,"min":73,"max":182,"target":"absent","response":"absent","rt":997.89999997616,"correct":true,"confidence":-1},{"trial_n":8,"min":73,"max":182,"target":"absent","response":"absent","rt":954.20000004768,"correct":true,"confidence":-1},{"trial_n":9,"min":89,"max":166,"target":"absent","response":"absent","rt":887.89999997616,"correct":true,"confidence":-1},{"trial_n":10,"min":89,"max":166,"target":"present","response":"absent","rt":1045.5,"correct":false,"confidence":-1},{"trial_n":11,"min":81,"max":174,"target":"absent","response":"absent","rt":967.69999992847,"correct":true,"confidence":-1},{"trial_n":12,"min":81,"max":174,"target":"present","response":"present","rt":845.10000002384,"correct":true,"confidence":-1},{"trial_n":13,"min":89,"max":166,"target":"absent","response":"absent","rt":915.60000002384,"correct":true,"confidence":-1},{"trial_n":14,"min":89,"max":166,"target":"present","response":"present","rt":934.59999990463,"correct":true,"confidence":-1},{"trial_n":15,"min":97,"max":158,"target":"absent","response":"absent","rt":829.69999992847,"correct":true,"confidence":-1},{"trial_n":16,"min":97,"max":158,"target":"present","response":"absent","rt":947.10000002384,"correct":false,"confidence":-1},{"trial_n":17,"min":89,"max":166,"target":"present","response":"present","rt":891.5,"correct":true,"confidence":-1},{"trial_n":18,"min":89,"max":166,"target":"absent","response":"absent","rt":869.60000002384,"correct":true,"confidence":-1},{"trial_n":19,"min":97,"max":158,"target":"present","response":"present","rt":872.20000004768,"correct":true,"confidence":-1},{"trial_n":20,"min":97,"max":158,"target":"present","response":"absent","rt":776.70000004768,"correct":false,"confidence":-1},{"trial_n":21,"min":93,"max":162,"target":"present","response":"present","rt":1147.6000000238,"correct":true,"confidence":5},{"trial_n":22,"min":93,"max":162,"target":"present","response":"present","rt":1036.8000000715,"correct":true,"confidence":5},{"trial_n":23,"min":97,"max":158,"target":"present","response":"absent","rt":1257.2000000477,"correct":false,"confidence":3},{"trial_n":24,"min":93,"max":162,"target":"absent","response":"present","rt":781.5,"correct":false,"confidence":5},{"trial_n":25,"min":89,"max":166,"target":"absent","response":"absent","rt":833.30000007153,"correct":true,"confidence":4},{"trial_n":26,"min":89,"max":166,"target":"absent","response":"present","rt":812.09999990463,"correct":false,"confidence":3},{"trial_n":27,"min":85,"max":170,"target":"present","response":"absent","rt":1030.5999999046,"correct":false,"confidence":3},{"trial_n":28,"min":81,"max":174,"target":"present","response":"present","rt":679,"correct":true,"confidence":5},{"trial_n":29,"min":81,"max":174,"target":"absent","response":"absent","rt":1279.5,"correct":true,"confidence":3},{"trial_n":30,"min":85,"max":170,"target":"absent","response":"absent","rt":853.70000004768,"correct":true,"confidence":4},{"trial_n":31,"min":85,"max":170,"target":"absent","response":"present","rt":1217,"correct":false,"confidence":2},{"trial_n":32,"min":83,"max":172,"target":"present","response":"present","rt":625.70000004768,"correct":true,"confidence":4},{"trial_n":33,"min":83,"max":172,"target":"present","response":"present","rt":554.70000004768,"correct":true,"confidence":5},{"trial_n":34,"min":85,"max":170,"target":"present","response":"present","rt":608.10000002384,"correct":true,"confidence":5},{"trial_n":35,"min":85,"max":170,"target":"absent","response":"present","rt":692,"correct":false,"confidence":5},{"trial_n":36,"min":83,"max":172,"target":"present","response":"present","rt":631.70000004768,"correct":true,"confidence":5},{"trial_n":37,"min":83,"max":172,"target":"absent","response":"present","rt":664.20000004768,"correct":false,"confidence":5},{"trial_n":38,"min":81,"max":174,"target":"absent","response":"absent","rt":678.5,"correct":true,"confidence":3},{"trial_n":39,"min":81,"max":174,"target":"absent","response":"absent","rt":948.10000002384,"correct":true,"confidence":3},{"trial_n":40,"min":83,"max":172,"target":"absent","response":"present","rt":676.89999997616,"correct":false,"confidence":3},{"trial_n":41,"min":82,"max":173,"target":"absent","response":"present","rt":1011.5,"correct":false,"confidence":5},{"trial_n":42,"min":81,"max":174,"target":"present","response":"present","rt":560.10000002384,"correct":true,"confidence":5},{"trial_n":43,"min":81,"max":174,"target":"absent","response":"present","rt":679.30000007153,"correct":false,"confidence":5},{"trial_n":44,"min":80,"max":175,"target":"absent","response":"present","rt":609.10000002384,"correct":false,"confidence":5},{"trial_n":45,"min":79,"max":176,"target":"present","response":"present","rt":571,"correct":true,"confidence":5},{"trial_n":46,"min":79,"max":176,"target":"absent","response":"present","rt":781.89999997616,"correct":false,"confidence":5},{"trial_n":47,"min":78,"max":177,"target":"present","response":"present","rt":604.89999997616,"correct":true,"confidence":5},{"trial_n":48,"min":78,"max":177,"target":"present","response":"present","rt":568.89999997616,"correct":true,"confidence":5},{"trial_n":49,"min":79,"max":176,"target":"present","response":"present","rt":552.5,"correct":true,"confidence":5},{"trial_n":50,"min":79,"max":176,"target":"absent","response":"present","rt":1093.8999999762,"correct":false,"confidence":3},{"trial_n":51,"min":78,"max":177,"target":"absent","response":"present","rt":745.5,"correct":false,"confidence":3},{"trial_n":52,"min":77,"max":178,"target":"absent","response":"present","rt":608.40000009537,"correct":false,"confidence":3},{"trial_n":53,"min":76,"max":179,"target":"absent","response":"present","rt":473.10000002384,"correct":false,"confidence":3},{"trial_n":54,"min":75,"max":180,"target":"absent","response":"present","rt":529.70000004768,"correct":false,"confidence":3},{"trial_n":55,"min":74,"max":181,"target":"absent","response":"present","rt":645.5,"correct":false,"confidence":3},{"trial_n":56,"min":73,"max":182,"target":"present","response":"present","rt":578.10000002384,"correct":true,"confidence":5},{"trial_n":57,"min":73,"max":182,"target":"absent","response":"absent","rt":962.60000002384,"correct":true,"confidence":3},{"trial_n":58,"min":74,"max":181,"target":"present","response":"present","rt":522.89999997616,"correct":true,"confidence":5},{"trial_n":59,"min":74,"max":181,"target":"present","response":"present","rt":483.39999997616,"correct":true,"confidence":5},{"trial_n":60,"min":75,"max":180,"target":"present","response":"present","rt":459.60000002384,"correct":true,"confidence":5},{"trial_n":61,"min":75,"max":180,"target":"absent","response":"present","rt":694.5,"correct":false,"confidence":5},{"trial_n":62,"min":74,"max":181,"target":"present","response":"present","rt":529.10000002384,"correct":true,"confidence":5},{"trial_n":63,"min":74,"max":181,"target":"present","response":"present","rt":516.69999992847,"correct":true,"confidence":5},{"trial_n":64,"min":75,"max":180,"target":"present","response":"present","rt":451.60000002384,"correct":true,"confidence":5},{"trial_n":65,"min":75,"max":180,"target":"absent","response":"absent","rt":850.59999990463,"correct":true,"confidence":3},{"trial_n":66,"min":76,"max":179,"target":"absent","response":"absent","rt":641.89999997616,"correct":true,"confidence":3},{"trial_n":67,"min":76,"max":179,"target":"present","response":"present","rt":516.89999997616,"correct":true,"confidence":5},{"trial_n":68,"min":77,"max":178,"target":"present","response":"present","rt":470.30000007153,"correct":true,"confidence":5},{"trial_n":69,"min":77,"max":178,"target":"present","response":"present","rt":495.89999997616,"correct":true,"confidence":5},{"trial_n":70,"min":78,"max":177,"target":"present","response":"present","rt":489,"correct":true,"confidence":5},{"trial_n":71,"min":41,"max":214,"target":"present","response":"absent","rt":9986.8999999762,"correct":false,"confidence":-1},{"trial_n":72,"min":41,"max":214,"target":"present","response":"present","rt":1550,"correct":true,"confidence":-1},{"trial_n":73,"min":41,"max":214,"target":"absent","response":"present","rt":695.29999995232,"correct":false,"confidence":-1},{"trial_n":74,"min":25,"max":230,"target":"absent","response":"present","rt":682.30000007153,"correct":false,"confidence":-1},{"trial_n":75,"min":9,"max":246,"target":"present","response":"present","rt":1444.7000000477,"correct":true,"confidence":-1},{"trial_n":76,"min":9,"max":246,"target":"present","response":"present","rt":1000.6000000238,"correct":true,"confidence":-1},{"trial_n":77,"min":25,"max":230,"target":"absent","response":"absent","rt":1134.3999999762,"correct":true,"confidence":-1},{"trial_n":78,"min":25,"max":230,"target":"absent","response":"absent","rt":741.80000007153,"correct":true,"confidence":-1},{"trial_n":79,"min":41,"max":214,"target":"present","response":"present","rt":1779.7000000477,"correct":true,"confidence":-1},{"trial_n":80,"min":41,"max":214,"target":"absent","response":"absent","rt":2566.5999999046,"correct":true,"confidence":-1},{"trial_n":81,"min":49,"max":206,"target":"present","response":"present","rt":1181.8999999762,"correct":true,"confidence":-1},{"trial_n":82,"min":49,"max":206,"target":"absent","response":"absent","rt":1416.8000000715,"correct":true,"confidence":-1},{"trial_n":83,"min":57,"max":198,"target":"present","response":"present","rt":1298.5,"correct":true,"confidence":-1},{"trial_n":84,"min":57,"max":198,"target":"present","response":"present","rt":1002.7000000477,"correct":true,"confidence":-1},{"trial_n":85,"min":65,"max":190,"target":"present","response":"present","rt":1532,"correct":true,"confidence":-1},{"trial_n":86,"min":65,"max":190,"target":"present","response":"present","rt":2299.6000000238,"correct":true,"confidence":-1},{"trial_n":87,"min":73,"max":182,"target":"absent","response":"absent","rt":1667.8999999762,"correct":true,"confidence":-1},{"trial_n":88,"min":73,"max":182,"target":"present","response":"present","rt":867.19999992847,"correct":true,"confidence":-1},{"trial_n":89,"min":81,"max":174,"target":"present","response":"present","rt":1116.7000000477,"correct":true,"confidence":-1},{"trial_n":90,"min":81,"max":174,"target":"present","response":"present","rt":1035.1999999285,"correct":true,"confidence":-1},{"trial_n":91,"min":85,"max":170,"target":"absent","response":"absent","rt":1829,"correct":true,"confidence":3},{"trial_n":92,"min":85,"max":170,"target":"present","response":"present","rt":1783.7999999523,"correct":true,"confidence":4},{"trial_n":93,"min":89,"max":166,"target":"present","response":"present","rt":1185.6000000238,"correct":true,"confidence":5},{"trial_n":94,"min":89,"max":166,"target":"absent","response":"present","rt":3984.5,"correct":false,"confidence":2},{"trial_n":95,"min":85,"max":170,"target":"absent","response":"absent","rt":2783.6000000238,"correct":true,"confidence":2},{"trial_n":96,"min":85,"max":170,"target":"present","response":"present","rt":1734.7000000477,"correct":true,"confidence":5},{"trial_n":97,"min":89,"max":166,"target":"present","response":"present","rt":1350.3999999762,"correct":true,"confidence":4},{"trial_n":98,"min":89,"max":166,"target":"absent","response":"present","rt":1285,"correct":false,"confidence":4},{"trial_n":99,"min":85,"max":170,"target":"absent","response":"present","rt":1566.8999999762,"correct":false,"confidence":5},{"trial_n":100,"min":81,"max":174,"target":"absent","response":"absent","rt":2765.7000000477,"correct":true,"confidence":2},{"trial_n":101,"min":81,"max":174,"target":"present","response":"present","rt":1066.6000000238,"correct":true,"confidence":5},{"trial_n":102,"min":83,"max":172,"target":"absent","response":"absent","rt":1852.2000000477,"correct":true,"confidence":4},{"trial_n":103,"min":83,"max":172,"target":"absent","response":"present","rt":1495.1999999285,"correct":false,"confidence":1},{"trial_n":104,"min":81,"max":174,"target":"present","response":"present","rt":1132.7000000477,"correct":true,"confidence":5},{"trial_n":105,"min":81,"max":174,"target":"present","response":"present","rt":1548.2000000477,"correct":true,"confidence":5},{"trial_n":106,"min":83,"max":172,"target":"absent","response":"absent","rt":4590.6000000238,"correct":true,"confidence":1},{"trial_n":107,"min":83,"max":172,"target":"present","response":"present","rt":1047.5999999046,"correct":true,"confidence":5},{"trial_n":108,"min":85,"max":170,"target":"absent","response":"absent","rt":2151.0999999046,"correct":true,"confidence":3},{"trial_n":109,"min":85,"max":170,"target":"absent","response":"present","rt":1399.1000000238,"correct":false,"confidence":4},{"trial_n":110,"min":83,"max":172,"target":"absent","response":"present","rt":1492.5999999046,"correct":false,"confidence":3},{"trial_n":111,"min":82,"max":173,"target":"absent","response":"absent","rt":1601.2999999523,"correct":true,"confidence":3},{"trial_n":112,"min":82,"max":173,"target":"present","response":"present","rt":1200.2000000477,"correct":true,"confidence":4},{"trial_n":113,"min":83,"max":172,"target":"present","response":"present","rt":1795.5,"correct":true,"confidence":1},{"trial_n":114,"min":83,"max":172,"target":"present","response":"present","rt":1140.6999999285,"correct":true,"confidence":5},{"trial_n":115,"min":84,"max":171,"target":"absent","response":"present","rt":1886.8999999762,"correct":false,"confidence":1},{"trial_n":116,"min":83,"max":172,"target":"present","response":"present","rt":1117.8000000715,"correct":true,"confidence":5},{"trial_n":117,"min":83,"max":172,"target":"present","response":"present","rt":1040.4000000954,"correct":true,"confidence":5},{"trial_n":118,"min":84,"max":171,"target":"absent","response":"absent","rt":1568.6000000238,"correct":true,"confidence":4},{"trial_n":119,"min":84,"max":171,"target":"absent","response":"absent","rt":1784.3999999762,"correct":true,"confidence":5},{"trial_n":120,"min":85,"max":170,"target":"absent","response":"absent","rt":1237.5999999046,"correct":true,"confidence":5},{"trial_n":121,"min":85,"max":170,"target":"present","response":"present","rt":983.19999992847,"correct":true,"confidence":5},{"trial_n":122,"min":86,"max":169,"target":"present","response":"present","rt":1500,"correct":true,"confidence":5},{"trial_n":123,"min":86,"max":169,"target":"absent","response":"present","rt":1463.5,"correct":false,"confidence":1},{"trial_n":124,"min":85,"max":170,"target":"absent","response":"present","rt":1688.5,"correct":false,"confidence":4},{"trial_n":125,"min":84,"max":171,"target":"present","response":"present","rt":1986.8999999762,"correct":true,"confidence":4},{"trial_n":126,"min":84,"max":171,"target":"absent","response":"present","rt":1284.7000000477,"correct":false,"confidence":1},{"trial_n":127,"min":83,"max":172,"target":"absent","response":"absent","rt":1066.3000000715,"correct":true,"confidence":4},{"trial_n":128,"min":83,"max":172,"target":"absent","response":"absent","rt":1135.7000000477,"correct":true,"confidence":3},{"trial_n":129,"min":84,"max":171,"target":"absent","response":"absent","rt":1189.2999999523,"correct":true,"confidence":4},{"trial_n":130,"min":84,"max":171,"target":"present","response":"present","rt":1501.3000000715,"correct":true,"confidence":3},{"trial_n":131,"min":85,"max":170,"target":"absent","response":"absent","rt":1565.8000000715,"correct":true,"confidence":3},{"trial_n":132,"min":85,"max":170,"target":"present","response":"present","rt":2169.5,"correct":true,"confidence":4},{"trial_n":133,"min":86,"max":169,"target":"present","response":"present","rt":1548.8000000715,"correct":true,"confidence":5},{"trial_n":134,"min":86,"max":169,"target":"present","response":"present","rt":1085.0999999046,"correct":true,"confidence":5},{"trial_n":135,"min":87,"max":168,"target":"present","response":"present","rt":1826.2000000477,"correct":true,"confidence":5},{"trial_n":136,"min":87,"max":168,"target":"absent","response":"present","rt":1816.5,"correct":false,"confidence":1},{"trial_n":137,"min":86,"max":169,"target":"absent","response":"absent","rt":1085,"correct":true,"confidence":4},{"trial_n":138,"min":86,"max":169,"target":"absent","response":"absent","rt":1053.5,"correct":true,"confidence":4},{"trial_n":139,"min":87,"max":168,"target":"present","response":"present","rt":1133.5,"correct":true,"confidence":5},{"trial_n":140,"min":87,"max":168,"target":"present","response":"present","rt":1234.8999999762,"correct":true,"confidence":5}]