[{"trial_n":1,"min":25,"max":230,"target":"present","response":"present","rt":68920.699999928,"correct":true,"confidence":-1},{"trial_n":2,"min":25,"max":230,"target":"present","response":"absent","rt":6359.1000000238,"correct":false,"confidence":-1},{"trial_n":3,"min":9,"max":246,"target":"absent","response":"absent","rt":2623.7999999523,"correct":true,"confidence":-1},{"trial_n":4,"min":9,"max":246,"target":"absent","response":"absent","rt":1272.1000000238,"correct":true,"confidence":-1},{"trial_n":5,"min":25,"max":230,"target":"present","response":"present","rt":1268.2999999523,"correct":true,"confidence":-1},{"trial_n":6,"min":25,"max":230,"target":"absent","response":"absent","rt":1591.7999999523,"correct":true,"confidence":-1},{"trial_n":7,"min":41,"max":214,"target":"present","response":"present","rt":6461.2999999523,"correct":true,"confidence":-1},{"trial_n":8,"min":41,"max":214,"target":"absent","response":"absent","rt":1476.5,"correct":true,"confidence":-1},{"trial_n":9,"min":57,"max":198,"target":"absent","response":"absent","rt":737.89999997616,"correct":true,"confidence":-1},{"trial_n":10,"min":57,"max":198,"target":"present","response":"absent","rt":1303.5,"correct":false,"confidence":-1},{"trial_n":11,"min":49,"max":206,"target":"present","response":"present","rt":1101.1000000238,"correct":true,"confidence":-1},{"trial_n":12,"min":49,"max":206,"target":"absent","response":"absent","rt":1338.2999999523,"correct":true,"confidence":-1},{"trial_n":13,"min":57,"max":198,"target":"absent","response":"absent","rt":922.20000004768,"correct":true,"confidence":-1},{"trial_n":14,"min":57,"max":198,"target":"present","response":"present","rt":15084.600000024,"correct":true,"confidence":-1},{"trial_n":15,"min":65,"max":190,"target":"present","response":"absent","rt":2266.6000000238,"correct":false,"confidence":-1},{"trial_n":16,"min":57,"max":198,"target":"absent","response":"absent","rt":1989.2000000477,"correct":true,"confidence":-1},{"trial_n":17,"min":57,"max":198,"target":"absent","response":"absent","rt":1342.5,"correct":true,"confidence":-1},{"trial_n":18,"min":65,"max":190,"target":"absent","response":"absent","rt":820.60000002384,"correct":true,"confidence":-1},{"trial_n":19,"min":65,"max":190,"target":"absent","response":"absent","rt":845.89999997616,"correct":true,"confidence":-1},{"trial_n":20,"min":73,"max":182,"target":"present","response":"absent","rt":654,"correct":false,"confidence":-1},{"trial_n":21,"min":69,"max":186,"target":"absent","response":"absent","rt":1450.7000000477,"correct":true,"confidence":5},{"trial_n":22,"min":69,"max":186,"target":"present","response":"present","rt":1206.1000000238,"correct":true,"confidence":5},{"trial_n":23,"min":73,"max":182,"target":"present","response":"present","rt":872.59999990463,"correct":true,"confidence":4},{"trial_n":24,"min":73,"max":182,"target":"absent","response":"absent","rt":966.89999997616,"correct":true,"confidence":5},{"trial_n":25,"min":77,"max":178,"target":"present","response":"absent","rt":2340.5999999046,"correct":false,"confidence":4},{"trial_n":26,"min":73,"max":182,"target":"absent","response":"absent","rt":1093.6000000238,"correct":true,"confidence":4},{"trial_n":27,"min":73,"max":182,"target":"absent","response":"absent","rt":925.10000002384,"correct":true,"confidence":5},{"trial_n":28,"min":77,"max":178,"target":"present","response":"present","rt":940.60000002384,"correct":true,"confidence":4},{"trial_n":29,"min":77,"max":178,"target":"absent","response":"absent","rt":978.5,"correct":true,"confidence":5},{"trial_n":30,"min":81,"max":174,"target":"present","response":"present","rt":1695.5999999046,"correct":true,"confidence":4},{"trial_n":31,"min":81,"max":174,"target":"present","response":"present","rt":1624.6000000238,"correct":true,"confidence":4},{"trial_n":32,"min":83,"max":172,"target":"present","response":"present","rt":1440.8000000715,"correct":true,"confidence":4},{"trial_n":33,"min":83,"max":172,"target":"present","response":"absent","rt":1260.4000000954,"correct":false,"confidence":5},{"trial_n":34,"min":81,"max":174,"target":"absent","response":"present","rt":1111.5,"correct":false,"confidence":1},{"trial_n":35,"min":79,"max":176,"target":"present","response":"absent","rt":1103,"correct":false,"confidence":5},{"trial_n":36,"min":77,"max":178,"target":"absent","response":"absent","rt":1356.5,"correct":true,"confidence":4},{"trial_n":37,"min":77,"max":178,"target":"present","response":"absent","rt":1513.3000000715,"correct":false,"confidence":4},{"trial_n":38,"min":75,"max":180,"target":"present","response":"absent","rt":1564.3999999762,"correct":false,"confidence":4},{"trial_n":39,"min":73,"max":182,"target":"absent","response":"absent","rt":1279.1000000238,"correct":true,"confidence":4},{"trial_n":40,"min":73,"max":182,"target":"absent","response":"absent","rt":1083.1000000238,"correct":true,"confidence":4},{"trial_n":41,"min":74,"max":181,"target":"absent","response":"absent","rt":1785.7000000477,"correct":true,"confidence":3},{"trial_n":42,"min":74,"max":181,"target":"present","response":"present","rt":910.69999992847,"correct":true,"confidence":3},{"trial_n":43,"min":75,"max":180,"target":"present","response":"present","rt":1842.2999999523,"correct":true,"confidence":4},{"trial_n":44,"min":75,"max":180,"target":"absent","response":"absent","rt":2246,"correct":true,"confidence":4},{"trial_n":45,"min":76,"max":179,"target":"present","response":"present","rt":1606.6999999285,"correct":true,"confidence":4},{"trial_n":46,"min":76,"max":179,"target":"absent","response":"present","rt":1289.9000000954,"correct":false,"confidence":4},{"trial_n":47,"min":75,"max":180,"target":"absent","response":"absent","rt":1031.7999999523,"correct":true,"confidence":4},{"trial_n":48,"min":75,"max":180,"target":"absent","response":"absent","rt":1060,"correct":true,"confidence":4},{"trial_n":49,"min":76,"max":179,"target":"present","response":"present","rt":886.39999997616,"correct":true,"confidence":4},{"trial_n":50,"min":76,"max":179,"target":"present","response":"absent","rt":1225.7999999523,"correct":false,"confidence":4},{"trial_n":51,"min":75,"max":180,"target":"absent","response":"present","rt":1259.5,"correct":false,"confidence":4},{"trial_n":52,"min":74,"max":181,"target":"absent","response":"absent","rt":1108.1999999285,"correct":true,"confidence":4},{"trial_n":53,"min":74,"max":181,"target":"present","response":"present","rt":902.89999997616,"correct":true,"confidence":4},{"trial_n":54,"min":75,"max":180,"target":"absent","response":"absent","rt":1255.5,"correct":true,"confidence":4},{"trial_n":55,"min":75,"max":180,"target":"absent","response":"present","rt":941.09999990463,"correct":false,"confidence":3},{"trial_n":56,"min":74,"max":181,"target":"present","response":"present","rt":882.10000002384,"correct":true,"confidence":4},{"trial_n":57,"min":74,"max":181,"target":"present","response":"present","rt":996.70000004768,"correct":true,"confidence":4},{"trial_n":58,"min":75,"max":180,"target":"present","response":"present","rt":945.79999995232,"correct":true,"confidence":4},{"trial_n":59,"min":75,"max":180,"target":"present","response":"present","rt":1540.3999999762,"correct":true,"confidence":5},{"trial_n":60,"min":76,"max":179,"target":"absent","response":"absent","rt":2579.8999999762,"correct":true,"confidence":3},{"trial_n":61,"min":76,"max":179,"target":"absent","response":"absent","rt":1264.2000000477,"correct":true,"confidence":3},{"trial_n":62,"min":77,"max":178,"target":"present","response":"present","rt":1051.7999999523,"correct":true,"confidence":3},{"trial_n":63,"min":77,"max":178,"target":"present","response":"present","rt":1481.7000000477,"correct":true,"confidence":4},{"trial_n":64,"min":78,"max":177,"target":"present","response":"present","rt":1181.3999999762,"correct":true,"confidence":5},{"trial_n":65,"min":78,"max":177,"target":"present","response":"absent","rt":1132.8999999762,"correct":false,"confidence":4},{"trial_n":66,"min":77,"max":178,"target":"absent","response":"absent","rt":1437.5,"correct":true,"confidence":4},{"trial_n":67,"min":77,"max":178,"target":"absent","response":"absent","rt":1337,"correct":true,"confidence":4},{"trial_n":68,"min":78,"max":177,"target":"present","response":"present","rt":7261.5999999046,"correct":true,"confidence":4},{"trial_n":69,"min":78,"max":177,"target":"present","response":"absent","rt":1181.4000000954,"correct":false,"confidence":4},{"trial_n":70,"min":77,"max":178,"target":"absent","response":"absent","rt":22558.700000048,"correct":true,"confidence":4},{"trial_n":71,"min":41,"max":214,"target":"present","response":"present","rt":2806.4000000954,"correct":true,"confidence":-1},{"trial_n":72,"min":41,"max":214,"target":"present","response":"present","rt":888.70000004768,"correct":true,"confidence":-1},{"trial_n":73,"min":57,"max":198,"target":"absent","response":"absent","rt":1792.9000000954,"correct":true,"confidence":-1},{"trial_n":74,"min":57,"max":198,"target":"absent","response":"absent","rt":1385.3999998569,"correct":true,"confidence":-1},{"trial_n":75,"min":73,"max":182,"target":"present","response":"present","rt":1118.2999999523,"correct":true,"confidence":-1},{"trial_n":76,"min":73,"max":182,"target":"present","response":"absent","rt":1649.7999999523,"correct":false,"confidence":-1},{"trial_n":77,"min":57,"max":198,"target":"absent","response":"absent","rt":2289,"correct":true,"confidence":-1},{"trial_n":78,"min":57,"max":198,"target":"present","response":"present","rt":3574,"correct":true,"confidence":-1},{"trial_n":79,"min":73,"max":182,"target":"present","response":"present","rt":1623.0999999046,"correct":true,"confidence":-1},{"trial_n":80,"min":73,"max":182,"target":"present","response":"present","rt":1228.7000000477,"correct":true,"confidence":-1},{"trial_n":81,"min":81,"max":174,"target":"absent","response":"absent","rt":1234,"correct":true,"confidence":-1},{"trial_n":82,"min":81,"max":174,"target":"absent","response":"present","rt":2240.6000001431,"correct":false,"confidence":-1},{"trial_n":83,"min":73,"max":182,"target":"absent","response":"absent","rt":1401.5999999046,"correct":true,"confidence":-1},{"trial_n":84,"min":73,"max":182,"target":"absent","response":"present","rt":1566.9000000954,"correct":false,"confidence":-1},{"trial_n":85,"min":65,"max":190,"target":"absent","response":"present","rt":5792.9000000954,"correct":false,"confidence":-1},{"trial_n":86,"min":57,"max":198,"target":"absent","response":"absent","rt":1310.6000001431,"correct":true,"confidence":-1},{"trial_n":87,"min":57,"max":198,"target":"absent","response":"absent","rt":4964.0999999046,"correct":true,"confidence":-1},{"trial_n":88,"min":65,"max":190,"target":"absent","response":"absent","rt":2879.2000000477,"correct":true,"confidence":-1},{"trial_n":89,"min":65,"max":190,"target":"absent","response":"absent","rt":1164.2000000477,"correct":true,"confidence":-1},{"trial_n":90,"min":73,"max":182,"target":"present","response":"present","rt":3110.2000000477,"correct":true,"confidence":-1},{"trial_n":91,"min":73,"max":182,"target":"present","response":"present","rt":863,"correct":true,"confidence":5},{"trial_n":92,"min":77,"max":178,"target":"absent","response":"absent","rt":1560.2999999523,"correct":true,"confidence":4},{"trial_n":93,"min":77,"max":178,"target":"present","response":"present","rt":1069.2999999523,"correct":true,"confidence":3},{"trial_n":94,"min":81,"max":174,"target":"absent","response":"present","rt":1088,"correct":false,"confidence":3},{"trial_n":95,"min":77,"max":178,"target":"present","response":"absent","rt":1458.4000000954,"correct":false,"confidence":4},{"trial_n":96,"min":73,"max":182,"target":"absent","response":"present","rt":1436.7000000477,"correct":false,"confidence":3},{"trial_n":97,"min":69,"max":186,"target":"present","response":"absent","rt":2182.7999999523,"correct":false,"confidence":4},{"trial_n":98,"min":65,"max":190,"target":"present","response":"present","rt":1113.5,"correct":true,"confidence":5},{"trial_n":99,"min":65,"max":190,"target":"absent","response":"absent","rt":1328.4000000954,"correct":true,"confidence":4},{"trial_n":100,"min":69,"max":186,"target":"present","response":"present","rt":1116.7999999523,"correct":true,"confidence":5},{"trial_n":101,"min":69,"max":186,"target":"absent","response":"absent","rt":1374.2999999523,"correct":true,"confidence":5},{"trial_n":102,"min":71,"max":184,"target":"absent","response":"absent","rt":2093.0999999046,"correct":true,"confidence":4},{"trial_n":103,"min":71,"max":184,"target":"absent","response":"absent","rt":2745.6000001431,"correct":true,"confidence":4},{"trial_n":104,"min":73,"max":182,"target":"absent","response":"absent","rt":2137.1000001431,"correct":true,"confidence":4},{"trial_n":105,"min":73,"max":182,"target":"present","response":"present","rt":1717.5999999046,"correct":true,"confidence":5},{"trial_n":106,"min":75,"max":180,"target":"present","response":"absent","rt":1518.9000000954,"correct":false,"confidence":4},{"trial_n":107,"min":73,"max":182,"target":"present","response":"absent","rt":9825.4000000954,"correct":false,"confidence":3},{"trial_n":108,"min":71,"max":184,"target":"absent","response":"absent","rt":1187.5,"correct":true,"confidence":5},{"trial_n":109,"min":71,"max":184,"target":"present","response":"present","rt":1621.6999998093,"correct":true,"confidence":3},{"trial_n":110,"min":73,"max":182,"target":"present","response":"present","rt":1610.2999999523,"correct":true,"confidence":4},{"trial_n":111,"min":73,"max":182,"target":"absent","response":"present","rt":1176.1000001431,"correct":false,"confidence":3},{"trial_n":112,"min":72,"max":183,"target":"present","response":"present","rt":1279.4000000954,"correct":true,"confidence":4},{"trial_n":113,"min":72,"max":183,"target":"present","response":"present","rt":2327.2999999523,"correct":true,"confidence":5},{"trial_n":114,"min":73,"max":182,"target":"absent","response":"absent","rt":2085,"correct":true,"confidence":4},{"trial_n":115,"min":73,"max":182,"target":"absent","response":"absent","rt":1381.5,"correct":true,"confidence":3},{"trial_n":116,"min":74,"max":181,"target":"absent","response":"absent","rt":1843,"correct":true,"confidence":4},{"trial_n":117,"min":74,"max":181,"target":"present","response":"present","rt":1238.2000000477,"correct":true,"confidence":5},{"trial_n":118,"min":75,"max":180,"target":"present","response":"present","rt":1647.2999999523,"correct":true,"confidence":3},{"trial_n":119,"min":75,"max":180,"target":"present","response":"present","rt":1734.1000001431,"correct":true,"confidence":5},{"trial_n":120,"min":76,"max":179,"target":"present","response":"present","rt":1377.6999998093,"correct":true,"confidence":3},{"trial_n":121,"min":76,"max":179,"target":"present","response":"present","rt":1513.0999999046,"correct":true,"confidence":4},{"trial_n":122,"min":77,"max":178,"target":"absent","response":"absent","rt":1330.3999998569,"correct":true,"confidence":5},{"trial_n":123,"min":77,"max":178,"target":"present","response":"absent","rt":1650.8999998569,"correct":false,"confidence":3},{"trial_n":124,"min":76,"max":179,"target":"absent","response":"absent","rt":1403.5,"correct":true,"confidence":5},{"trial_n":125,"min":76,"max":179,"target":"present","response":"present","rt":1313.7000000477,"correct":true,"confidence":5},{"trial_n":126,"min":77,"max":178,"target":"absent","response":"absent","rt":1173.0999999046,"correct":true,"confidence":5},{"trial_n":127,"min":77,"max":178,"target":"present","response":"present","rt":1468,"correct":true,"confidence":5},{"trial_n":128,"min":78,"max":177,"target":"present","response":"present","rt":1400.4000000954,"correct":true,"confidence":5},{"trial_n":129,"min":78,"max":177,"target":"present","response":"present","rt":1035.9000000954,"correct":true,"confidence":5},{"trial_n":130,"min":79,"max":176,"target":"present","response":"present","rt":1301.5999999046,"correct":true,"confidence":5},{"trial_n":131,"min":79,"max":176,"target":"present","response":"present","rt":1089.7000000477,"correct":true,"confidence":5},{"trial_n":132,"min":80,"max":175,"target":"present","response":"present","rt":1291.5999999046,"correct":true,"confidence":5},{"trial_n":133,"min":80,"max":175,"target":"absent","response":"absent","rt":1476.3999998569,"correct":true,"confidence":5},{"trial_n":134,"min":81,"max":174,"target":"absent","response":"absent","rt":1538.5,"correct":true,"confidence":4},{"trial_n":135,"min":81,"max":174,"target":"present","response":"present","rt":1345.0999999046,"correct":true,"confidence":3},{"trial_n":136,"min":82,"max":173,"target":"absent","response":"absent","rt":1141.5,"correct":true,"confidence":5},{"trial_n":137,"min":82,"max":173,"target":"present","response":"present","rt":1309.7000000477,"correct":true,"confidence":4},{"trial_n":138,"min":83,"max":172,"target":"absent","response":"present","rt":2250.6000001431,"correct":false,"confidence":3},{"trial_n":139,"min":82,"max":173,"target":"absent","response":"absent","rt":933,"correct":true,"confidence":4},{"trial_n":140,"min":82,"max":173,"target":"absent","response":"absent","rt":1083.2999999523,"correct":true,"confidence":4}]