[{"trial_n":1,"span":8,"encoder":"61984445","distractor":"61984495","target":"present","response":"present","rt":"5074","correct":true,"confidence":-1},{"trial_n":2,"span":8,"encoder":"22869792","distractor":"22863792","target":"present","response":"present","rt":"2814","correct":true,"confidence":-1},{"trial_n":3,"span":10,"encoder":"5159055004","distractor":"5159255004","target":"absent","response":"absent","rt":"4587","correct":true,"confidence":-1},{"trial_n":4,"span":10,"encoder":"4555389629","distractor":"4555889629","target":"absent","response":"absent","rt":"2859","correct":true,"confidence":-1},{"trial_n":5,"span":12,"encoder":"452484159455","distractor":"452484159459","target":"present","response":"absent","rt":"3920","correct":false,"confidence":-1},{"trial_n":6,"span":10,"encoder":"0171183246","distractor":"8171183246","target":"absent","response":"present","rt":"3461","correct":false,"confidence":-1},{"trial_n":7,"span":8,"encoder":"15926004","distractor":"13926004","target":"present","response":"present","rt":"2652","correct":true,"confidence":-1},{"trial_n":8,"span":8,"encoder":"48003540","distractor":"48006540","target":"present","response":"absent","rt":"2769","correct":false,"confidence":-1},{"trial_n":9,"span":6,"encoder":"654758","distractor":"654738","target":"absent","response":"absent","rt":"3491","correct":true,"confidence":-1},{"trial_n":10,"span":6,"encoder":"189341","distractor":"189343","target":"present","response":"present","rt":"2308","correct":true,"confidence":-1},{"trial_n":11,"span":8,"encoder":"30447005","distractor":"30447705","target":"present","response":"present","rt":"2715","correct":true,"confidence":-1},{"trial_n":12,"span":8,"encoder":"91160148","distractor":"71160148","target":"present","response":"present","rt":"2950","correct":true,"confidence":-1},{"trial_n":13,"span":9,"encoder":"558617234","distractor":"558677234","target":"present","response":"present","rt":"2788","correct":true,"confidence":-1},{"trial_n":14,"span":9,"encoder":"330604017","distractor":"330604057","target":"present","response":"present","rt":"3239","correct":true,"confidence":-1},{"trial_n":15,"span":10,"encoder":"6466296222","distractor":"6466256222","target":"absent","response":"absent","rt":"1802","correct":true,"confidence":-1},{"trial_n":16,"span":10,"encoder":"5542772878","distractor":"5542712878","target":"absent","response":"absent","rt":"2293","correct":true,"confidence":-1},{"trial_n":17,"span":11,"encoder":"83476063460","distractor":"83475063460","target":"present","response":"absent","rt":"1225","correct":false,"confidence":-1},{"trial_n":18,"span":10,"encoder":"0339805144","distractor":"0339805184","target":"present","response":"present","rt":"2467","correct":true,"confidence":-1},{"trial_n":19,"span":10,"encoder":"5726645002","distractor":"4726645002","target":"present","response":"present","rt":"1395","correct":true,"confidence":-1},{"trial_n":20,"span":11,"encoder":"33599174553","distractor":"33599174153","target":"absent","response":"absent","rt":"1792","correct":true,"confidence":-1},{"trial_n":21,"span":11,"encoder":"58942171824","distractor":"58942371824","target":"absent","response":"absent","rt":"3037","correct":true,"confidence":4},{"trial_n":22,"span":12,"encoder":"457510584350","distractor":"457010584350","target":"present","response":"present","rt":"3757","correct":true,"confidence":2},{"trial_n":23,"span":12,"encoder":"818776867373","distractor":"815776867373","target":"present","response":"present","rt":"3230","correct":true,"confidence":4},{"trial_n":24,"span":13,"encoder":"1027726057793","distractor":"1027826057793","target":"absent","response":"present","rt":"3647","correct":false,"confidence":3},{"trial_n":25,"span":12,"encoder":"223663163844","distractor":"223463163844","target":"absent","response":"absent","rt":"2361","correct":true,"confidence":4},{"trial_n":26,"span":12,"encoder":"066698390696","distractor":"666698390696","target":"absent","response":"present","rt":"4007","correct":false,"confidence":2},{"trial_n":27,"span":11,"encoder":"20424388444","distractor":"20424388644","target":"absent","response":"present","rt":"3902","correct":false,"confidence":4},{"trial_n":28,"span":10,"encoder":"2077443707","distractor":"2070443707","target":"absent","response":"present","rt":"2212","correct":false,"confidence":5},{"trial_n":29,"span":9,"encoder":"776844891","distractor":"776844091","target":"absent","response":"present","rt":"3609","correct":false,"confidence":4},{"trial_n":30,"span":8,"encoder":"24028007","distractor":"44028007","target":"present","response":"present","rt":"3690","correct":true,"confidence":4},{"trial_n":31,"span":8,"encoder":"81213408","distractor":"81283408","target":"present","response":"present","rt":"3107","correct":true,"confidence":5},{"trial_n":32,"span":9,"encoder":"393558798","distractor":"193558798","target":"present","response":"present","rt":"4549","correct":true,"confidence":4},{"trial_n":33,"span":9,"encoder":"387468392","distractor":"387568392","target":"absent","response":"absent","rt":"2734","correct":true,"confidence":4},{"trial_n":34,"span":10,"encoder":"6731143228","distractor":"6731143220","target":"absent","response":"present","rt":"3711","correct":false,"confidence":5},{"trial_n":35,"span":9,"encoder":"124664543","distractor":"124694543","target":"absent","response":"absent","rt":"2974","correct":true,"confidence":3},{"trial_n":36,"span":9,"encoder":"300373930","distractor":"300373932","target":"absent","response":"present","rt":"4399","correct":false,"confidence":4},{"trial_n":37,"span":8,"encoder":"46851810","distractor":"46851840","target":"present","response":"present","rt":"4421","correct":true,"confidence":5},{"trial_n":38,"span":8,"encoder":"90859076","distractor":"90857076","target":"absent","response":"absent","rt":"3646","correct":true,"confidence":4},{"trial_n":39,"span":9,"encoder":"633177898","distractor":"623177898","target":"present","response":"present","rt":"2833","correct":true,"confidence":5},{"trial_n":40,"span":9,"encoder":"791010875","distractor":"731010875","target":"present","response":"present","rt":"3958","correct":true,"confidence":5},{"trial_n":41,"span":10,"encoder":"5961292297","distractor":"5963292297","target":"absent","response":"absent","rt":"4770","correct":true,"confidence":4},{"trial_n":42,"span":10,"encoder":"7514847382","distractor":"7516847382","target":"present","response":"present","rt":"4555","correct":true,"confidence":2},{"trial_n":43,"span":11,"encoder":"80913115193","distractor":"80913415193","target":"absent","response":"absent","rt":"2217","correct":true,"confidence":4},{"trial_n":44,"span":11,"encoder":"63399623581","distractor":"63399628581","target":"absent","response":"present","rt":"3699.9999999999","correct":false,"confidence":4},{"trial_n":45,"span":10,"encoder":"6976478095","distractor":"6976278095","target":"present","response":"present","rt":"7442.0000000001","correct":true,"confidence":2},{"trial_n":46,"span":10,"encoder":"9467867195","distractor":"9467867190","target":"absent","response":"present","rt":"4905.9999999999","correct":false,"confidence":2},{"trial_n":47,"span":9,"encoder":"714381840","distractor":"774381840","target":"present","response":"present","rt":"3699","correct":true,"confidence":5},{"trial_n":48,"span":9,"encoder":"393626739","distractor":"393926739","target":"absent","response":"absent","rt":"3116.0000000001","correct":true,"confidence":4},{"trial_n":49,"span":10,"encoder":"1759378476","distractor":"1759878476","target":"absent","response":"absent","rt":"2139","correct":true,"confidence":3},{"trial_n":50,"span":10,"encoder":"9989867944","distractor":"9989867244","target":"absent","response":"absent","rt":"4355","correct":true,"confidence":5},{"trial_n":51,"span":11,"encoder":"64429958555","distractor":"64469958555","target":"present","response":"present","rt":"2962","correct":true,"confidence":4},{"trial_n":52,"span":11,"encoder":"73020382981","distractor":"63020382981","target":"present","response":"present","rt":"4361","correct":true,"confidence":3},{"trial_n":53,"span":12,"encoder":"950617467080","distractor":"950618467080","target":"present","response":"absent","rt":"4407","correct":false,"confidence":3},{"trial_n":54,"span":11,"encoder":"17016330760","distractor":"77016330760","target":"present","response":"present","rt":"1922","correct":true,"confidence":2},{"trial_n":55,"span":11,"encoder":"25432290800","distractor":"25632290800","target":"absent","response":"absent","rt":"3894","correct":true,"confidence":2},{"trial_n":56,"span":12,"encoder":"133186294434","distractor":"633186294434","target":"present","response":"present","rt":"2979.0000000001","correct":true,"confidence":4},{"trial_n":57,"span":12,"encoder":"188752053981","distractor":"188752053281","target":"absent","response":"present","rt":"4925","correct":false,"confidence":3},{"trial_n":58,"span":11,"encoder":"94633551550","distractor":"94636551550","target":"present","response":"absent","rt":"2675","correct":false,"confidence":1},{"trial_n":59,"span":10,"encoder":"3094121143","distractor":"3094121142","target":"present","response":"present","rt":"2637","correct":true,"confidence":4},{"trial_n":60,"span":10,"encoder":"3708084721","distractor":"3708086721","target":"present","response":"present","rt":"2356","correct":true,"confidence":4},{"trial_n":61,"span":11,"encoder":"70371902368","distractor":"70371905368","target":"absent","response":"absent","rt":"4395.9999999999","correct":true,"confidence":4},{"trial_n":62,"span":11,"encoder":"89958260570","distractor":"89358260570","target":"present","response":"present","rt":"3410","correct":true,"confidence":3},{"trial_n":63,"span":12,"encoder":"640279747272","distractor":"640279749272","target":"absent","response":"present","rt":"3491","correct":false,"confidence":3},{"trial_n":64,"span":11,"encoder":"93539572792","distractor":"93539579792","target":"absent","response":"present","rt":"4636","correct":false,"confidence":5},{"trial_n":65,"span":10,"encoder":"1201336345","distractor":"1201936345","target":"present","response":"present","rt":"3946","correct":true,"confidence":5},{"trial_n":66,"span":10,"encoder":"1784217270","distractor":"1784317270","target":"absent","response":"present","rt":"6674","correct":false,"confidence":2},{"trial_n":67,"span":9,"encoder":"820781292","distractor":"820761292","target":"present","response":"present","rt":"5027","correct":true,"confidence":4},{"trial_n":68,"span":9,"encoder":"992519596","distractor":"992519536","target":"absent","response":"absent","rt":"3601","correct":true,"confidence":5},{"trial_n":69,"span":10,"encoder":"0809352531","distractor":"0809552531","target":"present","response":"present","rt":"4945","correct":true,"confidence":3},{"trial_n":70,"span":10,"encoder":"8011587533","distractor":"8014587533","target":"absent","response":"present","rt":"3415.0000000001","correct":false,"confidence":4},{"trial_n":71,"span":8,"encoder":"32658901","distractor":"32658991","target":"present","response":"present","rt":"3186","correct":true,"confidence":-1},{"trial_n":72,"span":8,"encoder":"69111495","distractor":"69111475","target":"present","response":"present","rt":"2969","correct":true,"confidence":-1},{"trial_n":73,"span":9,"encoder":"070229475","distractor":"070229479","target":"absent","response":"absent","rt":"2572","correct":true,"confidence":-1},{"trial_n":74,"span":9,"encoder":"748616951","distractor":"448616951","target":"absent","response":"absent","rt":"3381.9999999999","correct":true,"confidence":-1},{"trial_n":75,"span":10,"encoder":"6117078824","distractor":"6217078824","target":"present","response":"present","rt":"4994","correct":true,"confidence":-1},{"trial_n":76,"span":10,"encoder":"4269234530","distractor":"4369234530","target":"absent","response":"absent","rt":"3756.0000000001","correct":true,"confidence":-1},{"trial_n":77,"span":11,"encoder":"05663601670","distractor":"05663651670","target":"absent","response":"absent","rt":"5503.0000000001","correct":true,"confidence":-1},{"trial_n":78,"span":11,"encoder":"36861326845","distractor":"36863326845","target":"present","response":"present","rt":"7594","correct":true,"confidence":-1},{"trial_n":79,"span":12,"encoder":"287820756612","distractor":"287820746612","target":"absent","response":"absent","rt":"7512.9999999999","correct":true,"confidence":-1},{"trial_n":80,"span":12,"encoder":"940933406137","distractor":"340933406137","target":"present","response":"present","rt":"2354","correct":true,"confidence":-1},{"trial_n":81,"span":13,"encoder":"4502267638908","distractor":"4502267633908","target":"absent","response":"absent","rt":"4136","correct":true,"confidence":-1},{"trial_n":82,"span":13,"encoder":"5939061507101","distractor":"6939061507101","target":"absent","response":"present","rt":"7304","correct":false,"confidence":-1},{"trial_n":83,"span":12,"encoder":"318907417173","distractor":"318907417073","target":"present","response":"present","rt":"3755","correct":true,"confidence":-1},{"trial_n":84,"span":12,"encoder":"364385855714","distractor":"364385655714","target":"absent","response":"present","rt":"11162","correct":false,"confidence":-1},{"trial_n":85,"span":11,"encoder":"65701454300","distractor":"65701454340","target":"present","response":"present","rt":"1907","correct":true,"confidence":-1},{"trial_n":86,"span":11,"encoder":"54995183753","distractor":"54995183853","target":"absent","response":"present","rt":"9045","correct":false,"confidence":-1},{"trial_n":87,"span":10,"encoder":"3400091088","distractor":"3400071088","target":"absent","response":"absent","rt":"3059","correct":true,"confidence":-1},{"trial_n":88,"span":10,"encoder":"1458427089","distractor":"1459427089","target":"absent","response":"absent","rt":"6299.0000000001","correct":true,"confidence":-1},{"trial_n":89,"span":11,"encoder":"24447534237","distractor":"24647534237","target":"present","response":"present","rt":"2639.0000000001","correct":true,"confidence":-1},{"trial_n":90,"span":11,"encoder":"63486802118","distractor":"13486802118","target":"present","response":"present","rt":"4707","correct":true,"confidence":-1},{"trial_n":91,"span":12,"encoder":"385826061204","distractor":"385826861204","target":"present","response":"present","rt":"6610","correct":true,"confidence":4},{"trial_n":92,"span":12,"encoder":"704367291501","distractor":"704361291501","target":"absent","response":"absent","rt":"7324.0000000002","correct":true,"confidence":5},{"trial_n":93,"span":13,"encoder":"3952361229195","distractor":"3352361229195","target":"absent","response":"absent","rt":"7103","correct":true,"confidence":2},{"trial_n":94,"span":13,"encoder":"4274692584747","distractor":"4274692534747","target":"absent","response":"absent","rt":"10813","correct":true,"confidence":4},{"trial_n":95,"span":14,"encoder":"50847375728241","distractor":"50847375720241","target":"present","response":"absent","rt":"12785","correct":false,"confidence":3},{"trial_n":96,"span":13,"encoder":"5223755608765","distractor":"5223715608765","target":"absent","response":"absent","rt":"4717","correct":true,"confidence":5},{"trial_n":97,"span":13,"encoder":"0195590209957","distractor":"0195590709957","target":"absent","response":"absent","rt":"15421","correct":true,"confidence":4},{"trial_n":98,"span":14,"encoder":"10206324070746","distractor":"50206324070746","target":"absent","response":"absent","rt":"3842.0000000002","correct":true,"confidence":5},{"trial_n":99,"span":14,"encoder":"56776683437083","distractor":"57776683437083","target":"present","response":"present","rt":"6927","correct":true,"confidence":4},{"trial_n":100,"span":15,"encoder":"458279435602420","distractor":"458279435902420","target":"present","response":"absent","rt":"6040","correct":false,"confidence":3},{"trial_n":101,"span":14,"encoder":"48466940631173","distractor":"48466946631173","target":"present","response":"present","rt":"14931","correct":true,"confidence":2},{"trial_n":102,"span":14,"encoder":"35050661081646","distractor":"35350661081646","target":"absent","response":"absent","rt":"6787","correct":true,"confidence":4},{"trial_n":103,"span":15,"encoder":"618722529920856","distractor":"618122529920856","target":"present","response":"absent","rt":"8412.9999999998","correct":false,"confidence":3},{"trial_n":104,"span":14,"encoder":"81329397006679","distractor":"81329399006679","target":"absent","response":"absent","rt":"8986","correct":true,"confidence":4},{"trial_n":105,"span":14,"encoder":"78986917645730","distractor":"78986917745730","target":"present","response":"present","rt":"5460","correct":true,"confidence":2},{"trial_n":106,"span":15,"encoder":"226294389159329","distractor":"226294389159359","target":"present","response":"present","rt":"3275.0000000002","correct":true,"confidence":5},{"trial_n":107,"span":15,"encoder":"895614572934985","distractor":"895614572434985","target":"present","response":"present","rt":"10873","correct":true,"confidence":2},{"trial_n":108,"span":16,"encoder":"5799910812210480","distractor":"5799910812210980","target":"present","response":"present","rt":"10038","correct":true,"confidence":3},{"trial_n":109,"span":16,"encoder":"2426528907594898","distractor":"2425528907594898","target":"present","response":"present","rt":"4995","correct":true,"confidence":4},{"trial_n":110,"span":17,"encoder":"95489776539694341","distractor":"95489776539694391","target":"present","response":"present","rt":"8009","correct":true,"confidence":2},{"trial_n":111,"span":17,"encoder":"40060567572771246","distractor":"40060567572776246","target":"absent","response":"present","rt":"9053","correct":false,"confidence":4},{"trial_n":112,"span":16,"encoder":"0805426901993389","distractor":"0805426901793389","target":"present","response":"present","rt":"3073","correct":true,"confidence":5},{"trial_n":113,"span":16,"encoder":"8106417125699887","distractor":"8106417125669887","target":"present","response":"present","rt":"3075","correct":true,"confidence":5},{"trial_n":114,"span":17,"encoder":"91521913724310361","distractor":"91541913724310361","target":"absent","response":"absent","rt":"6666","correct":true,"confidence":4},{"trial_n":115,"span":17,"encoder":"22637051211170652","distractor":"22637051811170652","target":"absent","response":"absent","rt":"6005.0000000002","correct":true,"confidence":3},{"trial_n":116,"span":18,"encoder":"088716937968197967","distractor":"088716937968197957","target":"present","response":"present","rt":"2729","correct":true,"confidence":5},{"trial_n":117,"span":18,"encoder":"460100762657529150","distractor":"460100762657599150","target":"present","response":"present","rt":"2829.9999999998","correct":true,"confidence":5},{"trial_n":118,"span":19,"encoder":"9285104227368737173","distractor":"9285154227368737173","target":"present","response":"present","rt":"12293","correct":true,"confidence":2},{"trial_n":119,"span":19,"encoder":"5800519485507845864","distractor":"5800519485500845864","target":"absent","response":"absent","rt":"7803","correct":true,"confidence":4},{"trial_n":120,"span":20,"encoder":"76581810238979484391","distractor":"76588810238979484391","target":"absent","response":"absent","rt":"13576","correct":true,"confidence":4},{"trial_n":121,"span":20,"encoder":"28008999661560637609","distractor":"68008999661560637609","target":"present","response":"present","rt":"11796","correct":true,"confidence":3},{"trial_n":122,"span":21,"encoder":"244067266031477160612","distractor":"244067266031447160612","target":"absent","response":"present","rt":"11828","correct":false,"confidence":2},{"trial_n":123,"span":20,"encoder":"24666467804370565490","distractor":"26666467804370565490","target":"present","response":"present","rt":"5334","correct":true,"confidence":5},{"trial_n":124,"span":20,"encoder":"08276564915527495930","distractor":"08276534915527495930","target":"absent","response":"absent","rt":"12437","correct":true,"confidence":3},{"trial_n":125,"span":21,"encoder":"900635729363108575894","distractor":"200635729363108575894","target":"absent","response":"present","rt":"11054","correct":false,"confidence":4},{"trial_n":126,"span":20,"encoder":"21901826388644132919","distractor":"21901826318644132919","target":"absent","response":"present","rt":"10411","correct":false,"confidence":2},{"trial_n":127,"span":19,"encoder":"1412046749004177715","distractor":"1412046749004177415","target":"absent","response":"absent","rt":"2871","correct":true,"confidence":5},{"trial_n":128,"span":19,"encoder":"9019619092458547214","distractor":"9019619092458547204","target":"present","response":"present","rt":"24590","correct":true,"confidence":2},{"trial_n":129,"span":20,"encoder":"31288566116009071627","distractor":"31588566116009071627","target":"present","response":"present","rt":"8868","correct":true,"confidence":3},{"trial_n":130,"span":20,"encoder":"77102246599137389139","distractor":"72102246599137389139","target":"absent","response":"present","rt":"3664.9999999995","correct":false,"confidence":3},{"trial_n":131,"span":19,"encoder":"9200082181633741597","distractor":"9200182181633741597","target":"present","response":"present","rt":"3047","correct":true,"confidence":5},{"trial_n":132,"span":19,"encoder":"2015156075108806317","distractor":"2015656075108806317","target":"absent","response":"present","rt":"13350","correct":false,"confidence":3},{"trial_n":133,"span":18,"encoder":"694533678534698829","distractor":"694533674534698829","target":"absent","response":"absent","rt":"7362","correct":true,"confidence":3},{"trial_n":134,"span":18,"encoder":"197842990384090761","distractor":"167842990384090761","target":"present","response":"present","rt":"10726","correct":true,"confidence":2},{"trial_n":135,"span":19,"encoder":"1861818111353280581","distractor":"1861818311353280581","target":"absent","response":"absent","rt":"5039","correct":true,"confidence":5},{"trial_n":136,"span":19,"encoder":"1267836060405374872","distractor":"1267836060405874872","target":"present","response":"present","rt":"10112","correct":true,"confidence":2},{"trial_n":137,"span":20,"encoder":"30530730367128484011","distractor":"30530730364128484011","target":"present","response":"absent","rt":"9152","correct":false,"confidence":2},{"trial_n":138,"span":19,"encoder":"0061470816559828682","distractor":"0061470816559828692","target":"present","response":"absent","rt":"10472","correct":false,"confidence":4},{"trial_n":139,"span":18,"encoder":"288172430945637437","distractor":"288112430945637437","target":"present","response":"present","rt":"4014","correct":true,"confidence":4},{"trial_n":140,"span":18,"encoder":"649735910457883421","distractor":"649735930457883421","target":"absent","response":"present","rt":"8991","correct":false,"confidence":1}]