[{"trial_n":1,"min":25,"max":230,"target":"present","response":"present","rt":3789.5,"correct":true,"confidence":-1},{"trial_n":2,"min":25,"max":230,"target":"present","response":"present","rt":1576.7999999989,"correct":true,"confidence":-1},{"trial_n":3,"min":41,"max":214,"target":"absent","response":"absent","rt":1124.5,"correct":true,"confidence":-1},{"trial_n":4,"min":41,"max":214,"target":"absent","response":"absent","rt":939.30000000075,"correct":true,"confidence":-1},{"trial_n":5,"min":57,"max":198,"target":"present","response":"present","rt":872.70000000112,"correct":true,"confidence":-1},{"trial_n":6,"min":57,"max":198,"target":"present","response":"present","rt":1130.5,"correct":true,"confidence":-1},{"trial_n":7,"min":73,"max":182,"target":"absent","response":"absent","rt":1193.0999999996,"correct":true,"confidence":-1},{"trial_n":8,"min":73,"max":182,"target":"present","response":"present","rt":969.40000000037,"correct":true,"confidence":-1},{"trial_n":9,"min":89,"max":166,"target":"absent","response":"absent","rt":1012,"correct":true,"confidence":-1},{"trial_n":10,"min":89,"max":166,"target":"absent","response":"absent","rt":1193.3000000007,"correct":true,"confidence":-1},{"trial_n":11,"min":97,"max":158,"target":"present","response":"absent","rt":683.59999999963,"correct":false,"confidence":-1},{"trial_n":12,"min":89,"max":166,"target":"present","response":"absent","rt":717.09999999963,"correct":false,"confidence":-1},{"trial_n":13,"min":81,"max":174,"target":"present","response":"absent","rt":685.5,"correct":false,"confidence":-1},{"trial_n":14,"min":73,"max":182,"target":"present","response":"present","rt":978.40000000037,"correct":true,"confidence":-1},{"trial_n":15,"min":73,"max":182,"target":"present","response":"present","rt":896.90000000037,"correct":true,"confidence":-1},{"trial_n":16,"min":81,"max":174,"target":"absent","response":"absent","rt":1967,"correct":true,"confidence":-1},{"trial_n":17,"min":81,"max":174,"target":"present","response":"absent","rt":813.69999999925,"correct":false,"confidence":-1},{"trial_n":18,"min":73,"max":182,"target":"present","response":"present","rt":988.40000000037,"correct":true,"confidence":-1},{"trial_n":19,"min":73,"max":182,"target":"present","response":"present","rt":1075.7999999989,"correct":true,"confidence":-1},{"trial_n":20,"min":81,"max":174,"target":"present","response":"present","rt":1544.4000000004,"correct":true,"confidence":-1},{"trial_n":21,"min":81,"max":174,"target":"absent","response":"present","rt":1352.5,"correct":false,"confidence":3},{"trial_n":22,"min":77,"max":178,"target":"present","response":"present","rt":899.5,"correct":true,"confidence":5},{"trial_n":23,"min":77,"max":178,"target":"present","response":"present","rt":1217.5999999996,"correct":true,"confidence":5},{"trial_n":24,"min":81,"max":174,"target":"present","response":"present","rt":3084,"correct":true,"confidence":5},{"trial_n":25,"min":81,"max":174,"target":"absent","response":"present","rt":1185.1000000015,"correct":false,"confidence":4},{"trial_n":26,"min":77,"max":178,"target":"absent","response":"present","rt":1595.4000000004,"correct":false,"confidence":4},{"trial_n":27,"min":73,"max":182,"target":"absent","response":"absent","rt":950.5,"correct":true,"confidence":3},{"trial_n":28,"min":73,"max":182,"target":"absent","response":"present","rt":6906.2000000011,"correct":false,"confidence":1},{"trial_n":29,"min":69,"max":186,"target":"present","response":"present","rt":1585.4000000004,"correct":true,"confidence":3},{"trial_n":30,"min":69,"max":186,"target":"present","response":"present","rt":1071,"correct":true,"confidence":3},{"trial_n":31,"min":71,"max":184,"target":"absent","response":"absent","rt":1019,"correct":true,"confidence":3},{"trial_n":32,"min":71,"max":184,"target":"present","response":"present","rt":931.90000000037,"correct":true,"confidence":4},{"trial_n":33,"min":73,"max":182,"target":"absent","response":"absent","rt":1642.9000000004,"correct":true,"confidence":4},{"trial_n":34,"min":73,"max":182,"target":"absent","response":"present","rt":1896.7999999989,"correct":false,"confidence":3},{"trial_n":35,"min":71,"max":184,"target":"absent","response":"absent","rt":1185.5,"correct":true,"confidence":3},{"trial_n":36,"min":71,"max":184,"target":"present","response":"present","rt":884.80000000075,"correct":true,"confidence":5},{"trial_n":37,"min":73,"max":182,"target":"absent","response":"present","rt":1697,"correct":false,"confidence":2},{"trial_n":38,"min":71,"max":184,"target":"present","response":"present","rt":795.59999999963,"correct":true,"confidence":5},{"trial_n":39,"min":71,"max":184,"target":"present","response":"present","rt":1339.3999999985,"correct":true,"confidence":5},{"trial_n":40,"min":73,"max":182,"target":"absent","response":"absent","rt":1023.4000000004,"correct":true,"confidence":3},{"trial_n":41,"min":73,"max":182,"target":"present","response":"present","rt":1870.0999999996,"correct":true,"confidence":4},{"trial_n":42,"min":74,"max":181,"target":"present","response":"present","rt":1049.7999999989,"correct":true,"confidence":3},{"trial_n":43,"min":74,"max":181,"target":"absent","response":"absent","rt":1714.2000000011,"correct":true,"confidence":3},{"trial_n":44,"min":75,"max":180,"target":"present","response":"absent","rt":1048,"correct":false,"confidence":3},{"trial_n":45,"min":74,"max":181,"target":"absent","response":"absent","rt":1662.5999999996,"correct":true,"confidence":3},{"trial_n":46,"min":74,"max":181,"target":"absent","response":"absent","rt":1107.6999999993,"correct":true,"confidence":3},{"trial_n":47,"min":75,"max":180,"target":"absent","response":"present","rt":2887.5,"correct":false,"confidence":1},{"trial_n":48,"min":74,"max":181,"target":"present","response":"present","rt":1611.5,"correct":true,"confidence":4},{"trial_n":49,"min":74,"max":181,"target":"absent","response":"absent","rt":1042.3000000007,"correct":true,"confidence":3},{"trial_n":50,"min":75,"max":180,"target":"present","response":"present","rt":908.90000000037,"correct":true,"confidence":5},{"trial_n":51,"min":75,"max":180,"target":"absent","response":"absent","rt":1352.7000000011,"correct":true,"confidence":5},{"trial_n":52,"min":76,"max":179,"target":"present","response":"present","rt":986,"correct":true,"confidence":5},{"trial_n":53,"min":76,"max":179,"target":"absent","response":"absent","rt":1276.5,"correct":true,"confidence":5},{"trial_n":54,"min":77,"max":178,"target":"absent","response":"present","rt":961,"correct":false,"confidence":3},{"trial_n":55,"min":76,"max":179,"target":"present","response":"present","rt":925.5,"correct":true,"confidence":3},{"trial_n":56,"min":76,"max":179,"target":"absent","response":"absent","rt":1045.5,"correct":true,"confidence":5},{"trial_n":57,"min":77,"max":178,"target":"present","response":"present","rt":918.40000000037,"correct":true,"confidence":4},{"trial_n":58,"min":77,"max":178,"target":"present","response":"absent","rt":1117.1999999993,"correct":false,"confidence":4},{"trial_n":59,"min":76,"max":179,"target":"absent","response":"absent","rt":1038.3000000007,"correct":true,"confidence":3},{"trial_n":60,"min":76,"max":179,"target":"absent","response":"absent","rt":829,"correct":true,"confidence":3},{"trial_n":61,"min":77,"max":178,"target":"absent","response":"absent","rt":1266.2999999989,"correct":true,"confidence":3},{"trial_n":62,"min":77,"max":178,"target":"absent","response":"absent","rt":1040.4000000004,"correct":true,"confidence":3},{"trial_n":63,"min":78,"max":177,"target":"absent","response":"present","rt":840.30000000075,"correct":false,"confidence":3},{"trial_n":64,"min":77,"max":178,"target":"absent","response":"absent","rt":841.19999999925,"correct":true,"confidence":3},{"trial_n":65,"min":77,"max":178,"target":"absent","response":"absent","rt":678,"correct":true,"confidence":4},{"trial_n":66,"min":78,"max":177,"target":"present","response":"present","rt":1221.8000000007,"correct":true,"confidence":4},{"trial_n":67,"min":78,"max":177,"target":"present","response":"present","rt":1701.2999999989,"correct":true,"confidence":3},{"trial_n":68,"min":79,"max":176,"target":"absent","response":"absent","rt":964.19999999925,"correct":true,"confidence":4},{"trial_n":69,"min":79,"max":176,"target":"present","response":"present","rt":817.09999999963,"correct":true,"confidence":3},{"trial_n":70,"min":80,"max":175,"target":"present","response":"present","rt":753,"correct":true,"confidence":4},{"trial_n":71,"min":41,"max":214,"target":"present","response":"present","rt":1797.5,"correct":true,"confidence":-1},{"trial_n":72,"min":41,"max":214,"target":"present","response":"present","rt":1473.0999999996,"correct":true,"confidence":-1},{"trial_n":73,"min":57,"max":198,"target":"absent","response":"absent","rt":1027.5,"correct":true,"confidence":-1},{"trial_n":74,"min":57,"max":198,"target":"absent","response":"absent","rt":1187.3999999985,"correct":true,"confidence":-1},{"trial_n":75,"min":73,"max":182,"target":"present","response":"present","rt":637.5,"correct":true,"confidence":-1},{"trial_n":76,"min":73,"max":182,"target":"present","response":"present","rt":811.90000000037,"correct":true,"confidence":-1},{"trial_n":77,"min":89,"max":166,"target":"absent","response":"absent","rt":1541.3000000007,"correct":true,"confidence":-1},{"trial_n":78,"min":89,"max":166,"target":"absent","response":"absent","rt":919.90000000037,"correct":true,"confidence":-1},{"trial_n":79,"min":105,"max":150,"target":"absent","response":"absent","rt":921,"correct":true,"confidence":-1},{"trial_n":80,"min":105,"max":150,"target":"absent","response":"absent","rt":839.19999999925,"correct":true,"confidence":-1},{"trial_n":81,"min":113,"max":142,"target":"absent","response":"present","rt":863.5,"correct":false,"confidence":-1},{"trial_n":82,"min":105,"max":150,"target":"absent","response":"absent","rt":759,"correct":true,"confidence":-1},{"trial_n":83,"min":105,"max":150,"target":"present","response":"absent","rt":1218.0999999996,"correct":false,"confidence":-1},{"trial_n":84,"min":97,"max":158,"target":"present","response":"present","rt":1002.0999999996,"correct":true,"confidence":-1},{"trial_n":85,"min":97,"max":158,"target":"absent","response":"present","rt":971,"correct":false,"confidence":-1},{"trial_n":86,"min":89,"max":166,"target":"present","response":"present","rt":941.5,"correct":true,"confidence":-1},{"trial_n":87,"min":89,"max":166,"target":"absent","response":"present","rt":752.60000000149,"correct":false,"confidence":-1},{"trial_n":88,"min":81,"max":174,"target":"present","response":"absent","rt":586,"correct":false,"confidence":-1},{"trial_n":89,"min":73,"max":182,"target":"present","response":"present","rt":463,"correct":true,"confidence":-1},{"trial_n":90,"min":73,"max":182,"target":"absent","response":"present","rt":625.20000000112,"correct":false,"confidence":-1},{"trial_n":91,"min":69,"max":186,"target":"absent","response":"absent","rt":1097.5,"correct":true,"confidence":5},{"trial_n":92,"min":69,"max":186,"target":"present","response":"absent","rt":2214.5999999996,"correct":false,"confidence":4},{"trial_n":93,"min":65,"max":190,"target":"absent","response":"absent","rt":1405.8000000007,"correct":true,"confidence":5},{"trial_n":94,"min":65,"max":190,"target":"present","response":"present","rt":950.69999999925,"correct":true,"confidence":5},{"trial_n":95,"min":69,"max":186,"target":"absent","response":"absent","rt":1891.5,"correct":true,"confidence":4},{"trial_n":96,"min":69,"max":186,"target":"present","response":"present","rt":1079,"correct":true,"confidence":5},{"trial_n":97,"min":73,"max":182,"target":"present","response":"present","rt":893.70000000112,"correct":true,"confidence":5},{"trial_n":98,"min":73,"max":182,"target":"absent","response":"present","rt":926.90000000037,"correct":false,"confidence":4},{"trial_n":99,"min":69,"max":186,"target":"present","response":"present","rt":785.89999999851,"correct":true,"confidence":5},{"trial_n":100,"min":69,"max":186,"target":"absent","response":"absent","rt":2292.0999999996,"correct":true,"confidence":2},{"trial_n":101,"min":71,"max":184,"target":"absent","response":"absent","rt":1313.1999999993,"correct":true,"confidence":4},{"trial_n":102,"min":71,"max":184,"target":"absent","response":"absent","rt":1093.2999999989,"correct":true,"confidence":4},{"trial_n":103,"min":73,"max":182,"target":"absent","response":"absent","rt":1280.8000000007,"correct":true,"confidence":5},{"trial_n":104,"min":73,"max":182,"target":"present","response":"absent","rt":941.29999999888,"correct":false,"confidence":4},{"trial_n":105,"min":71,"max":184,"target":"present","response":"present","rt":1216.7999999989,"correct":true,"confidence":4},{"trial_n":106,"min":71,"max":184,"target":"absent","response":"absent","rt":1075.0999999996,"correct":true,"confidence":4},{"trial_n":107,"min":73,"max":182,"target":"present","response":"present","rt":768.89999999851,"correct":true,"confidence":5},{"trial_n":108,"min":73,"max":182,"target":"absent","response":"absent","rt":1803.9000000004,"correct":true,"confidence":1},{"trial_n":109,"min":75,"max":180,"target":"present","response":"present","rt":1075,"correct":true,"confidence":4},{"trial_n":110,"min":75,"max":180,"target":"present","response":"present","rt":884.90000000037,"correct":true,"confidence":4},{"trial_n":111,"min":76,"max":179,"target":"absent","response":"absent","rt":1156.3000000007,"correct":true,"confidence":4},{"trial_n":112,"min":76,"max":179,"target":"present","response":"absent","rt":1256.6000000015,"correct":false,"confidence":3},{"trial_n":113,"min":75,"max":180,"target":"absent","response":"absent","rt":1085.0999999996,"correct":true,"confidence":4},{"trial_n":114,"min":75,"max":180,"target":"absent","response":"absent","rt":1546.7999999989,"correct":true,"confidence":4},{"trial_n":115,"min":76,"max":179,"target":"present","response":"present","rt":825.90000000037,"correct":true,"confidence":5},{"trial_n":116,"min":76,"max":179,"target":"absent","response":"absent","rt":1033.0999999996,"correct":true,"confidence":4},{"trial_n":117,"min":77,"max":178,"target":"present","response":"present","rt":1320.5999999996,"correct":true,"confidence":4},{"trial_n":118,"min":77,"max":178,"target":"present","response":"present","rt":846.5,"correct":true,"confidence":3},{"trial_n":119,"min":78,"max":177,"target":"present","response":"present","rt":856.30000000075,"correct":true,"confidence":5},{"trial_n":120,"min":78,"max":177,"target":"absent","response":"absent","rt":1908,"correct":true,"confidence":2},{"trial_n":121,"min":79,"max":176,"target":"present","response":"absent","rt":1336.9000000004,"correct":false,"confidence":2},{"trial_n":122,"min":78,"max":177,"target":"absent","response":"absent","rt":1844.0999999996,"correct":true,"confidence":2},{"trial_n":123,"min":78,"max":177,"target":"present","response":"present","rt":912.09999999963,"correct":true,"confidence":4},{"trial_n":124,"min":79,"max":176,"target":"absent","response":"absent","rt":1653.1999999993,"correct":true,"confidence":4},{"trial_n":125,"min":79,"max":176,"target":"absent","response":"absent","rt":1313.5,"correct":true,"confidence":2},{"trial_n":126,"min":80,"max":175,"target":"present","response":"present","rt":925.59999999963,"correct":true,"confidence":3},{"trial_n":127,"min":80,"max":175,"target":"present","response":"absent","rt":3756.2999999989,"correct":false,"confidence":1},{"trial_n":128,"min":79,"max":176,"target":"present","response":"present","rt":1071.7000000011,"correct":true,"confidence":3},{"trial_n":129,"min":79,"max":176,"target":"present","response":"present","rt":790.20000000112,"correct":true,"confidence":3},{"trial_n":130,"min":80,"max":175,"target":"absent","response":"absent","rt":1538.5,"correct":true,"confidence":4},{"trial_n":131,"min":80,"max":175,"target":"absent","response":"absent","rt":1503.9000000004,"correct":true,"confidence":4},{"trial_n":132,"min":81,"max":174,"target":"present","response":"absent","rt":2000,"correct":false,"confidence":1},{"trial_n":133,"min":80,"max":175,"target":"absent","response":"absent","rt":1369.1000000015,"correct":true,"confidence":1},{"trial_n":134,"min":80,"max":175,"target":"present","response":"present","rt":1410.1999999993,"correct":true,"confidence":3},{"trial_n":135,"min":81,"max":174,"target":"present","response":"absent","rt":1017.1999999993,"correct":false,"confidence":2},{"trial_n":136,"min":80,"max":175,"target":"absent","response":"present","rt":1453.5999999996,"correct":false,"confidence":1},{"trial_n":137,"min":79,"max":176,"target":"absent","response":"absent","rt":1280.5999999996,"correct":true,"confidence":3},{"trial_n":138,"min":79,"max":176,"target":"present","response":"present","rt":1264.9000000004,"correct":true,"confidence":3},{"trial_n":139,"min":80,"max":175,"target":"present","response":"present","rt":1151.9000000004,"correct":true,"confidence":1},{"trial_n":140,"min":80,"max":175,"target":"present","response":"present","rt":1876.9000000004,"correct":true,"confidence":3}]