[{"trial_n":1,"n_dots":4.25,"target":"left","response":"right","rt":4922.0999999996,"correct":false,"confidence":-1},{"trial_n":2,"n_dots":4.25,"target":"right","response":"right","rt":1171.1999999993,"correct":true,"confidence":-1},{"trial_n":3,"n_dots":4.25,"target":"right","response":"right","rt":1145.4000000004,"correct":true,"confidence":-1},{"trial_n":4,"n_dots":3.85,"target":"left","response":"right","rt":832.40000000037,"correct":false,"confidence":-1},{"trial_n":5,"n_dots":4.25,"target":"left","response":"left","rt":1053.0999999996,"correct":true,"confidence":-1},{"trial_n":6,"n_dots":4.25,"target":"left","response":"left","rt":957.09999999963,"correct":true,"confidence":-1},{"trial_n":7,"n_dots":3.85,"target":"left","response":"left","rt":741.29999999888,"correct":true,"confidence":-1},{"trial_n":8,"n_dots":3.85,"target":"left","response":"right","rt":885.5,"correct":false,"confidence":-1},{"trial_n":9,"n_dots":4.05,"target":"right","response":"right","rt":669.10000000149,"correct":true,"confidence":-1},{"trial_n":10,"n_dots":4.05,"target":"right","response":"right","rt":604.90000000037,"correct":true,"confidence":-1},{"trial_n":11,"n_dots":3.85,"target":"right","response":"right","rt":553.90000000037,"correct":true,"confidence":-1},{"trial_n":12,"n_dots":3.85,"target":"left","response":"left","rt":529.5,"correct":true,"confidence":-1},{"trial_n":13,"n_dots":3.75,"target":"right","response":"right","rt":605.69999999925,"correct":true,"confidence":-1},{"trial_n":14,"n_dots":3.75,"target":"left","response":"left","rt":649.10000000149,"correct":true,"confidence":-1},{"trial_n":15,"n_dots":3.65,"target":"left","response":"left","rt":412.70000000112,"correct":true,"confidence":-1},{"trial_n":16,"n_dots":3.65,"target":"left","response":"left","rt":492.70000000112,"correct":true,"confidence":-1},{"trial_n":17,"n_dots":3.55,"target":"left","response":"left","rt":629.90000000037,"correct":true,"confidence":-1},{"trial_n":18,"n_dots":3.55,"target":"left","response":"right","rt":468.80000000075,"correct":false,"confidence":-1},{"trial_n":19,"n_dots":3.65,"target":"left","response":"right","rt":683.59999999963,"correct":false,"confidence":-1},{"trial_n":20,"n_dots":3.75,"target":"left","response":"left","rt":1169.8999999985,"correct":true,"confidence":-1},{"trial_n":21,"n_dots":3.75,"target":"left","response":"right","rt":568.5,"correct":false,"confidence":2},{"trial_n":22,"n_dots":3.85,"target":"left","response":"left","rt":816,"correct":true,"confidence":2},{"trial_n":23,"n_dots":3.85,"target":"right","response":"right","rt":702.59999999963,"correct":true,"confidence":2},{"trial_n":24,"n_dots":3.75,"target":"right","response":"right","rt":734.09999999963,"correct":true,"confidence":2},{"trial_n":25,"n_dots":3.75,"target":"left","response":"right","rt":573.40000000037,"correct":false,"confidence":2},{"trial_n":26,"n_dots":3.85,"target":"right","response":"right","rt":793.20000000112,"correct":true,"confidence":2},{"trial_n":27,"n_dots":3.85,"target":"right","response":"right","rt":735.30000000075,"correct":true,"confidence":2},{"trial_n":28,"n_dots":3.75,"target":"left","response":"left","rt":732,"correct":true,"confidence":3},{"trial_n":29,"n_dots":3.75,"target":"right","response":"right","rt":742.5,"correct":true,"confidence":3},{"trial_n":30,"n_dots":3.65,"target":"right","response":"right","rt":2457.2000000011,"correct":true,"confidence":3},{"trial_n":31,"n_dots":3.65,"target":"left","response":"left","rt":1107.6999999993,"correct":true,"confidence":3},{"trial_n":32,"n_dots":3.55,"target":"left","response":"left","rt":740.90000000037,"correct":true,"confidence":2},{"trial_n":33,"n_dots":3.55,"target":"left","response":"left","rt":634.29999999888,"correct":true,"confidence":2},{"trial_n":34,"n_dots":3.45,"target":"left","response":"left","rt":816.40000000037,"correct":true,"confidence":2},{"trial_n":35,"n_dots":3.45,"target":"right","response":"right","rt":646.20000000112,"correct":true,"confidence":4},{"trial_n":36,"n_dots":3.35,"target":"right","response":"right","rt":646.09999999963,"correct":true,"confidence":2},{"trial_n":37,"n_dots":3.35,"target":"left","response":"right","rt":630.80000000075,"correct":false,"confidence":3},{"trial_n":38,"n_dots":3.45,"target":"left","response":"left","rt":806.90000000037,"correct":true,"confidence":2},{"trial_n":39,"n_dots":3.45,"target":"right","response":"right","rt":686.89999999851,"correct":true,"confidence":2},{"trial_n":40,"n_dots":3.35,"target":"left","response":"left","rt":709.90000000037,"correct":true,"confidence":2},{"trial_n":41,"n_dots":3.35,"target":"right","response":"right","rt":701.30000000075,"correct":true,"confidence":2},{"trial_n":42,"n_dots":3.25,"target":"left","response":"right","rt":629.89999999851,"correct":false,"confidence":2},{"trial_n":43,"n_dots":3.35,"target":"right","response":"right","rt":535.80000000075,"correct":true,"confidence":2},{"trial_n":44,"n_dots":3.35,"target":"left","response":"right","rt":553.90000000037,"correct":false,"confidence":2},{"trial_n":45,"n_dots":3.45,"target":"left","response":"right","rt":661,"correct":false,"confidence":2},{"trial_n":46,"n_dots":3.55,"target":"left","response":"right","rt":588.19999999925,"correct":false,"confidence":2},{"trial_n":47,"n_dots":3.65,"target":"right","response":"right","rt":566,"correct":true,"confidence":3},{"trial_n":48,"n_dots":3.65,"target":"right","response":"right","rt":559,"correct":true,"confidence":2},{"trial_n":49,"n_dots":3.55,"target":"left","response":"left","rt":782,"correct":true,"confidence":1},{"trial_n":50,"n_dots":3.55,"target":"left","response":"right","rt":683.10000000149,"correct":false,"confidence":1},{"trial_n":51,"n_dots":3.65,"target":"left","response":"right","rt":540.29999999888,"correct":false,"confidence":2},{"trial_n":52,"n_dots":3.75,"target":"left","response":"left","rt":614.30000000075,"correct":true,"confidence":2},{"trial_n":53,"n_dots":3.75,"target":"left","response":"right","rt":606.30000000075,"correct":false,"confidence":2},{"trial_n":54,"n_dots":3.85,"target":"right","response":"right","rt":495.29999999888,"correct":true,"confidence":2},{"trial_n":55,"n_dots":3.85,"target":"left","response":"right","rt":735.80000000075,"correct":false,"confidence":1},{"trial_n":56,"n_dots":3.95,"target":"right","response":"right","rt":661.59999999963,"correct":true,"confidence":3},{"trial_n":57,"n_dots":3.95,"target":"right","response":"right","rt":856.90000000037,"correct":true,"confidence":2},{"trial_n":58,"n_dots":3.85,"target":"left","response":"left","rt":618.5,"correct":true,"confidence":4},{"trial_n":59,"n_dots":3.85,"target":"right","response":"right","rt":780.5,"correct":true,"confidence":3},{"trial_n":60,"n_dots":3.75,"target":"right","response":"right","rt":627.40000000037,"correct":true,"confidence":3},{"trial_n":61,"n_dots":3.75,"target":"left","response":"right","rt":686.19999999925,"correct":false,"confidence":1},{"trial_n":62,"n_dots":3.85,"target":"right","response":"right","rt":403.90000000037,"correct":true,"confidence":3},{"trial_n":63,"n_dots":3.85,"target":"right","response":"right","rt":638.70000000112,"correct":true,"confidence":4},{"trial_n":64,"n_dots":3.75,"target":"right","response":"right","rt":798.69999999925,"correct":true,"confidence":3},{"trial_n":65,"n_dots":3.75,"target":"left","response":"left","rt":656.80000000075,"correct":true,"confidence":4},{"trial_n":66,"n_dots":3.65,"target":"left","response":"left","rt":725.5,"correct":true,"confidence":3},{"trial_n":67,"n_dots":3.65,"target":"left","response":"left","rt":461.90000000037,"correct":true,"confidence":3},{"trial_n":68,"n_dots":3.55,"target":"left","response":"left","rt":514,"correct":true,"confidence":3},{"trial_n":69,"n_dots":3.55,"target":"left","response":"left","rt":775.69999999925,"correct":true,"confidence":3},{"trial_n":70,"n_dots":3.45,"target":"left","response":"left","rt":697.20000000112,"correct":true,"confidence":2},{"trial_n":71,"n_dots":3.45,"target":"right","response":"right","rt":492.29999999888,"correct":true,"confidence":4},{"trial_n":72,"n_dots":3.35,"target":"right","response":"right","rt":646.70000000112,"correct":true,"confidence":3},{"trial_n":73,"n_dots":3.35,"target":"left","response":"left","rt":3640.5,"correct":true,"confidence":3},{"trial_n":74,"n_dots":3.25,"target":"left","response":"right","rt":829.60000000149,"correct":false,"confidence":3},{"trial_n":75,"n_dots":3.35,"target":"left","response":"left","rt":488.79999999888,"correct":true,"confidence":2},{"trial_n":76,"n_dots":3.35,"target":"right","response":"left","rt":857.10000000149,"correct":false,"confidence":3},{"trial_n":77,"n_dots":3.45,"target":"right","response":"right","rt":444,"correct":true,"confidence":3},{"trial_n":78,"n_dots":3.45,"target":"left","response":"left","rt":839.09999999963,"correct":true,"confidence":4},{"trial_n":79,"n_dots":3.35,"target":"right","response":"left","rt":586.40000000037,"correct":false,"confidence":3},{"trial_n":80,"n_dots":3.45,"target":"right","response":"right","rt":594.30000000075,"correct":true,"confidence":3},{"trial_n":81,"n_dots":3.45,"target":"left","response":"right","rt":914.60000000149,"correct":false,"confidence":3},{"trial_n":82,"n_dots":3.55,"target":"right","response":"right","rt":576,"correct":true,"confidence":4},{"trial_n":83,"n_dots":3.55,"target":"right","response":"right","rt":500.5,"correct":true,"confidence":3},{"trial_n":84,"n_dots":3.45,"target":"left","response":"left","rt":645.29999999888,"correct":true,"confidence":3},{"trial_n":85,"n_dots":3.45,"target":"right","response":"right","rt":798.09999999963,"correct":true,"confidence":3},{"trial_n":86,"n_dots":3.35,"target":"right","response":"right","rt":621.09999999963,"correct":true,"confidence":3},{"trial_n":87,"n_dots":3.35,"target":"left","response":"left","rt":492.79999999888,"correct":true,"confidence":4},{"trial_n":88,"n_dots":3.25,"target":"right","response":"left","rt":578.5,"correct":false,"confidence":3},{"trial_n":89,"n_dots":3.35,"target":"right","response":"left","rt":681.5,"correct":false,"confidence":2},{"trial_n":90,"n_dots":3.45,"target":"right","response":"right","rt":681.40000000037,"correct":true,"confidence":2},{"trial_n":91,"n_dots":3.45,"target":"right","response":"right","rt":641.89999999851,"correct":true,"confidence":2},{"trial_n":92,"n_dots":3.35,"target":"right","response":"left","rt":997.90000000037,"correct":false,"confidence":1},{"trial_n":93,"n_dots":3.45,"target":"left","response":"left","rt":586.80000000075,"correct":true,"confidence":3},{"trial_n":94,"n_dots":3.45,"target":"right","response":"right","rt":642.20000000112,"correct":true,"confidence":2},{"trial_n":95,"n_dots":3.35,"target":"right","response":"left","rt":536.80000000075,"correct":false,"confidence":2},{"trial_n":96,"n_dots":3.45,"target":"right","response":"right","rt":669.69999999925,"correct":true,"confidence":2},{"trial_n":97,"n_dots":3.45,"target":"right","response":"right","rt":372.09999999963,"correct":true,"confidence":2},{"trial_n":98,"n_dots":3.35,"target":"right","response":"right","rt":838,"correct":true,"confidence":3},{"trial_n":99,"n_dots":3.35,"target":"right","response":"right","rt":939.30000000075,"correct":true,"confidence":3},{"trial_n":100,"n_dots":3.25,"target":"left","response":"left","rt":1114.5999999996,"correct":true,"confidence":2},{"trial_n":101,"n_dots":3.25,"target":"left","response":"right","rt":460.40000000037,"correct":false,"confidence":3},{"trial_n":102,"n_dots":3.35,"target":"right","response":"right","rt":461.80000000075,"correct":true,"confidence":2},{"trial_n":103,"n_dots":3.35,"target":"left","response":"left","rt":531.59999999963,"correct":true,"confidence":1},{"trial_n":104,"n_dots":3.25,"target":"right","response":"left","rt":529.80000000075,"correct":false,"confidence":2},{"trial_n":105,"n_dots":3.35,"target":"left","response":"right","rt":484.19999999925,"correct":false,"confidence":1},{"trial_n":106,"n_dots":3.45,"target":"right","response":"right","rt":916.40000000037,"correct":true,"confidence":2},{"trial_n":107,"n_dots":3.45,"target":"right","response":"right","rt":717,"correct":true,"confidence":3},{"trial_n":108,"n_dots":3.35,"target":"right","response":"right","rt":472.39999999851,"correct":true,"confidence":1},{"trial_n":109,"n_dots":3.35,"target":"left","response":"left","rt":671,"correct":true,"confidence":3},{"trial_n":110,"n_dots":3.25,"target":"right","response":"left","rt":677.90000000037,"correct":false,"confidence":3},{"trial_n":111,"n_dots":3.35,"target":"right","response":"right","rt":749.39999999851,"correct":true,"confidence":2},{"trial_n":112,"n_dots":3.35,"target":"right","response":"right","rt":624.20000000112,"correct":true,"confidence":1},{"trial_n":113,"n_dots":3.25,"target":"right","response":"right","rt":599.30000000075,"correct":true,"confidence":2},{"trial_n":114,"n_dots":3.25,"target":"left","response":"right","rt":717.5,"correct":false,"confidence":3},{"trial_n":115,"n_dots":3.35,"target":"left","response":"right","rt":702,"correct":false,"confidence":2},{"trial_n":116,"n_dots":3.45,"target":"right","response":"right","rt":742.5,"correct":true,"confidence":2},{"trial_n":117,"n_dots":3.45,"target":"left","response":"left","rt":965.80000000075,"correct":true,"confidence":3},{"trial_n":118,"n_dots":3.35,"target":"right","response":"right","rt":510.69999999925,"correct":true,"confidence":3},{"trial_n":119,"n_dots":3.35,"target":"right","response":"right","rt":669.59999999963,"correct":true,"confidence":3},{"trial_n":120,"n_dots":3.25,"target":"left","response":"right","rt":627.69999999925,"correct":false,"confidence":3}]