[{"trial_n":1,"n_dots":4.25,"target":"right","response":"left","rt":8433,"correct":false,"confidence":-1},{"trial_n":2,"n_dots":4.25,"target":"right","response":"right","rt":2408,"correct":true,"confidence":-1},{"trial_n":3,"n_dots":4.25,"target":"left","response":"right","rt":1458,"correct":false,"confidence":-1},{"trial_n":4,"n_dots":4.65,"target":"right","response":"left","rt":2424,"correct":false,"confidence":-1},{"trial_n":5,"n_dots":5.05,"target":"right","response":"right","rt":1249,"correct":true,"confidence":-1},{"trial_n":6,"n_dots":5.05,"target":"left","response":"left","rt":586.99999999999,"correct":true,"confidence":-1},{"trial_n":7,"n_dots":4.65,"target":"left","response":"left","rt":550.99999999999,"correct":true,"confidence":-1},{"trial_n":8,"n_dots":4.65,"target":"right","response":"right","rt":2084,"correct":true,"confidence":-1},{"trial_n":9,"n_dots":4.45,"target":"right","response":"right","rt":1380,"correct":true,"confidence":-1},{"trial_n":10,"n_dots":4.45,"target":"left","response":"left","rt":561,"correct":true,"confidence":-1},{"trial_n":11,"n_dots":4.25,"target":"left","response":"left","rt":556.00000000001,"correct":true,"confidence":-1},{"trial_n":12,"n_dots":4.25,"target":"right","response":"left","rt":977,"correct":false,"confidence":-1},{"trial_n":13,"n_dots":4.35,"target":"right","response":"right","rt":775,"correct":true,"confidence":-1},{"trial_n":14,"n_dots":4.35,"target":"left","response":"left","rt":959.00000000001,"correct":true,"confidence":-1},{"trial_n":15,"n_dots":4.25,"target":"left","response":"left","rt":695,"correct":true,"confidence":-1},{"trial_n":16,"n_dots":4.25,"target":"left","response":"left","rt":2320,"correct":true,"confidence":-1},{"trial_n":17,"n_dots":4.15,"target":"right","response":"right","rt":569,"correct":true,"confidence":-1},{"trial_n":18,"n_dots":4.15,"target":"left","response":"left","rt":587,"correct":true,"confidence":-1},{"trial_n":19,"n_dots":4.05,"target":"right","response":"right","rt":638.99999999999,"correct":true,"confidence":-1},{"trial_n":20,"n_dots":4.05,"target":"left","response":"left","rt":832,"correct":true,"confidence":-1},{"trial_n":21,"n_dots":3.95,"target":"right","response":"right","rt":787,"correct":true,"confidence":4},{"trial_n":22,"n_dots":3.95,"target":"right","response":"right","rt":1223,"correct":true,"confidence":4},{"trial_n":23,"n_dots":3.85,"target":"left","response":"left","rt":748,"correct":true,"confidence":5},{"trial_n":24,"n_dots":3.85,"target":"left","response":"right","rt":1905,"correct":false,"confidence":3},{"trial_n":25,"n_dots":3.95,"target":"right","response":"right","rt":567,"correct":true,"confidence":4},{"trial_n":26,"n_dots":3.95,"target":"right","response":"right","rt":1025,"correct":true,"confidence":4},{"trial_n":27,"n_dots":3.85,"target":"left","response":"left","rt":520.99999999997,"correct":true,"confidence":5},{"trial_n":28,"n_dots":3.85,"target":"right","response":"right","rt":469,"correct":true,"confidence":5},{"trial_n":29,"n_dots":3.75,"target":"left","response":"left","rt":751,"correct":true,"confidence":3},{"trial_n":30,"n_dots":3.75,"target":"left","response":"left","rt":505,"correct":true,"confidence":4},{"trial_n":31,"n_dots":3.65,"target":"right","response":"right","rt":1069,"correct":true,"confidence":2},{"trial_n":32,"n_dots":3.65,"target":"right","response":"left","rt":2472,"correct":false,"confidence":1},{"trial_n":33,"n_dots":3.75,"target":"right","response":"right","rt":2220,"correct":true,"confidence":2},{"trial_n":34,"n_dots":3.75,"target":"left","response":"left","rt":790,"correct":true,"confidence":3},{"trial_n":35,"n_dots":3.65,"target":"right","response":"right","rt":501,"correct":true,"confidence":4},{"trial_n":36,"n_dots":3.65,"target":"right","response":"right","rt":755,"correct":true,"confidence":3},{"trial_n":37,"n_dots":3.55,"target":"right","response":"left","rt":1967,"correct":false,"confidence":2},{"trial_n":38,"n_dots":3.65,"target":"right","response":"right","rt":1432,"correct":true,"confidence":1},{"trial_n":39,"n_dots":3.65,"target":"left","response":"left","rt":731,"correct":true,"confidence":3},{"trial_n":40,"n_dots":3.55,"target":"left","response":"left","rt":1020,"correct":true,"confidence":3},{"trial_n":41,"n_dots":3.55,"target":"right","response":"right","rt":599,"correct":true,"confidence":3},{"trial_n":42,"n_dots":3.45,"target":"left","response":"left","rt":2205,"correct":true,"confidence":2},{"trial_n":43,"n_dots":3.45,"target":"right","response":"right","rt":685,"correct":true,"confidence":3},{"trial_n":44,"n_dots":3.35,"target":"right","response":"right","rt":3120,"correct":true,"confidence":3},{"trial_n":45,"n_dots":3.35,"target":"left","response":"left","rt":560.00000000003,"correct":true,"confidence":3},{"trial_n":46,"n_dots":3.25,"target":"left","response":"right","rt":1637,"correct":false,"confidence":2},{"trial_n":47,"n_dots":3.35,"target":"right","response":"right","rt":1539,"correct":true,"confidence":1},{"trial_n":48,"n_dots":3.35,"target":"left","response":"right","rt":2904,"correct":false,"confidence":1},{"trial_n":49,"n_dots":3.45,"target":"left","response":"right","rt":2024,"correct":false,"confidence":1},{"trial_n":50,"n_dots":3.55,"target":"right","response":"left","rt":1735,"correct":false,"confidence":1},{"trial_n":51,"n_dots":3.65,"target":"right","response":"left","rt":854.99999999997,"correct":false,"confidence":1},{"trial_n":52,"n_dots":3.75,"target":"left","response":"right","rt":1756,"correct":false,"confidence":3},{"trial_n":53,"n_dots":3.85,"target":"left","response":"right","rt":2069,"correct":false,"confidence":3},{"trial_n":54,"n_dots":3.95,"target":"right","response":"right","rt":399,"correct":true,"confidence":5},{"trial_n":55,"n_dots":3.95,"target":"right","response":"right","rt":1026.9999999999,"correct":true,"confidence":3},{"trial_n":56,"n_dots":3.85,"target":"left","response":"left","rt":1668,"correct":true,"confidence":1},{"trial_n":57,"n_dots":3.85,"target":"left","response":"left","rt":612,"correct":true,"confidence":4},{"trial_n":58,"n_dots":3.75,"target":"left","response":"left","rt":421,"correct":true,"confidence":4},{"trial_n":59,"n_dots":3.75,"target":"left","response":"left","rt":1172,"correct":true,"confidence":4},{"trial_n":60,"n_dots":3.65,"target":"left","response":"left","rt":743,"correct":true,"confidence":3},{"trial_n":61,"n_dots":3.65,"target":"right","response":"left","rt":802,"correct":false,"confidence":3},{"trial_n":62,"n_dots":3.75,"target":"left","response":"left","rt":740,"correct":true,"confidence":3},{"trial_n":63,"n_dots":3.75,"target":"right","response":"left","rt":907,"correct":false,"confidence":3},{"trial_n":64,"n_dots":3.85,"target":"right","response":"right","rt":519,"correct":true,"confidence":3},{"trial_n":65,"n_dots":3.85,"target":"right","response":"right","rt":778,"correct":true,"confidence":4},{"trial_n":66,"n_dots":3.75,"target":"right","response":"right","rt":640,"correct":true,"confidence":4},{"trial_n":67,"n_dots":3.75,"target":"right","response":"right","rt":469.99999999994,"correct":true,"confidence":4},{"trial_n":68,"n_dots":3.65,"target":"right","response":"right","rt":545.00000000006,"correct":true,"confidence":4},{"trial_n":69,"n_dots":3.65,"target":"left","response":"left","rt":377,"correct":true,"confidence":5},{"trial_n":70,"n_dots":3.55,"target":"left","response":"left","rt":425,"correct":true,"confidence":4},{"trial_n":71,"n_dots":3.55,"target":"right","response":"left","rt":1117.9999999999,"correct":false,"confidence":3},{"trial_n":72,"n_dots":3.65,"target":"left","response":"left","rt":677.00000000006,"correct":true,"confidence":3},{"trial_n":73,"n_dots":3.65,"target":"right","response":"right","rt":1271.9999999999,"correct":true,"confidence":2},{"trial_n":74,"n_dots":3.55,"target":"right","response":"right","rt":1505,"correct":true,"confidence":3},{"trial_n":75,"n_dots":3.55,"target":"left","response":"left","rt":406,"correct":true,"confidence":2},{"trial_n":76,"n_dots":3.45,"target":"left","response":"left","rt":1889,"correct":true,"confidence":2},{"trial_n":77,"n_dots":3.45,"target":"left","response":"left","rt":1418,"correct":true,"confidence":3},{"trial_n":78,"n_dots":3.35,"target":"right","response":"right","rt":1202,"correct":true,"confidence":5},{"trial_n":79,"n_dots":3.35,"target":"left","response":"left","rt":1496,"correct":true,"confidence":3},{"trial_n":80,"n_dots":3.25,"target":"right","response":"right","rt":1080,"correct":true,"confidence":3},{"trial_n":81,"n_dots":3.25,"target":"left","response":"right","rt":1218,"correct":false,"confidence":3},{"trial_n":82,"n_dots":3.35,"target":"right","response":"right","rt":424.00000000012,"correct":true,"confidence":4},{"trial_n":83,"n_dots":3.35,"target":"left","response":"left","rt":842,"correct":true,"confidence":3},{"trial_n":84,"n_dots":3.25,"target":"left","response":"left","rt":968,"correct":true,"confidence":3},{"trial_n":85,"n_dots":3.25,"target":"left","response":"left","rt":1598.0000000001,"correct":true,"confidence":3},{"trial_n":86,"n_dots":3.15,"target":"left","response":"left","rt":1171,"correct":true,"confidence":2},{"trial_n":87,"n_dots":3.15,"target":"left","response":"left","rt":1890,"correct":true,"confidence":4},{"trial_n":88,"n_dots":3.05,"target":"right","response":"right","rt":750,"correct":true,"confidence":3},{"trial_n":89,"n_dots":3.05,"target":"left","response":"left","rt":1074.9999999999,"correct":true,"confidence":3},{"trial_n":90,"n_dots":2.95,"target":"right","response":"right","rt":472,"correct":true,"confidence":4},{"trial_n":91,"n_dots":2.95,"target":"right","response":"right","rt":1761,"correct":true,"confidence":4},{"trial_n":92,"n_dots":2.85,"target":"right","response":"right","rt":1519,"correct":true,"confidence":3},{"trial_n":93,"n_dots":2.85,"target":"right","response":"right","rt":853,"correct":true,"confidence":3},{"trial_n":94,"n_dots":2.75,"target":"left","response":"left","rt":892,"correct":true,"confidence":3},{"trial_n":95,"n_dots":2.75,"target":"right","response":"right","rt":851,"correct":true,"confidence":2},{"trial_n":96,"n_dots":2.65,"target":"left","response":"right","rt":994,"correct":false,"confidence":2},{"trial_n":97,"n_dots":2.75,"target":"left","response":"right","rt":1129,"correct":false,"confidence":2},{"trial_n":98,"n_dots":2.85,"target":"left","response":"right","rt":920,"correct":false,"confidence":3},{"trial_n":99,"n_dots":2.95,"target":"left","response":"left","rt":843,"correct":true,"confidence":4},{"trial_n":100,"n_dots":2.95,"target":"right","response":"right","rt":805,"correct":true,"confidence":3},{"trial_n":101,"n_dots":2.85,"target":"right","response":"right","rt":468,"correct":true,"confidence":3},{"trial_n":102,"n_dots":2.85,"target":"left","response":"left","rt":1323,"correct":true,"confidence":3},{"trial_n":103,"n_dots":2.75,"target":"right","response":"right","rt":1039,"correct":true,"confidence":3},{"trial_n":104,"n_dots":2.75,"target":"left","response":"left","rt":977.99999999988,"correct":true,"confidence":2},{"trial_n":105,"n_dots":2.65,"target":"right","response":"right","rt":307,"correct":true,"confidence":4},{"trial_n":106,"n_dots":2.65,"target":"left","response":"left","rt":793,"correct":true,"confidence":3},{"trial_n":107,"n_dots":2.55,"target":"left","response":"left","rt":817,"correct":true,"confidence":3},{"trial_n":108,"n_dots":2.55,"target":"right","response":"right","rt":860,"correct":true,"confidence":3},{"trial_n":109,"n_dots":2.45,"target":"right","response":"left","rt":1043,"correct":false,"confidence":2},{"trial_n":110,"n_dots":2.55,"target":"left","response":"right","rt":741,"correct":false,"confidence":4},{"trial_n":111,"n_dots":2.65,"target":"right","response":"right","rt":1152,"correct":true,"confidence":4},{"trial_n":112,"n_dots":2.65,"target":"left","response":"right","rt":1779.9999999999,"correct":false,"confidence":2},{"trial_n":113,"n_dots":2.75,"target":"right","response":"right","rt":1154,"correct":true,"confidence":2},{"trial_n":114,"n_dots":2.75,"target":"left","response":"left","rt":525.00000000012,"correct":true,"confidence":5},{"trial_n":115,"n_dots":2.65,"target":"right","response":"right","rt":583,"correct":true,"confidence":2},{"trial_n":116,"n_dots":2.65,"target":"left","response":"left","rt":590,"correct":true,"confidence":3},{"trial_n":117,"n_dots":2.55,"target":"right","response":"left","rt":1636,"correct":false,"confidence":3},{"trial_n":118,"n_dots":2.65,"target":"left","response":"right","rt":750,"correct":false,"confidence":2},{"trial_n":119,"n_dots":2.75,"target":"right","response":"left","rt":1161.9999999999,"correct":false,"confidence":2},{"trial_n":120,"n_dots":2.85,"target":"left","response":"left","rt":1014,"correct":true,"confidence":2}]