[{"trial_n":1,"span":8,"encoder":"84188947","distractor":"84188941","target":"present","response":"present","rt":"5023.9000000004","correct":true,"confidence":-1},{"trial_n":2,"span":8,"encoder":"76480160","distractor":"16480160","target":"present","response":"present","rt":"3914.0999999996","correct":true,"confidence":-1},{"trial_n":3,"span":10,"encoder":"9896016000","distractor":"9896016001","target":"absent","response":"absent","rt":"5697.7999999998","correct":true,"confidence":-1},{"trial_n":4,"span":10,"encoder":"9467714782","distractor":"9467734782","target":"absent","response":"present","rt":"5000.5","correct":false,"confidence":-1},{"trial_n":5,"span":8,"encoder":"10233650","distractor":"10213650","target":"present","response":"present","rt":"3513.1000000006","correct":true,"confidence":-1},{"trial_n":6,"span":8,"encoder":"69575350","distractor":"69175350","target":"present","response":"present","rt":"2999.3999999994","correct":true,"confidence":-1},{"trial_n":7,"span":10,"encoder":"6604288911","distractor":"6604288901","target":"present","response":"absent","rt":"6189.2000000002","correct":false,"confidence":-1},{"trial_n":8,"span":8,"encoder":"11143006","distractor":"11147006","target":"present","response":"absent","rt":"2987.1000000006","correct":false,"confidence":-1},{"trial_n":9,"span":6,"encoder":"618080","distractor":"218080","target":"absent","response":"present","rt":"2903.0999999996","correct":false,"confidence":-1},{"trial_n":10,"span":4,"encoder":"0775","distractor":"0075","target":"absent","response":"present","rt":"1828.9000000004","correct":false,"confidence":-1},{"trial_n":11,"span":2,"encoder":"43","distractor":"45","target":"present","response":"absent","rt":"3534.5","correct":false,"confidence":-1},{"trial_n":12,"span":2,"encoder":"96","distractor":"93","target":"absent","response":"absent","rt":"2975.5","correct":true,"confidence":-1},{"trial_n":13,"span":2,"encoder":"83","distractor":"93","target":"absent","response":"absent","rt":"1454.7000000002","correct":true,"confidence":-1},{"trial_n":14,"span":3,"encoder":"298","distractor":"294","target":"absent","response":"absent","rt":"1714","correct":true,"confidence":-1},{"trial_n":15,"span":3,"encoder":"380","distractor":"320","target":"present","response":"present","rt":"1982.9000000004","correct":true,"confidence":-1},{"trial_n":16,"span":4,"encoder":"7343","distractor":"7340","target":"absent","response":"absent","rt":"1810.5999999996","correct":true,"confidence":-1},{"trial_n":17,"span":4,"encoder":"6628","distractor":"6668","target":"present","response":"present","rt":"1199.2999999998","correct":true,"confidence":-1},{"trial_n":18,"span":5,"encoder":"21473","distractor":"21474","target":"present","response":"present","rt":"1691.3999999994","correct":true,"confidence":-1},{"trial_n":19,"span":5,"encoder":"04853","distractor":"94853","target":"present","response":"present","rt":"2037.5","correct":true,"confidence":-1},{"trial_n":20,"span":6,"encoder":"397792","distractor":"397722","target":"present","response":"present","rt":"2301.2000000002","correct":true,"confidence":-1},{"trial_n":21,"span":6,"encoder":"773417","distractor":"973417","target":"absent","response":"absent","rt":"3787.7000000002","correct":true,"confidence":4},{"trial_n":22,"span":7,"encoder":"4637884","distractor":"0637884","target":"absent","response":"absent","rt":"6971.1000000006","correct":true,"confidence":5},{"trial_n":23,"span":7,"encoder":"7379576","distractor":"7309576","target":"absent","response":"absent","rt":"4886.4000000004","correct":true,"confidence":5},{"trial_n":24,"span":8,"encoder":"33735109","distractor":"38735109","target":"present","response":"present","rt":"4867.9000000004","correct":true,"confidence":4},{"trial_n":25,"span":8,"encoder":"02440164","distractor":"02440124","target":"present","response":"absent","rt":"3279.3999999994","correct":false,"confidence":3},{"trial_n":26,"span":7,"encoder":"7396477","distractor":"7394477","target":"absent","response":"absent","rt":"4133.5","correct":true,"confidence":3},{"trial_n":27,"span":7,"encoder":"2317662","distractor":"2317664","target":"absent","response":"absent","rt":"4627.7999999998","correct":true,"confidence":5},{"trial_n":28,"span":8,"encoder":"46229997","distractor":"46239997","target":"present","response":"absent","rt":"5703.5999999996","correct":false,"confidence":3},{"trial_n":29,"span":7,"encoder":"1969384","distractor":"1969684","target":"present","response":"present","rt":"3244.0999999996","correct":true,"confidence":4},{"trial_n":30,"span":7,"encoder":"8250091","distractor":"8250031","target":"present","response":"present","rt":"3065.2000000002","correct":true,"confidence":4},{"trial_n":31,"span":8,"encoder":"57162218","distractor":"54162218","target":"present","response":"present","rt":"3415.7000000002","correct":true,"confidence":5},{"trial_n":32,"span":8,"encoder":"83690924","distractor":"83690974","target":"present","response":"present","rt":"3238.5","correct":true,"confidence":4},{"trial_n":33,"span":9,"encoder":"301164743","distractor":"301164723","target":"absent","response":"absent","rt":"4459","correct":true,"confidence":3},{"trial_n":34,"span":9,"encoder":"628051712","distractor":"628051012","target":"absent","response":"absent","rt":"3548.4000000004","correct":true,"confidence":3},{"trial_n":35,"span":10,"encoder":"5159987955","distractor":"5159987255","target":"present","response":"absent","rt":"4599.2000000002","correct":false,"confidence":3},{"trial_n":36,"span":9,"encoder":"024381435","distractor":"024383435","target":"present","response":"present","rt":"3967.0999999996","correct":true,"confidence":4},{"trial_n":37,"span":9,"encoder":"565684838","distractor":"565604838","target":"present","response":"present","rt":"4498.5","correct":true,"confidence":3},{"trial_n":38,"span":10,"encoder":"8874942193","distractor":"8844942193","target":"absent","response":"absent","rt":"4470","correct":true,"confidence":5},{"trial_n":39,"span":10,"encoder":"9315046857","distractor":"9314046857","target":"present","response":"absent","rt":"5171.3000000007","correct":false,"confidence":2},{"trial_n":40,"span":9,"encoder":"476368861","distractor":"471368861","target":"present","response":"present","rt":"3913","correct":true,"confidence":4},{"trial_n":41,"span":9,"encoder":"118413195","distractor":"117413195","target":"absent","response":"absent","rt":"5624.5","correct":true,"confidence":5},{"trial_n":42,"span":10,"encoder":"9570923832","distractor":"9500923832","target":"absent","response":"absent","rt":"4550.2999999998","correct":true,"confidence":5},{"trial_n":43,"span":10,"encoder":"8823178306","distractor":"8823178806","target":"present","response":"present","rt":"3761.7999999998","correct":true,"confidence":4},{"trial_n":44,"span":11,"encoder":"71640219829","distractor":"71640209829","target":"absent","response":"present","rt":"4030.7999999998","correct":false,"confidence":3},{"trial_n":45,"span":10,"encoder":"3653156323","distractor":"4653156323","target":"absent","response":"absent","rt":"4517.7000000002","correct":true,"confidence":5},{"trial_n":46,"span":10,"encoder":"6139272092","distractor":"6139272090","target":"absent","response":"absent","rt":"6994.8999999994","correct":true,"confidence":4},{"trial_n":47,"span":11,"encoder":"10448294220","distractor":"10448894220","target":"absent","response":"absent","rt":"4880.5","correct":true,"confidence":4},{"trial_n":48,"span":11,"encoder":"28921195210","distractor":"28721195210","target":"absent","response":"absent","rt":"5945.3999999994","correct":true,"confidence":3},{"trial_n":49,"span":12,"encoder":"059265188025","distractor":"069265188025","target":"absent","response":"present","rt":"5260.9000000004","correct":false,"confidence":2},{"trial_n":50,"span":11,"encoder":"96766681418","distractor":"96766671418","target":"absent","response":"present","rt":"4306.2000000002","correct":false,"confidence":3},{"trial_n":51,"span":10,"encoder":"5979853293","distractor":"5979853299","target":"absent","response":"present","rt":"4603.0999999996","correct":false,"confidence":3},{"trial_n":52,"span":9,"encoder":"759698491","distractor":"758698491","target":"present","response":"present","rt":"4265.7000000002","correct":true,"confidence":4},{"trial_n":53,"span":9,"encoder":"712288695","distractor":"612288695","target":"present","response":"present","rt":"3127.5","correct":true,"confidence":5},{"trial_n":54,"span":10,"encoder":"7150469657","distractor":"7750469657","target":"absent","response":"present","rt":"4654.8999999994","correct":false,"confidence":2},{"trial_n":55,"span":9,"encoder":"322931942","distractor":"322931949","target":"absent","response":"absent","rt":"4539.1999999993","correct":true,"confidence":5},{"trial_n":56,"span":9,"encoder":"020270221","distractor":"020270021","target":"absent","response":"absent","rt":"5360.2000000002","correct":true,"confidence":4},{"trial_n":57,"span":10,"encoder":"5664338373","distractor":"5664398373","target":"present","response":"absent","rt":"4106.0999999996","correct":false,"confidence":3},{"trial_n":58,"span":9,"encoder":"772159766","distractor":"772159767","target":"present","response":"present","rt":"5069.7999999998","correct":true,"confidence":3},{"trial_n":59,"span":9,"encoder":"285718415","distractor":"285718465","target":"present","response":"present","rt":"3508","correct":true,"confidence":5},{"trial_n":60,"span":10,"encoder":"7117351463","distractor":"0117351463","target":"absent","response":"absent","rt":"5878.6999999993","correct":true,"confidence":4},{"trial_n":61,"span":10,"encoder":"9839605203","distractor":"8839605203","target":"present","response":"present","rt":"4043.2999999998","correct":true,"confidence":5},{"trial_n":62,"span":11,"encoder":"41826833638","distractor":"41826833634","target":"absent","response":"absent","rt":"5917.5999999996","correct":true,"confidence":5},{"trial_n":63,"span":11,"encoder":"98044654800","distractor":"98046654800","target":"absent","response":"present","rt":"5851.4000000004","correct":false,"confidence":2},{"trial_n":64,"span":10,"encoder":"2783682388","distractor":"2783682308","target":"present","response":"absent","rt":"4708.6000000006","correct":false,"confidence":3},{"trial_n":65,"span":9,"encoder":"414988705","distractor":"464988705","target":"present","response":"present","rt":"3222.1999999993","correct":true,"confidence":5},{"trial_n":66,"span":9,"encoder":"481243253","distractor":"481245253","target":"present","response":"present","rt":"3981.7000000002","correct":true,"confidence":4},{"trial_n":67,"span":10,"encoder":"3087457548","distractor":"3087457558","target":"present","response":"present","rt":"4197.3999999994","correct":true,"confidence":4},{"trial_n":68,"span":10,"encoder":"8991850405","distractor":"8991854405","target":"present","response":"present","rt":"4708.8999999994","correct":true,"confidence":5},{"trial_n":69,"span":11,"encoder":"81837545828","distractor":"87837545828","target":"absent","response":"absent","rt":"2705.4000000004","correct":true,"confidence":4},{"trial_n":70,"span":11,"encoder":"66035385097","distractor":"66036385097","target":"absent","response":"present","rt":"4970.9000000004","correct":false,"confidence":3},{"trial_n":71,"span":8,"encoder":"99130059","distractor":"99130009","target":"present","response":"present","rt":"7747","correct":true,"confidence":-1},{"trial_n":72,"span":8,"encoder":"62251846","distractor":"92251846","target":"present","response":"present","rt":"3494","correct":true,"confidence":-1},{"trial_n":73,"span":9,"encoder":"431732182","distractor":"431732482","target":"absent","response":"absent","rt":"4345.5999999996","correct":true,"confidence":-1},{"trial_n":74,"span":9,"encoder":"984278806","distractor":"984278807","target":"absent","response":"absent","rt":"4443.5","correct":true,"confidence":-1},{"trial_n":75,"span":10,"encoder":"4304370416","distractor":"4304300416","target":"present","response":"present","rt":"4511.4000000004","correct":true,"confidence":-1},{"trial_n":76,"span":10,"encoder":"4513561460","distractor":"4518561460","target":"absent","response":"absent","rt":"6451.8000000007","correct":true,"confidence":-1},{"trial_n":77,"span":11,"encoder":"01339185684","distractor":"01339185084","target":"present","response":"present","rt":"6445.1000000006","correct":true,"confidence":-1},{"trial_n":78,"span":11,"encoder":"79051315616","distractor":"79001315616","target":"absent","response":"absent","rt":"5036.4000000004","correct":true,"confidence":-1},{"trial_n":79,"span":12,"encoder":"136433555477","distractor":"136433551477","target":"absent","response":"absent","rt":"5979.7999999998","correct":true,"confidence":-1},{"trial_n":80,"span":12,"encoder":"056437935773","distractor":"456437935773","target":"present","response":"present","rt":"2564","correct":true,"confidence":-1},{"trial_n":81,"span":13,"encoder":"2915364946933","distractor":"2915364946936","target":"present","response":"absent","rt":"10771.600000001","correct":false,"confidence":-1},{"trial_n":82,"span":12,"encoder":"343087930299","distractor":"343087730299","target":"absent","response":"absent","rt":"5959.7999999998","correct":true,"confidence":-1},{"trial_n":83,"span":12,"encoder":"814652783530","distractor":"814652783539","target":"present","response":"present","rt":"7566","correct":true,"confidence":-1},{"trial_n":84,"span":13,"encoder":"2561230490147","distractor":"2561230490347","target":"present","response":"absent","rt":"74182.2","correct":false,"confidence":-1},{"trial_n":85,"span":12,"encoder":"525152306861","distractor":"525112306861","target":"present","response":"present","rt":"7378.4000000004","correct":true,"confidence":-1},{"trial_n":86,"span":12,"encoder":"798078235024","distractor":"798078235424","target":"present","response":"present","rt":"7491.8999999994","correct":true,"confidence":-1},{"trial_n":87,"span":13,"encoder":"8421757584686","distractor":"8421757384686","target":"absent","response":"present","rt":"7836.5","correct":false,"confidence":-1},{"trial_n":88,"span":12,"encoder":"299182640351","distractor":"299182640051","target":"absent","response":"absent","rt":"8065.7000000002","correct":true,"confidence":-1},{"trial_n":89,"span":12,"encoder":"716759835374","distractor":"716759835574","target":"present","response":"present","rt":"6169.7000000002","correct":true,"confidence":-1},{"trial_n":90,"span":13,"encoder":"7168634160458","distractor":"7168634460458","target":"absent","response":"absent","rt":"7347.4000000004","correct":true,"confidence":-1},{"trial_n":91,"span":13,"encoder":"9769233309205","distractor":"9769233399205","target":"present","response":"absent","rt":"7195.6000000006","correct":false,"confidence":4},{"trial_n":92,"span":12,"encoder":"634087837945","distractor":"654087837945","target":"absent","response":"absent","rt":"4789","correct":true,"confidence":4},{"trial_n":93,"span":12,"encoder":"127866587526","distractor":"927866587526","target":"absent","response":"absent","rt":"6843.5","correct":true,"confidence":5},{"trial_n":94,"span":13,"encoder":"6303931477723","distractor":"6303931473723","target":"present","response":"present","rt":"10382.2","correct":true,"confidence":4},{"trial_n":95,"span":13,"encoder":"1823088641635","distractor":"1823088631635","target":"present","response":"present","rt":"9201.6999999993","correct":true,"confidence":3},{"trial_n":96,"span":14,"encoder":"68585880003095","distractor":"68585880003895","target":"present","response":"present","rt":"11977.9","correct":true,"confidence":3},{"trial_n":97,"span":14,"encoder":"23419403018376","distractor":"23419403018396","target":"absent","response":"absent","rt":"8340.7999999998","correct":true,"confidence":2},{"trial_n":98,"span":15,"encoder":"733841011191531","distractor":"733841071191531","target":"absent","response":"absent","rt":"8622.5","correct":true,"confidence":4},{"trial_n":99,"span":15,"encoder":"218801154732293","distractor":"218801154722293","target":"absent","response":"present","rt":"18815.8","correct":false,"confidence":2},{"trial_n":100,"span":14,"encoder":"80512475314716","distractor":"80512425314716","target":"absent","response":"absent","rt":"13644.8","correct":true,"confidence":1},{"trial_n":101,"span":14,"encoder":"89920987752464","distractor":"89920957752464","target":"present","response":"present","rt":"18111.4","correct":true,"confidence":4},{"trial_n":102,"span":15,"encoder":"559566276219541","distractor":"559561276219541","target":"present","response":"present","rt":"12663.4","correct":true,"confidence":4},{"trial_n":103,"span":15,"encoder":"237027841686398","distractor":"237027841684398","target":"present","response":"present","rt":"7974","correct":true,"confidence":5},{"trial_n":104,"span":16,"encoder":"1290874960123509","distractor":"1294874960123509","target":"present","response":"present","rt":"5795.2000000011","correct":true,"confidence":1},{"trial_n":105,"span":16,"encoder":"0408951579173783","distractor":"0408951579123783","target":"present","response":"present","rt":"15914.699999999","correct":true,"confidence":2},{"trial_n":106,"span":17,"encoder":"52392454195257847","distractor":"52392450195257847","target":"absent","response":"present","rt":"19207.800000001","correct":false,"confidence":3},{"trial_n":107,"span":16,"encoder":"6541591025089785","distractor":"6541591025489785","target":"absent","response":"present","rt":"28312","correct":false,"confidence":2},{"trial_n":108,"span":15,"encoder":"654233148443067","distractor":"654233648443067","target":"absent","response":"present","rt":"8962.3000000007","correct":false,"confidence":3},{"trial_n":109,"span":14,"encoder":"58217112794374","distractor":"57217112794374","target":"present","response":"present","rt":"30220.300000001","correct":true,"confidence":1},{"trial_n":110,"span":14,"encoder":"74118932145125","distractor":"74118932140125","target":"absent","response":"present","rt":"8515.2999999989","correct":false,"confidence":4},{"trial_n":111,"span":13,"encoder":"2359117481393","distractor":"2359117491393","target":"present","response":"present","rt":"6237.0999999996","correct":true,"confidence":5},{"trial_n":112,"span":13,"encoder":"8069182309614","distractor":"8069182305614","target":"absent","response":"absent","rt":"3444.5","correct":true,"confidence":5},{"trial_n":113,"span":14,"encoder":"40483529775150","distractor":"40983529775150","target":"absent","response":"present","rt":"6619.5","correct":false,"confidence":3},{"trial_n":114,"span":13,"encoder":"4899171683584","distractor":"3899171683584","target":"present","response":"present","rt":"13884.200000001","correct":true,"confidence":1},{"trial_n":115,"span":13,"encoder":"0331184431107","distractor":"0331184430107","target":"absent","response":"absent","rt":"2703.3000000007","correct":true,"confidence":5},{"trial_n":116,"span":14,"encoder":"72507102657785","distractor":"72507102657775","target":"absent","response":"absent","rt":"10018.5","correct":true,"confidence":4},{"trial_n":117,"span":14,"encoder":"74001411445820","distractor":"74001411465820","target":"present","response":"present","rt":"8060.5999999996","correct":true,"confidence":4},{"trial_n":118,"span":15,"encoder":"558461977671977","distractor":"558461977641977","target":"present","response":"absent","rt":"5396.5","correct":false,"confidence":4},{"trial_n":119,"span":14,"encoder":"36345597985288","distractor":"36345597985285","target":"absent","response":"absent","rt":"2830.8000000007","correct":true,"confidence":5},{"trial_n":120,"span":14,"encoder":"60806995086912","distractor":"60806995016912","target":"absent","response":"present","rt":"10988.300000001","correct":false,"confidence":3},{"trial_n":121,"span":13,"encoder":"9250197332229","distractor":"9250197339229","target":"present","response":"present","rt":"4144.8000000007","correct":true,"confidence":4},{"trial_n":122,"span":13,"encoder":"6958444546591","distractor":"6958444546491","target":"absent","response":"absent","rt":"3017.1999999993","correct":true,"confidence":5},{"trial_n":123,"span":14,"encoder":"34456849552752","distractor":"34456849552152","target":"absent","response":"absent","rt":"4561.3999999985","correct":true,"confidence":5},{"trial_n":124,"span":14,"encoder":"06671263028517","distractor":"06671203028517","target":"present","response":"absent","rt":"13802.199999999","correct":false,"confidence":3},{"trial_n":125,"span":13,"encoder":"3598684857103","distractor":"3598684850103","target":"absent","response":"absent","rt":"4635.0999999996","correct":true,"confidence":5},{"trial_n":126,"span":13,"encoder":"7795721561488","distractor":"7795729561488","target":"present","response":"absent","rt":"18693.200000001","correct":false,"confidence":2},{"trial_n":127,"span":12,"encoder":"847636133327","distractor":"847636233327","target":"absent","response":"present","rt":"16315.4","correct":false,"confidence":3},{"trial_n":128,"span":11,"encoder":"92012524019","distractor":"92012524018","target":"present","response":"present","rt":"2120.5","correct":true,"confidence":5},{"trial_n":129,"span":11,"encoder":"80884881178","distractor":"80884831178","target":"present","response":"absent","rt":"5946.2000000011","correct":false,"confidence":4},{"trial_n":130,"span":10,"encoder":"3848106816","distractor":"3848506816","target":"absent","response":"absent","rt":"5427.5999999996","correct":true,"confidence":4},{"trial_n":131,"span":10,"encoder":"2880032963","distractor":"2880033963","target":"absent","response":"present","rt":"8662.6999999993","correct":false,"confidence":3},{"trial_n":132,"span":9,"encoder":"571389427","distractor":"571289427","target":"present","response":"present","rt":"9446.7999999989","correct":true,"confidence":3},{"trial_n":133,"span":9,"encoder":"425081488","distractor":"415081488","target":"absent","response":"absent","rt":"2552.6999999993","correct":true,"confidence":5},{"trial_n":134,"span":10,"encoder":"8162017865","distractor":"8142017865","target":"present","response":"present","rt":"8005.5999999996","correct":true,"confidence":4},{"trial_n":135,"span":10,"encoder":"3593723076","distractor":"3593763076","target":"absent","response":"absent","rt":"6945.6999999993","correct":true,"confidence":3},{"trial_n":136,"span":11,"encoder":"55357862468","distractor":"55357862466","target":"present","response":"present","rt":"2867.0999999996","correct":true,"confidence":5},{"trial_n":137,"span":11,"encoder":"57642354850","distractor":"57642654850","target":"present","response":"present","rt":"6652.7000000011","correct":true,"confidence":4},{"trial_n":138,"span":12,"encoder":"831391120352","distractor":"831391120356","target":"absent","response":"absent","rt":"5115.2000000011","correct":true,"confidence":5},{"trial_n":139,"span":12,"encoder":"601146100255","distractor":"600146100255","target":"present","response":"absent","rt":"5173.4000000004","correct":false,"confidence":2},{"trial_n":140,"span":11,"encoder":"67235865753","distractor":"67235865053","target":"present","response":"present","rt":"4523.2999999989","correct":true,"confidence":5}]