[{"trial_n":1,"span":8,"encoder":"79908255","distractor":"76908255","target":"present","response":"present","rt":"2932","correct":true,"confidence":-1},{"trial_n":2,"span":8,"encoder":"22492919","distractor":"22496919","target":"present","response":"present","rt":"1174","correct":true,"confidence":-1},{"trial_n":3,"span":10,"encoder":"0606334814","distractor":"0606334874","target":"absent","response":"present","rt":"1294","correct":false,"confidence":-1},{"trial_n":4,"span":8,"encoder":"12165301","distractor":"12165361","target":"absent","response":"absent","rt":"1761","correct":true,"confidence":-1},{"trial_n":5,"span":8,"encoder":"73406621","distractor":"78406621","target":"present","response":"present","rt":"2822","correct":true,"confidence":-1},{"trial_n":6,"span":10,"encoder":"1868812305","distractor":"1868882305","target":"present","response":"present","rt":"1413","correct":true,"confidence":-1},{"trial_n":7,"span":10,"encoder":"9948204882","distractor":"9948204889","target":"absent","response":"absent","rt":"1450","correct":true,"confidence":-1},{"trial_n":8,"span":12,"encoder":"638964277100","distractor":"668964277100","target":"absent","response":"present","rt":"1147","correct":false,"confidence":-1},{"trial_n":9,"span":10,"encoder":"8675832299","distractor":"8675812299","target":"present","response":"present","rt":"2130","correct":true,"confidence":-1},{"trial_n":10,"span":10,"encoder":"1183591093","distractor":"9183591093","target":"present","response":"absent","rt":"1484","correct":false,"confidence":-1},{"trial_n":11,"span":8,"encoder":"13848485","distractor":"43848485","target":"absent","response":"absent","rt":"1397","correct":true,"confidence":-1},{"trial_n":12,"span":8,"encoder":"75498947","distractor":"75499947","target":"present","response":"absent","rt":"1485","correct":false,"confidence":-1},{"trial_n":13,"span":7,"encoder":"4245739","distractor":"4255739","target":"absent","response":"present","rt":"3076","correct":false,"confidence":-1},{"trial_n":14,"span":6,"encoder":"543767","distractor":"549767","target":"absent","response":"present","rt":"1130.9999999999","correct":false,"confidence":-1},{"trial_n":15,"span":5,"encoder":"85543","distractor":"25543","target":"present","response":"present","rt":"897","correct":true,"confidence":-1},{"trial_n":16,"span":5,"encoder":"86683","distractor":"86983","target":"present","response":"present","rt":"981","correct":true,"confidence":-1},{"trial_n":17,"span":6,"encoder":"482842","distractor":"442842","target":"absent","response":"present","rt":"1784.0000000001","correct":false,"confidence":-1},{"trial_n":18,"span":5,"encoder":"87010","distractor":"87030","target":"present","response":"present","rt":"808","correct":true,"confidence":-1},{"trial_n":19,"span":5,"encoder":"13161","distractor":"13461","target":"absent","response":"absent","rt":"1262","correct":true,"confidence":-1},{"trial_n":20,"span":6,"encoder":"030597","distractor":"730597","target":"absent","response":"absent","rt":"1167","correct":true,"confidence":-1},{"trial_n":21,"span":6,"encoder":"978919","distractor":"978916","target":"absent","response":"absent","rt":"2026.0000000001","correct":true,"confidence":5},{"trial_n":22,"span":7,"encoder":"6189951","distractor":"6186951","target":"absent","response":"absent","rt":"2082","correct":true,"confidence":3},{"trial_n":23,"span":7,"encoder":"2276259","distractor":"2246259","target":"present","response":"present","rt":"2693.0000000001","correct":true,"confidence":5},{"trial_n":24,"span":8,"encoder":"36126843","distractor":"36126243","target":"present","response":"present","rt":"3581","correct":true,"confidence":3},{"trial_n":25,"span":8,"encoder":"74881108","distractor":"74881508","target":"absent","response":"absent","rt":"1533","correct":true,"confidence":5},{"trial_n":26,"span":9,"encoder":"411734377","distractor":"411734370","target":"absent","response":"absent","rt":"2276","correct":true,"confidence":5},{"trial_n":27,"span":9,"encoder":"737258811","distractor":"737288811","target":"present","response":"present","rt":"1898","correct":true,"confidence":5},{"trial_n":28,"span":10,"encoder":"4907459131","distractor":"4907457131","target":"present","response":"present","rt":"3335","correct":true,"confidence":5},{"trial_n":29,"span":10,"encoder":"8956734945","distractor":"8956794945","target":"absent","response":"present","rt":"4589","correct":false,"confidence":4},{"trial_n":30,"span":9,"encoder":"130978782","distractor":"130978784","target":"absent","response":"absent","rt":"3265.0000000001","correct":true,"confidence":5},{"trial_n":31,"span":9,"encoder":"127817738","distractor":"121817738","target":"absent","response":"absent","rt":"3269","correct":true,"confidence":3},{"trial_n":32,"span":10,"encoder":"5683804644","distractor":"5693804644","target":"absent","response":"absent","rt":"2064.9999999999","correct":true,"confidence":3},{"trial_n":33,"span":10,"encoder":"0012451262","distractor":"0012451282","target":"absent","response":"absent","rt":"4371","correct":true,"confidence":5},{"trial_n":34,"span":11,"encoder":"75555942199","distractor":"76555942199","target":"absent","response":"absent","rt":"3800","correct":true,"confidence":4},{"trial_n":35,"span":11,"encoder":"36089997180","distractor":"36089997120","target":"absent","response":"present","rt":"3788","correct":false,"confidence":3},{"trial_n":36,"span":10,"encoder":"8429222198","distractor":"8429222194","target":"present","response":"present","rt":"2661","correct":true,"confidence":5},{"trial_n":37,"span":10,"encoder":"1281217235","distractor":"1281617235","target":"present","response":"present","rt":"3859","correct":true,"confidence":3},{"trial_n":38,"span":11,"encoder":"97725392757","distractor":"97925392757","target":"absent","response":"absent","rt":"2768","correct":true,"confidence":4},{"trial_n":39,"span":11,"encoder":"35495268358","distractor":"34495268358","target":"absent","response":"present","rt":"1573.0000000001","correct":false,"confidence":3},{"trial_n":40,"span":10,"encoder":"4647577304","distractor":"4647574304","target":"absent","response":"absent","rt":"4769","correct":true,"confidence":5},{"trial_n":41,"span":10,"encoder":"5481852283","distractor":"5481052283","target":"present","response":"absent","rt":"5147","correct":false,"confidence":3},{"trial_n":42,"span":9,"encoder":"335925911","distractor":"330925911","target":"present","response":"present","rt":"1505.9999999999","correct":true,"confidence":5},{"trial_n":43,"span":9,"encoder":"622342543","distractor":"612342543","target":"present","response":"present","rt":"1561.9999999999","correct":true,"confidence":3},{"trial_n":44,"span":10,"encoder":"2029177826","distractor":"2029107826","target":"present","response":"present","rt":"3048","correct":true,"confidence":4},{"trial_n":45,"span":10,"encoder":"7104098443","distractor":"7104094443","target":"absent","response":"present","rt":"3736","correct":false,"confidence":4},{"trial_n":46,"span":9,"encoder":"307425978","distractor":"307425998","target":"present","response":"present","rt":"8486","correct":true,"confidence":4},{"trial_n":47,"span":9,"encoder":"758729099","distractor":"758729097","target":"absent","response":"present","rt":"4561","correct":false,"confidence":3},{"trial_n":48,"span":8,"encoder":"18248439","distractor":"18148439","target":"absent","response":"present","rt":"8489","correct":false,"confidence":2},{"trial_n":49,"span":7,"encoder":"0599454","distractor":"6599454","target":"absent","response":"absent","rt":"1454","correct":true,"confidence":5},{"trial_n":50,"span":7,"encoder":"5782717","distractor":"5782710","target":"absent","response":"absent","rt":"2102","correct":true,"confidence":5},{"trial_n":51,"span":8,"encoder":"87825170","distractor":"87825470","target":"present","response":"present","rt":"2470.0000000001","correct":true,"confidence":5},{"trial_n":52,"span":8,"encoder":"56172809","distractor":"56172609","target":"present","response":"present","rt":"3099.0000000001","correct":true,"confidence":5},{"trial_n":53,"span":9,"encoder":"540183036","distractor":"548183036","target":"present","response":"present","rt":"4594","correct":true,"confidence":5},{"trial_n":54,"span":9,"encoder":"692745146","distractor":"693745146","target":"present","response":"present","rt":"3258","correct":true,"confidence":1},{"trial_n":55,"span":10,"encoder":"6238045636","distractor":"2238045636","target":"present","response":"present","rt":"3163","correct":true,"confidence":4},{"trial_n":56,"span":10,"encoder":"0824649799","distractor":"0824649749","target":"present","response":"present","rt":"3073","correct":true,"confidence":3},{"trial_n":57,"span":11,"encoder":"41260383565","distractor":"01260383565","target":"present","response":"absent","rt":"2449","correct":false,"confidence":4},{"trial_n":58,"span":10,"encoder":"6327257718","distractor":"6327251718","target":"absent","response":"absent","rt":"2310","correct":true,"confidence":3},{"trial_n":59,"span":10,"encoder":"4451093243","distractor":"4459093243","target":"absent","response":"present","rt":"1820.9999999999","correct":false,"confidence":4},{"trial_n":60,"span":9,"encoder":"614037782","distractor":"694037782","target":"absent","response":"present","rt":"1419","correct":false,"confidence":4},{"trial_n":61,"span":8,"encoder":"53888693","distractor":"53883693","target":"present","response":"present","rt":"1323","correct":true,"confidence":5},{"trial_n":62,"span":8,"encoder":"79801130","distractor":"79801134","target":"present","response":"present","rt":"1719","correct":true,"confidence":5},{"trial_n":63,"span":9,"encoder":"214619840","distractor":"204619840","target":"present","response":"present","rt":"3220","correct":true,"confidence":5},{"trial_n":64,"span":9,"encoder":"715564402","distractor":"115564402","target":"present","response":"present","rt":"1719","correct":true,"confidence":5},{"trial_n":65,"span":10,"encoder":"2968107648","distractor":"2968107641","target":"present","response":"present","rt":"3901","correct":true,"confidence":3},{"trial_n":66,"span":10,"encoder":"7653399471","distractor":"9653399471","target":"present","response":"present","rt":"3185","correct":true,"confidence":3},{"trial_n":67,"span":11,"encoder":"64471836750","distractor":"64471886750","target":"absent","response":"present","rt":"1597","correct":false,"confidence":4},{"trial_n":68,"span":10,"encoder":"0413434783","distractor":"8413434783","target":"absent","response":"absent","rt":"1516","correct":true,"confidence":5},{"trial_n":69,"span":10,"encoder":"5305304599","distractor":"5306304599","target":"present","response":"present","rt":"3543","correct":true,"confidence":5},{"trial_n":70,"span":11,"encoder":"61925339206","distractor":"61925339203","target":"present","response":"present","rt":"5783","correct":true,"confidence":5},{"trial_n":71,"span":8,"encoder":"99740621","distractor":"99940621","target":"present","response":"present","rt":"5800","correct":true,"confidence":-1},{"trial_n":72,"span":8,"encoder":"18094092","distractor":"18014092","target":"present","response":"present","rt":"2703","correct":true,"confidence":-1},{"trial_n":73,"span":9,"encoder":"179521245","distractor":"279521245","target":"absent","response":"absent","rt":"1615","correct":true,"confidence":-1},{"trial_n":74,"span":9,"encoder":"738033032","distractor":"338033032","target":"absent","response":"absent","rt":"2615","correct":true,"confidence":-1},{"trial_n":75,"span":10,"encoder":"1464108173","distractor":"7464108173","target":"present","response":"present","rt":"3069","correct":true,"confidence":-1},{"trial_n":76,"span":10,"encoder":"0684358053","distractor":"0684558053","target":"present","response":"present","rt":"4068","correct":true,"confidence":-1},{"trial_n":77,"span":11,"encoder":"37750762706","distractor":"37750702706","target":"present","response":"absent","rt":"4972","correct":false,"confidence":-1},{"trial_n":78,"span":10,"encoder":"7607986171","distractor":"7607986371","target":"absent","response":"present","rt":"5808","correct":false,"confidence":-1},{"trial_n":79,"span":9,"encoder":"136954516","distractor":"136954566","target":"present","response":"present","rt":"1899","correct":true,"confidence":-1},{"trial_n":80,"span":9,"encoder":"275194960","distractor":"275194940","target":"present","response":"present","rt":"1961","correct":true,"confidence":-1},{"trial_n":81,"span":10,"encoder":"6057853637","distractor":"6057853607","target":"absent","response":"absent","rt":"1769.9999999999","correct":true,"confidence":-1},{"trial_n":82,"span":10,"encoder":"5743066744","distractor":"5743066644","target":"absent","response":"absent","rt":"3009","correct":true,"confidence":-1},{"trial_n":83,"span":11,"encoder":"87219619273","distractor":"87319619273","target":"absent","response":"absent","rt":"2218","correct":true,"confidence":-1},{"trial_n":84,"span":11,"encoder":"62260243273","distractor":"62260213273","target":"absent","response":"present","rt":"5969","correct":false,"confidence":-1},{"trial_n":85,"span":10,"encoder":"5290670926","distractor":"5290670726","target":"absent","response":"absent","rt":"1883","correct":true,"confidence":-1},{"trial_n":86,"span":10,"encoder":"3654956599","distractor":"3654956699","target":"absent","response":"absent","rt":"5300","correct":true,"confidence":-1},{"trial_n":87,"span":11,"encoder":"51504121721","distractor":"51507121721","target":"absent","response":"absent","rt":"3717.0000000001","correct":true,"confidence":-1},{"trial_n":88,"span":11,"encoder":"87132579456","distractor":"87134579456","target":"absent","response":"present","rt":"5320.9999999999","correct":false,"confidence":-1},{"trial_n":89,"span":10,"encoder":"3401957656","distractor":"3403957656","target":"absent","response":"absent","rt":"4897","correct":true,"confidence":-1},{"trial_n":90,"span":10,"encoder":"8542305476","distractor":"8542305475","target":"present","response":"present","rt":"1592","correct":true,"confidence":-1},{"trial_n":91,"span":11,"encoder":"24329962475","distractor":"54329962475","target":"present","response":"present","rt":"1519.9999999998","correct":true,"confidence":5},{"trial_n":92,"span":11,"encoder":"08328002125","distractor":"08328006125","target":"absent","response":"absent","rt":"5852","correct":true,"confidence":5},{"trial_n":93,"span":12,"encoder":"687343728669","distractor":"687343788669","target":"absent","response":"absent","rt":"4521","correct":true,"confidence":4},{"trial_n":94,"span":12,"encoder":"362723012091","distractor":"362753012091","target":"absent","response":"absent","rt":"8362","correct":true,"confidence":2},{"trial_n":95,"span":13,"encoder":"6373675992163","distractor":"6373675592163","target":"present","response":"absent","rt":"7824","correct":false,"confidence":3},{"trial_n":96,"span":12,"encoder":"099751072551","distractor":"199751072551","target":"absent","response":"absent","rt":"2572","correct":true,"confidence":4},{"trial_n":97,"span":12,"encoder":"884110437275","distractor":"884110437225","target":"present","response":"present","rt":"8097","correct":true,"confidence":4},{"trial_n":98,"span":13,"encoder":"6697066135417","distractor":"6697006135417","target":"present","response":"absent","rt":"4628","correct":false,"confidence":1},{"trial_n":99,"span":12,"encoder":"566283667465","distractor":"566283567465","target":"present","response":"present","rt":"4773.0000000002","correct":true,"confidence":4},{"trial_n":100,"span":12,"encoder":"345519957255","distractor":"347519957255","target":"absent","response":"absent","rt":"7351","correct":true,"confidence":5},{"trial_n":101,"span":13,"encoder":"4099914295334","distractor":"4099914995334","target":"present","response":"present","rt":"7529.0000000002","correct":true,"confidence":3},{"trial_n":102,"span":13,"encoder":"8655604519354","distractor":"8655604519654","target":"absent","response":"present","rt":"10455","correct":false,"confidence":2},{"trial_n":103,"span":12,"encoder":"845413379428","distractor":"849413379428","target":"absent","response":"present","rt":"10865","correct":false,"confidence":1},{"trial_n":104,"span":11,"encoder":"40135137191","distractor":"40135137171","target":"present","response":"present","rt":"4969.0000000002","correct":true,"confidence":4},{"trial_n":105,"span":11,"encoder":"99700792786","distractor":"99730792786","target":"absent","response":"absent","rt":"4437","correct":true,"confidence":4},{"trial_n":106,"span":12,"encoder":"018882697328","distractor":"018482697328","target":"present","response":"absent","rt":"7012.9999999998","correct":false,"confidence":3},{"trial_n":107,"span":11,"encoder":"18430199478","distractor":"18430129478","target":"present","response":"present","rt":"2239","correct":true,"confidence":5},{"trial_n":108,"span":11,"encoder":"29981913124","distractor":"29081913124","target":"absent","response":"absent","rt":"3314","correct":true,"confidence":3},{"trial_n":109,"span":12,"encoder":"393970503842","distractor":"393970103842","target":"present","response":"absent","rt":"8892","correct":false,"confidence":3},{"trial_n":110,"span":11,"encoder":"27092176237","distractor":"27099176237","target":"present","response":"present","rt":"3545","correct":true,"confidence":2},{"trial_n":111,"span":11,"encoder":"25087890963","distractor":"05087890963","target":"absent","response":"absent","rt":"4384","correct":true,"confidence":5},{"trial_n":112,"span":12,"encoder":"776819511211","distractor":"776819516211","target":"absent","response":"absent","rt":"2481","correct":true,"confidence":5},{"trial_n":113,"span":12,"encoder":"182935627614","distractor":"184935627614","target":"absent","response":"present","rt":"5965","correct":false,"confidence":3},{"trial_n":114,"span":11,"encoder":"22668929060","distractor":"22628929060","target":"present","response":"absent","rt":"5359","correct":false,"confidence":3},{"trial_n":115,"span":10,"encoder":"0581063431","distractor":"0588063431","target":"present","response":"present","rt":"2563","correct":true,"confidence":3},{"trial_n":116,"span":10,"encoder":"5553519835","distractor":"5553518835","target":"present","response":"present","rt":"6266","correct":true,"confidence":3},{"trial_n":117,"span":11,"encoder":"63211592483","distractor":"63211592480","target":"absent","response":"absent","rt":"2794.9999999998","correct":true,"confidence":4},{"trial_n":118,"span":11,"encoder":"89167459115","distractor":"89167459110","target":"absent","response":"absent","rt":"3858.9999999998","correct":true,"confidence":5},{"trial_n":119,"span":12,"encoder":"334157359868","distractor":"335157359868","target":"absent","response":"present","rt":"6030","correct":false,"confidence":4},{"trial_n":120,"span":11,"encoder":"37352759343","distractor":"37352759643","target":"present","response":"present","rt":"7820","correct":true,"confidence":3},{"trial_n":121,"span":11,"encoder":"89366620602","distractor":"49366620602","target":"present","response":"present","rt":"3836","correct":true,"confidence":5},{"trial_n":122,"span":12,"encoder":"061280810659","distractor":"066280810659","target":"absent","response":"absent","rt":"3023","correct":true,"confidence":3},{"trial_n":123,"span":12,"encoder":"670159221264","distractor":"679159221264","target":"present","response":"present","rt":"4434","correct":true,"confidence":3},{"trial_n":124,"span":13,"encoder":"2246302547142","distractor":"2249302547142","target":"absent","response":"present","rt":"11434","correct":false,"confidence":1},{"trial_n":125,"span":12,"encoder":"271608054816","distractor":"271603054816","target":"absent","response":"present","rt":"6392","correct":false,"confidence":1},{"trial_n":126,"span":11,"encoder":"16695302158","distractor":"18695302158","target":"present","response":"present","rt":"2159.9999999998","correct":true,"confidence":5},{"trial_n":127,"span":11,"encoder":"90067143058","distractor":"90017143058","target":"present","response":"absent","rt":"3514.0000000002","correct":false,"confidence":3},{"trial_n":128,"span":10,"encoder":"9523822517","distractor":"4523822517","target":"present","response":"present","rt":"6023","correct":true,"confidence":5},{"trial_n":129,"span":10,"encoder":"0325929061","distractor":"0125929061","target":"present","response":"present","rt":"6938.9999999998","correct":true,"confidence":1},{"trial_n":130,"span":11,"encoder":"90752141679","distractor":"90752141879","target":"present","response":"present","rt":"3726","correct":true,"confidence":5},{"trial_n":131,"span":11,"encoder":"79524295877","distractor":"79424295877","target":"present","response":"present","rt":"10092","correct":true,"confidence":3},{"trial_n":132,"span":12,"encoder":"831255104126","distractor":"831255104826","target":"absent","response":"present","rt":"7314","correct":false,"confidence":2},{"trial_n":133,"span":11,"encoder":"50854338264","distractor":"50854738264","target":"present","response":"present","rt":"2861","correct":true,"confidence":5},{"trial_n":134,"span":11,"encoder":"94751981357","distractor":"94751981355","target":"absent","response":"absent","rt":"3012","correct":true,"confidence":5},{"trial_n":135,"span":12,"encoder":"721289385079","distractor":"721289355079","target":"absent","response":"absent","rt":"5775.0000000002","correct":true,"confidence":2},{"trial_n":136,"span":12,"encoder":"408916121311","distractor":"408916123311","target":"absent","response":"absent","rt":"4067","correct":true,"confidence":5},{"trial_n":137,"span":13,"encoder":"4523305148077","distractor":"4523305148277","target":"present","response":"present","rt":"2042","correct":true,"confidence":5},{"trial_n":138,"span":13,"encoder":"5586734235602","distractor":"4586734235602","target":"present","response":"present","rt":"5179","correct":true,"confidence":5},{"trial_n":139,"span":14,"encoder":"07296608768011","distractor":"07296608768016","target":"present","response":"present","rt":"1893","correct":true,"confidence":5},{"trial_n":140,"span":14,"encoder":"44280791998082","distractor":"44280791998882","target":"present","response":"present","rt":"5012","correct":true,"confidence":5}]