[{"trial_n":1,"n_dots":4.25,"target":"right","response":"left","rt":4986.8000000007,"correct":false,"confidence":-1},{"trial_n":2,"n_dots":4.25,"target":"left","response":"right","rt":784.09999999963,"correct":false,"confidence":-1},{"trial_n":3,"n_dots":4.65,"target":"left","response":"left","rt":500.30000000075,"correct":true,"confidence":-1},{"trial_n":4,"n_dots":4.65,"target":"right","response":"left","rt":376.79999999888,"correct":false,"confidence":-1},{"trial_n":5,"n_dots":5.05,"target":"left","response":"left","rt":357.5,"correct":true,"confidence":-1},{"trial_n":6,"n_dots":5.05,"target":"left","response":"left","rt":453.79999999888,"correct":true,"confidence":-1},{"trial_n":7,"n_dots":4.65,"target":"right","response":"right","rt":323.29999999888,"correct":true,"confidence":-1},{"trial_n":8,"n_dots":4.65,"target":"left","response":"left","rt":487,"correct":true,"confidence":-1},{"trial_n":9,"n_dots":4.45,"target":"left","response":"left","rt":927.09999999963,"correct":true,"confidence":-1},{"trial_n":10,"n_dots":4.45,"target":"right","response":"right","rt":348.80000000075,"correct":true,"confidence":-1},{"trial_n":11,"n_dots":4.25,"target":"right","response":"right","rt":593.59999999963,"correct":true,"confidence":-1},{"trial_n":12,"n_dots":4.25,"target":"left","response":"left","rt":400.39999999851,"correct":true,"confidence":-1},{"trial_n":13,"n_dots":4.15,"target":"right","response":"right","rt":327.40000000037,"correct":true,"confidence":-1},{"trial_n":14,"n_dots":4.15,"target":"right","response":"right","rt":499.39999999851,"correct":true,"confidence":-1},{"trial_n":15,"n_dots":4.05,"target":"right","response":"right","rt":561.20000000112,"correct":true,"confidence":-1},{"trial_n":16,"n_dots":4.05,"target":"left","response":"left","rt":330.09999999963,"correct":true,"confidence":-1},{"trial_n":17,"n_dots":3.95,"target":"left","response":"left","rt":327.60000000149,"correct":true,"confidence":-1},{"trial_n":18,"n_dots":3.95,"target":"left","response":"left","rt":369.90000000037,"correct":true,"confidence":-1},{"trial_n":19,"n_dots":3.85,"target":"left","response":"left","rt":313.19999999925,"correct":true,"confidence":-1},{"trial_n":20,"n_dots":3.85,"target":"right","response":"left","rt":363.40000000037,"correct":false,"confidence":-1},{"trial_n":21,"n_dots":3.95,"target":"right","response":"right","rt":390.19999999925,"correct":true,"confidence":4},{"trial_n":22,"n_dots":3.95,"target":"left","response":"left","rt":506.09999999963,"correct":true,"confidence":3},{"trial_n":23,"n_dots":3.85,"target":"right","response":"left","rt":447.19999999925,"correct":false,"confidence":3},{"trial_n":24,"n_dots":3.95,"target":"left","response":"left","rt":621.40000000037,"correct":true,"confidence":4},{"trial_n":25,"n_dots":3.95,"target":"right","response":"right","rt":1135.6999999993,"correct":true,"confidence":4},{"trial_n":26,"n_dots":3.85,"target":"left","response":"left","rt":1120,"correct":true,"confidence":3},{"trial_n":27,"n_dots":3.85,"target":"left","response":"left","rt":1607,"correct":true,"confidence":4},{"trial_n":28,"n_dots":3.75,"target":"right","response":"right","rt":1275.8000000007,"correct":true,"confidence":5},{"trial_n":29,"n_dots":3.75,"target":"left","response":"left","rt":497,"correct":true,"confidence":4},{"trial_n":30,"n_dots":3.65,"target":"left","response":"left","rt":1066.3000000007,"correct":true,"confidence":4},{"trial_n":31,"n_dots":3.65,"target":"right","response":"right","rt":1357.5999999996,"correct":true,"confidence":4},{"trial_n":32,"n_dots":3.55,"target":"left","response":"left","rt":975,"correct":true,"confidence":4},{"trial_n":33,"n_dots":3.55,"target":"left","response":"left","rt":924.59999999963,"correct":true,"confidence":4},{"trial_n":34,"n_dots":3.45,"target":"right","response":"right","rt":852.5,"correct":true,"confidence":4},{"trial_n":35,"n_dots":3.45,"target":"left","response":"left","rt":1059.4000000004,"correct":true,"confidence":4},{"trial_n":36,"n_dots":3.35,"target":"right","response":"right","rt":1401.7000000011,"correct":true,"confidence":4},{"trial_n":37,"n_dots":3.35,"target":"left","response":"left","rt":1077.3000000007,"correct":true,"confidence":4},{"trial_n":38,"n_dots":3.25,"target":"right","response":"right","rt":1015.4000000004,"correct":true,"confidence":4},{"trial_n":39,"n_dots":3.25,"target":"right","response":"right","rt":1068.3000000007,"correct":true,"confidence":4},{"trial_n":40,"n_dots":3.15,"target":"left","response":"left","rt":868.70000000112,"correct":true,"confidence":4},{"trial_n":41,"n_dots":3.15,"target":"right","response":"right","rt":1303.5,"correct":true,"confidence":4},{"trial_n":42,"n_dots":3.05,"target":"left","response":"left","rt":508.5,"correct":true,"confidence":4},{"trial_n":43,"n_dots":3.05,"target":"left","response":"left","rt":1499.1999999993,"correct":true,"confidence":4},{"trial_n":44,"n_dots":2.95,"target":"right","response":"right","rt":898.90000000037,"correct":true,"confidence":4},{"trial_n":45,"n_dots":2.95,"target":"left","response":"left","rt":1608.9000000004,"correct":true,"confidence":4},{"trial_n":46,"n_dots":2.85,"target":"left","response":"right","rt":825.69999999925,"correct":false,"confidence":4},{"trial_n":47,"n_dots":2.95,"target":"right","response":"right","rt":1049.7999999989,"correct":true,"confidence":4},{"trial_n":48,"n_dots":2.95,"target":"right","response":"left","rt":942.90000000037,"correct":false,"confidence":4},{"trial_n":49,"n_dots":3.05,"target":"left","response":"left","rt":941.20000000112,"correct":true,"confidence":4},{"trial_n":50,"n_dots":3.05,"target":"right","response":"right","rt":928.90000000037,"correct":true,"confidence":4},{"trial_n":51,"n_dots":2.95,"target":"left","response":"left","rt":912.19999999925,"correct":true,"confidence":4},{"trial_n":52,"n_dots":2.95,"target":"right","response":"right","rt":913.5,"correct":true,"confidence":4},{"trial_n":53,"n_dots":2.85,"target":"right","response":"right","rt":993.19999999925,"correct":true,"confidence":4},{"trial_n":54,"n_dots":2.85,"target":"right","response":"right","rt":774.90000000037,"correct":true,"confidence":4},{"trial_n":55,"n_dots":2.75,"target":"left","response":"left","rt":805.29999999888,"correct":true,"confidence":4},{"trial_n":56,"n_dots":2.75,"target":"right","response":"right","rt":904.19999999925,"correct":true,"confidence":4},{"trial_n":57,"n_dots":2.65,"target":"left","response":"left","rt":701.70000000112,"correct":true,"confidence":4},{"trial_n":58,"n_dots":2.65,"target":"left","response":"left","rt":679.69999999925,"correct":true,"confidence":4},{"trial_n":59,"n_dots":2.55,"target":"left","response":"left","rt":522.29999999888,"correct":true,"confidence":4},{"trial_n":60,"n_dots":2.55,"target":"left","response":"left","rt":563.59999999963,"correct":true,"confidence":4},{"trial_n":61,"n_dots":2.45,"target":"right","response":"right","rt":890,"correct":true,"confidence":4},{"trial_n":62,"n_dots":2.45,"target":"right","response":"left","rt":928.40000000037,"correct":false,"confidence":4},{"trial_n":63,"n_dots":2.55,"target":"left","response":"left","rt":766.89999999851,"correct":true,"confidence":4},{"trial_n":64,"n_dots":2.55,"target":"left","response":"left","rt":700.5,"correct":true,"confidence":4},{"trial_n":65,"n_dots":2.45,"target":"left","response":"left","rt":739.10000000149,"correct":true,"confidence":4},{"trial_n":66,"n_dots":2.45,"target":"right","response":"left","rt":565.5,"correct":false,"confidence":4},{"trial_n":67,"n_dots":2.55,"target":"left","response":"right","rt":1163.6999999993,"correct":false,"confidence":4},{"trial_n":68,"n_dots":2.65,"target":"right","response":"left","rt":860.70000000112,"correct":false,"confidence":4},{"trial_n":69,"n_dots":2.75,"target":"left","response":"left","rt":724.19999999925,"correct":true,"confidence":4},{"trial_n":70,"n_dots":2.75,"target":"left","response":"right","rt":802.69999999925,"correct":false,"confidence":4},{"trial_n":71,"n_dots":2.85,"target":"right","response":"right","rt":948.59999999963,"correct":true,"confidence":4},{"trial_n":72,"n_dots":2.85,"target":"right","response":"right","rt":802.69999999925,"correct":true,"confidence":4},{"trial_n":73,"n_dots":2.75,"target":"right","response":"right","rt":955.40000000037,"correct":true,"confidence":4},{"trial_n":74,"n_dots":2.75,"target":"right","response":"right","rt":1156.8000000007,"correct":true,"confidence":4},{"trial_n":75,"n_dots":2.65,"target":"left","response":"left","rt":716.90000000037,"correct":true,"confidence":4},{"trial_n":76,"n_dots":2.65,"target":"right","response":"right","rt":854.09999999963,"correct":true,"confidence":4},{"trial_n":77,"n_dots":2.55,"target":"right","response":"right","rt":1287.8000000007,"correct":true,"confidence":4},{"trial_n":78,"n_dots":2.55,"target":"right","response":"right","rt":862.20000000112,"correct":true,"confidence":4},{"trial_n":79,"n_dots":2.45,"target":"right","response":"right","rt":865.09999999963,"correct":true,"confidence":4},{"trial_n":80,"n_dots":2.45,"target":"left","response":"left","rt":2427.5999999996,"correct":true,"confidence":4},{"trial_n":81,"n_dots":2.35,"target":"left","response":"left","rt":1028.1999999993,"correct":true,"confidence":4},{"trial_n":82,"n_dots":2.35,"target":"right","response":"right","rt":1826.1000000015,"correct":true,"confidence":3},{"trial_n":83,"n_dots":2.25,"target":"left","response":"left","rt":1231.700000003,"correct":true,"confidence":3},{"trial_n":84,"n_dots":2.25,"target":"left","response":"left","rt":813.90000000224,"correct":true,"confidence":3},{"trial_n":85,"n_dots":2.15,"target":"right","response":"right","rt":1042.8999999985,"correct":true,"confidence":4},{"trial_n":86,"n_dots":2.15,"target":"right","response":"left","rt":973.60000000149,"correct":false,"confidence":4},{"trial_n":87,"n_dots":2.25,"target":"right","response":"left","rt":720,"correct":false,"confidence":4},{"trial_n":88,"n_dots":2.35,"target":"right","response":"right","rt":843.5,"correct":true,"confidence":4},{"trial_n":89,"n_dots":2.35,"target":"left","response":"left","rt":688.5,"correct":true,"confidence":4},{"trial_n":90,"n_dots":2.25,"target":"left","response":"right","rt":899.19999999925,"correct":false,"confidence":4},{"trial_n":91,"n_dots":2.35,"target":"left","response":"left","rt":850.90000000224,"correct":true,"confidence":4},{"trial_n":92,"n_dots":2.35,"target":"right","response":"left","rt":894.5,"correct":false,"confidence":4},{"trial_n":93,"n_dots":2.45,"target":"left","response":"left","rt":827.19999999925,"correct":true,"confidence":4},{"trial_n":94,"n_dots":2.45,"target":"right","response":"left","rt":703.89999999851,"correct":false,"confidence":4},{"trial_n":95,"n_dots":2.55,"target":"left","response":"left","rt":751.60000000149,"correct":true,"confidence":4},{"trial_n":96,"n_dots":2.55,"target":"left","response":"left","rt":631.30000000075,"correct":true,"confidence":4},{"trial_n":97,"n_dots":2.45,"target":"right","response":"left","rt":561.60000000149,"correct":false,"confidence":4},{"trial_n":98,"n_dots":2.55,"target":"left","response":"left","rt":689.80000000075,"correct":true,"confidence":4},{"trial_n":99,"n_dots":2.55,"target":"left","response":"left","rt":555,"correct":true,"confidence":4},{"trial_n":100,"n_dots":2.45,"target":"right","response":"left","rt":386.60000000149,"correct":false,"confidence":4},{"trial_n":101,"n_dots":2.55,"target":"right","response":"right","rt":1057.1999999993,"correct":true,"confidence":4},{"trial_n":102,"n_dots":2.55,"target":"left","response":"left","rt":756.80000000075,"correct":true,"confidence":4},{"trial_n":103,"n_dots":2.45,"target":"left","response":"right","rt":1860.1000000015,"correct":false,"confidence":3},{"trial_n":104,"n_dots":2.55,"target":"right","response":"left","rt":843.19999999925,"correct":false,"confidence":2},{"trial_n":105,"n_dots":2.65,"target":"right","response":"right","rt":1308.3000000007,"correct":true,"confidence":3},{"trial_n":106,"n_dots":2.65,"target":"right","response":"left","rt":906.40000000224,"correct":false,"confidence":3},{"trial_n":107,"n_dots":2.75,"target":"right","response":"right","rt":943.89999999851,"correct":true,"confidence":4},{"trial_n":108,"n_dots":2.75,"target":"right","response":"right","rt":870,"correct":true,"confidence":4},{"trial_n":109,"n_dots":2.65,"target":"right","response":"right","rt":1085,"correct":true,"confidence":4},{"trial_n":110,"n_dots":2.65,"target":"left","response":"right","rt":978.70000000298,"correct":false,"confidence":3},{"trial_n":111,"n_dots":2.75,"target":"right","response":"right","rt":1522.5,"correct":true,"confidence":4},{"trial_n":112,"n_dots":2.75,"target":"left","response":"left","rt":1021.4000000022,"correct":true,"confidence":3},{"trial_n":113,"n_dots":2.65,"target":"left","response":"left","rt":1050.1999999993,"correct":true,"confidence":3},{"trial_n":114,"n_dots":2.65,"target":"right","response":"right","rt":933.89999999851,"correct":true,"confidence":3},{"trial_n":115,"n_dots":2.55,"target":"right","response":"right","rt":861.89999999851,"correct":true,"confidence":3},{"trial_n":116,"n_dots":2.55,"target":"right","response":"left","rt":843.20000000298,"correct":false,"confidence":3},{"trial_n":117,"n_dots":2.65,"target":"left","response":"left","rt":855.30000000075,"correct":true,"confidence":3},{"trial_n":118,"n_dots":2.65,"target":"left","response":"right","rt":952.19999999925,"correct":false,"confidence":3},{"trial_n":119,"n_dots":2.75,"target":"left","response":"left","rt":710.69999999925,"correct":true,"confidence":2},{"trial_n":120,"n_dots":2.75,"target":"right","response":"right","rt":629.30000000075,"correct":true,"confidence":3}]