[{"trial_n":1,"min":25,"max":230,"target":"present","response":"absent","rt":6691,"correct":false,"confidence":-1},{"trial_n":2,"min":25,"max":230,"target":"present","response":"present","rt":998,"correct":true,"confidence":-1},{"trial_n":3,"min":25,"max":230,"target":"absent","response":"absent","rt":493,"correct":true,"confidence":-1},{"trial_n":4,"min":41,"max":214,"target":"absent","response":"absent","rt":494,"correct":true,"confidence":-1},{"trial_n":5,"min":41,"max":214,"target":"present","response":"present","rt":350,"correct":true,"confidence":-1},{"trial_n":6,"min":57,"max":198,"target":"absent","response":"absent","rt":266,"correct":true,"confidence":-1},{"trial_n":7,"min":57,"max":198,"target":"absent","response":"absent","rt":273,"correct":true,"confidence":-1},{"trial_n":8,"min":73,"max":182,"target":"absent","response":"absent","rt":234,"correct":true,"confidence":-1},{"trial_n":9,"min":73,"max":182,"target":"absent","response":"absent","rt":226,"correct":true,"confidence":-1},{"trial_n":10,"min":89,"max":166,"target":"present","response":"absent","rt":708,"correct":false,"confidence":-1},{"trial_n":11,"min":81,"max":174,"target":"present","response":"absent","rt":408,"correct":false,"confidence":-1},{"trial_n":12,"min":73,"max":182,"target":"absent","response":"absent","rt":896,"correct":true,"confidence":-1},{"trial_n":13,"min":73,"max":182,"target":"absent","response":"absent","rt":461,"correct":true,"confidence":-1},{"trial_n":14,"min":81,"max":174,"target":"present","response":"present","rt":454,"correct":true,"confidence":-1},{"trial_n":15,"min":81,"max":174,"target":"present","response":"absent","rt":473,"correct":false,"confidence":-1},{"trial_n":16,"min":73,"max":182,"target":"present","response":"absent","rt":519,"correct":false,"confidence":-1},{"trial_n":17,"min":65,"max":190,"target":"absent","response":"absent","rt":745,"correct":true,"confidence":-1},{"trial_n":18,"min":65,"max":190,"target":"present","response":"present","rt":1085,"correct":true,"confidence":-1},{"trial_n":19,"min":73,"max":182,"target":"present","response":"present","rt":491,"correct":true,"confidence":-1},{"trial_n":20,"min":73,"max":182,"target":"present","response":"present","rt":450,"correct":true,"confidence":-1},{"trial_n":21,"min":77,"max":178,"target":"present","response":"present","rt":521,"correct":true,"confidence":5},{"trial_n":22,"min":77,"max":178,"target":"absent","response":"absent","rt":850,"correct":true,"confidence":3},{"trial_n":23,"min":81,"max":174,"target":"present","response":"present","rt":470,"correct":true,"confidence":5},{"trial_n":24,"min":81,"max":174,"target":"absent","response":"absent","rt":1468,"correct":true,"confidence":3},{"trial_n":25,"min":85,"max":170,"target":"absent","response":"present","rt":1766,"correct":false,"confidence":5},{"trial_n":26,"min":81,"max":174,"target":"absent","response":"absent","rt":899,"correct":true,"confidence":3},{"trial_n":27,"min":81,"max":174,"target":"absent","response":"absent","rt":987,"correct":true,"confidence":3},{"trial_n":28,"min":85,"max":170,"target":"present","response":"present","rt":840,"correct":true,"confidence":5},{"trial_n":29,"min":85,"max":170,"target":"absent","response":"absent","rt":963.00000000003,"correct":true,"confidence":4},{"trial_n":30,"min":89,"max":166,"target":"absent","response":"absent","rt":878,"correct":true,"confidence":4},{"trial_n":31,"min":89,"max":166,"target":"present","response":"present","rt":1552,"correct":true,"confidence":5},{"trial_n":32,"min":91,"max":164,"target":"absent","response":"absent","rt":823,"correct":true,"confidence":4},{"trial_n":33,"min":91,"max":164,"target":"absent","response":"absent","rt":1206,"correct":true,"confidence":4},{"trial_n":34,"min":93,"max":162,"target":"present","response":"absent","rt":3568,"correct":false,"confidence":2},{"trial_n":35,"min":91,"max":164,"target":"absent","response":"absent","rt":878,"correct":true,"confidence":3},{"trial_n":36,"min":91,"max":164,"target":"present","response":"absent","rt":1045,"correct":false,"confidence":4},{"trial_n":37,"min":89,"max":166,"target":"present","response":"present","rt":1429,"correct":true,"confidence":5},{"trial_n":38,"min":89,"max":166,"target":"absent","response":"absent","rt":856,"correct":true,"confidence":4},{"trial_n":39,"min":91,"max":164,"target":"absent","response":"absent","rt":846,"correct":true,"confidence":4},{"trial_n":40,"min":91,"max":164,"target":"absent","response":"absent","rt":744,"correct":true,"confidence":4},{"trial_n":41,"min":92,"max":163,"target":"absent","response":"absent","rt":917.99999999997,"correct":true,"confidence":3},{"trial_n":42,"min":92,"max":163,"target":"present","response":"present","rt":1321,"correct":true,"confidence":4},{"trial_n":43,"min":93,"max":162,"target":"absent","response":"absent","rt":718,"correct":true,"confidence":3},{"trial_n":44,"min":93,"max":162,"target":"absent","response":"absent","rt":815.99999999997,"correct":true,"confidence":3},{"trial_n":45,"min":94,"max":161,"target":"present","response":"absent","rt":767,"correct":false,"confidence":3},{"trial_n":46,"min":93,"max":162,"target":"present","response":"absent","rt":601,"correct":false,"confidence":3},{"trial_n":47,"min":92,"max":163,"target":"absent","response":"absent","rt":891,"correct":true,"confidence":4},{"trial_n":48,"min":92,"max":163,"target":"present","response":"absent","rt":778,"correct":false,"confidence":4},{"trial_n":49,"min":91,"max":164,"target":"present","response":"absent","rt":853,"correct":false,"confidence":4},{"trial_n":50,"min":90,"max":165,"target":"present","response":"absent","rt":611,"correct":false,"confidence":4},{"trial_n":51,"min":89,"max":166,"target":"present","response":"absent","rt":2313,"correct":false,"confidence":2},{"trial_n":52,"min":88,"max":167,"target":"present","response":"present","rt":2139,"correct":true,"confidence":2},{"trial_n":53,"min":88,"max":167,"target":"present","response":"absent","rt":764,"correct":false,"confidence":4},{"trial_n":54,"min":87,"max":168,"target":"present","response":"present","rt":1094,"correct":true,"confidence":5},{"trial_n":55,"min":87,"max":168,"target":"present","response":"absent","rt":809.00000000006,"correct":false,"confidence":3},{"trial_n":56,"min":86,"max":169,"target":"present","response":"absent","rt":858,"correct":false,"confidence":4},{"trial_n":57,"min":85,"max":170,"target":"present","response":"absent","rt":621,"correct":false,"confidence":4},{"trial_n":58,"min":84,"max":171,"target":"absent","response":"absent","rt":842,"correct":true,"confidence":4},{"trial_n":59,"min":84,"max":171,"target":"absent","response":"absent","rt":748,"correct":true,"confidence":4},{"trial_n":60,"min":85,"max":170,"target":"absent","response":"absent","rt":825,"correct":true,"confidence":3},{"trial_n":61,"min":85,"max":170,"target":"present","response":"absent","rt":894.99999999994,"correct":false,"confidence":3},{"trial_n":62,"min":84,"max":171,"target":"absent","response":"absent","rt":637,"correct":true,"confidence":3},{"trial_n":63,"min":84,"max":171,"target":"absent","response":"absent","rt":775.00000000006,"correct":true,"confidence":3},{"trial_n":64,"min":85,"max":170,"target":"absent","response":"absent","rt":763.99999999994,"correct":true,"confidence":2},{"trial_n":65,"min":85,"max":170,"target":"present","response":"present","rt":1088,"correct":true,"confidence":5},{"trial_n":66,"min":86,"max":169,"target":"absent","response":"absent","rt":824.99999999994,"correct":true,"confidence":3},{"trial_n":67,"min":86,"max":169,"target":"present","response":"absent","rt":834,"correct":false,"confidence":3},{"trial_n":68,"min":85,"max":170,"target":"present","response":"absent","rt":989,"correct":false,"confidence":3},{"trial_n":69,"min":84,"max":171,"target":"absent","response":"absent","rt":838.00000000006,"correct":true,"confidence":5},{"trial_n":70,"min":84,"max":171,"target":"present","response":"present","rt":887,"correct":true,"confidence":5},{"trial_n":71,"min":41,"max":214,"target":"present","response":"present","rt":2187,"correct":true,"confidence":-1},{"trial_n":72,"min":41,"max":214,"target":"present","response":"present","rt":745,"correct":true,"confidence":-1},{"trial_n":73,"min":57,"max":198,"target":"absent","response":"absent","rt":652,"correct":true,"confidence":-1},{"trial_n":74,"min":57,"max":198,"target":"absent","response":"absent","rt":459,"correct":true,"confidence":-1},{"trial_n":75,"min":73,"max":182,"target":"present","response":"present","rt":379,"correct":true,"confidence":-1},{"trial_n":76,"min":73,"max":182,"target":"present","response":"present","rt":290.00000000006,"correct":true,"confidence":-1},{"trial_n":77,"min":89,"max":166,"target":"present","response":"present","rt":585.99999999994,"correct":true,"confidence":-1},{"trial_n":78,"min":89,"max":166,"target":"present","response":"present","rt":385,"correct":true,"confidence":-1},{"trial_n":79,"min":105,"max":150,"target":"absent","response":"absent","rt":703,"correct":true,"confidence":-1},{"trial_n":80,"min":105,"max":150,"target":"absent","response":"present","rt":627,"correct":false,"confidence":-1},{"trial_n":81,"min":97,"max":158,"target":"absent","response":"present","rt":816.00000000006,"correct":false,"confidence":-1},{"trial_n":82,"min":89,"max":166,"target":"present","response":"present","rt":668,"correct":true,"confidence":-1},{"trial_n":83,"min":89,"max":166,"target":"absent","response":"present","rt":1910,"correct":false,"confidence":-1},{"trial_n":84,"min":81,"max":174,"target":"present","response":"present","rt":624,"correct":true,"confidence":-1},{"trial_n":85,"min":81,"max":174,"target":"present","response":"present","rt":691,"correct":true,"confidence":-1},{"trial_n":86,"min":89,"max":166,"target":"absent","response":"present","rt":403,"correct":false,"confidence":-1},{"trial_n":87,"min":81,"max":174,"target":"present","response":"present","rt":512,"correct":true,"confidence":-1},{"trial_n":88,"min":81,"max":174,"target":"present","response":"present","rt":401,"correct":true,"confidence":-1},{"trial_n":89,"min":89,"max":166,"target":"absent","response":"absent","rt":714,"correct":true,"confidence":-1},{"trial_n":90,"min":89,"max":166,"target":"absent","response":"absent","rt":833.00000000006,"correct":true,"confidence":-1},{"trial_n":91,"min":93,"max":162,"target":"present","response":"present","rt":715,"correct":true,"confidence":5},{"trial_n":92,"min":93,"max":162,"target":"present","response":"present","rt":406,"correct":true,"confidence":5},{"trial_n":93,"min":97,"max":158,"target":"present","response":"present","rt":596,"correct":true,"confidence":4},{"trial_n":94,"min":97,"max":158,"target":"absent","response":"present","rt":593,"correct":false,"confidence":3},{"trial_n":95,"min":93,"max":162,"target":"absent","response":"present","rt":1834,"correct":false,"confidence":3},{"trial_n":96,"min":89,"max":166,"target":"present","response":"present","rt":696,"correct":true,"confidence":3},{"trial_n":97,"min":89,"max":166,"target":"absent","response":"absent","rt":971,"correct":true,"confidence":3},{"trial_n":98,"min":93,"max":162,"target":"absent","response":"absent","rt":1132,"correct":true,"confidence":3},{"trial_n":99,"min":93,"max":162,"target":"absent","response":"absent","rt":1380,"correct":true,"confidence":3},{"trial_n":100,"min":97,"max":158,"target":"present","response":"present","rt":1281,"correct":true,"confidence":3},{"trial_n":101,"min":97,"max":158,"target":"absent","response":"present","rt":553,"correct":false,"confidence":4},{"trial_n":102,"min":95,"max":160,"target":"present","response":"present","rt":789,"correct":true,"confidence":4},{"trial_n":103,"min":95,"max":160,"target":"absent","response":"present","rt":1040,"correct":false,"confidence":3},{"trial_n":104,"min":93,"max":162,"target":"present","response":"present","rt":684,"correct":true,"confidence":3},{"trial_n":105,"min":93,"max":162,"target":"absent","response":"present","rt":1820,"correct":false,"confidence":1},{"trial_n":106,"min":91,"max":164,"target":"absent","response":"present","rt":687,"correct":false,"confidence":1},{"trial_n":107,"min":89,"max":166,"target":"absent","response":"absent","rt":481,"correct":true,"confidence":2},{"trial_n":108,"min":89,"max":166,"target":"absent","response":"present","rt":560,"correct":false,"confidence":4},{"trial_n":109,"min":87,"max":168,"target":"present","response":"present","rt":1335.9999999999,"correct":true,"confidence":2},{"trial_n":110,"min":87,"max":168,"target":"absent","response":"absent","rt":1692.0000000001,"correct":true,"confidence":1},{"trial_n":111,"min":88,"max":167,"target":"present","response":"present","rt":497.00000000006,"correct":true,"confidence":5},{"trial_n":112,"min":88,"max":167,"target":"present","response":"absent","rt":2225,"correct":false,"confidence":1},{"trial_n":113,"min":87,"max":168,"target":"present","response":"present","rt":630.00000000006,"correct":true,"confidence":5},{"trial_n":114,"min":87,"max":168,"target":"absent","response":"present","rt":1004.0000000001,"correct":false,"confidence":5},{"trial_n":115,"min":86,"max":169,"target":"present","response":"present","rt":634.00000000006,"correct":true,"confidence":5},{"trial_n":116,"min":86,"max":169,"target":"absent","response":"absent","rt":1257,"correct":true,"confidence":1},{"trial_n":117,"min":87,"max":168,"target":"present","response":"present","rt":628,"correct":true,"confidence":4},{"trial_n":118,"min":87,"max":168,"target":"absent","response":"present","rt":639,"correct":false,"confidence":4},{"trial_n":119,"min":86,"max":169,"target":"absent","response":"absent","rt":1761,"correct":true,"confidence":2},{"trial_n":120,"min":86,"max":169,"target":"absent","response":"absent","rt":1100.9999999999,"correct":true,"confidence":1},{"trial_n":121,"min":87,"max":168,"target":"absent","response":"present","rt":1384,"correct":false,"confidence":1},{"trial_n":122,"min":86,"max":169,"target":"present","response":"absent","rt":437,"correct":false,"confidence":1},{"trial_n":123,"min":85,"max":170,"target":"present","response":"present","rt":545.00000000006,"correct":true,"confidence":3},{"trial_n":124,"min":85,"max":170,"target":"present","response":"present","rt":524,"correct":true,"confidence":5},{"trial_n":125,"min":86,"max":169,"target":"present","response":"present","rt":865,"correct":true,"confidence":4},{"trial_n":126,"min":86,"max":169,"target":"present","response":"present","rt":677,"correct":true,"confidence":5},{"trial_n":127,"min":87,"max":168,"target":"absent","response":"absent","rt":1231,"correct":true,"confidence":2},{"trial_n":128,"min":87,"max":168,"target":"present","response":"present","rt":333,"correct":true,"confidence":5},{"trial_n":129,"min":88,"max":167,"target":"present","response":"absent","rt":1516.0000000001,"correct":false,"confidence":1},{"trial_n":130,"min":87,"max":168,"target":"absent","response":"absent","rt":1306,"correct":true,"confidence":1},{"trial_n":131,"min":87,"max":168,"target":"absent","response":"present","rt":391,"correct":false,"confidence":5},{"trial_n":132,"min":86,"max":169,"target":"absent","response":"absent","rt":2142,"correct":true,"confidence":1},{"trial_n":133,"min":86,"max":169,"target":"present","response":"present","rt":287,"correct":true,"confidence":5},{"trial_n":134,"min":87,"max":168,"target":"present","response":"present","rt":656,"correct":true,"confidence":5},{"trial_n":135,"min":87,"max":168,"target":"absent","response":"absent","rt":1976,"correct":true,"confidence":1},{"trial_n":136,"min":88,"max":167,"target":"present","response":"present","rt":312,"correct":true,"confidence":4},{"trial_n":137,"min":88,"max":167,"target":"present","response":"present","rt":591,"correct":true,"confidence":5},{"trial_n":138,"min":89,"max":166,"target":"absent","response":"absent","rt":1402.0000000001,"correct":true,"confidence":3},{"trial_n":139,"min":89,"max":166,"target":"present","response":"present","rt":1199.9999999999,"correct":true,"confidence":3},{"trial_n":140,"min":90,"max":165,"target":"absent","response":"absent","rt":779.99999999994,"correct":true,"confidence":3}]