[{"trial_n":1,"span":8,"encoder":"51780326","distractor":"51780356","target":"present","response":"present","rt":"7266.299999997","correct":true,"confidence":-1},{"trial_n":2,"span":8,"encoder":"90036345","distractor":"92036345","target":"present","response":"absent","rt":"9241.5","correct":false,"confidence":-1},{"trial_n":3,"span":6,"encoder":"577402","distractor":"577802","target":"absent","response":"present","rt":"1553.099999994","correct":false,"confidence":-1},{"trial_n":4,"span":4,"encoder":"2064","distractor":"2054","target":"absent","response":"absent","rt":"2106.900000006","correct":true,"confidence":-1},{"trial_n":5,"span":4,"encoder":"4005","distractor":"4015","target":"present","response":"present","rt":"1238.200000003","correct":true,"confidence":-1},{"trial_n":6,"span":6,"encoder":"925007","distractor":"955007","target":"present","response":"present","rt":"1073.599999994","correct":true,"confidence":-1},{"trial_n":7,"span":6,"encoder":"193198","distractor":"793198","target":"absent","response":"present","rt":"1086","correct":false,"confidence":-1},{"trial_n":8,"span":4,"encoder":"6340","distractor":"6310","target":"present","response":"absent","rt":"989.70000000298","correct":false,"confidence":-1},{"trial_n":9,"span":2,"encoder":"75","distractor":"45","target":"present","response":"present","rt":"4110.900000006","correct":true,"confidence":-1},{"trial_n":10,"span":2,"encoder":"16","distractor":"18","target":"present","response":"present","rt":"950.79999999702","correct":true,"confidence":-1},{"trial_n":11,"span":4,"encoder":"8253","distractor":"8254","target":"present","response":"present","rt":"1441.6999999881","correct":true,"confidence":-1},{"trial_n":12,"span":4,"encoder":"4906","distractor":"4706","target":"present","response":"present","rt":"3188.900000006","correct":true,"confidence":-1},{"trial_n":13,"span":5,"encoder":"12109","distractor":"14109","target":"absent","response":"present","rt":"1458.299999997","correct":false,"confidence":-1},{"trial_n":14,"span":4,"encoder":"6377","distractor":"3377","target":"present","response":"absent","rt":"924.60000000894","correct":false,"confidence":-1},{"trial_n":15,"span":3,"encoder":"691","distractor":"696","target":"present","response":"present","rt":"906.70000000298","correct":true,"confidence":-1},{"trial_n":16,"span":3,"encoder":"949","distractor":"969","target":"absent","response":"present","rt":"790.89999999106","correct":false,"confidence":-1},{"trial_n":17,"span":2,"encoder":"58","distractor":"50","target":"absent","response":"absent","rt":"1677.5","correct":true,"confidence":-1},{"trial_n":18,"span":2,"encoder":"63","distractor":"03","target":"present","response":"present","rt":"1120.8999999911","correct":true,"confidence":-1},{"trial_n":19,"span":3,"encoder":"800","distractor":"810","target":"present","response":"present","rt":"804.79999999702","correct":true,"confidence":-1},{"trial_n":20,"span":3,"encoder":"645","distractor":"615","target":"present","response":"present","rt":"1150.3999999911","correct":true,"confidence":-1},{"trial_n":21,"span":4,"encoder":"3954","distractor":"3955","target":"absent","response":"absent","rt":"1902","correct":true,"confidence":5},{"trial_n":22,"span":4,"encoder":"9244","distractor":"9254","target":"present","response":"present","rt":"1281.299999997","correct":true,"confidence":4},{"trial_n":23,"span":5,"encoder":"50777","distractor":"50775","target":"absent","response":"absent","rt":"1864.299999997","correct":true,"confidence":5},{"trial_n":24,"span":5,"encoder":"40243","distractor":"60243","target":"present","response":"present","rt":"2744.1000000089","correct":true,"confidence":4},{"trial_n":25,"span":6,"encoder":"544593","distractor":"544583","target":"absent","response":"absent","rt":"2132.1000000089","correct":true,"confidence":5},{"trial_n":26,"span":6,"encoder":"170914","distractor":"177914","target":"absent","response":"present","rt":"2963.700000003","correct":false,"confidence":4},{"trial_n":27,"span":5,"encoder":"09204","distractor":"09214","target":"present","response":"present","rt":"2471","correct":true,"confidence":4},{"trial_n":28,"span":5,"encoder":"30648","distractor":"30643","target":"absent","response":"present","rt":"3227.1000000089","correct":false,"confidence":4},{"trial_n":29,"span":4,"encoder":"7821","distractor":"7826","target":"absent","response":"absent","rt":"2012.299999997","correct":true,"confidence":5},{"trial_n":30,"span":4,"encoder":"4309","distractor":"4909","target":"absent","response":"absent","rt":"1697.5","correct":true,"confidence":5},{"trial_n":31,"span":5,"encoder":"26874","distractor":"26674","target":"absent","response":"absent","rt":"2075.700000003","correct":true,"confidence":4},{"trial_n":32,"span":5,"encoder":"87586","distractor":"83586","target":"present","response":"present","rt":"3463","correct":true,"confidence":3},{"trial_n":33,"span":6,"encoder":"389966","distractor":"389967","target":"absent","response":"absent","rt":"2888","correct":true,"confidence":5},{"trial_n":34,"span":6,"encoder":"376258","distractor":"386258","target":"present","response":"present","rt":"2675.1000000089","correct":true,"confidence":4},{"trial_n":35,"span":7,"encoder":"5610524","distractor":"5010524","target":"present","response":"present","rt":"4217.900000006","correct":true,"confidence":4},{"trial_n":36,"span":7,"encoder":"3693403","distractor":"3694403","target":"absent","response":"absent","rt":"2455.5","correct":true,"confidence":4},{"trial_n":37,"span":8,"encoder":"28872482","distractor":"28872462","target":"absent","response":"present","rt":"3212.900000006","correct":false,"confidence":3},{"trial_n":38,"span":7,"encoder":"4332073","distractor":"4332873","target":"absent","response":"present","rt":"4771.799999997","correct":false,"confidence":4},{"trial_n":39,"span":6,"encoder":"921530","distractor":"928530","target":"absent","response":"absent","rt":"2911.200000003","correct":true,"confidence":4},{"trial_n":40,"span":6,"encoder":"442337","distractor":"442237","target":"present","response":"present","rt":"7796.599999994","correct":true,"confidence":4},{"trial_n":41,"span":7,"encoder":"4176859","distractor":"4176559","target":"present","response":"present","rt":"3003.799999997","correct":true,"confidence":4},{"trial_n":42,"span":7,"encoder":"3770837","distractor":"3770807","target":"absent","response":"present","rt":"2451.700000003","correct":false,"confidence":4},{"trial_n":43,"span":6,"encoder":"660458","distractor":"660958","target":"present","response":"present","rt":"3351.200000003","correct":true,"confidence":3},{"trial_n":44,"span":6,"encoder":"111897","distractor":"411897","target":"present","response":"present","rt":"1806.1999999881","correct":true,"confidence":5},{"trial_n":45,"span":7,"encoder":"4465145","distractor":"4455145","target":"absent","response":"absent","rt":"2123.1000000089","correct":true,"confidence":5},{"trial_n":46,"span":7,"encoder":"1175909","distractor":"1176909","target":"present","response":"present","rt":"3766.599999994","correct":true,"confidence":4},{"trial_n":47,"span":8,"encoder":"38810131","distractor":"38816131","target":"absent","response":"absent","rt":"5328.299999997","correct":true,"confidence":4},{"trial_n":48,"span":8,"encoder":"22259999","distractor":"29259999","target":"present","response":"absent","rt":"2457.799999997","correct":false,"confidence":5},{"trial_n":49,"span":7,"encoder":"5609274","distractor":"5609276","target":"absent","response":"present","rt":"10524.199999988","correct":false,"confidence":3},{"trial_n":50,"span":6,"encoder":"438133","distractor":"438143","target":"present","response":"present","rt":"3347","correct":true,"confidence":4},{"trial_n":51,"span":6,"encoder":"865594","distractor":"885594","target":"absent","response":"absent","rt":"1806.400000006","correct":true,"confidence":5},{"trial_n":52,"span":7,"encoder":"4509181","distractor":"4809181","target":"present","response":"present","rt":"1809.299999997","correct":true,"confidence":3},{"trial_n":53,"span":7,"encoder":"6904276","distractor":"6904271","target":"present","response":"absent","rt":"15408.399999991","correct":false,"confidence":3},{"trial_n":54,"span":6,"encoder":"867646","distractor":"869646","target":"absent","response":"present","rt":"3990.5","correct":false,"confidence":4},{"trial_n":55,"span":5,"encoder":"56992","distractor":"58992","target":"absent","response":"absent","rt":"1903.200000003","correct":true,"confidence":5},{"trial_n":56,"span":5,"encoder":"67462","distractor":"67862","target":"absent","response":"absent","rt":"1906.8999999911","correct":true,"confidence":5},{"trial_n":57,"span":6,"encoder":"667782","distractor":"667784","target":"absent","response":"absent","rt":"3423.3999999911","correct":true,"confidence":5},{"trial_n":58,"span":6,"encoder":"982826","distractor":"985826","target":"present","response":"present","rt":"2537.200000003","correct":true,"confidence":4},{"trial_n":59,"span":7,"encoder":"3330071","distractor":"3330371","target":"present","response":"present","rt":"2968.700000003","correct":true,"confidence":5},{"trial_n":60,"span":7,"encoder":"7549378","distractor":"5549378","target":"absent","response":"absent","rt":"1973.400000006","correct":true,"confidence":3},{"trial_n":61,"span":8,"encoder":"17216194","distractor":"19216194","target":"present","response":"present","rt":"1744.3000000119","correct":true,"confidence":3},{"trial_n":62,"span":8,"encoder":"65245750","distractor":"65265750","target":"present","response":"present","rt":"2274.299999997","correct":true,"confidence":4},{"trial_n":63,"span":9,"encoder":"899589606","distractor":"896589606","target":"absent","response":"absent","rt":"8121","correct":true,"confidence":4},{"trial_n":64,"span":9,"encoder":"385523079","distractor":"385523779","target":"absent","response":"absent","rt":"2680.700000003","correct":true,"confidence":4},{"trial_n":65,"span":10,"encoder":"9822048729","distractor":"9822948729","target":"absent","response":"present","rt":"4106","correct":false,"confidence":4},{"trial_n":66,"span":9,"encoder":"368103031","distractor":"368103431","target":"present","response":"absent","rt":"13247.699999988","correct":false,"confidence":4},{"trial_n":67,"span":8,"encoder":"09773447","distractor":"29773447","target":"absent","response":"present","rt":"4254","correct":false,"confidence":4},{"trial_n":68,"span":7,"encoder":"8011177","distractor":"6011177","target":"absent","response":"present","rt":"2364.299999997","correct":false,"confidence":4},{"trial_n":69,"span":6,"encoder":"477704","distractor":"477700","target":"present","response":"absent","rt":"2508.599999994","correct":false,"confidence":4},{"trial_n":70,"span":5,"encoder":"37377","distractor":"30377","target":"present","response":"present","rt":"3225.6000000089","correct":true,"confidence":5},{"trial_n":71,"span":8,"encoder":"82004114","distractor":"82006114","target":"present","response":"present","rt":"7098.6000000089","correct":true,"confidence":-1},{"trial_n":72,"span":8,"encoder":"88726714","distractor":"38726714","target":"present","response":"absent","rt":"1922.299999997","correct":false,"confidence":-1},{"trial_n":73,"span":7,"encoder":"9381372","distractor":"9361372","target":"absent","response":"absent","rt":"3437.700000003","correct":true,"confidence":-1},{"trial_n":74,"span":7,"encoder":"1554560","distractor":"1054560","target":"absent","response":"absent","rt":"3508.200000003","correct":true,"confidence":-1},{"trial_n":75,"span":8,"encoder":"06614218","distractor":"06614288","target":"present","response":"present","rt":"5098","correct":true,"confidence":-1},{"trial_n":76,"span":8,"encoder":"16909130","distractor":"16909134","target":"present","response":"present","rt":"2601.8000000119","correct":true,"confidence":-1},{"trial_n":77,"span":9,"encoder":"708128109","distractor":"708124109","target":"absent","response":"absent","rt":"4342.700000003","correct":true,"confidence":-1},{"trial_n":78,"span":9,"encoder":"214480543","distractor":"214480343","target":"absent","response":"absent","rt":"8245.6000000089","correct":true,"confidence":-1},{"trial_n":79,"span":10,"encoder":"0992983665","distractor":"7992983665","target":"absent","response":"absent","rt":"6231.3999999911","correct":true,"confidence":-1},{"trial_n":80,"span":10,"encoder":"4046738635","distractor":"4046038635","target":"present","response":"absent","rt":"35474.600000009","correct":false,"confidence":-1},{"trial_n":81,"span":9,"encoder":"202135418","distractor":"292135418","target":"present","response":"present","rt":"4768.799999997","correct":true,"confidence":-1},{"trial_n":82,"span":9,"encoder":"890381476","distractor":"830381476","target":"absent","response":"present","rt":"1244.900000006","correct":false,"confidence":-1},{"trial_n":83,"span":8,"encoder":"12307606","distractor":"12307601","target":"absent","response":"absent","rt":"591.40000000596","correct":true,"confidence":-1},{"trial_n":84,"span":8,"encoder":"32193865","distractor":"32193875","target":"absent","response":"absent","rt":"982.90000000596","correct":true,"confidence":-1},{"trial_n":85,"span":9,"encoder":"620701090","distractor":"610701090","target":"absent","response":"present","rt":"3387.5","correct":false,"confidence":-1},{"trial_n":86,"span":8,"encoder":"03023943","distractor":"03023903","target":"absent","response":"absent","rt":"987.29999999702","correct":true,"confidence":-1},{"trial_n":87,"span":8,"encoder":"67887496","distractor":"67883496","target":"absent","response":"absent","rt":"364.20000000298","correct":true,"confidence":-1},{"trial_n":88,"span":9,"encoder":"169976721","distractor":"169976321","target":"present","response":"absent","rt":"979.79999999702","correct":false,"confidence":-1},{"trial_n":89,"span":8,"encoder":"07711091","distractor":"07761091","target":"present","response":"present","rt":"736.69999998808","correct":true,"confidence":-1},{"trial_n":90,"span":8,"encoder":"22996953","distractor":"22995953","target":"present","response":"present","rt":"421","correct":true,"confidence":-1},{"trial_n":91,"span":9,"encoder":"491533219","distractor":"495533219","target":"present","response":"present","rt":"5099","correct":true,"confidence":4},{"trial_n":92,"span":9,"encoder":"647282918","distractor":"647282718","target":"absent","response":"absent","rt":"7460.8000000119","correct":true,"confidence":4},{"trial_n":93,"span":10,"encoder":"4901685532","distractor":"4901682532","target":"present","response":"present","rt":"1485.099999994","correct":true,"confidence":3},{"trial_n":94,"span":10,"encoder":"6410724991","distractor":"6410724921","target":"absent","response":"absent","rt":"3016.599999994","correct":true,"confidence":5},{"trial_n":95,"span":11,"encoder":"90726686885","distractor":"90026686885","target":"present","response":"present","rt":"7874.400000006","correct":true,"confidence":4},{"trial_n":96,"span":11,"encoder":"33934233066","distractor":"33954233066","target":"present","response":"present","rt":"15773.799999997","correct":true,"confidence":4},{"trial_n":97,"span":12,"encoder":"073925182333","distractor":"078925182333","target":"present","response":"present","rt":"12224.200000003","correct":true,"confidence":4},{"trial_n":98,"span":12,"encoder":"241753154203","distractor":"246753154203","target":"present","response":"present","rt":"4223.700000003","correct":true,"confidence":4},{"trial_n":99,"span":13,"encoder":"6472859530510","distractor":"6472857530510","target":"absent","response":"present","rt":"19136.600000009","correct":false,"confidence":3},{"trial_n":100,"span":12,"encoder":"284491687162","distractor":"284691687162","target":"absent","response":"absent","rt":"10144.599999994","correct":true,"confidence":2},{"trial_n":101,"span":12,"encoder":"363932392706","distractor":"363932392703","target":"absent","response":"absent","rt":"3958.900000006","correct":true,"confidence":4},{"trial_n":102,"span":13,"encoder":"6498669003286","distractor":"6498669043286","target":"absent","response":"absent","rt":"3546.3999999911","correct":true,"confidence":5},{"trial_n":103,"span":13,"encoder":"3854072613501","distractor":"3454072613501","target":"present","response":"absent","rt":"6629.8000000119","correct":false,"confidence":4},{"trial_n":104,"span":12,"encoder":"159142654074","distractor":"159142624074","target":"present","response":"present","rt":"4809.200000003","correct":true,"confidence":3},{"trial_n":105,"span":12,"encoder":"612110865913","distractor":"612110835913","target":"present","response":"present","rt":"7361.599999994","correct":true,"confidence":4},{"trial_n":106,"span":13,"encoder":"4548813955073","distractor":"3548813955073","target":"present","response":"present","rt":"15092.700000003","correct":true,"confidence":4},{"trial_n":107,"span":13,"encoder":"0670637254223","distractor":"0670237254223","target":"present","response":"absent","rt":"5872.5","correct":false,"confidence":4},{"trial_n":108,"span":12,"encoder":"886865915439","distractor":"886865915469","target":"absent","response":"absent","rt":"7441.200000003","correct":true,"confidence":4},{"trial_n":109,"span":12,"encoder":"180436749031","distractor":"180936749031","target":"absent","response":"present","rt":"16909.700000003","correct":false,"confidence":2},{"trial_n":110,"span":11,"encoder":"14586608631","distractor":"14580608631","target":"present","response":"present","rt":"4316","correct":true,"confidence":4},{"trial_n":111,"span":11,"encoder":"93164628328","distractor":"93164828328","target":"absent","response":"absent","rt":"14488.200000003","correct":true,"confidence":4},{"trial_n":112,"span":12,"encoder":"444082780956","distractor":"444084780956","target":"present","response":"absent","rt":"8820","correct":false,"confidence":3},{"trial_n":113,"span":11,"encoder":"19368030934","distractor":"19368030984","target":"present","response":"present","rt":"6344.200000003","correct":true,"confidence":5},{"trial_n":114,"span":11,"encoder":"39557996297","distractor":"69557996297","target":"absent","response":"absent","rt":"15503.700000003","correct":true,"confidence":3},{"trial_n":115,"span":12,"encoder":"635620278933","distractor":"635520278933","target":"absent","response":"present","rt":"8234","correct":false,"confidence":4},{"trial_n":116,"span":11,"encoder":"89173534736","distractor":"89173634736","target":"present","response":"present","rt":"8225.700000003","correct":true,"confidence":4},{"trial_n":117,"span":11,"encoder":"42724782687","distractor":"42794782687","target":"absent","response":"present","rt":"6390.1999999881","correct":false,"confidence":3},{"trial_n":118,"span":10,"encoder":"3582468124","distractor":"3582468126","target":"absent","response":"absent","rt":"2589.5","correct":true,"confidence":4},{"trial_n":119,"span":10,"encoder":"7679517724","distractor":"7673517724","target":"absent","response":"present","rt":"6681.099999994","correct":false,"confidence":4},{"trial_n":120,"span":9,"encoder":"456028518","distractor":"456028516","target":"present","response":"absent","rt":"5162.799999997","correct":false,"confidence":4},{"trial_n":121,"span":8,"encoder":"30490908","distractor":"30490907","target":"absent","response":"present","rt":"10948.5","correct":false,"confidence":4},{"trial_n":122,"span":7,"encoder":"7963552","distractor":"7964552","target":"present","response":"absent","rt":"4097.400000006","correct":false,"confidence":4},{"trial_n":123,"span":6,"encoder":"127922","distractor":"127902","target":"present","response":"present","rt":"2515.700000003","correct":true,"confidence":4},{"trial_n":124,"span":6,"encoder":"122059","distractor":"122049","target":"absent","response":"absent","rt":"3437.5","correct":true,"confidence":4},{"trial_n":125,"span":7,"encoder":"4222544","distractor":"4922544","target":"present","response":"present","rt":"3564.700000003","correct":true,"confidence":5},{"trial_n":126,"span":7,"encoder":"1546911","distractor":"1546912","target":"absent","response":"absent","rt":"1730.099999994","correct":true,"confidence":5},{"trial_n":127,"span":8,"encoder":"01105827","distractor":"01105829","target":"present","response":"absent","rt":"4367.8999999911","correct":false,"confidence":4},{"trial_n":128,"span":7,"encoder":"2098800","distractor":"2498800","target":"absent","response":"present","rt":"3174.8999999911","correct":false,"confidence":4},{"trial_n":129,"span":6,"encoder":"302889","distractor":"302289","target":"present","response":"absent","rt":"3270.200000003","correct":false,"confidence":4},{"trial_n":130,"span":5,"encoder":"10003","distractor":"10803","target":"absent","response":"present","rt":"2142.5","correct":false,"confidence":4},{"trial_n":131,"span":4,"encoder":"9917","distractor":"9911","target":"absent","response":"absent","rt":"1711.599999994","correct":true,"confidence":4},{"trial_n":132,"span":4,"encoder":"6669","distractor":"6689","target":"absent","response":"absent","rt":"2088.900000006","correct":true,"confidence":4},{"trial_n":133,"span":5,"encoder":"26717","distractor":"26117","target":"present","response":"present","rt":"2640.6000000089","correct":true,"confidence":4},{"trial_n":134,"span":5,"encoder":"28769","distractor":"28763","target":"present","response":"present","rt":"3479.8999999911","correct":true,"confidence":4},{"trial_n":135,"span":6,"encoder":"716577","distractor":"716677","target":"present","response":"present","rt":"2378.8999999911","correct":true,"confidence":5},{"trial_n":136,"span":6,"encoder":"007570","distractor":"000570","target":"present","response":"present","rt":"2596.200000003","correct":true,"confidence":4},{"trial_n":137,"span":7,"encoder":"6029577","distractor":"6019577","target":"absent","response":"present","rt":"3913.799999997","correct":false,"confidence":4},{"trial_n":138,"span":6,"encoder":"943106","distractor":"843106","target":"present","response":"absent","rt":"2143.5","correct":false,"confidence":3},{"trial_n":139,"span":5,"encoder":"55275","distractor":"53275","target":"absent","response":"absent","rt":"5292","correct":true,"confidence":4},{"trial_n":140,"span":5,"encoder":"34904","distractor":"34903","target":"present","response":"present","rt":"3183.200000003","correct":true,"confidence":4}]