[{"trial_n":1,"min":25,"max":230,"target":"present","response":"present","rt":15251.4,"correct":true,"confidence":-1},{"trial_n":2,"min":25,"max":230,"target":"present","response":"present","rt":6780.9000000004,"correct":true,"confidence":-1},{"trial_n":3,"min":41,"max":214,"target":"absent","response":"absent","rt":4549.3999999985,"correct":true,"confidence":-1},{"trial_n":4,"min":41,"max":214,"target":"absent","response":"absent","rt":1698.0999999996,"correct":true,"confidence":-1},{"trial_n":5,"min":57,"max":198,"target":"present","response":"absent","rt":1288.3000000007,"correct":false,"confidence":-1},{"trial_n":6,"min":41,"max":214,"target":"present","response":"absent","rt":3374.2999999989,"correct":false,"confidence":-1},{"trial_n":7,"min":25,"max":230,"target":"present","response":"present","rt":984.69999999925,"correct":true,"confidence":-1},{"trial_n":8,"min":25,"max":230,"target":"present","response":"present","rt":771.90000000037,"correct":true,"confidence":-1},{"trial_n":9,"min":41,"max":214,"target":"present","response":"present","rt":716.70000000112,"correct":true,"confidence":-1},{"trial_n":10,"min":41,"max":214,"target":"present","response":"present","rt":648.09999999963,"correct":true,"confidence":-1},{"trial_n":11,"min":49,"max":206,"target":"absent","response":"absent","rt":902.10000000149,"correct":true,"confidence":-1},{"trial_n":12,"min":49,"max":206,"target":"absent","response":"absent","rt":802.80000000075,"correct":true,"confidence":-1},{"trial_n":13,"min":57,"max":198,"target":"absent","response":"absent","rt":1030.5,"correct":true,"confidence":-1},{"trial_n":14,"min":57,"max":198,"target":"present","response":"present","rt":1094.5999999996,"correct":true,"confidence":-1},{"trial_n":15,"min":65,"max":190,"target":"absent","response":"absent","rt":1136.5999999996,"correct":true,"confidence":-1},{"trial_n":16,"min":65,"max":190,"target":"present","response":"present","rt":1209.7000000011,"correct":true,"confidence":-1},{"trial_n":17,"min":73,"max":182,"target":"present","response":"present","rt":2034.7999999989,"correct":true,"confidence":-1},{"trial_n":18,"min":73,"max":182,"target":"absent","response":"present","rt":1695.8000000007,"correct":false,"confidence":-1},{"trial_n":19,"min":65,"max":190,"target":"absent","response":"absent","rt":790.09999999963,"correct":true,"confidence":-1},{"trial_n":20,"min":65,"max":190,"target":"absent","response":"absent","rt":829.30000000075,"correct":true,"confidence":-1},{"trial_n":21,"min":69,"max":186,"target":"absent","response":"present","rt":1184.9000000004,"correct":false,"confidence":3},{"trial_n":22,"min":65,"max":190,"target":"present","response":"present","rt":914,"correct":true,"confidence":5},{"trial_n":23,"min":65,"max":190,"target":"absent","response":"present","rt":2157,"correct":false,"confidence":4},{"trial_n":24,"min":61,"max":194,"target":"absent","response":"absent","rt":1060.2999999989,"correct":true,"confidence":4},{"trial_n":25,"min":61,"max":194,"target":"present","response":"present","rt":1122,"correct":true,"confidence":5},{"trial_n":26,"min":65,"max":190,"target":"present","response":"present","rt":1101.9000000004,"correct":true,"confidence":5},{"trial_n":27,"min":65,"max":190,"target":"present","response":"present","rt":1099.9000000004,"correct":true,"confidence":5},{"trial_n":28,"min":69,"max":186,"target":"absent","response":"absent","rt":1255.5,"correct":true,"confidence":4},{"trial_n":29,"min":69,"max":186,"target":"present","response":"present","rt":985,"correct":true,"confidence":5},{"trial_n":30,"min":73,"max":182,"target":"absent","response":"absent","rt":1656.7000000011,"correct":true,"confidence":3},{"trial_n":31,"min":73,"max":182,"target":"present","response":"present","rt":907,"correct":true,"confidence":4},{"trial_n":32,"min":75,"max":180,"target":"present","response":"present","rt":823.60000000149,"correct":true,"confidence":5},{"trial_n":33,"min":75,"max":180,"target":"absent","response":"absent","rt":1166.8999999985,"correct":true,"confidence":4},{"trial_n":34,"min":77,"max":178,"target":"present","response":"absent","rt":1575.3000000007,"correct":false,"confidence":3},{"trial_n":35,"min":75,"max":180,"target":"present","response":"absent","rt":1221.4000000004,"correct":false,"confidence":4},{"trial_n":36,"min":73,"max":182,"target":"absent","response":"present","rt":1486.5999999996,"correct":false,"confidence":2},{"trial_n":37,"min":71,"max":184,"target":"absent","response":"present","rt":1260.9000000004,"correct":false,"confidence":4},{"trial_n":38,"min":69,"max":186,"target":"absent","response":"absent","rt":1131.9000000004,"correct":true,"confidence":5},{"trial_n":39,"min":69,"max":186,"target":"absent","response":"absent","rt":877.39999999851,"correct":true,"confidence":5},{"trial_n":40,"min":71,"max":184,"target":"absent","response":"present","rt":2476.1999999993,"correct":false,"confidence":3},{"trial_n":41,"min":70,"max":185,"target":"present","response":"present","rt":1008.6999999993,"correct":true,"confidence":4},{"trial_n":42,"min":70,"max":185,"target":"absent","response":"absent","rt":1416,"correct":true,"confidence":4},{"trial_n":43,"min":71,"max":184,"target":"present","response":"present","rt":655.80000000075,"correct":true,"confidence":5},{"trial_n":44,"min":71,"max":184,"target":"absent","response":"absent","rt":883.20000000112,"correct":true,"confidence":5},{"trial_n":45,"min":72,"max":183,"target":"present","response":"present","rt":858.5,"correct":true,"confidence":4},{"trial_n":46,"min":72,"max":183,"target":"present","response":"present","rt":1617.5,"correct":true,"confidence":4},{"trial_n":47,"min":73,"max":182,"target":"present","response":"present","rt":925.69999999925,"correct":true,"confidence":3},{"trial_n":48,"min":73,"max":182,"target":"present","response":"present","rt":722.69999999925,"correct":true,"confidence":3},{"trial_n":49,"min":74,"max":181,"target":"absent","response":"absent","rt":974.90000000037,"correct":true,"confidence":4},{"trial_n":50,"min":74,"max":181,"target":"absent","response":"absent","rt":2054.3000000007,"correct":true,"confidence":4},{"trial_n":51,"min":75,"max":180,"target":"present","response":"present","rt":740,"correct":true,"confidence":4},{"trial_n":52,"min":75,"max":180,"target":"absent","response":"present","rt":1009.9000000004,"correct":false,"confidence":4},{"trial_n":53,"min":74,"max":181,"target":"absent","response":"absent","rt":1386.7000000011,"correct":true,"confidence":4},{"trial_n":54,"min":74,"max":181,"target":"present","response":"present","rt":1010.1999999993,"correct":true,"confidence":4},{"trial_n":55,"min":75,"max":180,"target":"absent","response":"absent","rt":1301,"correct":true,"confidence":3},{"trial_n":56,"min":75,"max":180,"target":"present","response":"present","rt":944.40000000037,"correct":true,"confidence":4},{"trial_n":57,"min":76,"max":179,"target":"present","response":"present","rt":762.10000000149,"correct":true,"confidence":4},{"trial_n":58,"min":76,"max":179,"target":"present","response":"present","rt":1052.9000000004,"correct":true,"confidence":4},{"trial_n":59,"min":77,"max":178,"target":"absent","response":"absent","rt":877.20000000112,"correct":true,"confidence":4},{"trial_n":60,"min":77,"max":178,"target":"absent","response":"absent","rt":1615.3000000007,"correct":true,"confidence":4},{"trial_n":61,"min":78,"max":177,"target":"present","response":"present","rt":2878.9000000004,"correct":true,"confidence":3},{"trial_n":62,"min":78,"max":177,"target":"present","response":"present","rt":1110.8000000007,"correct":true,"confidence":4},{"trial_n":63,"min":79,"max":176,"target":"absent","response":"absent","rt":1052,"correct":true,"confidence":4},{"trial_n":64,"min":79,"max":176,"target":"absent","response":"present","rt":792.40000000037,"correct":false,"confidence":3},{"trial_n":65,"min":78,"max":177,"target":"present","response":"present","rt":686.69999999925,"correct":true,"confidence":5},{"trial_n":66,"min":78,"max":177,"target":"present","response":"present","rt":782.69999999925,"correct":true,"confidence":5},{"trial_n":67,"min":79,"max":176,"target":"absent","response":"present","rt":2526.5999999996,"correct":false,"confidence":3},{"trial_n":68,"min":78,"max":177,"target":"absent","response":"present","rt":3443,"correct":false,"confidence":3},{"trial_n":69,"min":77,"max":178,"target":"absent","response":"present","rt":1359.0999999996,"correct":false,"confidence":3},{"trial_n":70,"min":76,"max":179,"target":"present","response":"present","rt":837.89999999851,"correct":true,"confidence":5},{"trial_n":71,"min":41,"max":214,"target":"present","response":"present","rt":1567.8000000007,"correct":true,"confidence":-1},{"trial_n":72,"min":41,"max":214,"target":"present","response":"present","rt":860.20000000112,"correct":true,"confidence":-1},{"trial_n":73,"min":57,"max":198,"target":"absent","response":"absent","rt":1170.5,"correct":true,"confidence":-1},{"trial_n":74,"min":57,"max":198,"target":"absent","response":"present","rt":1079.9000000004,"correct":false,"confidence":-1},{"trial_n":75,"min":41,"max":214,"target":"present","response":"present","rt":1004.4000000004,"correct":true,"confidence":-1},{"trial_n":76,"min":41,"max":214,"target":"present","response":"present","rt":1465.7000000011,"correct":true,"confidence":-1},{"trial_n":77,"min":57,"max":198,"target":"absent","response":"absent","rt":1074.7999999989,"correct":true,"confidence":-1},{"trial_n":78,"min":57,"max":198,"target":"present","response":"present","rt":651.90000000037,"correct":true,"confidence":-1},{"trial_n":79,"min":73,"max":182,"target":"absent","response":"absent","rt":839.09999999963,"correct":true,"confidence":-1},{"trial_n":80,"min":73,"max":182,"target":"present","response":"present","rt":943.70000000112,"correct":true,"confidence":-1},{"trial_n":81,"min":81,"max":174,"target":"present","response":"present","rt":863.09999999963,"correct":true,"confidence":-1},{"trial_n":82,"min":81,"max":174,"target":"absent","response":"absent","rt":1025,"correct":true,"confidence":-1},{"trial_n":83,"min":89,"max":166,"target":"absent","response":"absent","rt":1945.9000000004,"correct":true,"confidence":-1},{"trial_n":84,"min":89,"max":166,"target":"present","response":"present","rt":4400.5999999996,"correct":true,"confidence":-1},{"trial_n":85,"min":97,"max":158,"target":"absent","response":"present","rt":980.69999999925,"correct":false,"confidence":-1},{"trial_n":86,"min":89,"max":166,"target":"present","response":"absent","rt":1177.6999999993,"correct":false,"confidence":-1},{"trial_n":87,"min":81,"max":174,"target":"present","response":"present","rt":789.90000000037,"correct":true,"confidence":-1},{"trial_n":88,"min":81,"max":174,"target":"absent","response":"present","rt":792.69999999925,"correct":false,"confidence":-1},{"trial_n":89,"min":73,"max":182,"target":"absent","response":"absent","rt":1086,"correct":true,"confidence":-1},{"trial_n":90,"min":73,"max":182,"target":"absent","response":"absent","rt":771.70000000112,"correct":true,"confidence":-1},{"trial_n":91,"min":77,"max":178,"target":"absent","response":"present","rt":1280.8000000007,"correct":false,"confidence":2},{"trial_n":92,"min":73,"max":182,"target":"absent","response":"absent","rt":1432.5,"correct":true,"confidence":5},{"trial_n":93,"min":73,"max":182,"target":"present","response":"present","rt":1206.8000000007,"correct":true,"confidence":5},{"trial_n":94,"min":77,"max":178,"target":"absent","response":"present","rt":1836.3999999985,"correct":false,"confidence":3},{"trial_n":95,"min":73,"max":182,"target":"absent","response":"absent","rt":1081.7000000011,"correct":true,"confidence":5},{"trial_n":96,"min":73,"max":182,"target":"present","response":"present","rt":524.59999999963,"correct":true,"confidence":5},{"trial_n":97,"min":77,"max":178,"target":"present","response":"present","rt":835.20000000112,"correct":true,"confidence":5},{"trial_n":98,"min":77,"max":178,"target":"absent","response":"present","rt":1140.0999999996,"correct":false,"confidence":5},{"trial_n":99,"min":73,"max":182,"target":"present","response":"present","rt":480.5,"correct":true,"confidence":5},{"trial_n":100,"min":73,"max":182,"target":"present","response":"present","rt":687,"correct":true,"confidence":5},{"trial_n":101,"min":75,"max":180,"target":"absent","response":"absent","rt":919.19999999925,"correct":true,"confidence":5},{"trial_n":102,"min":75,"max":180,"target":"present","response":"present","rt":1113.5999999996,"correct":true,"confidence":5},{"trial_n":103,"min":77,"max":178,"target":"present","response":"present","rt":835.20000000112,"correct":true,"confidence":5},{"trial_n":104,"min":77,"max":178,"target":"present","response":"present","rt":1452.5,"correct":true,"confidence":3},{"trial_n":105,"min":79,"max":176,"target":"present","response":"present","rt":1042.5,"correct":true,"confidence":4},{"trial_n":106,"min":79,"max":176,"target":"absent","response":"absent","rt":1702.9000000004,"correct":true,"confidence":4},{"trial_n":107,"min":81,"max":174,"target":"absent","response":"present","rt":1470.5,"correct":false,"confidence":2},{"trial_n":108,"min":79,"max":176,"target":"present","response":"present","rt":2024,"correct":true,"confidence":2},{"trial_n":109,"min":79,"max":176,"target":"absent","response":"absent","rt":1053.4000000004,"correct":true,"confidence":3},{"trial_n":110,"min":81,"max":174,"target":"present","response":"present","rt":1083.9000000004,"correct":true,"confidence":4},{"trial_n":111,"min":81,"max":174,"target":"present","response":"present","rt":835.29999999888,"correct":true,"confidence":4},{"trial_n":112,"min":82,"max":173,"target":"present","response":"present","rt":552.39999999851,"correct":true,"confidence":3},{"trial_n":113,"min":82,"max":173,"target":"present","response":"present","rt":638,"correct":true,"confidence":5},{"trial_n":114,"min":83,"max":172,"target":"present","response":"present","rt":2736.0999999996,"correct":true,"confidence":4},{"trial_n":115,"min":83,"max":172,"target":"present","response":"present","rt":1001.7000000011,"correct":true,"confidence":3},{"trial_n":116,"min":84,"max":171,"target":"absent","response":"absent","rt":1749.3000000007,"correct":true,"confidence":3},{"trial_n":117,"min":84,"max":171,"target":"present","response":"present","rt":1340.5999999996,"correct":true,"confidence":3},{"trial_n":118,"min":85,"max":170,"target":"absent","response":"present","rt":1070.8999999985,"correct":false,"confidence":4},{"trial_n":119,"min":84,"max":171,"target":"present","response":"present","rt":1846.5999999996,"correct":true,"confidence":3},{"trial_n":120,"min":84,"max":171,"target":"absent","response":"absent","rt":1424.1999999993,"correct":true,"confidence":3},{"trial_n":121,"min":85,"max":170,"target":"absent","response":"present","rt":1833,"correct":false,"confidence":3},{"trial_n":122,"min":84,"max":171,"target":"absent","response":"present","rt":1306.5,"correct":false,"confidence":2},{"trial_n":123,"min":83,"max":172,"target":"present","response":"present","rt":1039.7999999989,"correct":true,"confidence":2},{"trial_n":124,"min":83,"max":172,"target":"absent","response":"absent","rt":1236.8000000007,"correct":true,"confidence":3},{"trial_n":125,"min":84,"max":171,"target":"present","response":"present","rt":2694.8000000007,"correct":true,"confidence":4},{"trial_n":126,"min":84,"max":171,"target":"absent","response":"present","rt":1156.3000000007,"correct":false,"confidence":2},{"trial_n":127,"min":83,"max":172,"target":"absent","response":"present","rt":1266.4000000004,"correct":false,"confidence":3},{"trial_n":128,"min":82,"max":173,"target":"absent","response":"absent","rt":1160.4000000004,"correct":true,"confidence":4},{"trial_n":129,"min":82,"max":173,"target":"absent","response":"present","rt":1171.0999999996,"correct":false,"confidence":4},{"trial_n":130,"min":81,"max":174,"target":"present","response":"present","rt":844.19999999925,"correct":true,"confidence":4},{"trial_n":131,"min":81,"max":174,"target":"absent","response":"absent","rt":1377.4000000004,"correct":true,"confidence":4},{"trial_n":132,"min":82,"max":173,"target":"absent","response":"present","rt":959.30000000075,"correct":false,"confidence":4},{"trial_n":133,"min":81,"max":174,"target":"present","response":"present","rt":874.5,"correct":true,"confidence":4},{"trial_n":134,"min":81,"max":174,"target":"present","response":"present","rt":1024.4000000004,"correct":true,"confidence":4},{"trial_n":135,"min":82,"max":173,"target":"absent","response":"present","rt":2211.2999999989,"correct":false,"confidence":3},{"trial_n":136,"min":81,"max":174,"target":"absent","response":"present","rt":1435.1999999993,"correct":false,"confidence":3},{"trial_n":137,"min":80,"max":175,"target":"absent","response":"absent","rt":1344.8999999985,"correct":true,"confidence":5},{"trial_n":138,"min":80,"max":175,"target":"present","response":"present","rt":924,"correct":true,"confidence":5},{"trial_n":139,"min":81,"max":174,"target":"present","response":"present","rt":955.09999999963,"correct":true,"confidence":5},{"trial_n":140,"min":81,"max":174,"target":"present","response":"present","rt":814.69999999925,"correct":true,"confidence":5}]