[{"trial_n":1,"span":8,"encoder":"92141244","distractor":"62141244","target":"present","response":"present","rt":"2806.6999999285","correct":true,"confidence":-1},{"trial_n":2,"span":8,"encoder":"28256335","distractor":"28256935","target":"present","response":"absent","rt":"2966.5","correct":false,"confidence":-1},{"trial_n":3,"span":6,"encoder":"776870","distractor":"776270","target":"absent","response":"present","rt":"1150","correct":false,"confidence":-1},{"trial_n":4,"span":4,"encoder":"3230","distractor":"8230","target":"absent","response":"absent","rt":"1659.2999999523","correct":true,"confidence":-1},{"trial_n":5,"span":4,"encoder":"4263","distractor":"3263","target":"present","response":"present","rt":"1319.8999999762","correct":true,"confidence":-1},{"trial_n":6,"span":6,"encoder":"617474","distractor":"616474","target":"present","response":"present","rt":"3312.2999999523","correct":true,"confidence":-1},{"trial_n":7,"span":6,"encoder":"313695","distractor":"313694","target":"present","response":"present","rt":"2384.3999999762","correct":true,"confidence":-1},{"trial_n":8,"span":8,"encoder":"76376214","distractor":"76376414","target":"absent","response":"absent","rt":"3207.7999999523","correct":true,"confidence":-1},{"trial_n":9,"span":8,"encoder":"79154350","distractor":"79154358","target":"present","response":"present","rt":"12926.299999952","correct":true,"confidence":-1},{"trial_n":10,"span":10,"encoder":"1666690374","distractor":"1666694374","target":"absent","response":"absent","rt":"4055.9000000954","correct":true,"confidence":-1},{"trial_n":11,"span":10,"encoder":"9734193863","distractor":"9734163863","target":"absent","response":"absent","rt":"4336.5","correct":true,"confidence":-1},{"trial_n":12,"span":11,"encoder":"24770465417","distractor":"24770465411","target":"absent","response":"present","rt":"4760.3999999762","correct":false,"confidence":-1},{"trial_n":13,"span":10,"encoder":"8155546320","distractor":"8155546350","target":"present","response":"present","rt":"2353.3000000715","correct":true,"confidence":-1},{"trial_n":14,"span":10,"encoder":"3513548505","distractor":"3519548505","target":"present","response":"absent","rt":"2085.2000000477","correct":false,"confidence":-1},{"trial_n":15,"span":9,"encoder":"339103472","distractor":"335103472","target":"absent","response":"present","rt":"1223.5999999046","correct":false,"confidence":-1},{"trial_n":16,"span":8,"encoder":"76471369","distractor":"70471369","target":"present","response":"present","rt":"1503","correct":true,"confidence":-1},{"trial_n":17,"span":8,"encoder":"62428801","distractor":"12428801","target":"present","response":"present","rt":"2234.6999999285","correct":true,"confidence":-1},{"trial_n":18,"span":9,"encoder":"585797595","distractor":"285797595","target":"absent","response":"absent","rt":"5143.1000000238","correct":true,"confidence":-1},{"trial_n":19,"span":9,"encoder":"087205673","distractor":"087208673","target":"present","response":"present","rt":"1650.2999999523","correct":true,"confidence":-1},{"trial_n":20,"span":10,"encoder":"5642567139","distractor":"5642537139","target":"absent","response":"absent","rt":"4485.8999999762","correct":true,"confidence":-1},{"trial_n":21,"span":10,"encoder":"9695158494","distractor":"9695158444","target":"present","response":"present","rt":"2823.7000000477","correct":true,"confidence":3},{"trial_n":22,"span":11,"encoder":"40894046507","distractor":"40894046307","target":"present","response":"absent","rt":"2729.5","correct":false,"confidence":4},{"trial_n":23,"span":10,"encoder":"7204365613","distractor":"7204365683","target":"absent","response":"absent","rt":"5971.8000000715","correct":true,"confidence":3},{"trial_n":24,"span":10,"encoder":"4375954578","distractor":"4375958578","target":"present","response":"present","rt":"3549.2000000477","correct":true,"confidence":4},{"trial_n":25,"span":11,"encoder":"15063506554","distractor":"95063506554","target":"absent","response":"absent","rt":"2448.1999999285","correct":true,"confidence":5},{"trial_n":26,"span":11,"encoder":"14861611379","distractor":"84861611379","target":"present","response":"present","rt":"4265.6000000238","correct":true,"confidence":3},{"trial_n":27,"span":12,"encoder":"984069061098","distractor":"984369061098","target":"present","response":"present","rt":"5678.1000000238","correct":true,"confidence":2},{"trial_n":28,"span":12,"encoder":"890055668219","distractor":"820055668219","target":"present","response":"present","rt":"4328.7000000477","correct":true,"confidence":4},{"trial_n":29,"span":13,"encoder":"2080944446215","distractor":"2080944946215","target":"absent","response":"absent","rt":"3161.8999999762","correct":true,"confidence":4},{"trial_n":30,"span":13,"encoder":"9305437513768","distractor":"9305437513568","target":"present","response":"absent","rt":"5176.8999999762","correct":false,"confidence":2},{"trial_n":31,"span":12,"encoder":"624003754506","distractor":"624001754506","target":"present","response":"present","rt":"3495.1999999285","correct":true,"confidence":4},{"trial_n":32,"span":12,"encoder":"046941118596","distractor":"048941118596","target":"present","response":"present","rt":"2310.8000000715","correct":true,"confidence":3},{"trial_n":33,"span":13,"encoder":"5973150777011","distractor":"5973150777019","target":"absent","response":"absent","rt":"2451.3999999762","correct":true,"confidence":4},{"trial_n":34,"span":13,"encoder":"7444468348818","distractor":"7444428348818","target":"present","response":"present","rt":"2661.1000000238","correct":true,"confidence":4},{"trial_n":35,"span":14,"encoder":"24518231326400","distractor":"25518231326400","target":"present","response":"present","rt":"6640.8000000715","correct":true,"confidence":2},{"trial_n":36,"span":14,"encoder":"26935704265024","distractor":"26935703265024","target":"absent","response":"present","rt":"2157.1999999285","correct":false,"confidence":3},{"trial_n":37,"span":13,"encoder":"0507034292417","distractor":"0507034792417","target":"present","response":"present","rt":"6740.2000000477","correct":true,"confidence":4},{"trial_n":38,"span":13,"encoder":"2903032255433","distractor":"2903032257433","target":"present","response":"present","rt":"4813.8000000715","correct":true,"confidence":4},{"trial_n":39,"span":14,"encoder":"28703636248546","distractor":"28703636248548","target":"absent","response":"present","rt":"6449.8999999762","correct":false,"confidence":3},{"trial_n":40,"span":13,"encoder":"9872698146178","distractor":"9872618146178","target":"absent","response":"absent","rt":"1810.5999999046","correct":true,"confidence":3},{"trial_n":41,"span":13,"encoder":"5694197749066","distractor":"5794197749066","target":"absent","response":"present","rt":"7046","correct":false,"confidence":4},{"trial_n":42,"span":12,"encoder":"606145966289","distractor":"606145966789","target":"present","response":"present","rt":"3271.8000000715","correct":true,"confidence":3},{"trial_n":43,"span":12,"encoder":"476051235213","distractor":"376051235213","target":"absent","response":"present","rt":"6032.3999999762","correct":false,"confidence":4},{"trial_n":44,"span":11,"encoder":"61753611514","distractor":"61753811514","target":"present","response":"absent","rt":"4145","correct":false,"confidence":2},{"trial_n":45,"span":10,"encoder":"2820141260","distractor":"2320141260","target":"present","response":"present","rt":"1625.5","correct":true,"confidence":3},{"trial_n":46,"span":10,"encoder":"2934829518","distractor":"2934821518","target":"absent","response":"present","rt":"4472.7000000477","correct":false,"confidence":4},{"trial_n":47,"span":9,"encoder":"845607901","distractor":"846607901","target":"absent","response":"absent","rt":"2958.9000000954","correct":true,"confidence":4},{"trial_n":48,"span":9,"encoder":"027815994","distractor":"027615994","target":"present","response":"present","rt":"1570.8000000715","correct":true,"confidence":3},{"trial_n":49,"span":10,"encoder":"3654789160","distractor":"3634789160","target":"absent","response":"present","rt":"2158.2000000477","correct":false,"confidence":3},{"trial_n":50,"span":9,"encoder":"649562713","distractor":"669562713","target":"present","response":"present","rt":"3379.1000000238","correct":true,"confidence":4},{"trial_n":51,"span":9,"encoder":"809362797","distractor":"808362797","target":"absent","response":"absent","rt":"2115.7000000477","correct":true,"confidence":5},{"trial_n":52,"span":10,"encoder":"2299952665","distractor":"2299957665","target":"present","response":"present","rt":"2725.2000000477","correct":true,"confidence":4},{"trial_n":53,"span":10,"encoder":"0288613983","distractor":"0288613903","target":"present","response":"present","rt":"5292.8999999762","correct":true,"confidence":2},{"trial_n":54,"span":11,"encoder":"45302829180","distractor":"45302829980","target":"present","response":"absent","rt":"4662.3000000715","correct":false,"confidence":2},{"trial_n":55,"span":10,"encoder":"3639247756","distractor":"3639247750","target":"absent","response":"absent","rt":"2766.3000000715","correct":true,"confidence":3},{"trial_n":56,"span":10,"encoder":"0076641243","distractor":"0078641243","target":"absent","response":"present","rt":"7101.6999999285","correct":false,"confidence":3},{"trial_n":57,"span":9,"encoder":"195721297","distractor":"195721897","target":"absent","response":"absent","rt":"3803.8999999762","correct":true,"confidence":4},{"trial_n":58,"span":9,"encoder":"449482376","distractor":"449982376","target":"absent","response":"absent","rt":"2161.7999999523","correct":true,"confidence":4},{"trial_n":59,"span":10,"encoder":"9229180758","distractor":"1229180758","target":"absent","response":"absent","rt":"2197.1000000238","correct":true,"confidence":3},{"trial_n":60,"span":10,"encoder":"3557283232","distractor":"3587283232","target":"absent","response":"present","rt":"6038.7000000477","correct":false,"confidence":3},{"trial_n":61,"span":9,"encoder":"966534845","distractor":"966334845","target":"present","response":"present","rt":"3332","correct":true,"confidence":4},{"trial_n":62,"span":9,"encoder":"143833304","distractor":"843833304","target":"absent","response":"present","rt":"27874.400000095","correct":false,"confidence":4},{"trial_n":63,"span":8,"encoder":"32080492","distractor":"32080592","target":"present","response":"present","rt":"3285.7999999523","correct":true,"confidence":4},{"trial_n":64,"span":8,"encoder":"09290576","distractor":"09294576","target":"present","response":"present","rt":"2571.5","correct":true,"confidence":4},{"trial_n":65,"span":9,"encoder":"248674096","distractor":"248670096","target":"absent","response":"absent","rt":"2636.7999999523","correct":true,"confidence":3},{"trial_n":66,"span":9,"encoder":"376674245","distractor":"376671245","target":"absent","response":"present","rt":"5862.5999999046","correct":false,"confidence":3},{"trial_n":67,"span":8,"encoder":"59110724","distractor":"59110726","target":"present","response":"present","rt":"3453.6999999285","correct":true,"confidence":4},{"trial_n":68,"span":8,"encoder":"10461540","distractor":"10461570","target":"absent","response":"absent","rt":"2101.3999999762","correct":true,"confidence":4},{"trial_n":69,"span":9,"encoder":"065664719","distractor":"065666719","target":"absent","response":"absent","rt":"2463.5","correct":true,"confidence":2},{"trial_n":70,"span":9,"encoder":"342019987","distractor":"342019687","target":"absent","response":"absent","rt":"3276.3000000715","correct":true,"confidence":4},{"trial_n":71,"span":8,"encoder":"67326297","distractor":"67326277","target":"present","response":"present","rt":"3443.5","correct":true,"confidence":-1},{"trial_n":72,"span":8,"encoder":"07057168","distractor":"07057768","target":"present","response":"present","rt":"5105.4000000954","correct":true,"confidence":-1},{"trial_n":73,"span":9,"encoder":"757759075","distractor":"757759079","target":"absent","response":"absent","rt":"5299.3000000715","correct":true,"confidence":-1},{"trial_n":74,"span":9,"encoder":"947998366","distractor":"948998366","target":"absent","response":"absent","rt":"4493.7999999523","correct":true,"confidence":-1},{"trial_n":75,"span":10,"encoder":"9772465442","distractor":"9772165442","target":"present","response":"present","rt":"6548.1999999285","correct":true,"confidence":-1},{"trial_n":76,"span":10,"encoder":"5575627196","distractor":"5575627136","target":"present","response":"present","rt":"2518.1000000238","correct":true,"confidence":-1},{"trial_n":77,"span":11,"encoder":"34215691955","distractor":"34215291955","target":"present","response":"present","rt":"4572.6999999285","correct":true,"confidence":-1},{"trial_n":78,"span":11,"encoder":"04756270683","distractor":"04757270683","target":"absent","response":"absent","rt":"4539.7000000477","correct":true,"confidence":-1},{"trial_n":79,"span":12,"encoder":"789937261906","distractor":"789837261906","target":"absent","response":"present","rt":"6297.5","correct":false,"confidence":-1},{"trial_n":80,"span":11,"encoder":"06412434809","distractor":"05412434809","target":"absent","response":"absent","rt":"1836.4000000954","correct":true,"confidence":-1},{"trial_n":81,"span":11,"encoder":"16931788839","distractor":"96931788839","target":"absent","response":"absent","rt":"4571.1999999285","correct":true,"confidence":-1},{"trial_n":82,"span":12,"encoder":"510915454287","distractor":"511915454287","target":"present","response":"present","rt":"4104.6999999285","correct":true,"confidence":-1},{"trial_n":83,"span":12,"encoder":"370213971224","distractor":"370213951224","target":"absent","response":"present","rt":"4391.2999999523","correct":false,"confidence":-1},{"trial_n":84,"span":11,"encoder":"29907946447","distractor":"29507946447","target":"present","response":"present","rt":"2506.7000000477","correct":true,"confidence":-1},{"trial_n":85,"span":11,"encoder":"28161596703","distractor":"22161596703","target":"present","response":"present","rt":"6211.3999999762","correct":true,"confidence":-1},{"trial_n":86,"span":12,"encoder":"671902577892","distractor":"671982577892","target":"absent","response":"present","rt":"6953.1999999285","correct":false,"confidence":-1},{"trial_n":87,"span":11,"encoder":"52560734550","distractor":"52560034550","target":"present","response":"present","rt":"2632.2999999523","correct":true,"confidence":-1},{"trial_n":88,"span":11,"encoder":"73004218783","distractor":"73004268783","target":"present","response":"absent","rt":"4799.8999999762","correct":false,"confidence":-1},{"trial_n":89,"span":10,"encoder":"0008770566","distractor":"8008770566","target":"absent","response":"absent","rt":"3414.8999999762","correct":true,"confidence":-1},{"trial_n":90,"span":10,"encoder":"3121262749","distractor":"3121262779","target":"present","response":"present","rt":"2272.7000000477","correct":true,"confidence":-1},{"trial_n":91,"span":11,"encoder":"75834758474","distractor":"75834758274","target":"present","response":"present","rt":"2253.4000000954","correct":true,"confidence":4},{"trial_n":92,"span":11,"encoder":"29721283814","distractor":"29721283816","target":"absent","response":"absent","rt":"2780.2999999523","correct":true,"confidence":5},{"trial_n":93,"span":12,"encoder":"991631130082","distractor":"994631130082","target":"present","response":"present","rt":"8949.7999999523","correct":true,"confidence":5},{"trial_n":94,"span":12,"encoder":"141427297294","distractor":"141427297290","target":"absent","response":"absent","rt":"5782.6000000238","correct":true,"confidence":3},{"trial_n":95,"span":13,"encoder":"3758788842293","distractor":"3758738842293","target":"absent","response":"present","rt":"6901.3000000715","correct":false,"confidence":3},{"trial_n":96,"span":12,"encoder":"352980100381","distractor":"352980500381","target":"present","response":"absent","rt":"6156.7999999523","correct":false,"confidence":2},{"trial_n":97,"span":11,"encoder":"33548964218","distractor":"03548964218","target":"present","response":"present","rt":"4393.5","correct":true,"confidence":5},{"trial_n":98,"span":11,"encoder":"63056499611","distractor":"63050499611","target":"absent","response":"absent","rt":"9181.3000000715","correct":true,"confidence":4},{"trial_n":99,"span":12,"encoder":"482717958363","distractor":"482717858363","target":"present","response":"present","rt":"6846.2000000477","correct":true,"confidence":3},{"trial_n":100,"span":12,"encoder":"562024389561","distractor":"562024189561","target":"absent","response":"absent","rt":"7626.3999999762","correct":true,"confidence":2},{"trial_n":101,"span":13,"encoder":"7419291847666","distractor":"7419291847636","target":"present","response":"present","rt":"3148.8999999762","correct":true,"confidence":5},{"trial_n":102,"span":13,"encoder":"5981865014983","distractor":"5985865014983","target":"absent","response":"absent","rt":"5921","correct":true,"confidence":3},{"trial_n":103,"span":14,"encoder":"36813650703590","distractor":"36813850703590","target":"absent","response":"absent","rt":"3855.3999999762","correct":true,"confidence":5},{"trial_n":104,"span":14,"encoder":"78264010193527","distractor":"77264010193527","target":"absent","response":"absent","rt":"1905.8000000715","correct":true,"confidence":4},{"trial_n":105,"span":15,"encoder":"676735137056361","distractor":"676735137456361","target":"present","response":"present","rt":"2462.6000000238","correct":true,"confidence":5},{"trial_n":106,"span":15,"encoder":"573305550124548","distractor":"573305550124518","target":"present","response":"present","rt":"7734.5","correct":true,"confidence":3},{"trial_n":107,"span":16,"encoder":"8318651942445006","distractor":"8318651940445006","target":"present","response":"present","rt":"4938.3999999762","correct":true,"confidence":4},{"trial_n":108,"span":16,"encoder":"2911773317567811","distractor":"2211773317567811","target":"present","response":"present","rt":"3718.7999999523","correct":true,"confidence":4},{"trial_n":109,"span":17,"encoder":"87628369361074438","distractor":"87628369361072438","target":"present","response":"present","rt":"4919.3000000715","correct":true,"confidence":3},{"trial_n":110,"span":17,"encoder":"05629328084200161","distractor":"05629328684200161","target":"absent","response":"present","rt":"12808.799999952","correct":false,"confidence":2},{"trial_n":111,"span":16,"encoder":"3704575344721675","distractor":"3704575344721678","target":"present","response":"present","rt":"2743.2000000477","correct":true,"confidence":5},{"trial_n":112,"span":16,"encoder":"9417243924798295","distractor":"9457243924798295","target":"absent","response":"absent","rt":"6544.7000000477","correct":true,"confidence":3},{"trial_n":113,"span":17,"encoder":"73226387194254590","distractor":"53226387194254590","target":"absent","response":"absent","rt":"5851.5","correct":true,"confidence":4},{"trial_n":114,"span":17,"encoder":"70604364376434155","distractor":"70604364376434151","target":"absent","response":"absent","rt":"1582.3000000715","correct":true,"confidence":5},{"trial_n":115,"span":18,"encoder":"224227858134995013","distractor":"224227858134295013","target":"present","response":"absent","rt":"2050.6999999285","correct":false,"confidence":2},{"trial_n":116,"span":17,"encoder":"38684900065549119","distractor":"38684900065549219","target":"absent","response":"absent","rt":"2745.7000000477","correct":true,"confidence":4},{"trial_n":117,"span":17,"encoder":"60154424765919505","distractor":"60154424365919505","target":"absent","response":"absent","rt":"7989","correct":true,"confidence":3},{"trial_n":118,"span":18,"encoder":"788337712426199320","distractor":"788937712426199320","target":"present","response":"absent","rt":"13589.5","correct":false,"confidence":3},{"trial_n":119,"span":17,"encoder":"73957946136735852","distractor":"73957946136435852","target":"absent","response":"absent","rt":"3230.5","correct":true,"confidence":5},{"trial_n":120,"span":17,"encoder":"27110242636358449","distractor":"27110242636358249","target":"absent","response":"absent","rt":"2991.6000000238","correct":true,"confidence":4},{"trial_n":121,"span":18,"encoder":"877270268037269791","distractor":"877270268037249791","target":"present","response":"absent","rt":"33520.100000024","correct":false,"confidence":2},{"trial_n":122,"span":17,"encoder":"52190362931399866","distractor":"52190362931399666","target":"absent","response":"absent","rt":"16472.599999905","correct":true,"confidence":3},{"trial_n":123,"span":17,"encoder":"82603647516174629","distractor":"82403647516174629","target":"present","response":"present","rt":"7297.6000000238","correct":true,"confidence":4},{"trial_n":124,"span":18,"encoder":"826176440181524784","distractor":"826176440187524784","target":"present","response":"absent","rt":"7885.7999999523","correct":false,"confidence":4},{"trial_n":125,"span":17,"encoder":"46538814938398179","distractor":"46508814938398179","target":"absent","response":"present","rt":"5025.2000000477","correct":false,"confidence":3},{"trial_n":126,"span":16,"encoder":"6143738011025020","distractor":"6173738011025020","target":"present","response":"present","rt":"4824.7999999523","correct":true,"confidence":4},{"trial_n":127,"span":16,"encoder":"1984924315490219","distractor":"3984924315490219","target":"absent","response":"absent","rt":"5899.1000000238","correct":true,"confidence":5},{"trial_n":128,"span":17,"encoder":"77500161350540153","distractor":"77500161355540153","target":"present","response":"present","rt":"6857.7999999523","correct":true,"confidence":3},{"trial_n":129,"span":17,"encoder":"59057358462478741","distractor":"59057358062478741","target":"present","response":"absent","rt":"22097.200000048","correct":false,"confidence":3},{"trial_n":130,"span":16,"encoder":"6991660211513984","distractor":"6991660811513984","target":"absent","response":"absent","rt":"12710.100000024","correct":true,"confidence":2},{"trial_n":131,"span":16,"encoder":"3124352354791407","distractor":"3154352354791407","target":"present","response":"absent","rt":"4611.1999999285","correct":false,"confidence":4},{"trial_n":132,"span":15,"encoder":"453397037696713","distractor":"453393037696713","target":"absent","response":"absent","rt":"2048.9000000954","correct":true,"confidence":4},{"trial_n":133,"span":15,"encoder":"760163637342664","distractor":"760163237342664","target":"absent","response":"present","rt":"8360.8999999762","correct":false,"confidence":3},{"trial_n":134,"span":14,"encoder":"30067106252465","distractor":"30067103252465","target":"absent","response":"absent","rt":"5414.7000000477","correct":true,"confidence":4},{"trial_n":135,"span":14,"encoder":"32992411480789","distractor":"32992411480782","target":"present","response":"present","rt":"6466","correct":true,"confidence":4},{"trial_n":136,"span":15,"encoder":"438904589273869","distractor":"438904589773869","target":"absent","response":"present","rt":"3775.6999999285","correct":false,"confidence":3},{"trial_n":137,"span":14,"encoder":"01733586101922","distractor":"01733586102922","target":"present","response":"absent","rt":"10435","correct":false,"confidence":2},{"trial_n":138,"span":13,"encoder":"3858476213999","distractor":"3858476213979","target":"absent","response":"absent","rt":"1425.7000000477","correct":true,"confidence":5},{"trial_n":139,"span":13,"encoder":"1362911909051","distractor":"1362911409051","target":"present","response":"absent","rt":"6656.2000000477","correct":false,"confidence":4},{"trial_n":140,"span":12,"encoder":"722303076280","distractor":"722307076280","target":"present","response":"present","rt":"7158.7999999523","correct":true,"confidence":3}]