[{"trial_n":1,"min":25,"max":230,"target":"present","response":"present","rt":3880.5,"correct":true,"confidence":-1},{"trial_n":2,"min":25,"max":230,"target":"present","response":"present","rt":3212.6000000238,"correct":true,"confidence":-1},{"trial_n":3,"min":41,"max":214,"target":"absent","response":"present","rt":1378.1000000238,"correct":false,"confidence":-1},{"trial_n":4,"min":25,"max":230,"target":"absent","response":"present","rt":308.20000004768,"correct":false,"confidence":-1},{"trial_n":5,"min":9,"max":246,"target":"present","response":"present","rt":359.30000001192,"correct":true,"confidence":-1},{"trial_n":6,"min":9,"max":246,"target":"present","response":"present","rt":380.59999996424,"correct":true,"confidence":-1},{"trial_n":7,"min":25,"max":230,"target":"absent","response":"present","rt":375.80000001192,"correct":false,"confidence":-1},{"trial_n":8,"min":9,"max":246,"target":"absent","response":"present","rt":415.19999998808,"correct":false,"confidence":-1},{"trial_n":9,"min":0,"max":255,"target":"present","response":"present","rt":363.69999998808,"correct":true,"confidence":-1},{"trial_n":10,"min":0,"max":255,"target":"absent","response":"present","rt":423.59999996424,"correct":false,"confidence":-1},{"trial_n":11,"min":0,"max":255,"target":"present","response":"present","rt":401.29999995232,"correct":true,"confidence":-1},{"trial_n":12,"min":0,"max":255,"target":"absent","response":"present","rt":381.19999998808,"correct":false,"confidence":-1},{"trial_n":13,"min":0,"max":255,"target":"absent","response":"present","rt":237.89999997616,"correct":false,"confidence":-1},{"trial_n":14,"min":0,"max":255,"target":"absent","response":"present","rt":399,"correct":false,"confidence":-1},{"trial_n":15,"min":0,"max":255,"target":"present","response":"present","rt":338.39999997616,"correct":true,"confidence":-1},{"trial_n":16,"min":0,"max":255,"target":"present","response":"present","rt":349.10000002384,"correct":true,"confidence":-1},{"trial_n":17,"min":8,"max":247,"target":"absent","response":"present","rt":210.69999998808,"correct":false,"confidence":-1},{"trial_n":18,"min":0,"max":255,"target":"absent","response":"present","rt":390.10000002384,"correct":false,"confidence":-1},{"trial_n":19,"min":0,"max":255,"target":"present","response":"present","rt":371.19999998808,"correct":true,"confidence":-1},{"trial_n":20,"min":0,"max":255,"target":"present","response":"present","rt":289.5,"correct":true,"confidence":-1},{"trial_n":21,"min":4,"max":251,"target":"present","response":"present","rt":668.69999998808,"correct":true,"confidence":1},{"trial_n":22,"min":4,"max":251,"target":"present","response":"present","rt":2443.5,"correct":true,"confidence":5},{"trial_n":23,"min":8,"max":247,"target":"present","response":"present","rt":1098.1999999881,"correct":true,"confidence":5},{"trial_n":24,"min":8,"max":247,"target":"absent","response":"present","rt":8481.5,"correct":false,"confidence":5},{"trial_n":25,"min":4,"max":251,"target":"present","response":"present","rt":714,"correct":true,"confidence":5},{"trial_n":26,"min":4,"max":251,"target":"absent","response":"present","rt":8950.1999999881,"correct":false,"confidence":5},{"trial_n":27,"min":0,"max":255,"target":"absent","response":"absent","rt":1386.8000000119,"correct":true,"confidence":5},{"trial_n":28,"min":0,"max":255,"target":"present","response":"present","rt":978.80000001192,"correct":true,"confidence":5},{"trial_n":29,"min":4,"max":251,"target":"present","response":"present","rt":899.29999995232,"correct":true,"confidence":5},{"trial_n":30,"min":4,"max":251,"target":"absent","response":"absent","rt":1079.6999999881,"correct":true,"confidence":5},{"trial_n":31,"min":6,"max":249,"target":"absent","response":"present","rt":676.10000002384,"correct":false,"confidence":1},{"trial_n":32,"min":4,"max":251,"target":"absent","response":"absent","rt":755.69999998808,"correct":true,"confidence":1},{"trial_n":33,"min":4,"max":251,"target":"present","response":"present","rt":716.80000001192,"correct":true,"confidence":5},{"trial_n":34,"min":6,"max":249,"target":"present","response":"present","rt":866.59999996424,"correct":true,"confidence":5},{"trial_n":35,"min":6,"max":249,"target":"absent","response":"present","rt":2538.2000000477,"correct":false,"confidence":5},{"trial_n":36,"min":4,"max":251,"target":"absent","response":"absent","rt":933.5,"correct":true,"confidence":5},{"trial_n":37,"min":4,"max":251,"target":"present","response":"present","rt":1863,"correct":true,"confidence":5},{"trial_n":38,"min":6,"max":249,"target":"present","response":"present","rt":908.80000001192,"correct":true,"confidence":5},{"trial_n":39,"min":6,"max":249,"target":"present","response":"present","rt":1298.8999999762,"correct":true,"confidence":5},{"trial_n":40,"min":8,"max":247,"target":"present","response":"present","rt":847.09999996424,"correct":true,"confidence":5},{"trial_n":41,"min":8,"max":247,"target":"absent","response":"absent","rt":973.90000003576,"correct":true,"confidence":5},{"trial_n":42,"min":9,"max":246,"target":"absent","response":"absent","rt":659.40000003576,"correct":true,"confidence":5},{"trial_n":43,"min":9,"max":246,"target":"present","response":"present","rt":770,"correct":true,"confidence":5},{"trial_n":44,"min":10,"max":245,"target":"present","response":"present","rt":942.40000003576,"correct":true,"confidence":5},{"trial_n":45,"min":10,"max":245,"target":"absent","response":"absent","rt":1116.5,"correct":true,"confidence":5},{"trial_n":46,"min":11,"max":244,"target":"absent","response":"absent","rt":1370.5,"correct":true,"confidence":5},{"trial_n":47,"min":11,"max":244,"target":"present","response":"present","rt":1660.1000000238,"correct":true,"confidence":5},{"trial_n":48,"min":12,"max":243,"target":"present","response":"present","rt":1256.1000000238,"correct":true,"confidence":5},{"trial_n":49,"min":12,"max":243,"target":"absent","response":"absent","rt":2110.5,"correct":true,"confidence":5},{"trial_n":50,"min":13,"max":242,"target":"present","response":"present","rt":796.89999997616,"correct":true,"confidence":5},{"trial_n":51,"min":13,"max":242,"target":"absent","response":"absent","rt":870.19999998808,"correct":true,"confidence":5},{"trial_n":52,"min":14,"max":241,"target":"present","response":"present","rt":670.19999998808,"correct":true,"confidence":5},{"trial_n":53,"min":14,"max":241,"target":"present","response":"present","rt":652.59999996424,"correct":true,"confidence":5},{"trial_n":54,"min":15,"max":240,"target":"present","response":"present","rt":643.20000004768,"correct":true,"confidence":5},{"trial_n":55,"min":15,"max":240,"target":"absent","response":"absent","rt":791.10000002384,"correct":true,"confidence":5},{"trial_n":56,"min":16,"max":239,"target":"present","response":"present","rt":809.29999995232,"correct":true,"confidence":5},{"trial_n":57,"min":16,"max":239,"target":"absent","response":"absent","rt":1006.1999999881,"correct":true,"confidence":5},{"trial_n":58,"min":17,"max":238,"target":"present","response":"present","rt":773,"correct":true,"confidence":5},{"trial_n":59,"min":17,"max":238,"target":"absent","response":"absent","rt":1057.0999999642,"correct":true,"confidence":5},{"trial_n":60,"min":18,"max":237,"target":"present","response":"present","rt":675.10000002384,"correct":true,"confidence":5},{"trial_n":61,"min":18,"max":237,"target":"present","response":"absent","rt":1738,"correct":false,"confidence":1},{"trial_n":62,"min":17,"max":238,"target":"present","response":"present","rt":904.89999997616,"correct":true,"confidence":5},{"trial_n":63,"min":17,"max":238,"target":"absent","response":"absent","rt":1837.3999999762,"correct":true,"confidence":5},{"trial_n":64,"min":18,"max":237,"target":"present","response":"present","rt":968.59999996424,"correct":true,"confidence":5},{"trial_n":65,"min":18,"max":237,"target":"absent","response":"absent","rt":1184.2000000477,"correct":true,"confidence":5},{"trial_n":66,"min":19,"max":236,"target":"absent","response":"absent","rt":731,"correct":true,"confidence":5},{"trial_n":67,"min":19,"max":236,"target":"absent","response":"absent","rt":1429,"correct":true,"confidence":5},{"trial_n":68,"min":20,"max":235,"target":"absent","response":"absent","rt":946,"correct":true,"confidence":5},{"trial_n":69,"min":20,"max":235,"target":"absent","response":"absent","rt":836.39999997616,"correct":true,"confidence":5},{"trial_n":70,"min":21,"max":234,"target":"absent","response":"absent","rt":799.20000004768,"correct":true,"confidence":5},{"trial_n":71,"min":41,"max":214,"target":"present","response":"present","rt":1250.3999999762,"correct":true,"confidence":-1},{"trial_n":72,"min":41,"max":214,"target":"present","response":"absent","rt":12460.400000036,"correct":false,"confidence":-1},{"trial_n":73,"min":25,"max":230,"target":"absent","response":"absent","rt":883.79999995232,"correct":true,"confidence":-1},{"trial_n":74,"min":25,"max":230,"target":"absent","response":"absent","rt":882.19999998808,"correct":true,"confidence":-1},{"trial_n":75,"min":41,"max":214,"target":"present","response":"present","rt":732.09999996424,"correct":true,"confidence":-1},{"trial_n":76,"min":41,"max":214,"target":"absent","response":"absent","rt":763.10000002384,"correct":true,"confidence":-1},{"trial_n":77,"min":57,"max":198,"target":"absent","response":"absent","rt":614,"correct":true,"confidence":-1},{"trial_n":78,"min":57,"max":198,"target":"present","response":"present","rt":746.29999995232,"correct":true,"confidence":-1},{"trial_n":79,"min":73,"max":182,"target":"absent","response":"present","rt":841.60000002384,"correct":false,"confidence":-1},{"trial_n":80,"min":57,"max":198,"target":"absent","response":"absent","rt":643,"correct":true,"confidence":-1},{"trial_n":81,"min":57,"max":198,"target":"absent","response":"absent","rt":1264.7000000477,"correct":true,"confidence":-1},{"trial_n":82,"min":65,"max":190,"target":"absent","response":"absent","rt":751.40000003576,"correct":true,"confidence":-1},{"trial_n":83,"min":65,"max":190,"target":"absent","response":"absent","rt":642.89999997616,"correct":true,"confidence":-1},{"trial_n":84,"min":73,"max":182,"target":"absent","response":"absent","rt":719.60000002384,"correct":true,"confidence":-1},{"trial_n":85,"min":73,"max":182,"target":"present","response":"absent","rt":714.20000004768,"correct":false,"confidence":-1},{"trial_n":86,"min":65,"max":190,"target":"absent","response":"absent","rt":741.60000002384,"correct":true,"confidence":-1},{"trial_n":87,"min":65,"max":190,"target":"absent","response":"absent","rt":708,"correct":true,"confidence":-1},{"trial_n":88,"min":73,"max":182,"target":"present","response":"present","rt":1816,"correct":true,"confidence":-1},{"trial_n":89,"min":73,"max":182,"target":"absent","response":"absent","rt":910.39999997616,"correct":true,"confidence":-1},{"trial_n":90,"min":81,"max":174,"target":"present","response":"present","rt":1752.0999999642,"correct":true,"confidence":-1},{"trial_n":91,"min":81,"max":174,"target":"present","response":"absent","rt":731.90000003576,"correct":false,"confidence":1},{"trial_n":92,"min":77,"max":178,"target":"absent","response":"absent","rt":977.70000004768,"correct":true,"confidence":5},{"trial_n":93,"min":77,"max":178,"target":"present","response":"present","rt":1254.2999999523,"correct":true,"confidence":1},{"trial_n":94,"min":81,"max":174,"target":"absent","response":"absent","rt":911.10000002384,"correct":true,"confidence":5},{"trial_n":95,"min":81,"max":174,"target":"absent","response":"present","rt":951.60000002384,"correct":false,"confidence":5},{"trial_n":96,"min":77,"max":178,"target":"present","response":"present","rt":944.5,"correct":true,"confidence":5},{"trial_n":97,"min":77,"max":178,"target":"absent","response":"absent","rt":937.30000001192,"correct":true,"confidence":5},{"trial_n":98,"min":81,"max":174,"target":"absent","response":"absent","rt":748,"correct":true,"confidence":1},{"trial_n":99,"min":81,"max":174,"target":"present","response":"present","rt":866.69999998808,"correct":true,"confidence":5},{"trial_n":100,"min":85,"max":170,"target":"present","response":"absent","rt":1228.1000000238,"correct":false,"confidence":5},{"trial_n":101,"min":83,"max":172,"target":"present","response":"absent","rt":1026.5,"correct":false,"confidence":5},{"trial_n":102,"min":81,"max":174,"target":"present","response":"present","rt":919.09999996424,"correct":true,"confidence":5},{"trial_n":103,"min":81,"max":174,"target":"present","response":"absent","rt":746.89999997616,"correct":false,"confidence":5},{"trial_n":104,"min":79,"max":176,"target":"present","response":"present","rt":511.09999996424,"correct":true,"confidence":5},{"trial_n":105,"min":79,"max":176,"target":"absent","response":"absent","rt":975,"correct":true,"confidence":5},{"trial_n":106,"min":81,"max":174,"target":"absent","response":"absent","rt":1094.5,"correct":true,"confidence":5},{"trial_n":107,"min":81,"max":174,"target":"absent","response":"present","rt":1376.5,"correct":false,"confidence":5},{"trial_n":108,"min":79,"max":176,"target":"present","response":"present","rt":833.19999998808,"correct":true,"confidence":4},{"trial_n":109,"min":79,"max":176,"target":"absent","response":"present","rt":758.09999996424,"correct":false,"confidence":5},{"trial_n":110,"min":77,"max":178,"target":"present","response":"present","rt":718,"correct":true,"confidence":5},{"trial_n":111,"min":77,"max":178,"target":"absent","response":"present","rt":1485.3000000119,"correct":false,"confidence":5},{"trial_n":112,"min":76,"max":179,"target":"absent","response":"present","rt":720,"correct":false,"confidence":5},{"trial_n":113,"min":75,"max":180,"target":"present","response":"present","rt":728.60000002384,"correct":true,"confidence":1},{"trial_n":114,"min":75,"max":180,"target":"present","response":"present","rt":685.5,"correct":true,"confidence":5},{"trial_n":115,"min":76,"max":179,"target":"present","response":"present","rt":783.5,"correct":true,"confidence":4},{"trial_n":116,"min":76,"max":179,"target":"present","response":"present","rt":848.10000002384,"correct":true,"confidence":4},{"trial_n":117,"min":77,"max":178,"target":"absent","response":"absent","rt":99801.100000024,"correct":true,"confidence":4},{"trial_n":118,"min":77,"max":178,"target":"present","response":"present","rt":727.39999997616,"correct":true,"confidence":4},{"trial_n":119,"min":78,"max":177,"target":"absent","response":"absent","rt":871.69999998808,"correct":true,"confidence":1},{"trial_n":120,"min":78,"max":177,"target":"present","response":"absent","rt":6752.6000000238,"correct":false,"confidence":4},{"trial_n":121,"min":77,"max":178,"target":"present","response":"present","rt":1186.1999999881,"correct":true,"confidence":4},{"trial_n":122,"min":77,"max":178,"target":"absent","response":"absent","rt":1073.5999999642,"correct":true,"confidence":4},{"trial_n":123,"min":78,"max":177,"target":"absent","response":"absent","rt":2125.5,"correct":true,"confidence":4},{"trial_n":124,"min":78,"max":177,"target":"absent","response":"absent","rt":818.80000001192,"correct":true,"confidence":4},{"trial_n":125,"min":79,"max":176,"target":"present","response":"present","rt":691.10000002384,"correct":true,"confidence":4},{"trial_n":126,"min":79,"max":176,"target":"absent","response":"absent","rt":864,"correct":true,"confidence":5},{"trial_n":127,"min":80,"max":175,"target":"absent","response":"absent","rt":809.59999996424,"correct":true,"confidence":4},{"trial_n":128,"min":80,"max":175,"target":"present","response":"present","rt":574.19999998808,"correct":true,"confidence":4},{"trial_n":129,"min":81,"max":174,"target":"absent","response":"present","rt":768.69999998808,"correct":false,"confidence":4},{"trial_n":130,"min":80,"max":175,"target":"present","response":"absent","rt":691.59999996424,"correct":false,"confidence":1},{"trial_n":131,"min":79,"max":176,"target":"present","response":"present","rt":700.90000003576,"correct":true,"confidence":5},{"trial_n":132,"min":79,"max":176,"target":"absent","response":"absent","rt":954.5,"correct":true,"confidence":4},{"trial_n":133,"min":80,"max":175,"target":"present","response":"present","rt":1456.6000000238,"correct":true,"confidence":4},{"trial_n":134,"min":80,"max":175,"target":"present","response":"present","rt":1043.2000000477,"correct":true,"confidence":4},{"trial_n":135,"min":81,"max":174,"target":"present","response":"present","rt":657,"correct":true,"confidence":5},{"trial_n":136,"min":81,"max":174,"target":"present","response":"present","rt":499.69999998808,"correct":true,"confidence":5},{"trial_n":137,"min":82,"max":173,"target":"present","response":"present","rt":1238.1000000238,"correct":true,"confidence":5},{"trial_n":138,"min":82,"max":173,"target":"absent","response":"absent","rt":1209,"correct":true,"confidence":4},{"trial_n":139,"min":83,"max":172,"target":"present","response":"absent","rt":1442.4000000358,"correct":false,"confidence":4},{"trial_n":140,"min":82,"max":173,"target":"present","response":"present","rt":857.80000001192,"correct":true,"confidence":5}]