[{"trial_n":1,"min":25,"max":230,"target":"present","response":"present","rt":3661,"correct":true,"confidence":-1},{"trial_n":2,"min":25,"max":230,"target":"present","response":"present","rt":1007.8999999762,"correct":true,"confidence":-1},{"trial_n":3,"min":41,"max":214,"target":"absent","response":"absent","rt":914.89999997616,"correct":true,"confidence":-1},{"trial_n":4,"min":41,"max":214,"target":"absent","response":"absent","rt":712,"correct":true,"confidence":-1},{"trial_n":5,"min":57,"max":198,"target":"present","response":"present","rt":853.10000002384,"correct":true,"confidence":-1},{"trial_n":6,"min":57,"max":198,"target":"absent","response":"absent","rt":799.10000002384,"correct":true,"confidence":-1},{"trial_n":7,"min":73,"max":182,"target":"present","response":"present","rt":898.19999992847,"correct":true,"confidence":-1},{"trial_n":8,"min":73,"max":182,"target":"present","response":"present","rt":794.30000007153,"correct":true,"confidence":-1},{"trial_n":9,"min":89,"max":166,"target":"present","response":"absent","rt":1044.6000000238,"correct":false,"confidence":-1},{"trial_n":10,"min":73,"max":182,"target":"absent","response":"absent","rt":1410,"correct":true,"confidence":-1},{"trial_n":11,"min":73,"max":182,"target":"absent","response":"absent","rt":744.39999997616,"correct":true,"confidence":-1},{"trial_n":12,"min":81,"max":174,"target":"present","response":"absent","rt":739.79999995232,"correct":false,"confidence":-1},{"trial_n":13,"min":73,"max":182,"target":"absent","response":"present","rt":1217.3999999762,"correct":false,"confidence":-1},{"trial_n":14,"min":65,"max":190,"target":"absent","response":"present","rt":1887.3000000715,"correct":false,"confidence":-1},{"trial_n":15,"min":57,"max":198,"target":"absent","response":"absent","rt":1330.3999999762,"correct":true,"confidence":-1},{"trial_n":16,"min":57,"max":198,"target":"present","response":"present","rt":710.39999997616,"correct":true,"confidence":-1},{"trial_n":17,"min":65,"max":190,"target":"absent","response":"absent","rt":719.39999997616,"correct":true,"confidence":-1},{"trial_n":18,"min":65,"max":190,"target":"absent","response":"absent","rt":561.10000002384,"correct":true,"confidence":-1},{"trial_n":19,"min":73,"max":182,"target":"present","response":"present","rt":688.40000009537,"correct":true,"confidence":-1},{"trial_n":20,"min":73,"max":182,"target":"absent","response":"absent","rt":742.10000002384,"correct":true,"confidence":-1},{"trial_n":21,"min":77,"max":178,"target":"present","response":"present","rt":1205.8000000715,"correct":true,"confidence":4},{"trial_n":22,"min":77,"max":178,"target":"present","response":"present","rt":716.69999992847,"correct":true,"confidence":4},{"trial_n":23,"min":81,"max":174,"target":"present","response":"absent","rt":1302,"correct":false,"confidence":3},{"trial_n":24,"min":77,"max":178,"target":"absent","response":"absent","rt":838.10000002384,"correct":true,"confidence":4},{"trial_n":25,"min":77,"max":178,"target":"absent","response":"absent","rt":806.79999995232,"correct":true,"confidence":4},{"trial_n":26,"min":81,"max":174,"target":"absent","response":"present","rt":1086,"correct":false,"confidence":3},{"trial_n":27,"min":77,"max":178,"target":"present","response":"present","rt":1870.4000000954,"correct":true,"confidence":3},{"trial_n":28,"min":77,"max":178,"target":"present","response":"absent","rt":3334.3000000715,"correct":false,"confidence":2},{"trial_n":29,"min":73,"max":182,"target":"present","response":"present","rt":838.80000007153,"correct":true,"confidence":4},{"trial_n":30,"min":73,"max":182,"target":"absent","response":"absent","rt":660.70000004768,"correct":true,"confidence":4},{"trial_n":31,"min":75,"max":180,"target":"present","response":"present","rt":735,"correct":true,"confidence":5},{"trial_n":32,"min":75,"max":180,"target":"absent","response":"absent","rt":1248.5,"correct":true,"confidence":4},{"trial_n":33,"min":77,"max":178,"target":"absent","response":"absent","rt":790.5,"correct":true,"confidence":4},{"trial_n":34,"min":77,"max":178,"target":"absent","response":"present","rt":945.60000002384,"correct":false,"confidence":3},{"trial_n":35,"min":75,"max":180,"target":"absent","response":"absent","rt":974.70000004768,"correct":true,"confidence":4},{"trial_n":36,"min":75,"max":180,"target":"absent","response":"absent","rt":1721.5,"correct":true,"confidence":4},{"trial_n":37,"min":77,"max":178,"target":"present","response":"present","rt":1427.7000000477,"correct":true,"confidence":5},{"trial_n":38,"min":77,"max":178,"target":"present","response":"present","rt":705.79999995232,"correct":true,"confidence":5},{"trial_n":39,"min":79,"max":176,"target":"absent","response":"absent","rt":653.70000004768,"correct":true,"confidence":4},{"trial_n":40,"min":79,"max":176,"target":"present","response":"present","rt":743,"correct":true,"confidence":5},{"trial_n":41,"min":80,"max":175,"target":"present","response":"present","rt":1063.2999999523,"correct":true,"confidence":4},{"trial_n":42,"min":80,"max":175,"target":"present","response":"present","rt":782.40000009537,"correct":true,"confidence":4},{"trial_n":43,"min":81,"max":174,"target":"present","response":"present","rt":795.10000002384,"correct":true,"confidence":5},{"trial_n":44,"min":81,"max":174,"target":"present","response":"present","rt":690.29999995232,"correct":true,"confidence":4},{"trial_n":45,"min":82,"max":173,"target":"present","response":"present","rt":778,"correct":true,"confidence":4},{"trial_n":46,"min":82,"max":173,"target":"absent","response":"absent","rt":1431.5,"correct":true,"confidence":3},{"trial_n":47,"min":83,"max":172,"target":"absent","response":"absent","rt":1449.2000000477,"correct":true,"confidence":4},{"trial_n":48,"min":83,"max":172,"target":"present","response":"present","rt":684,"correct":true,"confidence":5},{"trial_n":49,"min":84,"max":171,"target":"present","response":"absent","rt":828.20000004768,"correct":false,"confidence":3},{"trial_n":50,"min":83,"max":172,"target":"present","response":"present","rt":896.60000002384,"correct":true,"confidence":4},{"trial_n":51,"min":83,"max":172,"target":"present","response":"present","rt":721.5,"correct":true,"confidence":4},{"trial_n":52,"min":84,"max":171,"target":"present","response":"present","rt":1426.6999999285,"correct":true,"confidence":3},{"trial_n":53,"min":84,"max":171,"target":"present","response":"present","rt":703.89999997616,"correct":true,"confidence":4},{"trial_n":54,"min":85,"max":170,"target":"absent","response":"absent","rt":1186.5,"correct":true,"confidence":4},{"trial_n":55,"min":85,"max":170,"target":"present","response":"absent","rt":1979,"correct":false,"confidence":3},{"trial_n":56,"min":84,"max":171,"target":"absent","response":"absent","rt":875.19999992847,"correct":true,"confidence":3},{"trial_n":57,"min":84,"max":171,"target":"absent","response":"present","rt":948.29999995232,"correct":false,"confidence":3},{"trial_n":58,"min":83,"max":172,"target":"present","response":"present","rt":817.20000004768,"correct":true,"confidence":4},{"trial_n":59,"min":83,"max":172,"target":"absent","response":"absent","rt":1082.1000000238,"correct":true,"confidence":4},{"trial_n":60,"min":84,"max":171,"target":"absent","response":"absent","rt":1058.3999999762,"correct":true,"confidence":4},{"trial_n":61,"min":84,"max":171,"target":"present","response":"present","rt":1209.6000000238,"correct":true,"confidence":5},{"trial_n":62,"min":85,"max":170,"target":"absent","response":"absent","rt":982.29999995232,"correct":true,"confidence":4},{"trial_n":63,"min":85,"max":170,"target":"present","response":"absent","rt":11077.400000095,"correct":false,"confidence":2},{"trial_n":64,"min":84,"max":171,"target":"absent","response":"absent","rt":980.39999997616,"correct":true,"confidence":4},{"trial_n":65,"min":84,"max":171,"target":"absent","response":"present","rt":676.89999997616,"correct":false,"confidence":3},{"trial_n":66,"min":83,"max":172,"target":"absent","response":"absent","rt":621,"correct":true,"confidence":4},{"trial_n":67,"min":83,"max":172,"target":"absent","response":"absent","rt":783.40000009537,"correct":true,"confidence":3},{"trial_n":68,"min":84,"max":171,"target":"present","response":"present","rt":1005.4000000954,"correct":true,"confidence":4},{"trial_n":69,"min":84,"max":171,"target":"present","response":"present","rt":1429.2000000477,"correct":true,"confidence":3},{"trial_n":70,"min":85,"max":170,"target":"absent","response":"absent","rt":758.20000004768,"correct":true,"confidence":4},{"trial_n":71,"min":41,"max":214,"target":"present","response":"present","rt":2598.9000000954,"correct":true,"confidence":-1},{"trial_n":72,"min":41,"max":214,"target":"present","response":"present","rt":1313.8000000715,"correct":true,"confidence":-1},{"trial_n":73,"min":57,"max":198,"target":"absent","response":"absent","rt":747.60000002384,"correct":true,"confidence":-1},{"trial_n":74,"min":57,"max":198,"target":"absent","response":"absent","rt":1774.8000000715,"correct":true,"confidence":-1},{"trial_n":75,"min":73,"max":182,"target":"present","response":"present","rt":585.70000004768,"correct":true,"confidence":-1},{"trial_n":76,"min":73,"max":182,"target":"present","response":"present","rt":756.70000004768,"correct":true,"confidence":-1},{"trial_n":77,"min":89,"max":166,"target":"absent","response":"absent","rt":1037.5,"correct":true,"confidence":-1},{"trial_n":78,"min":89,"max":166,"target":"absent","response":"absent","rt":672.69999992847,"correct":true,"confidence":-1},{"trial_n":79,"min":105,"max":150,"target":"absent","response":"present","rt":1156.5999999046,"correct":false,"confidence":-1},{"trial_n":80,"min":89,"max":166,"target":"present","response":"absent","rt":1108.8000000715,"correct":false,"confidence":-1},{"trial_n":81,"min":81,"max":174,"target":"absent","response":"absent","rt":1185.6999999285,"correct":true,"confidence":-1},{"trial_n":82,"min":81,"max":174,"target":"absent","response":"absent","rt":1333.6000000238,"correct":true,"confidence":-1},{"trial_n":83,"min":89,"max":166,"target":"present","response":"present","rt":726.20000004768,"correct":true,"confidence":-1},{"trial_n":84,"min":89,"max":166,"target":"absent","response":"present","rt":760.10000002384,"correct":false,"confidence":-1},{"trial_n":85,"min":81,"max":174,"target":"present","response":"present","rt":670.10000002384,"correct":true,"confidence":-1},{"trial_n":86,"min":81,"max":174,"target":"present","response":"present","rt":1030.3999999762,"correct":true,"confidence":-1},{"trial_n":87,"min":89,"max":166,"target":"absent","response":"absent","rt":799.39999997616,"correct":true,"confidence":-1},{"trial_n":88,"min":89,"max":166,"target":"absent","response":"absent","rt":770,"correct":true,"confidence":-1},{"trial_n":89,"min":97,"max":158,"target":"absent","response":"absent","rt":1008.7999999523,"correct":true,"confidence":-1},{"trial_n":90,"min":97,"max":158,"target":"absent","response":"present","rt":907,"correct":false,"confidence":-1},{"trial_n":91,"min":93,"max":162,"target":"present","response":"present","rt":2238.1999999285,"correct":true,"confidence":3},{"trial_n":92,"min":93,"max":162,"target":"present","response":"present","rt":904.10000002384,"correct":true,"confidence":5},{"trial_n":93,"min":97,"max":158,"target":"present","response":"absent","rt":917.39999997616,"correct":false,"confidence":4},{"trial_n":94,"min":93,"max":162,"target":"absent","response":"absent","rt":2260,"correct":true,"confidence":3},{"trial_n":95,"min":93,"max":162,"target":"present","response":"present","rt":860.79999995232,"correct":true,"confidence":2},{"trial_n":96,"min":97,"max":158,"target":"absent","response":"absent","rt":754.29999995232,"correct":true,"confidence":4},{"trial_n":97,"min":97,"max":158,"target":"present","response":"present","rt":1039.4000000954,"correct":true,"confidence":4},{"trial_n":98,"min":101,"max":154,"target":"absent","response":"present","rt":874,"correct":false,"confidence":4},{"trial_n":99,"min":97,"max":158,"target":"present","response":"absent","rt":951,"correct":false,"confidence":4},{"trial_n":100,"min":93,"max":162,"target":"present","response":"absent","rt":1573.3999999762,"correct":false,"confidence":2},{"trial_n":101,"min":91,"max":164,"target":"present","response":"present","rt":964.19999992847,"correct":true,"confidence":3},{"trial_n":102,"min":91,"max":164,"target":"present","response":"absent","rt":908.80000007153,"correct":false,"confidence":2},{"trial_n":103,"min":89,"max":166,"target":"absent","response":"present","rt":1288.1000000238,"correct":false,"confidence":3},{"trial_n":104,"min":87,"max":168,"target":"present","response":"present","rt":834.69999992847,"correct":true,"confidence":4},{"trial_n":105,"min":87,"max":168,"target":"absent","response":"absent","rt":734.70000004768,"correct":true,"confidence":4},{"trial_n":106,"min":89,"max":166,"target":"absent","response":"present","rt":821.79999995232,"correct":false,"confidence":4},{"trial_n":107,"min":87,"max":168,"target":"present","response":"present","rt":773.69999992847,"correct":true,"confidence":5},{"trial_n":108,"min":87,"max":168,"target":"present","response":"present","rt":802,"correct":true,"confidence":5},{"trial_n":109,"min":89,"max":166,"target":"present","response":"absent","rt":1195.1999999285,"correct":false,"confidence":3},{"trial_n":110,"min":87,"max":168,"target":"present","response":"present","rt":1261.1000000238,"correct":true,"confidence":4},{"trial_n":111,"min":87,"max":168,"target":"absent","response":"present","rt":906.10000002384,"correct":false,"confidence":4},{"trial_n":112,"min":86,"max":169,"target":"absent","response":"present","rt":826.80000007153,"correct":false,"confidence":3},{"trial_n":113,"min":85,"max":170,"target":"absent","response":"absent","rt":988.60000002384,"correct":true,"confidence":4},{"trial_n":114,"min":85,"max":170,"target":"present","response":"present","rt":648.79999995232,"correct":true,"confidence":5},{"trial_n":115,"min":86,"max":169,"target":"absent","response":"absent","rt":1664.5,"correct":true,"confidence":4},{"trial_n":116,"min":86,"max":169,"target":"absent","response":"absent","rt":1185,"correct":true,"confidence":4},{"trial_n":117,"min":87,"max":168,"target":"present","response":"present","rt":735.09999990463,"correct":true,"confidence":4},{"trial_n":118,"min":87,"max":168,"target":"absent","response":"absent","rt":801.5,"correct":true,"confidence":3},{"trial_n":119,"min":88,"max":167,"target":"absent","response":"absent","rt":912.89999997616,"correct":true,"confidence":5},{"trial_n":120,"min":88,"max":167,"target":"absent","response":"present","rt":1824.7999999523,"correct":false,"confidence":2},{"trial_n":121,"min":87,"max":168,"target":"present","response":"present","rt":851.29999995232,"correct":true,"confidence":4},{"trial_n":122,"min":87,"max":168,"target":"absent","response":"present","rt":986.70000004768,"correct":false,"confidence":3},{"trial_n":123,"min":86,"max":169,"target":"absent","response":"absent","rt":743.59999990463,"correct":true,"confidence":4},{"trial_n":124,"min":86,"max":169,"target":"present","response":"present","rt":726.20000004768,"correct":true,"confidence":5},{"trial_n":125,"min":87,"max":168,"target":"absent","response":"absent","rt":2004.1000000238,"correct":true,"confidence":2},{"trial_n":126,"min":87,"max":168,"target":"present","response":"present","rt":1846.3000000715,"correct":true,"confidence":3},{"trial_n":127,"min":88,"max":167,"target":"absent","response":"absent","rt":1936.3999999762,"correct":true,"confidence":2},{"trial_n":128,"min":88,"max":167,"target":"absent","response":"absent","rt":1625.5,"correct":true,"confidence":3},{"trial_n":129,"min":89,"max":166,"target":"present","response":"present","rt":652.69999992847,"correct":true,"confidence":5},{"trial_n":130,"min":89,"max":166,"target":"absent","response":"absent","rt":1030.5999999046,"correct":true,"confidence":2},{"trial_n":131,"min":90,"max":165,"target":"present","response":"present","rt":669.39999997616,"correct":true,"confidence":5},{"trial_n":132,"min":90,"max":165,"target":"present","response":"present","rt":941.10000002384,"correct":true,"confidence":4},{"trial_n":133,"min":91,"max":164,"target":"present","response":"present","rt":1129.1000000238,"correct":true,"confidence":4},{"trial_n":134,"min":91,"max":164,"target":"present","response":"absent","rt":826.60000002384,"correct":false,"confidence":3},{"trial_n":135,"min":90,"max":165,"target":"present","response":"present","rt":1459.2999999523,"correct":true,"confidence":4},{"trial_n":136,"min":90,"max":165,"target":"present","response":"present","rt":587.10000002384,"correct":true,"confidence":5},{"trial_n":137,"min":91,"max":164,"target":"absent","response":"absent","rt":721.60000002384,"correct":true,"confidence":2},{"trial_n":138,"min":91,"max":164,"target":"absent","response":"absent","rt":1259.1000000238,"correct":true,"confidence":4},{"trial_n":139,"min":92,"max":163,"target":"present","response":"present","rt":590.79999995232,"correct":true,"confidence":5},{"trial_n":140,"min":92,"max":163,"target":"present","response":"present","rt":773.59999990463,"correct":true,"confidence":5}]