[{"trial_n":1,"n_dots":4.25,"target":"left","response":"left","rt":11925.300000191,"correct":true,"confidence":-1},{"trial_n":2,"n_dots":4.25,"target":"right","response":"right","rt":1185.4000000954,"correct":true,"confidence":-1},{"trial_n":3,"n_dots":3.85,"target":"right","response":"right","rt":1305.5999999046,"correct":true,"confidence":-1},{"trial_n":4,"n_dots":3.85,"target":"right","response":"right","rt":974.29999995232,"correct":true,"confidence":-1},{"trial_n":5,"n_dots":3.45,"target":"left","response":"left","rt":995.20000004768,"correct":true,"confidence":-1},{"trial_n":6,"n_dots":3.45,"target":"left","response":"right","rt":2450.0999999046,"correct":false,"confidence":-1},{"trial_n":7,"n_dots":3.85,"target":"left","response":"left","rt":729.39999985695,"correct":true,"confidence":-1},{"trial_n":8,"n_dots":3.85,"target":"left","response":"left","rt":655.39999985695,"correct":true,"confidence":-1},{"trial_n":9,"n_dots":3.65,"target":"left","response":"left","rt":769.20000004768,"correct":true,"confidence":-1},{"trial_n":10,"n_dots":3.65,"target":"right","response":"right","rt":844.5,"correct":true,"confidence":-1},{"trial_n":11,"n_dots":3.45,"target":"left","response":"right","rt":904.5,"correct":false,"confidence":-1},{"trial_n":12,"n_dots":3.65,"target":"right","response":"right","rt":685,"correct":true,"confidence":-1},{"trial_n":13,"n_dots":3.65,"target":"right","response":"right","rt":1030.1999998093,"correct":true,"confidence":-1},{"trial_n":14,"n_dots":3.55,"target":"right","response":"left","rt":718.59999990463,"correct":false,"confidence":-1},{"trial_n":15,"n_dots":3.65,"target":"right","response":"right","rt":742.90000009537,"correct":true,"confidence":-1},{"trial_n":16,"n_dots":3.65,"target":"left","response":"left","rt":847.70000004768,"correct":true,"confidence":-1},{"trial_n":17,"n_dots":3.55,"target":"right","response":"left","rt":737.40000009537,"correct":false,"confidence":-1},{"trial_n":18,"n_dots":3.65,"target":"left","response":"right","rt":789.69999980927,"correct":false,"confidence":-1},{"trial_n":19,"n_dots":3.75,"target":"left","response":"left","rt":603.70000004768,"correct":true,"confidence":-1},{"trial_n":20,"n_dots":3.75,"target":"left","response":"left","rt":887.59999990463,"correct":true,"confidence":-1},{"trial_n":21,"n_dots":3.65,"target":"left","response":"left","rt":811.5,"correct":true,"confidence":4},{"trial_n":22,"n_dots":3.65,"target":"left","response":"left","rt":1158.0999999046,"correct":true,"confidence":4},{"trial_n":23,"n_dots":3.55,"target":"left","response":"left","rt":961,"correct":true,"confidence":3},{"trial_n":24,"n_dots":3.55,"target":"left","response":"right","rt":1206.1000001431,"correct":false,"confidence":2},{"trial_n":25,"n_dots":3.65,"target":"right","response":"left","rt":1020.8999998569,"correct":false,"confidence":2},{"trial_n":26,"n_dots":3.75,"target":"left","response":"left","rt":871.60000014305,"correct":true,"confidence":4},{"trial_n":27,"n_dots":3.75,"target":"right","response":"left","rt":1265.3000001907,"correct":false,"confidence":2},{"trial_n":28,"n_dots":3.85,"target":"left","response":"right","rt":1614.2999999523,"correct":false,"confidence":1},{"trial_n":29,"n_dots":3.95,"target":"right","response":"left","rt":1114.7000000477,"correct":false,"confidence":2},{"trial_n":30,"n_dots":4.05,"target":"left","response":"left","rt":803.09999990463,"correct":true,"confidence":5},{"trial_n":31,"n_dots":4.05,"target":"left","response":"left","rt":1109.2999999523,"correct":true,"confidence":4},{"trial_n":32,"n_dots":3.95,"target":"left","response":"right","rt":825.10000014305,"correct":false,"confidence":2},{"trial_n":33,"n_dots":4.05,"target":"left","response":"left","rt":838.59999990463,"correct":true,"confidence":3},{"trial_n":34,"n_dots":4.05,"target":"right","response":"right","rt":978.39999985695,"correct":true,"confidence":3},{"trial_n":35,"n_dots":3.95,"target":"right","response":"right","rt":1281.4000000954,"correct":true,"confidence":3},{"trial_n":36,"n_dots":3.95,"target":"right","response":"right","rt":769.09999990463,"correct":true,"confidence":4},{"trial_n":37,"n_dots":3.85,"target":"left","response":"left","rt":1341.5,"correct":true,"confidence":4},{"trial_n":38,"n_dots":3.85,"target":"right","response":"right","rt":786.60000014305,"correct":true,"confidence":4},{"trial_n":39,"n_dots":3.75,"target":"right","response":"right","rt":730.60000014305,"correct":true,"confidence":4},{"trial_n":40,"n_dots":3.75,"target":"left","response":"left","rt":873.10000014305,"correct":true,"confidence":3},{"trial_n":41,"n_dots":3.65,"target":"right","response":"left","rt":817.59999990463,"correct":false,"confidence":4},{"trial_n":42,"n_dots":3.75,"target":"left","response":"left","rt":1107.5999999046,"correct":true,"confidence":3},{"trial_n":43,"n_dots":3.75,"target":"left","response":"right","rt":695.30000019073,"correct":false,"confidence":4},{"trial_n":44,"n_dots":3.85,"target":"left","response":"left","rt":574.5,"correct":true,"confidence":5},{"trial_n":45,"n_dots":3.85,"target":"left","response":"left","rt":1066.6000001431,"correct":true,"confidence":4},{"trial_n":46,"n_dots":3.75,"target":"left","response":"left","rt":554.59999990463,"correct":true,"confidence":4},{"trial_n":47,"n_dots":3.75,"target":"right","response":"right","rt":646.39999985695,"correct":true,"confidence":4},{"trial_n":48,"n_dots":3.65,"target":"left","response":"left","rt":787.20000004768,"correct":true,"confidence":4},{"trial_n":49,"n_dots":3.65,"target":"right","response":"right","rt":1156.2000000477,"correct":true,"confidence":3},{"trial_n":50,"n_dots":3.55,"target":"right","response":"right","rt":1093,"correct":true,"confidence":3},{"trial_n":51,"n_dots":3.55,"target":"right","response":"right","rt":650.5,"correct":true,"confidence":4},{"trial_n":52,"n_dots":3.45,"target":"right","response":"right","rt":826.20000004768,"correct":true,"confidence":3},{"trial_n":53,"n_dots":3.45,"target":"right","response":"right","rt":627.70000004768,"correct":true,"confidence":4},{"trial_n":54,"n_dots":3.35,"target":"left","response":"left","rt":743.79999995232,"correct":true,"confidence":3},{"trial_n":55,"n_dots":3.35,"target":"left","response":"left","rt":1520.5,"correct":true,"confidence":3},{"trial_n":56,"n_dots":3.25,"target":"right","response":"right","rt":1426.7000000477,"correct":true,"confidence":2},{"trial_n":57,"n_dots":3.25,"target":"left","response":"right","rt":1802.5999999046,"correct":false,"confidence":2},{"trial_n":58,"n_dots":3.35,"target":"left","response":"left","rt":873.90000009537,"correct":true,"confidence":2},{"trial_n":59,"n_dots":3.35,"target":"left","response":"left","rt":903.29999995232,"correct":true,"confidence":2},{"trial_n":60,"n_dots":3.25,"target":"right","response":"left","rt":1496.6000001431,"correct":false,"confidence":1},{"trial_n":61,"n_dots":3.35,"target":"right","response":"right","rt":1072.5,"correct":true,"confidence":3},{"trial_n":62,"n_dots":3.35,"target":"right","response":"left","rt":701.79999995232,"correct":false,"confidence":2},{"trial_n":63,"n_dots":3.45,"target":"right","response":"right","rt":758.59999990463,"correct":true,"confidence":4},{"trial_n":64,"n_dots":3.45,"target":"right","response":"right","rt":494.59999990463,"correct":true,"confidence":4},{"trial_n":65,"n_dots":3.35,"target":"right","response":"right","rt":832.5,"correct":true,"confidence":2},{"trial_n":66,"n_dots":3.35,"target":"right","response":"left","rt":961.09999990463,"correct":false,"confidence":2},{"trial_n":67,"n_dots":3.45,"target":"left","response":"left","rt":687.79999995232,"correct":true,"confidence":4},{"trial_n":68,"n_dots":3.45,"target":"left","response":"left","rt":877.40000009537,"correct":true,"confidence":4},{"trial_n":69,"n_dots":3.35,"target":"right","response":"right","rt":646.90000009537,"correct":true,"confidence":4},{"trial_n":70,"n_dots":3.35,"target":"right","response":"left","rt":875.20000004768,"correct":false,"confidence":2},{"trial_n":71,"n_dots":3.45,"target":"left","response":"left","rt":695.79999995232,"correct":true,"confidence":2},{"trial_n":72,"n_dots":3.45,"target":"left","response":"left","rt":727.89999985695,"correct":true,"confidence":4},{"trial_n":73,"n_dots":3.35,"target":"right","response":"right","rt":699.90000009537,"correct":true,"confidence":3},{"trial_n":74,"n_dots":3.35,"target":"left","response":"left","rt":713.59999990463,"correct":true,"confidence":3},{"trial_n":75,"n_dots":3.25,"target":"right","response":"right","rt":691.29999995232,"correct":true,"confidence":4},{"trial_n":76,"n_dots":3.25,"target":"right","response":"right","rt":1020,"correct":true,"confidence":1},{"trial_n":77,"n_dots":3.15,"target":"left","response":"left","rt":699.60000014305,"correct":true,"confidence":2},{"trial_n":78,"n_dots":3.15,"target":"right","response":"right","rt":714.40000009537,"correct":true,"confidence":5},{"trial_n":79,"n_dots":3.05,"target":"left","response":"left","rt":718,"correct":true,"confidence":3},{"trial_n":80,"n_dots":3.05,"target":"left","response":"left","rt":654.70000004768,"correct":true,"confidence":2},{"trial_n":81,"n_dots":2.95,"target":"right","response":"right","rt":397.79999995232,"correct":true,"confidence":5},{"trial_n":82,"n_dots":2.95,"target":"left","response":"right","rt":1229.4000000954,"correct":false,"confidence":3},{"trial_n":83,"n_dots":3.05,"target":"right","response":"left","rt":554.79999995232,"correct":false,"confidence":2},{"trial_n":84,"n_dots":3.15,"target":"left","response":"left","rt":1021.9000000954,"correct":true,"confidence":4},{"trial_n":85,"n_dots":3.15,"target":"right","response":"left","rt":1413.4000000954,"correct":false,"confidence":1},{"trial_n":86,"n_dots":3.25,"target":"right","response":"left","rt":1486.9000000954,"correct":false,"confidence":4},{"trial_n":87,"n_dots":3.35,"target":"left","response":"left","rt":467.19999980927,"correct":true,"confidence":5},{"trial_n":88,"n_dots":3.35,"target":"right","response":"left","rt":711.69999980927,"correct":false,"confidence":4},{"trial_n":89,"n_dots":3.45,"target":"right","response":"right","rt":522.5,"correct":true,"confidence":5},{"trial_n":90,"n_dots":3.45,"target":"right","response":"right","rt":1025.6999998093,"correct":true,"confidence":3},{"trial_n":91,"n_dots":3.35,"target":"right","response":"left","rt":739.29999995232,"correct":false,"confidence":2},{"trial_n":92,"n_dots":3.45,"target":"left","response":"left","rt":451.70000004768,"correct":true,"confidence":4},{"trial_n":93,"n_dots":3.45,"target":"left","response":"left","rt":496.90000009537,"correct":true,"confidence":4},{"trial_n":94,"n_dots":3.35,"target":"left","response":"right","rt":576.59999990463,"correct":false,"confidence":4},{"trial_n":95,"n_dots":3.45,"target":"left","response":"left","rt":899.89999985695,"correct":true,"confidence":2},{"trial_n":96,"n_dots":3.45,"target":"right","response":"right","rt":750.09999990463,"correct":true,"confidence":3},{"trial_n":97,"n_dots":3.35,"target":"left","response":"right","rt":731,"correct":false,"confidence":1},{"trial_n":98,"n_dots":3.45,"target":"left","response":"left","rt":499,"correct":true,"confidence":2},{"trial_n":99,"n_dots":3.45,"target":"left","response":"right","rt":786.40000009537,"correct":false,"confidence":2},{"trial_n":100,"n_dots":3.55,"target":"left","response":"left","rt":476.09999990463,"correct":true,"confidence":4},{"trial_n":101,"n_dots":3.55,"target":"right","response":"right","rt":456.29999995232,"correct":true,"confidence":5},{"trial_n":102,"n_dots":3.45,"target":"right","response":"right","rt":532.5,"correct":true,"confidence":5},{"trial_n":103,"n_dots":3.45,"target":"left","response":"left","rt":483.39999985695,"correct":true,"confidence":4},{"trial_n":104,"n_dots":3.35,"target":"left","response":"left","rt":415.39999985695,"correct":true,"confidence":4},{"trial_n":105,"n_dots":3.35,"target":"left","response":"right","rt":443.20000004768,"correct":false,"confidence":2},{"trial_n":106,"n_dots":3.45,"target":"right","response":"right","rt":797.09999990463,"correct":true,"confidence":4},{"trial_n":107,"n_dots":3.45,"target":"right","response":"left","rt":592.29999995232,"correct":false,"confidence":4},{"trial_n":108,"n_dots":3.55,"target":"left","response":"left","rt":471.70000004768,"correct":true,"confidence":4},{"trial_n":109,"n_dots":3.55,"target":"right","response":"right","rt":437.09999990463,"correct":true,"confidence":4},{"trial_n":110,"n_dots":3.45,"target":"left","response":"right","rt":926.30000019073,"correct":false,"confidence":3},{"trial_n":111,"n_dots":3.55,"target":"right","response":"right","rt":930.90000009537,"correct":true,"confidence":2},{"trial_n":112,"n_dots":3.55,"target":"right","response":"right","rt":665.70000004768,"correct":true,"confidence":3},{"trial_n":113,"n_dots":3.45,"target":"right","response":"right","rt":1285.9000000954,"correct":true,"confidence":1},{"trial_n":114,"n_dots":3.45,"target":"left","response":"left","rt":592.40000009537,"correct":true,"confidence":3},{"trial_n":115,"n_dots":3.35,"target":"right","response":"right","rt":484.5,"correct":true,"confidence":4},{"trial_n":116,"n_dots":3.35,"target":"left","response":"right","rt":952.09999990463,"correct":false,"confidence":2},{"trial_n":117,"n_dots":3.45,"target":"right","response":"right","rt":1057,"correct":true,"confidence":2},{"trial_n":118,"n_dots":3.45,"target":"right","response":"right","rt":965.90000009537,"correct":true,"confidence":3},{"trial_n":119,"n_dots":3.35,"target":"right","response":"left","rt":907.60000014305,"correct":false,"confidence":1},{"trial_n":120,"n_dots":3.45,"target":"right","response":"right","rt":722.29999995232,"correct":true,"confidence":4}]