[{"trial_n":1,"n_dots":4.25,"target":"left","response":"right","rt":6931.8999999762,"correct":false,"confidence":-1},{"trial_n":2,"n_dots":4.25,"target":"right","response":"left","rt":739.89999997616,"correct":false,"confidence":-1},{"trial_n":3,"n_dots":4.65,"target":"right","response":"left","rt":565.70000004768,"correct":false,"confidence":-1},{"trial_n":4,"n_dots":5.05,"target":"left","response":"left","rt":433.69999998808,"correct":true,"confidence":-1},{"trial_n":5,"n_dots":5.05,"target":"right","response":"right","rt":369.59999996424,"correct":true,"confidence":-1},{"trial_n":6,"n_dots":4.65,"target":"right","response":"left","rt":838.40000003576,"correct":false,"confidence":-1},{"trial_n":7,"n_dots":5.05,"target":"left","response":"left","rt":100.30000001192,"correct":true,"confidence":-1},{"trial_n":8,"n_dots":5.05,"target":"left","response":"left","rt":449.5,"correct":true,"confidence":-1},{"trial_n":9,"n_dots":4.85,"target":"left","response":"right","rt":604,"correct":false,"confidence":-1},{"trial_n":10,"n_dots":5.05,"target":"left","response":"left","rt":288.39999997616,"correct":true,"confidence":-1},{"trial_n":11,"n_dots":5.05,"target":"left","response":"left","rt":309.80000001192,"correct":true,"confidence":-1},{"trial_n":12,"n_dots":4.85,"target":"right","response":"right","rt":363.59999996424,"correct":true,"confidence":-1},{"trial_n":13,"n_dots":4.85,"target":"right","response":"right","rt":1045.8999999762,"correct":true,"confidence":-1},{"trial_n":14,"n_dots":4.75,"target":"left","response":"left","rt":350.5,"correct":true,"confidence":-1},{"trial_n":15,"n_dots":4.75,"target":"right","response":"right","rt":339.39999997616,"correct":true,"confidence":-1},{"trial_n":16,"n_dots":4.65,"target":"right","response":"right","rt":370.30000001192,"correct":true,"confidence":-1},{"trial_n":17,"n_dots":4.65,"target":"left","response":"right","rt":509.80000001192,"correct":false,"confidence":-1},{"trial_n":18,"n_dots":4.75,"target":"right","response":"right","rt":94.5,"correct":true,"confidence":-1},{"trial_n":19,"n_dots":4.75,"target":"left","response":"left","rt":567.09999996424,"correct":true,"confidence":-1},{"trial_n":20,"n_dots":4.65,"target":"right","response":"right","rt":339.5,"correct":true,"confidence":-1},{"trial_n":21,"n_dots":4.65,"target":"right","response":"right","rt":767.30000001192,"correct":true,"confidence":2},{"trial_n":22,"n_dots":4.55,"target":"right","response":"right","rt":907.30000001192,"correct":true,"confidence":4},{"trial_n":23,"n_dots":4.55,"target":"right","response":"right","rt":1719.5,"correct":true,"confidence":3},{"trial_n":24,"n_dots":4.45,"target":"left","response":"left","rt":1772.1000000238,"correct":true,"confidence":3},{"trial_n":25,"n_dots":4.45,"target":"right","response":"right","rt":904.30000001192,"correct":true,"confidence":4},{"trial_n":26,"n_dots":4.35,"target":"right","response":"right","rt":1291.8000000119,"correct":true,"confidence":4},{"trial_n":27,"n_dots":4.35,"target":"right","response":"right","rt":1299.6000000238,"correct":true,"confidence":4},{"trial_n":28,"n_dots":4.25,"target":"left","response":"left","rt":957.90000003576,"correct":true,"confidence":4},{"trial_n":29,"n_dots":4.25,"target":"right","response":"right","rt":1052.8000000119,"correct":true,"confidence":4},{"trial_n":30,"n_dots":4.15,"target":"right","response":"right","rt":675.5,"correct":true,"confidence":4},{"trial_n":31,"n_dots":4.15,"target":"right","response":"right","rt":929.19999998808,"correct":true,"confidence":3},{"trial_n":32,"n_dots":4.05,"target":"right","response":"left","rt":2410,"correct":false,"confidence":2},{"trial_n":33,"n_dots":4.15,"target":"left","response":"left","rt":1171.6999999881,"correct":true,"confidence":3},{"trial_n":34,"n_dots":4.15,"target":"right","response":"right","rt":11327,"correct":true,"confidence":3},{"trial_n":35,"n_dots":4.05,"target":"right","response":"right","rt":940.80000001192,"correct":true,"confidence":3},{"trial_n":36,"n_dots":4.05,"target":"right","response":"right","rt":705.69999998808,"correct":true,"confidence":3},{"trial_n":37,"n_dots":3.95,"target":"left","response":"left","rt":889.5,"correct":true,"confidence":3},{"trial_n":38,"n_dots":3.95,"target":"left","response":"left","rt":679,"correct":true,"confidence":5},{"trial_n":39,"n_dots":3.85,"target":"left","response":"right","rt":1558.1000000238,"correct":false,"confidence":3},{"trial_n":40,"n_dots":3.95,"target":"right","response":"left","rt":1161.1999999881,"correct":false,"confidence":3},{"trial_n":41,"n_dots":4.05,"target":"left","response":"left","rt":858.29999995232,"correct":true,"confidence":2},{"trial_n":42,"n_dots":4.05,"target":"right","response":"right","rt":736.5,"correct":true,"confidence":3},{"trial_n":43,"n_dots":3.95,"target":"right","response":"right","rt":1156.5999999642,"correct":true,"confidence":2},{"trial_n":44,"n_dots":3.95,"target":"right","response":"left","rt":919.39999997616,"correct":false,"confidence":2},{"trial_n":45,"n_dots":4.05,"target":"left","response":"left","rt":889.69999998808,"correct":true,"confidence":3},{"trial_n":46,"n_dots":4.05,"target":"left","response":"left","rt":580.10000002384,"correct":true,"confidence":3},{"trial_n":47,"n_dots":3.95,"target":"right","response":"right","rt":1810.8000000119,"correct":true,"confidence":2},{"trial_n":48,"n_dots":3.95,"target":"right","response":"left","rt":2710.1000000238,"correct":false,"confidence":2},{"trial_n":49,"n_dots":4.05,"target":"left","response":"right","rt":944.5,"correct":false,"confidence":2},{"trial_n":50,"n_dots":4.15,"target":"left","response":"left","rt":815.19999998808,"correct":true,"confidence":2},{"trial_n":51,"n_dots":4.15,"target":"right","response":"right","rt":711,"correct":true,"confidence":1},{"trial_n":52,"n_dots":4.05,"target":"left","response":"right","rt":547,"correct":false,"confidence":1},{"trial_n":53,"n_dots":4.15,"target":"right","response":"right","rt":744.20000004768,"correct":true,"confidence":1},{"trial_n":54,"n_dots":4.15,"target":"right","response":"left","rt":396.19999998808,"correct":false,"confidence":1},{"trial_n":55,"n_dots":4.25,"target":"right","response":"right","rt":794.69999998808,"correct":true,"confidence":3},{"trial_n":56,"n_dots":4.25,"target":"left","response":"left","rt":1268.3000000119,"correct":true,"confidence":2},{"trial_n":57,"n_dots":4.15,"target":"left","response":"left","rt":660.5,"correct":true,"confidence":2},{"trial_n":58,"n_dots":4.15,"target":"left","response":"left","rt":1953.8999999762,"correct":true,"confidence":4},{"trial_n":59,"n_dots":4.05,"target":"left","response":"left","rt":745.5,"correct":true,"confidence":4},{"trial_n":60,"n_dots":4.05,"target":"left","response":"left","rt":1629.1000000238,"correct":true,"confidence":3},{"trial_n":61,"n_dots":3.95,"target":"left","response":"left","rt":681.69999998808,"correct":true,"confidence":4},{"trial_n":62,"n_dots":3.95,"target":"right","response":"right","rt":1358.3000000119,"correct":true,"confidence":2},{"trial_n":63,"n_dots":3.85,"target":"left","response":"left","rt":616.19999998808,"correct":true,"confidence":4},{"trial_n":64,"n_dots":3.85,"target":"left","response":"left","rt":791.29999995232,"correct":true,"confidence":4},{"trial_n":65,"n_dots":3.75,"target":"right","response":"right","rt":793.89999997616,"correct":true,"confidence":5},{"trial_n":66,"n_dots":3.75,"target":"left","response":"left","rt":1038.8000000119,"correct":true,"confidence":1},{"trial_n":67,"n_dots":3.65,"target":"right","response":"right","rt":935,"correct":true,"confidence":4},{"trial_n":68,"n_dots":3.65,"target":"right","response":"right","rt":2142.2000000477,"correct":true,"confidence":1},{"trial_n":69,"n_dots":3.55,"target":"left","response":"right","rt":971,"correct":false,"confidence":3},{"trial_n":70,"n_dots":3.65,"target":"right","response":"right","rt":676.39999997616,"correct":true,"confidence":4},{"trial_n":71,"n_dots":3.65,"target":"left","response":"right","rt":11642.800000012,"correct":false,"confidence":1},{"trial_n":72,"n_dots":3.75,"target":"right","response":"right","rt":769.29999995232,"correct":true,"confidence":2},{"trial_n":73,"n_dots":3.75,"target":"left","response":"left","rt":810.79999995232,"correct":true,"confidence":2},{"trial_n":74,"n_dots":3.65,"target":"left","response":"left","rt":1590.3000000119,"correct":true,"confidence":4},{"trial_n":75,"n_dots":3.65,"target":"right","response":"left","rt":1919,"correct":false,"confidence":2},{"trial_n":76,"n_dots":3.75,"target":"right","response":"right","rt":689.69999998808,"correct":true,"confidence":5},{"trial_n":77,"n_dots":3.75,"target":"left","response":"left","rt":905.39999997616,"correct":true,"confidence":1},{"trial_n":78,"n_dots":3.65,"target":"right","response":"right","rt":820.19999998808,"correct":true,"confidence":1},{"trial_n":79,"n_dots":3.65,"target":"right","response":"right","rt":859.09999996424,"correct":true,"confidence":3},{"trial_n":80,"n_dots":3.55,"target":"left","response":"left","rt":904.70000004768,"correct":true,"confidence":2},{"trial_n":81,"n_dots":3.55,"target":"left","response":"right","rt":718.19999998808,"correct":false,"confidence":1},{"trial_n":82,"n_dots":3.65,"target":"right","response":"left","rt":2089,"correct":false,"confidence":1},{"trial_n":83,"n_dots":3.75,"target":"right","response":"right","rt":695.59999996424,"correct":true,"confidence":4},{"trial_n":84,"n_dots":3.75,"target":"right","response":"right","rt":836.29999995232,"correct":true,"confidence":4},{"trial_n":85,"n_dots":3.65,"target":"left","response":"left","rt":704.89999997616,"correct":true,"confidence":4},{"trial_n":86,"n_dots":3.65,"target":"right","response":"right","rt":1079.6000000238,"correct":true,"confidence":3},{"trial_n":87,"n_dots":3.55,"target":"right","response":"right","rt":633,"correct":true,"confidence":3},{"trial_n":88,"n_dots":3.55,"target":"left","response":"left","rt":652.59999996424,"correct":true,"confidence":2},{"trial_n":89,"n_dots":3.45,"target":"left","response":"left","rt":665.09999996424,"correct":true,"confidence":4},{"trial_n":90,"n_dots":3.45,"target":"left","response":"left","rt":664.90000003576,"correct":true,"confidence":2},{"trial_n":91,"n_dots":3.35,"target":"right","response":"left","rt":725.19999998808,"correct":false,"confidence":2},{"trial_n":92,"n_dots":3.45,"target":"left","response":"left","rt":827.89999997616,"correct":true,"confidence":4},{"trial_n":93,"n_dots":3.45,"target":"left","response":"left","rt":669.90000003576,"correct":true,"confidence":4},{"trial_n":94,"n_dots":3.35,"target":"left","response":"right","rt":719.59999996424,"correct":false,"confidence":2},{"trial_n":95,"n_dots":3.45,"target":"left","response":"left","rt":738.29999995232,"correct":true,"confidence":2},{"trial_n":96,"n_dots":3.45,"target":"left","response":"right","rt":789.5,"correct":false,"confidence":3},{"trial_n":97,"n_dots":3.55,"target":"right","response":"right","rt":616.59999996424,"correct":true,"confidence":4},{"trial_n":98,"n_dots":3.55,"target":"left","response":"left","rt":754.69999998808,"correct":true,"confidence":4},{"trial_n":99,"n_dots":3.45,"target":"left","response":"left","rt":1413.8999999762,"correct":true,"confidence":3},{"trial_n":100,"n_dots":3.45,"target":"left","response":"right","rt":593.29999995232,"correct":false,"confidence":2},{"trial_n":101,"n_dots":3.55,"target":"left","response":"left","rt":543.89999997616,"correct":true,"confidence":2},{"trial_n":102,"n_dots":3.55,"target":"right","response":"right","rt":481.40000003576,"correct":true,"confidence":3},{"trial_n":103,"n_dots":3.45,"target":"left","response":"left","rt":1690.0999999642,"correct":true,"confidence":1},{"trial_n":104,"n_dots":3.45,"target":"right","response":"right","rt":444.19999998808,"correct":true,"confidence":3},{"trial_n":105,"n_dots":3.35,"target":"right","response":"right","rt":1583.6000000238,"correct":true,"confidence":2},{"trial_n":106,"n_dots":3.35,"target":"left","response":"left","rt":1126.4000000358,"correct":true,"confidence":2},{"trial_n":107,"n_dots":3.25,"target":"left","response":"left","rt":564.89999997616,"correct":true,"confidence":3},{"trial_n":108,"n_dots":3.25,"target":"right","response":"left","rt":1832.9000000358,"correct":false,"confidence":1},{"trial_n":109,"n_dots":3.35,"target":"left","response":"left","rt":1151.6999999881,"correct":true,"confidence":2},{"trial_n":110,"n_dots":3.35,"target":"right","response":"right","rt":823.39999997616,"correct":true,"confidence":2},{"trial_n":111,"n_dots":3.25,"target":"left","response":"left","rt":750.5,"correct":true,"confidence":2},{"trial_n":112,"n_dots":3.25,"target":"left","response":"left","rt":705.89999997616,"correct":true,"confidence":1},{"trial_n":113,"n_dots":3.15,"target":"right","response":"left","rt":2143.4000000358,"correct":false,"confidence":1},{"trial_n":114,"n_dots":3.25,"target":"left","response":"right","rt":727.59999996424,"correct":false,"confidence":1},{"trial_n":115,"n_dots":3.35,"target":"right","response":"right","rt":649,"correct":true,"confidence":2},{"trial_n":116,"n_dots":3.35,"target":"right","response":"left","rt":1041.9000000358,"correct":false,"confidence":2},{"trial_n":117,"n_dots":3.45,"target":"right","response":"right","rt":595.90000003576,"correct":true,"confidence":2},{"trial_n":118,"n_dots":3.45,"target":"left","response":"left","rt":763,"correct":true,"confidence":1},{"trial_n":119,"n_dots":3.35,"target":"left","response":"right","rt":900.5,"correct":false,"confidence":2},{"trial_n":120,"n_dots":3.45,"target":"right","response":"left","rt":1106.5999999642,"correct":false,"confidence":2}]