[{"trial_n":1,"n_dots":4.25,"target":"left","response":"left","rt":7977.8999999762,"correct":true,"confidence":-1},{"trial_n":2,"n_dots":4.25,"target":"left","response":"right","rt":1018.6000000238,"correct":false,"confidence":-1},{"trial_n":3,"n_dots":4.65,"target":"right","response":"right","rt":845,"correct":true,"confidence":-1},{"trial_n":4,"n_dots":4.65,"target":"left","response":"left","rt":254.10000002384,"correct":true,"confidence":-1},{"trial_n":5,"n_dots":4.25,"target":"right","response":"right","rt":228.79999995232,"correct":true,"confidence":-1},{"trial_n":6,"n_dots":4.25,"target":"left","response":"left","rt":106.39999997616,"correct":true,"confidence":-1},{"trial_n":7,"n_dots":3.85,"target":"right","response":"left","rt":961.09999996424,"correct":false,"confidence":-1},{"trial_n":8,"n_dots":4.05,"target":"right","response":"right","rt":18.400000035763,"correct":true,"confidence":-1},{"trial_n":9,"n_dots":4.05,"target":"left","response":"right","rt":1317.1000000238,"correct":false,"confidence":-1},{"trial_n":10,"n_dots":4.25,"target":"left","response":"left","rt":1111.4000000358,"correct":true,"confidence":-1},{"trial_n":11,"n_dots":4.25,"target":"left","response":"left","rt":978,"correct":true,"confidence":-1},{"trial_n":12,"n_dots":4.05,"target":"right","response":"left","rt":840,"correct":false,"confidence":-1},{"trial_n":13,"n_dots":4.15,"target":"right","response":"left","rt":59.799999952316,"correct":false,"confidence":-1},{"trial_n":14,"n_dots":4.25,"target":"left","response":"left","rt":703.09999996424,"correct":true,"confidence":-1},{"trial_n":15,"n_dots":4.25,"target":"right","response":"left","rt":406.20000004768,"correct":false,"confidence":-1},{"trial_n":16,"n_dots":4.35,"target":"left","response":"left","rt":8,"correct":true,"confidence":-1},{"trial_n":17,"n_dots":4.35,"target":"left","response":"left","rt":53,"correct":true,"confidence":-1},{"trial_n":18,"n_dots":4.25,"target":"left","response":"left","rt":40.800000011921,"correct":true,"confidence":-1},{"trial_n":19,"n_dots":4.25,"target":"right","response":"left","rt":41.300000011921,"correct":false,"confidence":-1},{"trial_n":20,"n_dots":4.35,"target":"right","response":"right","rt":255.80000001192,"correct":true,"confidence":-1},{"trial_n":21,"n_dots":4.35,"target":"right","response":"right","rt":649.80000001192,"correct":true,"confidence":3},{"trial_n":22,"n_dots":4.25,"target":"left","response":"left","rt":85.600000023842,"correct":true,"confidence":4},{"trial_n":23,"n_dots":4.25,"target":"left","response":"left","rt":944.89999997616,"correct":true,"confidence":3},{"trial_n":24,"n_dots":4.15,"target":"left","response":"left","rt":1120.4000000358,"correct":true,"confidence":2},{"trial_n":25,"n_dots":4.15,"target":"left","response":"left","rt":-1.1999999880791,"correct":true,"confidence":5},{"trial_n":26,"n_dots":4.05,"target":"right","response":"right","rt":50.900000035763,"correct":true,"confidence":5},{"trial_n":27,"n_dots":4.05,"target":"left","response":"left","rt":1228.7000000477,"correct":true,"confidence":3},{"trial_n":28,"n_dots":3.95,"target":"right","response":"right","rt":102.90000003576,"correct":true,"confidence":4},{"trial_n":29,"n_dots":3.95,"target":"right","response":"right","rt":46.5,"correct":true,"confidence":5},{"trial_n":30,"n_dots":3.85,"target":"left","response":"right","rt":97.399999976158,"correct":false,"confidence":4},{"trial_n":31,"n_dots":3.95,"target":"left","response":"right","rt":-0.80000001192093,"correct":false,"confidence":4},{"trial_n":32,"n_dots":4.05,"target":"right","response":"right","rt":2927.1000000238,"correct":true,"confidence":4},{"trial_n":33,"n_dots":4.05,"target":"right","response":"right","rt":1004.2999999523,"correct":true,"confidence":4},{"trial_n":34,"n_dots":3.95,"target":"right","response":"right","rt":778.20000004768,"correct":true,"confidence":4},{"trial_n":35,"n_dots":3.95,"target":"left","response":"left","rt":297.69999998808,"correct":true,"confidence":5},{"trial_n":36,"n_dots":3.85,"target":"left","response":"right","rt":162.40000003576,"correct":false,"confidence":3},{"trial_n":37,"n_dots":3.95,"target":"left","response":"right","rt":274.10000002384,"correct":false,"confidence":4},{"trial_n":38,"n_dots":4.05,"target":"right","response":"right","rt":199.69999998808,"correct":true,"confidence":5},{"trial_n":39,"n_dots":4.05,"target":"right","response":"right","rt":1383.5,"correct":true,"confidence":1},{"trial_n":40,"n_dots":3.95,"target":"left","response":"right","rt":422.60000002384,"correct":false,"confidence":4},{"trial_n":41,"n_dots":4.05,"target":"right","response":"left","rt":1610.3000000119,"correct":false,"confidence":1},{"trial_n":42,"n_dots":4.15,"target":"right","response":"right","rt":85.699999988079,"correct":true,"confidence":4},{"trial_n":43,"n_dots":4.15,"target":"right","response":"right","rt":136.89999997616,"correct":true,"confidence":3},{"trial_n":44,"n_dots":4.05,"target":"left","response":"right","rt":793.10000002384,"correct":false,"confidence":1},{"trial_n":45,"n_dots":4.15,"target":"right","response":"right","rt":257.5,"correct":true,"confidence":1},{"trial_n":46,"n_dots":4.15,"target":"right","response":"right","rt":750.40000003576,"correct":true,"confidence":3},{"trial_n":47,"n_dots":4.05,"target":"right","response":"right","rt":61.800000011921,"correct":true,"confidence":4},{"trial_n":48,"n_dots":4.05,"target":"left","response":"right","rt":207.59999996424,"correct":false,"confidence":1},{"trial_n":49,"n_dots":4.15,"target":"right","response":"right","rt":701.30000001192,"correct":true,"confidence":3},{"trial_n":50,"n_dots":4.15,"target":"right","response":"right","rt":139.39999997616,"correct":true,"confidence":1},{"trial_n":51,"n_dots":4.05,"target":"left","response":"left","rt":2093.3000000119,"correct":true,"confidence":4},{"trial_n":52,"n_dots":4.05,"target":"right","response":"right","rt":475.30000001192,"correct":true,"confidence":3},{"trial_n":53,"n_dots":3.95,"target":"left","response":"left","rt":426.70000004768,"correct":true,"confidence":1},{"trial_n":54,"n_dots":3.95,"target":"left","response":"left","rt":533.30000001192,"correct":true,"confidence":5},{"trial_n":55,"n_dots":3.85,"target":"right","response":"right","rt":365.19999998808,"correct":true,"confidence":1},{"trial_n":56,"n_dots":3.85,"target":"right","response":"right","rt":854.80000001192,"correct":true,"confidence":4},{"trial_n":57,"n_dots":3.75,"target":"right","response":"right","rt":750.19999998808,"correct":true,"confidence":4},{"trial_n":58,"n_dots":3.75,"target":"right","response":"right","rt":0.69999998807907,"correct":true,"confidence":1},{"trial_n":59,"n_dots":3.65,"target":"right","response":"right","rt":46.099999964237,"correct":true,"confidence":1},{"trial_n":60,"n_dots":3.65,"target":"right","response":"right","rt":88.699999988079,"correct":true,"confidence":5},{"trial_n":61,"n_dots":3.55,"target":"left","response":"left","rt":843.30000001192,"correct":true,"confidence":3},{"trial_n":62,"n_dots":3.55,"target":"left","response":"left","rt":818.79999995232,"correct":true,"confidence":4},{"trial_n":63,"n_dots":3.45,"target":"left","response":"right","rt":1375.8000000119,"correct":false,"confidence":1},{"trial_n":64,"n_dots":3.55,"target":"left","response":"left","rt":1113.3999999762,"correct":true,"confidence":1},{"trial_n":65,"n_dots":3.55,"target":"right","response":"right","rt":421,"correct":true,"confidence":5},{"trial_n":66,"n_dots":3.45,"target":"right","response":"right","rt":18.199999988079,"correct":true,"confidence":4},{"trial_n":67,"n_dots":3.45,"target":"left","response":"left","rt":497.89999997616,"correct":true,"confidence":3},{"trial_n":68,"n_dots":3.35,"target":"left","response":"right","rt":31.699999988079,"correct":false,"confidence":1},{"trial_n":69,"n_dots":3.45,"target":"right","response":"left","rt":2254.3999999762,"correct":false,"confidence":1},{"trial_n":70,"n_dots":3.55,"target":"right","response":"left","rt":754.59999996424,"correct":false,"confidence":4},{"trial_n":71,"n_dots":3.65,"target":"right","response":"right","rt":239.30000001192,"correct":true,"confidence":3},{"trial_n":72,"n_dots":3.65,"target":"left","response":"left","rt":2468.9000000358,"correct":true,"confidence":1},{"trial_n":73,"n_dots":3.55,"target":"right","response":"right","rt":16.099999964237,"correct":true,"confidence":5},{"trial_n":74,"n_dots":3.55,"target":"left","response":"left","rt":1262.6000000238,"correct":true,"confidence":4},{"trial_n":75,"n_dots":3.45,"target":"right","response":"right","rt":2191.1000000238,"correct":true,"confidence":4},{"trial_n":76,"n_dots":3.45,"target":"right","response":"right","rt":635.5,"correct":true,"confidence":4},{"trial_n":77,"n_dots":3.35,"target":"left","response":"left","rt":1309.8000000119,"correct":true,"confidence":4},{"trial_n":78,"n_dots":3.35,"target":"right","response":"right","rt":292.70000004768,"correct":true,"confidence":5},{"trial_n":79,"n_dots":3.25,"target":"right","response":"right","rt":140.69999998808,"correct":true,"confidence":4},{"trial_n":80,"n_dots":3.25,"target":"left","response":"right","rt":716.80000001192,"correct":false,"confidence":4},{"trial_n":81,"n_dots":3.35,"target":"right","response":"left","rt":544.5,"correct":false,"confidence":1},{"trial_n":82,"n_dots":3.45,"target":"left","response":"right","rt":0.39999997615814,"correct":false,"confidence":1},{"trial_n":83,"n_dots":3.55,"target":"left","response":"right","rt":1286.3000000119,"correct":false,"confidence":1},{"trial_n":84,"n_dots":3.65,"target":"right","response":"right","rt":148.10000002384,"correct":true,"confidence":4},{"trial_n":85,"n_dots":3.65,"target":"right","response":"right","rt":660.19999998808,"correct":true,"confidence":4},{"trial_n":86,"n_dots":3.55,"target":"right","response":"right","rt":337.90000003576,"correct":true,"confidence":4},{"trial_n":87,"n_dots":3.55,"target":"left","response":"left","rt":522.90000003576,"correct":true,"confidence":4},{"trial_n":88,"n_dots":3.45,"target":"left","response":"right","rt":319,"correct":false,"confidence":4},{"trial_n":89,"n_dots":3.55,"target":"left","response":"left","rt":449.30000001192,"correct":true,"confidence":4},{"trial_n":90,"n_dots":3.55,"target":"left","response":"left","rt":408.19999998808,"correct":true,"confidence":4},{"trial_n":91,"n_dots":3.45,"target":"left","response":"left","rt":394.89999997616,"correct":true,"confidence":4},{"trial_n":92,"n_dots":3.45,"target":"right","response":"left","rt":591,"correct":false,"confidence":4},{"trial_n":93,"n_dots":3.55,"target":"left","response":"right","rt":164.40000003576,"correct":false,"confidence":4},{"trial_n":94,"n_dots":3.65,"target":"left","response":"left","rt":1028.8000000119,"correct":true,"confidence":5},{"trial_n":95,"n_dots":3.65,"target":"right","response":"right","rt":371.40000003576,"correct":true,"confidence":4},{"trial_n":96,"n_dots":3.55,"target":"left","response":"left","rt":202.5,"correct":true,"confidence":3},{"trial_n":97,"n_dots":3.55,"target":"right","response":"right","rt":167.10000002384,"correct":true,"confidence":5},{"trial_n":98,"n_dots":3.45,"target":"right","response":"right","rt":855.5,"correct":true,"confidence":5},{"trial_n":99,"n_dots":3.45,"target":"right","response":"right","rt":260.29999995232,"correct":true,"confidence":4},{"trial_n":100,"n_dots":3.35,"target":"right","response":"right","rt":277.69999998808,"correct":true,"confidence":4},{"trial_n":101,"n_dots":3.35,"target":"right","response":"right","rt":872.5,"correct":true,"confidence":4},{"trial_n":102,"n_dots":3.25,"target":"right","response":"right","rt":1290.6999999881,"correct":true,"confidence":1},{"trial_n":103,"n_dots":3.25,"target":"left","response":"right","rt":172.09999996424,"correct":false,"confidence":4},{"trial_n":104,"n_dots":3.35,"target":"left","response":"left","rt":1421.6999999881,"correct":true,"confidence":5},{"trial_n":105,"n_dots":3.35,"target":"left","response":"left","rt":666.10000002384,"correct":true,"confidence":4},{"trial_n":106,"n_dots":3.25,"target":"right","response":"left","rt":5028.3000000119,"correct":false,"confidence":5},{"trial_n":107,"n_dots":3.35,"target":"right","response":"right","rt":394.29999995232,"correct":true,"confidence":4},{"trial_n":108,"n_dots":3.35,"target":"left","response":"left","rt":585.10000002384,"correct":true,"confidence":4},{"trial_n":109,"n_dots":3.25,"target":"left","response":"left","rt":413.09999996424,"correct":true,"confidence":4},{"trial_n":110,"n_dots":3.25,"target":"left","response":"left","rt":464.29999995232,"correct":true,"confidence":4},{"trial_n":111,"n_dots":3.15,"target":"left","response":"left","rt":463,"correct":true,"confidence":4},{"trial_n":112,"n_dots":3.15,"target":"left","response":"right","rt":17670.399999976,"correct":false,"confidence":1},{"trial_n":113,"n_dots":3.25,"target":"left","response":"left","rt":467.29999995232,"correct":true,"confidence":5},{"trial_n":114,"n_dots":3.25,"target":"right","response":"right","rt":468.90000003576,"correct":true,"confidence":5},{"trial_n":115,"n_dots":3.15,"target":"left","response":"left","rt":525.89999997616,"correct":true,"confidence":5},{"trial_n":116,"n_dots":3.15,"target":"right","response":"left","rt":474.09999996424,"correct":false,"confidence":5},{"trial_n":117,"n_dots":3.25,"target":"left","response":"left","rt":449.5,"correct":true,"confidence":5},{"trial_n":118,"n_dots":3.25,"target":"left","response":"left","rt":534.59999996424,"correct":true,"confidence":5},{"trial_n":119,"n_dots":3.15,"target":"left","response":"left","rt":205.70000004768,"correct":true,"confidence":1},{"trial_n":120,"n_dots":3.15,"target":"right","response":"left","rt":271,"correct":false,"confidence":5}]