[{"trial_n":1,"span":8,"encoder":"71286179","distractor":"71986179","target":"present","response":"present","rt":"4579.7000000477","correct":true,"confidence":-1},{"trial_n":2,"span":8,"encoder":"64528855","distractor":"64428855","target":"present","response":"absent","rt":"4130.9000000954","correct":false,"confidence":-1},{"trial_n":3,"span":6,"encoder":"449195","distractor":"449197","target":"absent","response":"absent","rt":"2461.1999998093","correct":true,"confidence":-1},{"trial_n":4,"span":6,"encoder":"650434","distractor":"650437","target":"absent","response":"absent","rt":"3886.2999999523","correct":true,"confidence":-1},{"trial_n":5,"span":8,"encoder":"22417049","distractor":"22417149","target":"present","response":"absent","rt":"3824.7000000477","correct":false,"confidence":-1},{"trial_n":6,"span":6,"encoder":"250381","distractor":"250331","target":"present","response":"absent","rt":"2358.2000000477","correct":false,"confidence":-1},{"trial_n":7,"span":4,"encoder":"5896","distractor":"8896","target":"absent","response":"absent","rt":"2015.2999999523","correct":true,"confidence":-1},{"trial_n":8,"span":4,"encoder":"2500","distractor":"2800","target":"absent","response":"absent","rt":"1359.6000001431","correct":true,"confidence":-1},{"trial_n":9,"span":6,"encoder":"287255","distractor":"787255","target":"absent","response":"absent","rt":"1428","correct":true,"confidence":-1},{"trial_n":10,"span":6,"encoder":"559651","distractor":"589651","target":"present","response":"present","rt":"2753.2000000477","correct":true,"confidence":-1},{"trial_n":11,"span":8,"encoder":"44457402","distractor":"44457401","target":"absent","response":"absent","rt":"1875.6000001431","correct":true,"confidence":-1},{"trial_n":12,"span":8,"encoder":"76385837","distractor":"86385837","target":"present","response":"present","rt":"1760.5","correct":true,"confidence":-1},{"trial_n":13,"span":9,"encoder":"013332035","distractor":"013132035","target":"absent","response":"absent","rt":"1652.7999999523","correct":true,"confidence":-1},{"trial_n":14,"span":9,"encoder":"324620329","distractor":"224620329","target":"present","response":"present","rt":"1638.3999998569","correct":true,"confidence":-1},{"trial_n":15,"span":10,"encoder":"6628055568","distractor":"6628051568","target":"absent","response":"absent","rt":"1902.2999999523","correct":true,"confidence":-1},{"trial_n":16,"span":10,"encoder":"9171897664","distractor":"9171597664","target":"absent","response":"present","rt":"2081.5","correct":false,"confidence":-1},{"trial_n":17,"span":9,"encoder":"528554788","distractor":"528554758","target":"present","response":"present","rt":"2730.1999998093","correct":true,"confidence":-1},{"trial_n":18,"span":9,"encoder":"742215366","distractor":"742215362","target":"absent","response":"absent","rt":"3552.3999998569","correct":true,"confidence":-1},{"trial_n":19,"span":10,"encoder":"2430431471","distractor":"2430401471","target":"absent","response":"present","rt":"2760","correct":false,"confidence":-1},{"trial_n":20,"span":9,"encoder":"183441504","distractor":"183841504","target":"absent","response":"absent","rt":"2325.7000000477","correct":true,"confidence":-1},{"trial_n":21,"span":9,"encoder":"707250768","distractor":"767250768","target":"absent","response":"present","rt":"2698.8000001907","correct":false,"confidence":3},{"trial_n":22,"span":8,"encoder":"56782809","distractor":"56482809","target":"present","response":"present","rt":"2726.5999999046","correct":true,"confidence":2},{"trial_n":23,"span":8,"encoder":"34528481","distractor":"34528781","target":"absent","response":"absent","rt":"2564.2999999523","correct":true,"confidence":4},{"trial_n":24,"span":9,"encoder":"127139683","distractor":"177139683","target":"present","response":"present","rt":"2027","correct":true,"confidence":4},{"trial_n":25,"span":9,"encoder":"881160714","distractor":"891160714","target":"present","response":"present","rt":"1989.3999998569","correct":true,"confidence":3},{"trial_n":26,"span":10,"encoder":"0521185111","distractor":"0523185111","target":"absent","response":"absent","rt":"2648.7000000477","correct":true,"confidence":5},{"trial_n":27,"span":10,"encoder":"8016539166","distractor":"8016569166","target":"absent","response":"present","rt":"3747.1999998093","correct":false,"confidence":3},{"trial_n":28,"span":9,"encoder":"546272494","distractor":"546270494","target":"present","response":"present","rt":"2009.5","correct":true,"confidence":3},{"trial_n":29,"span":9,"encoder":"513351105","distractor":"513851105","target":"absent","response":"absent","rt":"2313.3999998569","correct":true,"confidence":5},{"trial_n":30,"span":10,"encoder":"3803100614","distractor":"3803100644","target":"absent","response":"absent","rt":"1913.1000001431","correct":true,"confidence":5},{"trial_n":31,"span":10,"encoder":"1888796373","distractor":"1888793373","target":"absent","response":"present","rt":"2791.3000001907","correct":false,"confidence":4},{"trial_n":32,"span":9,"encoder":"023068774","distractor":"021068774","target":"present","response":"present","rt":"3695.4000000954","correct":true,"confidence":4},{"trial_n":33,"span":9,"encoder":"336360483","distractor":"336360083","target":"absent","response":"present","rt":"3357.4000000954","correct":false,"confidence":4},{"trial_n":34,"span":8,"encoder":"26292660","distractor":"26202660","target":"present","response":"absent","rt":"4553","correct":false,"confidence":3},{"trial_n":35,"span":7,"encoder":"2743631","distractor":"2743639","target":"present","response":"present","rt":"3625.1000001431","correct":true,"confidence":4},{"trial_n":36,"span":7,"encoder":"5647090","distractor":"5637090","target":"present","response":"present","rt":"3473.6000001431","correct":true,"confidence":4},{"trial_n":37,"span":8,"encoder":"89364912","distractor":"89364012","target":"present","response":"present","rt":"3343.4000000954","correct":true,"confidence":4},{"trial_n":38,"span":8,"encoder":"59589314","distractor":"49589314","target":"present","response":"present","rt":"3944.2000000477","correct":true,"confidence":4},{"trial_n":39,"span":9,"encoder":"448030741","distractor":"548030741","target":"absent","response":"absent","rt":"2895.7999999523","correct":true,"confidence":5},{"trial_n":40,"span":9,"encoder":"882939237","distractor":"852939237","target":"present","response":"present","rt":"2489.8999998569","correct":true,"confidence":4},{"trial_n":41,"span":10,"encoder":"2620429909","distractor":"2622429909","target":"present","response":"present","rt":"3164.1000001431","correct":true,"confidence":2},{"trial_n":42,"span":10,"encoder":"7896258964","distractor":"7896254964","target":"absent","response":"present","rt":"2935.8999998569","correct":false,"confidence":4},{"trial_n":43,"span":9,"encoder":"637476939","distractor":"637676939","target":"present","response":"present","rt":"3034.8999998569","correct":true,"confidence":4},{"trial_n":44,"span":9,"encoder":"149301215","distractor":"149601215","target":"present","response":"present","rt":"3317.3999998569","correct":true,"confidence":3},{"trial_n":45,"span":10,"encoder":"0053766282","distractor":"0253766282","target":"present","response":"present","rt":"3612.7999999523","correct":true,"confidence":2},{"trial_n":46,"span":10,"encoder":"9212406522","distractor":"9217406522","target":"absent","response":"absent","rt":"3469","correct":true,"confidence":5},{"trial_n":47,"span":11,"encoder":"28625125082","distractor":"27625125082","target":"present","response":"present","rt":"3064.3999998569","correct":true,"confidence":4},{"trial_n":48,"span":11,"encoder":"17296013142","distractor":"17291013142","target":"absent","response":"absent","rt":"3192.2000000477","correct":true,"confidence":5},{"trial_n":49,"span":12,"encoder":"765306236246","distractor":"765306231246","target":"present","response":"present","rt":"2291.3999998569","correct":true,"confidence":3},{"trial_n":50,"span":12,"encoder":"554278973307","distractor":"554278993307","target":"absent","response":"absent","rt":"5116.7999999523","correct":true,"confidence":4},{"trial_n":51,"span":13,"encoder":"6735668158789","distractor":"6735768158789","target":"present","response":"present","rt":"3815.4000000954","correct":true,"confidence":4},{"trial_n":52,"span":13,"encoder":"4040423932886","distractor":"4040483932886","target":"absent","response":"absent","rt":"4327.9000000954","correct":true,"confidence":4},{"trial_n":53,"span":14,"encoder":"04428371311849","distractor":"04422371311849","target":"absent","response":"absent","rt":"3113.0999999046","correct":true,"confidence":5},{"trial_n":54,"span":14,"encoder":"90121443276627","distractor":"99121443276627","target":"present","response":"present","rt":"4129.5999999046","correct":true,"confidence":4},{"trial_n":55,"span":15,"encoder":"802942417057835","distractor":"802942407057835","target":"present","response":"absent","rt":"4802.9000000954","correct":false,"confidence":4},{"trial_n":56,"span":14,"encoder":"69817971292074","distractor":"69817941292074","target":"absent","response":"present","rt":"7793.9000000954","correct":false,"confidence":4},{"trial_n":57,"span":13,"encoder":"4300275951604","distractor":"4307275951604","target":"absent","response":"present","rt":"4982.7999999523","correct":false,"confidence":4},{"trial_n":58,"span":12,"encoder":"970702887261","distractor":"971702887261","target":"present","response":"absent","rt":"7884.7999999523","correct":false,"confidence":4},{"trial_n":59,"span":11,"encoder":"78211663004","distractor":"78211693004","target":"absent","response":"absent","rt":"4614.7999999523","correct":true,"confidence":4},{"trial_n":60,"span":11,"encoder":"77757840188","distractor":"74757840188","target":"absent","response":"absent","rt":"1747","correct":true,"confidence":5},{"trial_n":61,"span":12,"encoder":"175579802193","distractor":"375579802193","target":"present","response":"present","rt":"3676.5","correct":true,"confidence":5},{"trial_n":62,"span":12,"encoder":"750258745142","distractor":"750858745142","target":"present","response":"present","rt":"3268","correct":true,"confidence":3},{"trial_n":63,"span":13,"encoder":"3640096807308","distractor":"3640096707308","target":"present","response":"present","rt":"3336.6000001431","correct":true,"confidence":4},{"trial_n":64,"span":13,"encoder":"4299980258993","distractor":"4299980258793","target":"absent","response":"absent","rt":"3082.7999999523","correct":true,"confidence":4},{"trial_n":65,"span":14,"encoder":"82482608553167","distractor":"82484608553167","target":"present","response":"present","rt":"3365.2000000477","correct":true,"confidence":3},{"trial_n":66,"span":14,"encoder":"84393460548315","distractor":"84393460538315","target":"present","response":"absent","rt":"2453.4000000954","correct":false,"confidence":4},{"trial_n":67,"span":13,"encoder":"4163946899529","distractor":"4163926899529","target":"present","response":"present","rt":"3835.1999998093","correct":true,"confidence":5},{"trial_n":68,"span":13,"encoder":"5997163652599","distractor":"5997163652569","target":"present","response":"present","rt":"2872.6000001431","correct":true,"confidence":4},{"trial_n":69,"span":14,"encoder":"53772368409395","distractor":"53772368409385","target":"absent","response":"present","rt":"3023.7999999523","correct":false,"confidence":4},{"trial_n":70,"span":13,"encoder":"3103957739137","distractor":"3103958739137","target":"absent","response":"absent","rt":"2773.4000000954","correct":true,"confidence":5},{"trial_n":71,"span":8,"encoder":"63751169","distractor":"62751169","target":"present","response":"present","rt":"4648.7999999523","correct":true,"confidence":-1},{"trial_n":72,"span":8,"encoder":"58887298","distractor":"57887298","target":"present","response":"present","rt":"2101.2999999523","correct":true,"confidence":-1},{"trial_n":73,"span":9,"encoder":"071925803","distractor":"011925803","target":"absent","response":"absent","rt":"3380.4000000954","correct":true,"confidence":-1},{"trial_n":74,"span":9,"encoder":"754829328","distractor":"714829328","target":"absent","response":"absent","rt":"4730.1999998093","correct":true,"confidence":-1},{"trial_n":75,"span":10,"encoder":"2184424298","distractor":"2184424290","target":"present","response":"absent","rt":"3606.7000000477","correct":false,"confidence":-1},{"trial_n":76,"span":9,"encoder":"704422208","distractor":"704432208","target":"absent","response":"present","rt":"4476.4000000954","correct":false,"confidence":-1},{"trial_n":77,"span":8,"encoder":"78137368","distractor":"98137368","target":"absent","response":"absent","rt":"3731.7999999523","correct":true,"confidence":-1},{"trial_n":78,"span":8,"encoder":"91414053","distractor":"91914053","target":"present","response":"absent","rt":"5830.8999998569","correct":false,"confidence":-1},{"trial_n":79,"span":7,"encoder":"9172013","distractor":"9172043","target":"absent","response":"present","rt":"891.79999995232","correct":false,"confidence":-1},{"trial_n":80,"span":6,"encoder":"280373","distractor":"250373","target":"present","response":"absent","rt":"1495.7999999523","correct":false,"confidence":-1},{"trial_n":81,"span":5,"encoder":"13912","distractor":"13913","target":"absent","response":"present","rt":"4784.7000000477","correct":false,"confidence":-1},{"trial_n":82,"span":4,"encoder":"5667","distractor":"5687","target":"present","response":"present","rt":"1699.8000001907","correct":true,"confidence":-1},{"trial_n":83,"span":4,"encoder":"7285","distractor":"7385","target":"present","response":"present","rt":"1871.7999999523","correct":true,"confidence":-1},{"trial_n":84,"span":5,"encoder":"01328","distractor":"01329","target":"present","response":"present","rt":"927.79999995232","correct":true,"confidence":-1},{"trial_n":85,"span":5,"encoder":"31101","distractor":"31151","target":"absent","response":"absent","rt":"1928.8000001907","correct":true,"confidence":-1},{"trial_n":86,"span":6,"encoder":"890206","distractor":"890208","target":"absent","response":"absent","rt":"2615.7999999523","correct":true,"confidence":-1},{"trial_n":87,"span":6,"encoder":"879024","distractor":"879924","target":"present","response":"present","rt":"3631.7999999523","correct":true,"confidence":-1},{"trial_n":88,"span":7,"encoder":"4307402","distractor":"4307902","target":"present","response":"present","rt":"3510.9000000954","correct":true,"confidence":-1},{"trial_n":89,"span":7,"encoder":"9656998","distractor":"7656998","target":"present","response":"present","rt":"2798.2000000477","correct":true,"confidence":-1},{"trial_n":90,"span":8,"encoder":"67307728","distractor":"67307708","target":"present","response":"present","rt":"1919.4000000954","correct":true,"confidence":-1},{"trial_n":91,"span":8,"encoder":"85346821","distractor":"85346822","target":"present","response":"present","rt":"7601.2000000477","correct":true,"confidence":4},{"trial_n":92,"span":9,"encoder":"776460085","distractor":"776860085","target":"absent","response":"absent","rt":"5456.2000000477","correct":true,"confidence":4},{"trial_n":93,"span":9,"encoder":"463611757","distractor":"463611759","target":"present","response":"present","rt":"6183.5999999046","correct":true,"confidence":5},{"trial_n":94,"span":10,"encoder":"3329045926","distractor":"3399045926","target":"absent","response":"absent","rt":"3912.8999998569","correct":true,"confidence":4},{"trial_n":95,"span":10,"encoder":"3051834405","distractor":"3051234405","target":"absent","response":"absent","rt":"7871.2999999523","correct":true,"confidence":4},{"trial_n":96,"span":11,"encoder":"70718385879","distractor":"70713385879","target":"present","response":"absent","rt":"4499.7000000477","correct":false,"confidence":2},{"trial_n":97,"span":10,"encoder":"4980270253","distractor":"5980270253","target":"present","response":"present","rt":"3856.6999998093","correct":true,"confidence":5},{"trial_n":98,"span":10,"encoder":"5801678515","distractor":"5801675515","target":"absent","response":"absent","rt":"2371.1000001431","correct":true,"confidence":1},{"trial_n":99,"span":11,"encoder":"56734859436","distractor":"56736859436","target":"present","response":"present","rt":"6460.7000000477","correct":true,"confidence":2},{"trial_n":100,"span":11,"encoder":"37229915197","distractor":"37229917197","target":"present","response":"present","rt":"10045.300000191","correct":true,"confidence":3},{"trial_n":101,"span":12,"encoder":"195564766887","distractor":"195464766887","target":"absent","response":"absent","rt":"9393.9000000954","correct":true,"confidence":3},{"trial_n":102,"span":12,"encoder":"950011960711","distractor":"950011950711","target":"absent","response":"absent","rt":"8439.7999999523","correct":true,"confidence":4},{"trial_n":103,"span":13,"encoder":"4766183115731","distractor":"4366183115731","target":"present","response":"present","rt":"3786.2999999523","correct":true,"confidence":3},{"trial_n":104,"span":13,"encoder":"3525602994875","distractor":"3525682994875","target":"absent","response":"absent","rt":"17345.700000048","correct":true,"confidence":2},{"trial_n":105,"span":14,"encoder":"14639865121307","distractor":"12639865121307","target":"present","response":"present","rt":"9450.8999998569","correct":true,"confidence":4},{"trial_n":106,"span":14,"encoder":"59507421046521","distractor":"59507321046521","target":"absent","response":"absent","rt":"5299.2000000477","correct":true,"confidence":3},{"trial_n":107,"span":15,"encoder":"843044509379723","distractor":"843044509279723","target":"present","response":"absent","rt":"7271.7000000477","correct":false,"confidence":2},{"trial_n":108,"span":14,"encoder":"56340965990932","distractor":"56340965994932","target":"absent","response":"present","rt":"11403.799999952","correct":false,"confidence":3},{"trial_n":109,"span":13,"encoder":"5505631605032","distractor":"5505631205032","target":"present","response":"present","rt":"8931.6000001431","correct":true,"confidence":2},{"trial_n":110,"span":13,"encoder":"6791570974855","distractor":"6791570974805","target":"absent","response":"present","rt":"2059.5","correct":false,"confidence":1},{"trial_n":111,"span":12,"encoder":"675429386959","distractor":"675729386959","target":"absent","response":"absent","rt":"4345.1000001431","correct":true,"confidence":5},{"trial_n":112,"span":12,"encoder":"707651902673","distractor":"707651905673","target":"absent","response":"absent","rt":"6856.6000001431","correct":true,"confidence":4},{"trial_n":113,"span":13,"encoder":"3214219413499","distractor":"3214819413499","target":"absent","response":"present","rt":"6227.7000000477","correct":false,"confidence":1},{"trial_n":114,"span":12,"encoder":"889938437427","distractor":"899938437427","target":"absent","response":"absent","rt":"9215.6000001431","correct":true,"confidence":1},{"trial_n":115,"span":12,"encoder":"495475687189","distractor":"495475681189","target":"absent","response":"present","rt":"11035.100000143","correct":false,"confidence":1},{"trial_n":116,"span":11,"encoder":"51916628469","distractor":"58916628469","target":"present","response":"present","rt":"3266.9000000954","correct":true,"confidence":4},{"trial_n":117,"span":11,"encoder":"10875832508","distractor":"10865832508","target":"present","response":"absent","rt":"1152.5999999046","correct":false,"confidence":2},{"trial_n":118,"span":10,"encoder":"5828758691","distractor":"5822758691","target":"present","response":"absent","rt":"1989.2000000477","correct":false,"confidence":2},{"trial_n":119,"span":9,"encoder":"004008425","distractor":"004008925","target":"absent","response":"present","rt":"805.09999990463","correct":false,"confidence":1},{"trial_n":120,"span":8,"encoder":"20831101","distractor":"27831101","target":"absent","response":"present","rt":"4750.7000000477","correct":false,"confidence":2},{"trial_n":121,"span":7,"encoder":"5009627","distractor":"5049627","target":"present","response":"present","rt":"2626.9000000954","correct":true,"confidence":4},{"trial_n":122,"span":7,"encoder":"6939305","distractor":"6939355","target":"absent","response":"absent","rt":"3213.7000000477","correct":true,"confidence":3},{"trial_n":123,"span":8,"encoder":"91205780","distractor":"91105780","target":"present","response":"present","rt":"2382.5","correct":true,"confidence":5},{"trial_n":124,"span":8,"encoder":"14519397","distractor":"14516397","target":"present","response":"present","rt":"3798.5","correct":true,"confidence":4},{"trial_n":125,"span":9,"encoder":"215879643","distractor":"215809643","target":"absent","response":"absent","rt":"1942.6000001431","correct":true,"confidence":4},{"trial_n":126,"span":9,"encoder":"411216513","distractor":"411206513","target":"absent","response":"absent","rt":"2574.2999999523","correct":true,"confidence":5},{"trial_n":127,"span":10,"encoder":"3892666288","distractor":"3492666288","target":"present","response":"present","rt":"2014.5","correct":true,"confidence":3},{"trial_n":128,"span":10,"encoder":"8234214817","distractor":"8234224817","target":"present","response":"present","rt":"7728.7999999523","correct":true,"confidence":3},{"trial_n":129,"span":11,"encoder":"95749162739","distractor":"95749362739","target":"present","response":"present","rt":"5427.2000000477","correct":true,"confidence":4},{"trial_n":130,"span":11,"encoder":"41640454536","distractor":"41640454530","target":"absent","response":"present","rt":"11057.899999857","correct":false,"confidence":2},{"trial_n":131,"span":10,"encoder":"2542522458","distractor":"2542522558","target":"present","response":"present","rt":"3404","correct":true,"confidence":4},{"trial_n":132,"span":10,"encoder":"4694626388","distractor":"4694626588","target":"present","response":"present","rt":"2501.7999999523","correct":true,"confidence":4},{"trial_n":133,"span":11,"encoder":"20609992641","distractor":"20609992241","target":"absent","response":"absent","rt":"3061.1000001431","correct":true,"confidence":4},{"trial_n":134,"span":11,"encoder":"42376502919","distractor":"42376572919","target":"absent","response":"present","rt":"4125.7999999523","correct":false,"confidence":4},{"trial_n":135,"span":10,"encoder":"2920644309","distractor":"2920644109","target":"absent","response":"present","rt":"6777.0999999046","correct":false,"confidence":2},{"trial_n":136,"span":9,"encoder":"684162886","distractor":"684162386","target":"present","response":"present","rt":"8720.5999999046","correct":true,"confidence":4},{"trial_n":137,"span":9,"encoder":"472855800","distractor":"172855800","target":"present","response":"present","rt":"6255.7000000477","correct":true,"confidence":5},{"trial_n":138,"span":10,"encoder":"6130849962","distractor":"8130849962","target":"absent","response":"absent","rt":"3475.2000000477","correct":true,"confidence":5},{"trial_n":139,"span":10,"encoder":"2909614396","distractor":"2409614396","target":"present","response":"present","rt":"4866.0999999046","correct":true,"confidence":5},{"trial_n":140,"span":11,"encoder":"45239730464","distractor":"45239130464","target":"absent","response":"absent","rt":"11541.599999905","correct":true,"confidence":1}]