[{"trial_n":1,"min":25,"max":230,"target":"present","response":"present","rt":7101,"correct":true,"confidence":-1},{"trial_n":2,"min":25,"max":230,"target":"present","response":"present","rt":931.20000004768,"correct":true,"confidence":-1},{"trial_n":3,"min":41,"max":214,"target":"absent","response":"absent","rt":1094.5,"correct":true,"confidence":-1},{"trial_n":4,"min":41,"max":214,"target":"absent","response":"absent","rt":1177.4000000954,"correct":true,"confidence":-1},{"trial_n":5,"min":57,"max":198,"target":"present","response":"present","rt":1029.3999998569,"correct":true,"confidence":-1},{"trial_n":6,"min":57,"max":198,"target":"present","response":"present","rt":828.70000004768,"correct":true,"confidence":-1},{"trial_n":7,"min":73,"max":182,"target":"present","response":"absent","rt":804,"correct":false,"confidence":-1},{"trial_n":8,"min":57,"max":198,"target":"present","response":"present","rt":1121.4000000954,"correct":true,"confidence":-1},{"trial_n":9,"min":57,"max":198,"target":"absent","response":"absent","rt":1298.9000000954,"correct":true,"confidence":-1},{"trial_n":10,"min":73,"max":182,"target":"present","response":"absent","rt":852.70000004768,"correct":false,"confidence":-1},{"trial_n":11,"min":65,"max":190,"target":"present","response":"absent","rt":906.09999990463,"correct":false,"confidence":-1},{"trial_n":12,"min":57,"max":198,"target":"present","response":"present","rt":797.09999990463,"correct":true,"confidence":-1},{"trial_n":13,"min":57,"max":198,"target":"absent","response":"absent","rt":933.90000009537,"correct":true,"confidence":-1},{"trial_n":14,"min":65,"max":190,"target":"absent","response":"absent","rt":718.70000004768,"correct":true,"confidence":-1},{"trial_n":15,"min":65,"max":190,"target":"present","response":"present","rt":743.10000014305,"correct":true,"confidence":-1},{"trial_n":16,"min":73,"max":182,"target":"present","response":"present","rt":778.70000004768,"correct":true,"confidence":-1},{"trial_n":17,"min":73,"max":182,"target":"absent","response":"absent","rt":731.10000014305,"correct":true,"confidence":-1},{"trial_n":18,"min":81,"max":174,"target":"present","response":"present","rt":918.79999995232,"correct":true,"confidence":-1},{"trial_n":19,"min":81,"max":174,"target":"absent","response":"absent","rt":753.90000009537,"correct":true,"confidence":-1},{"trial_n":20,"min":89,"max":166,"target":"present","response":"present","rt":1014.5999999046,"correct":true,"confidence":-1},{"trial_n":21,"min":89,"max":166,"target":"present","response":"absent","rt":1781.5,"correct":false,"confidence":4},{"trial_n":22,"min":85,"max":170,"target":"present","response":"absent","rt":768.60000014305,"correct":false,"confidence":4},{"trial_n":23,"min":81,"max":174,"target":"absent","response":"absent","rt":938.20000004768,"correct":true,"confidence":4},{"trial_n":24,"min":81,"max":174,"target":"absent","response":"absent","rt":789.10000014305,"correct":true,"confidence":4},{"trial_n":25,"min":85,"max":170,"target":"present","response":"absent","rt":1201,"correct":false,"confidence":4},{"trial_n":26,"min":81,"max":174,"target":"present","response":"absent","rt":1625,"correct":false,"confidence":4},{"trial_n":27,"min":77,"max":178,"target":"absent","response":"absent","rt":700.90000009537,"correct":true,"confidence":4},{"trial_n":28,"min":77,"max":178,"target":"present","response":"present","rt":1394.7999999523,"correct":true,"confidence":5},{"trial_n":29,"min":81,"max":174,"target":"absent","response":"absent","rt":822.90000009537,"correct":true,"confidence":4},{"trial_n":30,"min":81,"max":174,"target":"present","response":"present","rt":806.19999980927,"correct":true,"confidence":4},{"trial_n":31,"min":83,"max":172,"target":"absent","response":"absent","rt":897.20000004768,"correct":true,"confidence":2},{"trial_n":32,"min":83,"max":172,"target":"present","response":"present","rt":615.20000004768,"correct":true,"confidence":5},{"trial_n":33,"min":85,"max":170,"target":"absent","response":"absent","rt":809.5,"correct":true,"confidence":3},{"trial_n":34,"min":85,"max":170,"target":"absent","response":"absent","rt":871.79999995232,"correct":true,"confidence":3},{"trial_n":35,"min":87,"max":168,"target":"present","response":"absent","rt":729.20000004768,"correct":false,"confidence":2},{"trial_n":36,"min":85,"max":170,"target":"absent","response":"absent","rt":796.29999995232,"correct":true,"confidence":2},{"trial_n":37,"min":85,"max":170,"target":"absent","response":"absent","rt":1123.7000000477,"correct":true,"confidence":1},{"trial_n":38,"min":87,"max":168,"target":"absent","response":"absent","rt":1884.5999999046,"correct":true,"confidence":2},{"trial_n":39,"min":87,"max":168,"target":"absent","response":"absent","rt":1172.2000000477,"correct":true,"confidence":2},{"trial_n":40,"min":89,"max":166,"target":"present","response":"present","rt":1157.9000000954,"correct":true,"confidence":3},{"trial_n":41,"min":89,"max":166,"target":"present","response":"present","rt":789.5,"correct":true,"confidence":3},{"trial_n":42,"min":90,"max":165,"target":"absent","response":"absent","rt":789.29999995232,"correct":true,"confidence":4},{"trial_n":43,"min":90,"max":165,"target":"present","response":"absent","rt":830.19999980927,"correct":false,"confidence":4},{"trial_n":44,"min":89,"max":166,"target":"absent","response":"absent","rt":807.70000004768,"correct":true,"confidence":4},{"trial_n":45,"min":89,"max":166,"target":"present","response":"present","rt":1685.1000001431,"correct":true,"confidence":3},{"trial_n":46,"min":90,"max":165,"target":"absent","response":"absent","rt":1420.8999998569,"correct":true,"confidence":3},{"trial_n":47,"min":90,"max":165,"target":"present","response":"present","rt":882.79999995232,"correct":true,"confidence":4},{"trial_n":48,"min":91,"max":164,"target":"absent","response":"absent","rt":862,"correct":true,"confidence":3},{"trial_n":49,"min":91,"max":164,"target":"absent","response":"absent","rt":1261,"correct":true,"confidence":3},{"trial_n":50,"min":92,"max":163,"target":"present","response":"absent","rt":779.29999995232,"correct":false,"confidence":2},{"trial_n":51,"min":91,"max":164,"target":"present","response":"absent","rt":786.5,"correct":false,"confidence":2},{"trial_n":52,"min":90,"max":165,"target":"absent","response":"absent","rt":940.40000009537,"correct":true,"confidence":2},{"trial_n":53,"min":90,"max":165,"target":"absent","response":"absent","rt":1295.4000000954,"correct":true,"confidence":2},{"trial_n":54,"min":91,"max":164,"target":"present","response":"present","rt":783.79999995232,"correct":true,"confidence":4},{"trial_n":55,"min":91,"max":164,"target":"absent","response":"absent","rt":5558.7999999523,"correct":true,"confidence":2},{"trial_n":56,"min":92,"max":163,"target":"absent","response":"absent","rt":1073.6000001431,"correct":true,"confidence":2},{"trial_n":57,"min":92,"max":163,"target":"absent","response":"absent","rt":1012.6999998093,"correct":true,"confidence":2},{"trial_n":58,"min":93,"max":162,"target":"present","response":"absent","rt":975.70000004768,"correct":false,"confidence":2},{"trial_n":59,"min":92,"max":163,"target":"present","response":"absent","rt":780.70000004768,"correct":false,"confidence":3},{"trial_n":60,"min":91,"max":164,"target":"absent","response":"absent","rt":805.09999990463,"correct":true,"confidence":4},{"trial_n":61,"min":91,"max":164,"target":"present","response":"present","rt":1058.7000000477,"correct":true,"confidence":3},{"trial_n":62,"min":92,"max":163,"target":"absent","response":"absent","rt":692.79999995232,"correct":true,"confidence":4},{"trial_n":63,"min":92,"max":163,"target":"absent","response":"absent","rt":1462.9000000954,"correct":true,"confidence":4},{"trial_n":64,"min":93,"max":162,"target":"present","response":"absent","rt":1476.6000001431,"correct":false,"confidence":5},{"trial_n":65,"min":92,"max":163,"target":"present","response":"absent","rt":654.90000009537,"correct":false,"confidence":4},{"trial_n":66,"min":91,"max":164,"target":"absent","response":"absent","rt":650.29999995232,"correct":true,"confidence":3},{"trial_n":67,"min":91,"max":164,"target":"present","response":"absent","rt":697.89999985695,"correct":false,"confidence":3},{"trial_n":68,"min":90,"max":165,"target":"absent","response":"absent","rt":718.29999995232,"correct":true,"confidence":1},{"trial_n":69,"min":90,"max":165,"target":"absent","response":"absent","rt":761.70000004768,"correct":true,"confidence":3},{"trial_n":70,"min":91,"max":164,"target":"present","response":"present","rt":806.79999995232,"correct":true,"confidence":4},{"trial_n":71,"min":41,"max":214,"target":"present","response":"present","rt":3990.6000001431,"correct":true,"confidence":-1},{"trial_n":72,"min":41,"max":214,"target":"present","response":"present","rt":860.70000004768,"correct":true,"confidence":-1},{"trial_n":73,"min":57,"max":198,"target":"absent","response":"absent","rt":1019.5999999046,"correct":true,"confidence":-1},{"trial_n":74,"min":57,"max":198,"target":"absent","response":"absent","rt":795.19999980927,"correct":true,"confidence":-1},{"trial_n":75,"min":73,"max":182,"target":"present","response":"present","rt":892.5,"correct":true,"confidence":-1},{"trial_n":76,"min":73,"max":182,"target":"absent","response":"absent","rt":1298.7999999523,"correct":true,"confidence":-1},{"trial_n":77,"min":89,"max":166,"target":"present","response":"present","rt":1393.5,"correct":true,"confidence":-1},{"trial_n":78,"min":89,"max":166,"target":"absent","response":"absent","rt":684.20000004768,"correct":true,"confidence":-1},{"trial_n":79,"min":105,"max":150,"target":"absent","response":"present","rt":928.89999985695,"correct":false,"confidence":-1},{"trial_n":80,"min":89,"max":166,"target":"present","response":"absent","rt":780.79999995232,"correct":false,"confidence":-1},{"trial_n":81,"min":81,"max":174,"target":"present","response":"present","rt":1358.6000001431,"correct":true,"confidence":-1},{"trial_n":82,"min":81,"max":174,"target":"absent","response":"present","rt":1022,"correct":false,"confidence":-1},{"trial_n":83,"min":73,"max":182,"target":"present","response":"present","rt":647.90000009537,"correct":true,"confidence":-1},{"trial_n":84,"min":73,"max":182,"target":"present","response":"present","rt":666,"correct":true,"confidence":-1},{"trial_n":85,"min":81,"max":174,"target":"present","response":"present","rt":840.79999995232,"correct":true,"confidence":-1},{"trial_n":86,"min":81,"max":174,"target":"absent","response":"absent","rt":699.19999980927,"correct":true,"confidence":-1},{"trial_n":87,"min":89,"max":166,"target":"absent","response":"absent","rt":699.90000009537,"correct":true,"confidence":-1},{"trial_n":88,"min":89,"max":166,"target":"absent","response":"absent","rt":1298.2000000477,"correct":true,"confidence":-1},{"trial_n":89,"min":97,"max":158,"target":"present","response":"present","rt":681.5,"correct":true,"confidence":-1},{"trial_n":90,"min":97,"max":158,"target":"absent","response":"present","rt":849.5,"correct":false,"confidence":-1},{"trial_n":91,"min":93,"max":162,"target":"absent","response":"absent","rt":1225.2999999523,"correct":true,"confidence":2},{"trial_n":92,"min":93,"max":162,"target":"absent","response":"present","rt":821.10000014305,"correct":false,"confidence":1},{"trial_n":93,"min":89,"max":166,"target":"absent","response":"absent","rt":1308.1999998093,"correct":true,"confidence":3},{"trial_n":94,"min":89,"max":166,"target":"absent","response":"absent","rt":5099.6000001431,"correct":true,"confidence":2},{"trial_n":95,"min":93,"max":162,"target":"absent","response":"present","rt":701.80000019073,"correct":false,"confidence":4},{"trial_n":96,"min":89,"max":166,"target":"absent","response":"present","rt":2577.9000000954,"correct":false,"confidence":2},{"trial_n":97,"min":85,"max":170,"target":"present","response":"present","rt":1284,"correct":true,"confidence":4},{"trial_n":98,"min":85,"max":170,"target":"absent","response":"present","rt":1591.1000001431,"correct":false,"confidence":3},{"trial_n":99,"min":81,"max":174,"target":"present","response":"present","rt":924.09999990463,"correct":true,"confidence":5},{"trial_n":100,"min":81,"max":174,"target":"present","response":"present","rt":5012.5999999046,"correct":true,"confidence":1},{"trial_n":101,"min":83,"max":172,"target":"present","response":"present","rt":709.90000009537,"correct":true,"confidence":5},{"trial_n":102,"min":83,"max":172,"target":"absent","response":"absent","rt":1424.2999999523,"correct":true,"confidence":2},{"trial_n":103,"min":85,"max":170,"target":"absent","response":"present","rt":1836.4000000954,"correct":false,"confidence":2},{"trial_n":104,"min":83,"max":172,"target":"present","response":"present","rt":1177.7000000477,"correct":true,"confidence":4},{"trial_n":105,"min":83,"max":172,"target":"present","response":"present","rt":1574.9000000954,"correct":true,"confidence":4},{"trial_n":106,"min":85,"max":170,"target":"absent","response":"absent","rt":1614.6000001431,"correct":true,"confidence":2},{"trial_n":107,"min":85,"max":170,"target":"present","response":"present","rt":766.89999985695,"correct":true,"confidence":4},{"trial_n":108,"min":87,"max":168,"target":"present","response":"absent","rt":990.20000004768,"correct":false,"confidence":2},{"trial_n":109,"min":85,"max":170,"target":"present","response":"absent","rt":1903.1999998093,"correct":false,"confidence":3},{"trial_n":110,"min":83,"max":172,"target":"absent","response":"present","rt":1037,"correct":false,"confidence":4},{"trial_n":111,"min":82,"max":173,"target":"absent","response":"absent","rt":1588,"correct":true,"confidence":4},{"trial_n":112,"min":82,"max":173,"target":"present","response":"present","rt":1335.7000000477,"correct":true,"confidence":3},{"trial_n":113,"min":83,"max":172,"target":"present","response":"present","rt":2170,"correct":true,"confidence":1},{"trial_n":114,"min":83,"max":172,"target":"present","response":"present","rt":1047.8999998569,"correct":true,"confidence":4},{"trial_n":115,"min":84,"max":171,"target":"present","response":"absent","rt":8225.2999999523,"correct":false,"confidence":2},{"trial_n":116,"min":83,"max":172,"target":"absent","response":"absent","rt":1754.2000000477,"correct":true,"confidence":4},{"trial_n":117,"min":83,"max":172,"target":"absent","response":"present","rt":1190.3999998569,"correct":false,"confidence":3},{"trial_n":118,"min":82,"max":173,"target":"present","response":"present","rt":924.70000004768,"correct":true,"confidence":4},{"trial_n":119,"min":82,"max":173,"target":"absent","response":"absent","rt":1630,"correct":true,"confidence":3},{"trial_n":120,"min":83,"max":172,"target":"present","response":"absent","rt":4551.2999999523,"correct":false,"confidence":1},{"trial_n":121,"min":82,"max":173,"target":"present","response":"present","rt":936,"correct":true,"confidence":5},{"trial_n":122,"min":82,"max":173,"target":"absent","response":"absent","rt":1137.7000000477,"correct":true,"confidence":4},{"trial_n":123,"min":83,"max":172,"target":"absent","response":"absent","rt":2049.9000000954,"correct":true,"confidence":3},{"trial_n":124,"min":83,"max":172,"target":"absent","response":"absent","rt":1746,"correct":true,"confidence":1},{"trial_n":125,"min":84,"max":171,"target":"present","response":"present","rt":1620.6000001431,"correct":true,"confidence":2},{"trial_n":126,"min":84,"max":171,"target":"present","response":"present","rt":879,"correct":true,"confidence":3},{"trial_n":127,"min":85,"max":170,"target":"present","response":"present","rt":987.59999990463,"correct":true,"confidence":3},{"trial_n":128,"min":85,"max":170,"target":"present","response":"present","rt":1615.5,"correct":true,"confidence":4},{"trial_n":129,"min":86,"max":169,"target":"absent","response":"absent","rt":1190.2999999523,"correct":true,"confidence":1},{"trial_n":130,"min":86,"max":169,"target":"present","response":"present","rt":1313.5999999046,"correct":true,"confidence":1},{"trial_n":131,"min":87,"max":168,"target":"absent","response":"absent","rt":1144.4000000954,"correct":true,"confidence":1},{"trial_n":132,"min":87,"max":168,"target":"present","response":"present","rt":1227.5,"correct":true,"confidence":2},{"trial_n":133,"min":88,"max":167,"target":"absent","response":"absent","rt":1688.8999998569,"correct":true,"confidence":2},{"trial_n":134,"min":88,"max":167,"target":"present","response":"present","rt":2882.6000001431,"correct":true,"confidence":3},{"trial_n":135,"min":89,"max":166,"target":"present","response":"present","rt":1187.0999999046,"correct":true,"confidence":2},{"trial_n":136,"min":89,"max":166,"target":"absent","response":"absent","rt":1811.1000001431,"correct":true,"confidence":3},{"trial_n":137,"min":90,"max":165,"target":"present","response":"present","rt":2220.1000001431,"correct":true,"confidence":3},{"trial_n":138,"min":90,"max":165,"target":"present","response":"present","rt":1448.2000000477,"correct":true,"confidence":4},{"trial_n":139,"min":91,"max":164,"target":"absent","response":"absent","rt":1152.7000000477,"correct":true,"confidence":2},{"trial_n":140,"min":91,"max":164,"target":"absent","response":"present","rt":1057,"correct":false,"confidence":2}]