[{"trial_n":1,"min":25,"max":230,"target":"present","response":"absent","rt":12988.100000024,"correct":false,"confidence":-1},{"trial_n":2,"min":25,"max":230,"target":"present","response":"present","rt":1826.8000000119,"correct":true,"confidence":-1},{"trial_n":3,"min":25,"max":230,"target":"absent","response":"absent","rt":1725.6000000238,"correct":true,"confidence":-1},{"trial_n":4,"min":41,"max":214,"target":"absent","response":"absent","rt":1184.3999999762,"correct":true,"confidence":-1},{"trial_n":5,"min":41,"max":214,"target":"present","response":"present","rt":1127.3999999762,"correct":true,"confidence":-1},{"trial_n":6,"min":57,"max":198,"target":"present","response":"present","rt":980.19999998808,"correct":true,"confidence":-1},{"trial_n":7,"min":57,"max":198,"target":"absent","response":"present","rt":1116,"correct":false,"confidence":-1},{"trial_n":8,"min":41,"max":214,"target":"present","response":"present","rt":1128.0999999642,"correct":true,"confidence":-1},{"trial_n":9,"min":41,"max":214,"target":"present","response":"present","rt":1061.1999999881,"correct":true,"confidence":-1},{"trial_n":10,"min":57,"max":198,"target":"present","response":"present","rt":1079.6999999881,"correct":true,"confidence":-1},{"trial_n":11,"min":57,"max":198,"target":"present","response":"present","rt":1093.8000000119,"correct":true,"confidence":-1},{"trial_n":12,"min":65,"max":190,"target":"absent","response":"absent","rt":1114.7999999523,"correct":true,"confidence":-1},{"trial_n":13,"min":65,"max":190,"target":"present","response":"present","rt":1203.9000000358,"correct":true,"confidence":-1},{"trial_n":14,"min":73,"max":182,"target":"absent","response":"absent","rt":1788.4000000358,"correct":true,"confidence":-1},{"trial_n":15,"min":73,"max":182,"target":"present","response":"present","rt":1074.5,"correct":true,"confidence":-1},{"trial_n":16,"min":81,"max":174,"target":"absent","response":"absent","rt":1122.6999999881,"correct":true,"confidence":-1},{"trial_n":17,"min":81,"max":174,"target":"present","response":"absent","rt":1198.6999999881,"correct":false,"confidence":-1},{"trial_n":18,"min":73,"max":182,"target":"absent","response":"present","rt":1061.5999999642,"correct":false,"confidence":-1},{"trial_n":19,"min":65,"max":190,"target":"present","response":"present","rt":1020.6000000238,"correct":true,"confidence":-1},{"trial_n":20,"min":65,"max":190,"target":"present","response":"present","rt":959.80000001192,"correct":true,"confidence":-1},{"trial_n":21,"min":69,"max":186,"target":"present","response":"present","rt":1287.1000000238,"correct":true,"confidence":4},{"trial_n":22,"min":69,"max":186,"target":"absent","response":"absent","rt":6749.7999999523,"correct":true,"confidence":3},{"trial_n":23,"min":73,"max":182,"target":"present","response":"present","rt":1471.5,"correct":true,"confidence":4},{"trial_n":24,"min":73,"max":182,"target":"present","response":"present","rt":2593.0999999642,"correct":true,"confidence":4},{"trial_n":25,"min":77,"max":178,"target":"absent","response":"absent","rt":1048.0999999642,"correct":true,"confidence":5},{"trial_n":26,"min":77,"max":178,"target":"absent","response":"absent","rt":1251.5,"correct":true,"confidence":5},{"trial_n":27,"min":81,"max":174,"target":"absent","response":"absent","rt":1769.2000000477,"correct":true,"confidence":5},{"trial_n":28,"min":81,"max":174,"target":"present","response":"absent","rt":1194.6999999881,"correct":false,"confidence":4},{"trial_n":29,"min":77,"max":178,"target":"present","response":"present","rt":2960.3999999762,"correct":true,"confidence":3},{"trial_n":30,"min":77,"max":178,"target":"present","response":"present","rt":2711.3999999762,"correct":true,"confidence":3},{"trial_n":31,"min":79,"max":176,"target":"absent","response":"absent","rt":1095.2000000477,"correct":true,"confidence":4},{"trial_n":32,"min":79,"max":176,"target":"absent","response":"absent","rt":1035.3999999762,"correct":true,"confidence":4},{"trial_n":33,"min":81,"max":174,"target":"absent","response":"absent","rt":1369.3000000119,"correct":true,"confidence":4},{"trial_n":34,"min":81,"max":174,"target":"absent","response":"absent","rt":899,"correct":true,"confidence":4},{"trial_n":35,"min":83,"max":172,"target":"present","response":"absent","rt":833.69999998808,"correct":false,"confidence":4},{"trial_n":36,"min":81,"max":174,"target":"present","response":"absent","rt":1554.3999999762,"correct":false,"confidence":4},{"trial_n":37,"min":79,"max":176,"target":"present","response":"absent","rt":762.79999995232,"correct":false,"confidence":4},{"trial_n":38,"min":77,"max":178,"target":"present","response":"present","rt":3101.6000000238,"correct":true,"confidence":2},{"trial_n":39,"min":77,"max":178,"target":"present","response":"present","rt":1267,"correct":true,"confidence":4},{"trial_n":40,"min":79,"max":176,"target":"absent","response":"absent","rt":1003,"correct":true,"confidence":4},{"trial_n":41,"min":79,"max":176,"target":"absent","response":"absent","rt":1106.3000000119,"correct":true,"confidence":4},{"trial_n":42,"min":80,"max":175,"target":"absent","response":"absent","rt":1274.6999999881,"correct":true,"confidence":5},{"trial_n":43,"min":80,"max":175,"target":"present","response":"present","rt":2397,"correct":true,"confidence":3},{"trial_n":44,"min":81,"max":174,"target":"present","response":"present","rt":1108,"correct":true,"confidence":3},{"trial_n":45,"min":81,"max":174,"target":"absent","response":"absent","rt":582.69999998808,"correct":true,"confidence":4},{"trial_n":46,"min":82,"max":173,"target":"present","response":"absent","rt":1305.6000000238,"correct":false,"confidence":4},{"trial_n":47,"min":81,"max":174,"target":"absent","response":"absent","rt":726.80000001192,"correct":true,"confidence":4},{"trial_n":48,"min":81,"max":174,"target":"absent","response":"absent","rt":856.60000002384,"correct":true,"confidence":4},{"trial_n":49,"min":82,"max":173,"target":"present","response":"absent","rt":734.10000002384,"correct":false,"confidence":4},{"trial_n":50,"min":81,"max":174,"target":"present","response":"absent","rt":1662.5,"correct":false,"confidence":4},{"trial_n":51,"min":80,"max":175,"target":"absent","response":"absent","rt":1284.8000000119,"correct":true,"confidence":2},{"trial_n":52,"min":80,"max":175,"target":"absent","response":"absent","rt":839.60000002384,"correct":true,"confidence":4},{"trial_n":53,"min":81,"max":174,"target":"present","response":"present","rt":1096.5999999642,"correct":true,"confidence":3},{"trial_n":54,"min":81,"max":174,"target":"absent","response":"absent","rt":1230.3000000119,"correct":true,"confidence":3},{"trial_n":55,"min":82,"max":173,"target":"absent","response":"absent","rt":1037.0999999642,"correct":true,"confidence":5},{"trial_n":56,"min":82,"max":173,"target":"absent","response":"absent","rt":1428.8999999762,"correct":true,"confidence":5},{"trial_n":57,"min":83,"max":172,"target":"absent","response":"absent","rt":654.10000002384,"correct":true,"confidence":5},{"trial_n":58,"min":83,"max":172,"target":"present","response":"present","rt":1491.8999999762,"correct":true,"confidence":3},{"trial_n":59,"min":84,"max":171,"target":"present","response":"present","rt":1148.6999999881,"correct":true,"confidence":3},{"trial_n":60,"min":84,"max":171,"target":"absent","response":"absent","rt":662.80000001192,"correct":true,"confidence":3},{"trial_n":61,"min":85,"max":170,"target":"absent","response":"absent","rt":736.89999997616,"correct":true,"confidence":4},{"trial_n":62,"min":85,"max":170,"target":"absent","response":"absent","rt":773.89999997616,"correct":true,"confidence":4},{"trial_n":63,"min":86,"max":169,"target":"present","response":"absent","rt":945.30000001192,"correct":false,"confidence":3},{"trial_n":64,"min":85,"max":170,"target":"absent","response":"absent","rt":4261.9000000358,"correct":true,"confidence":4},{"trial_n":65,"min":85,"max":170,"target":"absent","response":"absent","rt":775.80000001192,"correct":true,"confidence":4},{"trial_n":66,"min":86,"max":169,"target":"present","response":"absent","rt":612.30000001192,"correct":false,"confidence":4},{"trial_n":67,"min":85,"max":170,"target":"present","response":"absent","rt":662.90000003576,"correct":false,"confidence":4},{"trial_n":68,"min":84,"max":171,"target":"absent","response":"absent","rt":547.5,"correct":true,"confidence":4},{"trial_n":69,"min":84,"max":171,"target":"absent","response":"absent","rt":564.39999997616,"correct":true,"confidence":4},{"trial_n":70,"min":85,"max":170,"target":"present","response":"absent","rt":608.60000002384,"correct":false,"confidence":4},{"trial_n":71,"min":41,"max":214,"target":"present","response":"present","rt":1464.9000000358,"correct":true,"confidence":-1},{"trial_n":72,"min":41,"max":214,"target":"present","response":"present","rt":893.5,"correct":true,"confidence":-1},{"trial_n":73,"min":57,"max":198,"target":"absent","response":"absent","rt":769.59999996424,"correct":true,"confidence":-1},{"trial_n":74,"min":57,"max":198,"target":"absent","response":"absent","rt":755.30000001192,"correct":true,"confidence":-1},{"trial_n":75,"min":73,"max":182,"target":"present","response":"present","rt":452.80000001192,"correct":true,"confidence":-1},{"trial_n":76,"min":73,"max":182,"target":"present","response":"present","rt":518,"correct":true,"confidence":-1},{"trial_n":77,"min":89,"max":166,"target":"present","response":"present","rt":737.90000003576,"correct":true,"confidence":-1},{"trial_n":78,"min":89,"max":166,"target":"absent","response":"absent","rt":1502.6999999881,"correct":true,"confidence":-1},{"trial_n":79,"min":105,"max":150,"target":"present","response":"present","rt":818.39999997616,"correct":true,"confidence":-1},{"trial_n":80,"min":105,"max":150,"target":"present","response":"present","rt":746,"correct":true,"confidence":-1},{"trial_n":81,"min":113,"max":142,"target":"present","response":"absent","rt":612.70000004768,"correct":false,"confidence":-1},{"trial_n":82,"min":105,"max":150,"target":"absent","response":"absent","rt":766.89999997616,"correct":true,"confidence":-1},{"trial_n":83,"min":105,"max":150,"target":"absent","response":"present","rt":1562.2999999523,"correct":false,"confidence":-1},{"trial_n":84,"min":97,"max":158,"target":"absent","response":"present","rt":734.59999996424,"correct":false,"confidence":-1},{"trial_n":85,"min":89,"max":166,"target":"present","response":"absent","rt":553.30000001192,"correct":false,"confidence":-1},{"trial_n":86,"min":81,"max":174,"target":"absent","response":"present","rt":996.80000001192,"correct":false,"confidence":-1},{"trial_n":87,"min":73,"max":182,"target":"present","response":"present","rt":577,"correct":true,"confidence":-1},{"trial_n":88,"min":73,"max":182,"target":"absent","response":"absent","rt":840.5,"correct":true,"confidence":-1},{"trial_n":89,"min":81,"max":174,"target":"absent","response":"absent","rt":796.5,"correct":true,"confidence":-1},{"trial_n":90,"min":81,"max":174,"target":"present","response":"present","rt":1964.5,"correct":true,"confidence":-1},{"trial_n":91,"min":85,"max":170,"target":"present","response":"present","rt":946.80000001192,"correct":true,"confidence":3},{"trial_n":92,"min":85,"max":170,"target":"present","response":"present","rt":548.09999996424,"correct":true,"confidence":4},{"trial_n":93,"min":89,"max":166,"target":"present","response":"present","rt":1381.6000000238,"correct":true,"confidence":3},{"trial_n":94,"min":89,"max":166,"target":"present","response":"present","rt":1933.0999999642,"correct":true,"confidence":4},{"trial_n":95,"min":93,"max":162,"target":"present","response":"present","rt":799.10000002384,"correct":true,"confidence":3},{"trial_n":96,"min":93,"max":162,"target":"present","response":"absent","rt":1605.1000000238,"correct":false,"confidence":2},{"trial_n":97,"min":89,"max":166,"target":"absent","response":"absent","rt":2286.5,"correct":true,"confidence":1},{"trial_n":98,"min":89,"max":166,"target":"absent","response":"absent","rt":794.5,"correct":true,"confidence":2},{"trial_n":99,"min":93,"max":162,"target":"absent","response":"absent","rt":6193.3000000119,"correct":true,"confidence":1},{"trial_n":100,"min":93,"max":162,"target":"present","response":"present","rt":935.39999997616,"correct":true,"confidence":2},{"trial_n":101,"min":95,"max":160,"target":"present","response":"present","rt":588.69999998808,"correct":true,"confidence":3},{"trial_n":102,"min":95,"max":160,"target":"present","response":"present","rt":551.60000002384,"correct":true,"confidence":3},{"trial_n":103,"min":97,"max":158,"target":"present","response":"present","rt":1605,"correct":true,"confidence":2},{"trial_n":104,"min":97,"max":158,"target":"absent","response":"absent","rt":800.20000004768,"correct":true,"confidence":2},{"trial_n":105,"min":99,"max":156,"target":"present","response":"absent","rt":878.5,"correct":false,"confidence":2},{"trial_n":106,"min":97,"max":158,"target":"absent","response":"present","rt":1926,"correct":false,"confidence":1},{"trial_n":107,"min":95,"max":160,"target":"present","response":"absent","rt":2673.5,"correct":false,"confidence":1},{"trial_n":108,"min":93,"max":162,"target":"absent","response":"absent","rt":1617.3000000119,"correct":true,"confidence":1},{"trial_n":109,"min":93,"max":162,"target":"absent","response":"present","rt":974.30000001192,"correct":false,"confidence":1},{"trial_n":110,"min":91,"max":164,"target":"absent","response":"present","rt":1123.5,"correct":false,"confidence":2},{"trial_n":111,"min":90,"max":165,"target":"present","response":"present","rt":566.59999996424,"correct":true,"confidence":3},{"trial_n":112,"min":90,"max":165,"target":"absent","response":"absent","rt":1799.0999999642,"correct":true,"confidence":2},{"trial_n":113,"min":91,"max":164,"target":"absent","response":"absent","rt":896.60000002384,"correct":true,"confidence":2},{"trial_n":114,"min":91,"max":164,"target":"absent","response":"absent","rt":930.70000004768,"correct":true,"confidence":2},{"trial_n":115,"min":92,"max":163,"target":"absent","response":"absent","rt":614,"correct":true,"confidence":2},{"trial_n":116,"min":92,"max":163,"target":"absent","response":"absent","rt":1839.3999999762,"correct":true,"confidence":2},{"trial_n":117,"min":93,"max":162,"target":"absent","response":"present","rt":677.89999997616,"correct":false,"confidence":1},{"trial_n":118,"min":92,"max":163,"target":"absent","response":"absent","rt":643.69999998808,"correct":true,"confidence":3},{"trial_n":119,"min":92,"max":163,"target":"absent","response":"present","rt":7376.3999999762,"correct":false,"confidence":1},{"trial_n":120,"min":91,"max":164,"target":"present","response":"present","rt":556.60000002384,"correct":true,"confidence":2},{"trial_n":121,"min":91,"max":164,"target":"present","response":"present","rt":666.39999997616,"correct":true,"confidence":2},{"trial_n":122,"min":92,"max":163,"target":"absent","response":"present","rt":1817.8999999762,"correct":false,"confidence":1},{"trial_n":123,"min":91,"max":164,"target":"absent","response":"absent","rt":1009.1999999881,"correct":true,"confidence":1},{"trial_n":124,"min":91,"max":164,"target":"present","response":"present","rt":682,"correct":true,"confidence":1},{"trial_n":125,"min":92,"max":163,"target":"absent","response":"present","rt":453.5,"correct":false,"confidence":1},{"trial_n":126,"min":91,"max":164,"target":"present","response":"present","rt":1176.9000000358,"correct":true,"confidence":1},{"trial_n":127,"min":91,"max":164,"target":"present","response":"absent","rt":538.80000001192,"correct":false,"confidence":1},{"trial_n":128,"min":90,"max":165,"target":"absent","response":"absent","rt":840.39999997616,"correct":true,"confidence":1},{"trial_n":129,"min":90,"max":165,"target":"present","response":"absent","rt":3483.1999999881,"correct":false,"confidence":1},{"trial_n":130,"min":89,"max":166,"target":"present","response":"absent","rt":2068.0999999642,"correct":false,"confidence":2},{"trial_n":131,"min":88,"max":167,"target":"present","response":"absent","rt":2215,"correct":false,"confidence":1},{"trial_n":132,"min":87,"max":168,"target":"absent","response":"present","rt":744.80000001192,"correct":false,"confidence":1},{"trial_n":133,"min":86,"max":169,"target":"present","response":"present","rt":511.89999997616,"correct":true,"confidence":1},{"trial_n":134,"min":86,"max":169,"target":"absent","response":"absent","rt":1111.1000000238,"correct":true,"confidence":1},{"trial_n":135,"min":87,"max":168,"target":"present","response":"present","rt":620.5,"correct":true,"confidence":1},{"trial_n":136,"min":87,"max":168,"target":"absent","response":"absent","rt":1693,"correct":true,"confidence":1},{"trial_n":137,"min":88,"max":167,"target":"absent","response":"absent","rt":968.10000002384,"correct":true,"confidence":1},{"trial_n":138,"min":88,"max":167,"target":"absent","response":"present","rt":845.40000003576,"correct":false,"confidence":1},{"trial_n":139,"min":87,"max":168,"target":"present","response":"absent","rt":931.40000003576,"correct":false,"confidence":1},{"trial_n":140,"min":86,"max":169,"target":"present","response":"present","rt":692.40000003576,"correct":true,"confidence":2}]