[{"trial_n":1,"n_dots":4.25,"target":"left","response":"right","rt":3898.7000000477,"correct":false,"confidence":-1},{"trial_n":2,"n_dots":4.25,"target":"left","response":"left","rt":1133.3999999762,"correct":true,"confidence":-1},{"trial_n":3,"n_dots":4.25,"target":"right","response":"right","rt":504.60000002384,"correct":true,"confidence":-1},{"trial_n":4,"n_dots":3.85,"target":"right","response":"right","rt":434.89999997616,"correct":true,"confidence":-1},{"trial_n":5,"n_dots":3.85,"target":"left","response":"left","rt":439.09999990463,"correct":true,"confidence":-1},{"trial_n":6,"n_dots":3.45,"target":"right","response":"right","rt":771.39999997616,"correct":true,"confidence":-1},{"trial_n":7,"n_dots":3.45,"target":"right","response":"right","rt":598,"correct":true,"confidence":-1},{"trial_n":8,"n_dots":3.25,"target":"right","response":"right","rt":463.19999992847,"correct":true,"confidence":-1},{"trial_n":9,"n_dots":3.25,"target":"left","response":"left","rt":442.39999997616,"correct":true,"confidence":-1},{"trial_n":10,"n_dots":3.05,"target":"right","response":"left","rt":433.5,"correct":false,"confidence":-1},{"trial_n":11,"n_dots":3.25,"target":"left","response":"left","rt":377.5,"correct":true,"confidence":-1},{"trial_n":12,"n_dots":3.25,"target":"left","response":"left","rt":575,"correct":true,"confidence":-1},{"trial_n":13,"n_dots":3.15,"target":"left","response":"right","rt":738,"correct":false,"confidence":-1},{"trial_n":14,"n_dots":3.25,"target":"right","response":"right","rt":353.39999997616,"correct":true,"confidence":-1},{"trial_n":15,"n_dots":3.25,"target":"right","response":"right","rt":336.5,"correct":true,"confidence":-1},{"trial_n":16,"n_dots":3.15,"target":"left","response":"right","rt":466.89999997616,"correct":false,"confidence":-1},{"trial_n":17,"n_dots":3.25,"target":"left","response":"right","rt":507.10000002384,"correct":false,"confidence":-1},{"trial_n":18,"n_dots":3.35,"target":"left","response":"right","rt":648.19999992847,"correct":false,"confidence":-1},{"trial_n":19,"n_dots":3.45,"target":"left","response":"left","rt":674.20000004768,"correct":true,"confidence":-1},{"trial_n":20,"n_dots":3.45,"target":"right","response":"right","rt":761.39999997616,"correct":true,"confidence":-1},{"trial_n":21,"n_dots":3.35,"target":"right","response":"right","rt":1124,"correct":true,"confidence":4},{"trial_n":22,"n_dots":3.35,"target":"right","response":"right","rt":606.60000002384,"correct":true,"confidence":3},{"trial_n":23,"n_dots":3.25,"target":"left","response":"left","rt":321.29999995232,"correct":true,"confidence":4},{"trial_n":24,"n_dots":3.25,"target":"right","response":"right","rt":354.29999995232,"correct":true,"confidence":5},{"trial_n":25,"n_dots":3.15,"target":"left","response":"left","rt":454.5,"correct":true,"confidence":3},{"trial_n":26,"n_dots":3.15,"target":"right","response":"right","rt":537.90000009537,"correct":true,"confidence":4},{"trial_n":27,"n_dots":3.05,"target":"left","response":"right","rt":506.60000002384,"correct":false,"confidence":3},{"trial_n":28,"n_dots":3.15,"target":"left","response":"right","rt":443.60000002384,"correct":false,"confidence":3},{"trial_n":29,"n_dots":3.25,"target":"right","response":"right","rt":485.89999997616,"correct":true,"confidence":5},{"trial_n":30,"n_dots":3.25,"target":"right","response":"right","rt":541.29999995232,"correct":true,"confidence":4},{"trial_n":31,"n_dots":3.15,"target":"left","response":"right","rt":503.60000002384,"correct":false,"confidence":3},{"trial_n":32,"n_dots":3.25,"target":"left","response":"left","rt":324.60000002384,"correct":true,"confidence":3},{"trial_n":33,"n_dots":3.25,"target":"right","response":"right","rt":673.79999995232,"correct":true,"confidence":3},{"trial_n":34,"n_dots":3.15,"target":"left","response":"left","rt":1073.4000000954,"correct":true,"confidence":2},{"trial_n":35,"n_dots":3.15,"target":"right","response":"right","rt":483.30000007153,"correct":true,"confidence":3},{"trial_n":36,"n_dots":3.05,"target":"left","response":"right","rt":623.30000007153,"correct":false,"confidence":3},{"trial_n":37,"n_dots":3.15,"target":"right","response":"left","rt":457.89999997616,"correct":false,"confidence":2},{"trial_n":38,"n_dots":3.25,"target":"right","response":"right","rt":598.29999995232,"correct":true,"confidence":3},{"trial_n":39,"n_dots":3.25,"target":"left","response":"left","rt":419.39999997616,"correct":true,"confidence":4},{"trial_n":40,"n_dots":3.15,"target":"right","response":"right","rt":342.39999997616,"correct":true,"confidence":4},{"trial_n":41,"n_dots":3.15,"target":"right","response":"left","rt":968,"correct":false,"confidence":4},{"trial_n":42,"n_dots":3.25,"target":"left","response":"left","rt":452.39999997616,"correct":true,"confidence":4},{"trial_n":43,"n_dots":3.25,"target":"left","response":"left","rt":355.90000009537,"correct":true,"confidence":5},{"trial_n":44,"n_dots":3.15,"target":"right","response":"right","rt":612.59999990463,"correct":true,"confidence":3},{"trial_n":45,"n_dots":3.15,"target":"left","response":"left","rt":527.60000002384,"correct":true,"confidence":3},{"trial_n":46,"n_dots":3.05,"target":"right","response":"left","rt":752.90000009537,"correct":false,"confidence":2},{"trial_n":47,"n_dots":3.15,"target":"left","response":"left","rt":149,"correct":true,"confidence":5},{"trial_n":48,"n_dots":3.15,"target":"right","response":"right","rt":515.70000004768,"correct":true,"confidence":3},{"trial_n":49,"n_dots":3.05,"target":"right","response":"left","rt":932.39999997616,"correct":false,"confidence":4},{"trial_n":50,"n_dots":3.15,"target":"right","response":"left","rt":642.60000002384,"correct":false,"confidence":3},{"trial_n":51,"n_dots":3.25,"target":"left","response":"left","rt":258.60000002384,"correct":true,"confidence":5},{"trial_n":52,"n_dots":3.25,"target":"left","response":"left","rt":525.89999997616,"correct":true,"confidence":5},{"trial_n":53,"n_dots":3.15,"target":"right","response":"left","rt":594.20000004768,"correct":false,"confidence":3},{"trial_n":54,"n_dots":3.25,"target":"left","response":"left","rt":451.10000002384,"correct":true,"confidence":4},{"trial_n":55,"n_dots":3.25,"target":"right","response":"right","rt":333.80000007153,"correct":true,"confidence":3},{"trial_n":56,"n_dots":3.15,"target":"right","response":"left","rt":357.39999997616,"correct":false,"confidence":3},{"trial_n":57,"n_dots":3.25,"target":"right","response":"right","rt":478.10000002384,"correct":true,"confidence":3},{"trial_n":58,"n_dots":3.25,"target":"left","response":"left","rt":606.29999995232,"correct":true,"confidence":3},{"trial_n":59,"n_dots":3.15,"target":"left","response":"left","rt":439.10000002384,"correct":true,"confidence":4},{"trial_n":60,"n_dots":3.15,"target":"left","response":"left","rt":183.60000002384,"correct":true,"confidence":4},{"trial_n":61,"n_dots":3.05,"target":"left","response":"left","rt":439.79999995232,"correct":true,"confidence":3},{"trial_n":62,"n_dots":3.05,"target":"left","response":"left","rt":460.79999995232,"correct":true,"confidence":3},{"trial_n":63,"n_dots":2.95,"target":"left","response":"right","rt":493.79999995232,"correct":false,"confidence":2},{"trial_n":64,"n_dots":3.05,"target":"left","response":"left","rt":400.29999995232,"correct":true,"confidence":2},{"trial_n":65,"n_dots":3.05,"target":"right","response":"right","rt":386.09999990463,"correct":true,"confidence":3},{"trial_n":66,"n_dots":2.95,"target":"left","response":"left","rt":399.40000009537,"correct":true,"confidence":4},{"trial_n":67,"n_dots":2.95,"target":"left","response":"left","rt":515.29999995232,"correct":true,"confidence":4},{"trial_n":68,"n_dots":2.85,"target":"right","response":"right","rt":484.19999992847,"correct":true,"confidence":3},{"trial_n":69,"n_dots":2.85,"target":"left","response":"left","rt":327.10000002384,"correct":true,"confidence":3},{"trial_n":70,"n_dots":2.75,"target":"left","response":"right","rt":350.39999997616,"correct":false,"confidence":3},{"trial_n":71,"n_dots":2.85,"target":"left","response":"left","rt":563.5,"correct":true,"confidence":4},{"trial_n":72,"n_dots":2.85,"target":"right","response":"right","rt":353.5,"correct":true,"confidence":4},{"trial_n":73,"n_dots":2.75,"target":"right","response":"left","rt":434.89999997616,"correct":false,"confidence":3},{"trial_n":74,"n_dots":2.85,"target":"right","response":"left","rt":359.39999997616,"correct":false,"confidence":4},{"trial_n":75,"n_dots":2.95,"target":"left","response":"right","rt":276.30000007153,"correct":false,"confidence":2},{"trial_n":76,"n_dots":3.05,"target":"right","response":"right","rt":229.89999997616,"correct":true,"confidence":4},{"trial_n":77,"n_dots":3.05,"target":"left","response":"left","rt":457,"correct":true,"confidence":3},{"trial_n":78,"n_dots":2.95,"target":"right","response":"right","rt":330.10000002384,"correct":true,"confidence":2},{"trial_n":79,"n_dots":2.95,"target":"right","response":"right","rt":208.19999992847,"correct":true,"confidence":3},{"trial_n":80,"n_dots":2.85,"target":"left","response":"left","rt":300,"correct":true,"confidence":4},{"trial_n":81,"n_dots":2.85,"target":"right","response":"right","rt":79.399999976158,"correct":true,"confidence":3},{"trial_n":82,"n_dots":2.75,"target":"right","response":"right","rt":201.5,"correct":true,"confidence":4},{"trial_n":83,"n_dots":2.75,"target":"left","response":"left","rt":152.5,"correct":true,"confidence":4},{"trial_n":84,"n_dots":2.65,"target":"left","response":"left","rt":498.60000002384,"correct":true,"confidence":4},{"trial_n":85,"n_dots":2.65,"target":"left","response":"left","rt":623.09999990463,"correct":true,"confidence":2},{"trial_n":86,"n_dots":2.55,"target":"left","response":"left","rt":469,"correct":true,"confidence":2},{"trial_n":87,"n_dots":2.55,"target":"right","response":"left","rt":455,"correct":false,"confidence":3},{"trial_n":88,"n_dots":2.65,"target":"right","response":"right","rt":82.599999904633,"correct":true,"confidence":4},{"trial_n":89,"n_dots":2.65,"target":"right","response":"right","rt":352.89999997616,"correct":true,"confidence":4},{"trial_n":90,"n_dots":2.55,"target":"left","response":"left","rt":486.5,"correct":true,"confidence":2},{"trial_n":91,"n_dots":2.55,"target":"right","response":"left","rt":582.20000004768,"correct":false,"confidence":3},{"trial_n":92,"n_dots":2.65,"target":"left","response":"left","rt":243.79999995232,"correct":true,"confidence":4},{"trial_n":93,"n_dots":2.65,"target":"right","response":"left","rt":474.70000004768,"correct":false,"confidence":4},{"trial_n":94,"n_dots":2.75,"target":"left","response":"right","rt":482,"correct":false,"confidence":2},{"trial_n":95,"n_dots":2.85,"target":"left","response":"left","rt":209.5,"correct":true,"confidence":3},{"trial_n":96,"n_dots":2.85,"target":"left","response":"left","rt":520.69999992847,"correct":true,"confidence":3},{"trial_n":97,"n_dots":2.75,"target":"right","response":"right","rt":1417.0999999046,"correct":true,"confidence":2},{"trial_n":98,"n_dots":2.75,"target":"left","response":"left","rt":245.80000007153,"correct":true,"confidence":4},{"trial_n":99,"n_dots":2.65,"target":"right","response":"right","rt":110.79999995232,"correct":true,"confidence":5},{"trial_n":100,"n_dots":2.65,"target":"right","response":"right","rt":183.89999997616,"correct":true,"confidence":4},{"trial_n":101,"n_dots":2.55,"target":"left","response":"right","rt":557.70000004768,"correct":false,"confidence":3},{"trial_n":102,"n_dots":2.65,"target":"left","response":"left","rt":377.5,"correct":true,"confidence":3},{"trial_n":103,"n_dots":2.65,"target":"right","response":"right","rt":160.89999997616,"correct":true,"confidence":2},{"trial_n":104,"n_dots":2.55,"target":"right","response":"left","rt":151.29999995232,"correct":false,"confidence":4},{"trial_n":105,"n_dots":2.65,"target":"right","response":"right","rt":537.5,"correct":true,"confidence":2},{"trial_n":106,"n_dots":2.65,"target":"right","response":"right","rt":340.80000007153,"correct":true,"confidence":3},{"trial_n":107,"n_dots":2.55,"target":"left","response":"left","rt":394.80000007153,"correct":true,"confidence":4},{"trial_n":108,"n_dots":2.55,"target":"left","response":"left","rt":347.5,"correct":true,"confidence":3},{"trial_n":109,"n_dots":2.45,"target":"right","response":"right","rt":375.10000002384,"correct":true,"confidence":3},{"trial_n":110,"n_dots":2.45,"target":"left","response":"right","rt":662.39999997616,"correct":false,"confidence":4},{"trial_n":111,"n_dots":2.55,"target":"left","response":"left","rt":544.5,"correct":true,"confidence":2},{"trial_n":112,"n_dots":2.55,"target":"right","response":"right","rt":385.59999990463,"correct":true,"confidence":3},{"trial_n":113,"n_dots":2.45,"target":"left","response":"right","rt":517.70000004768,"correct":false,"confidence":3},{"trial_n":114,"n_dots":2.55,"target":"right","response":"left","rt":560.89999997616,"correct":false,"confidence":2},{"trial_n":115,"n_dots":2.65,"target":"right","response":"right","rt":456.40000009537,"correct":true,"confidence":3},{"trial_n":116,"n_dots":2.65,"target":"right","response":"right","rt":391.60000002384,"correct":true,"confidence":2},{"trial_n":117,"n_dots":2.55,"target":"left","response":"left","rt":467,"correct":true,"confidence":3},{"trial_n":118,"n_dots":2.55,"target":"right","response":"right","rt":640.39999997616,"correct":true,"confidence":2},{"trial_n":119,"n_dots":2.45,"target":"right","response":"left","rt":518.69999992847,"correct":false,"confidence":4},{"trial_n":120,"n_dots":2.55,"target":"right","response":"right","rt":293.39999997616,"correct":true,"confidence":4}]