[{"trial_n":1,"n_dots":4.25,"target":"left","response":"left","rt":2751.0000000009,"correct":true,"confidence":-1},{"trial_n":2,"n_dots":4.25,"target":"right","response":"right","rt":650,"correct":true,"confidence":-1},{"trial_n":3,"n_dots":3.85,"target":"right","response":"right","rt":633,"correct":true,"confidence":-1},{"trial_n":4,"n_dots":3.85,"target":"left","response":"left","rt":700.00000000093,"correct":true,"confidence":-1},{"trial_n":5,"n_dots":3.45,"target":"right","response":"right","rt":509,"correct":true,"confidence":-1},{"trial_n":6,"n_dots":3.45,"target":"right","response":"right","rt":638,"correct":true,"confidence":-1},{"trial_n":7,"n_dots":3.05,"target":"left","response":"left","rt":660,"correct":true,"confidence":-1},{"trial_n":8,"n_dots":3.05,"target":"right","response":"right","rt":770,"correct":true,"confidence":-1},{"trial_n":9,"n_dots":2.85,"target":"right","response":"left","rt":803,"correct":false,"confidence":-1},{"trial_n":10,"n_dots":3.05,"target":"left","response":"left","rt":591,"correct":true,"confidence":-1},{"trial_n":11,"n_dots":3.05,"target":"left","response":"left","rt":1281,"correct":true,"confidence":-1},{"trial_n":12,"n_dots":2.85,"target":"right","response":"right","rt":1420,"correct":true,"confidence":-1},{"trial_n":13,"n_dots":2.85,"target":"left","response":"left","rt":1376,"correct":true,"confidence":-1},{"trial_n":14,"n_dots":2.75,"target":"left","response":"right","rt":870.99999999907,"correct":false,"confidence":-1},{"trial_n":15,"n_dots":2.85,"target":"left","response":"left","rt":460,"correct":true,"confidence":-1},{"trial_n":16,"n_dots":2.85,"target":"right","response":"right","rt":655,"correct":true,"confidence":-1},{"trial_n":17,"n_dots":2.75,"target":"left","response":"left","rt":545,"correct":true,"confidence":-1},{"trial_n":18,"n_dots":2.75,"target":"right","response":"right","rt":529.99999999907,"correct":true,"confidence":-1},{"trial_n":19,"n_dots":2.65,"target":"right","response":"left","rt":786,"correct":false,"confidence":-1},{"trial_n":20,"n_dots":2.75,"target":"right","response":"left","rt":546,"correct":false,"confidence":-1},{"trial_n":21,"n_dots":2.85,"target":"left","response":"right","rt":5307,"correct":false,"confidence":1},{"trial_n":22,"n_dots":2.95,"target":"left","response":"left","rt":679,"correct":true,"confidence":1},{"trial_n":23,"n_dots":2.95,"target":"left","response":"left","rt":502,"correct":true,"confidence":1},{"trial_n":24,"n_dots":2.85,"target":"left","response":"left","rt":554,"correct":true,"confidence":1},{"trial_n":25,"n_dots":2.85,"target":"right","response":"right","rt":495,"correct":true,"confidence":1},{"trial_n":26,"n_dots":2.75,"target":"left","response":"left","rt":656,"correct":true,"confidence":1},{"trial_n":27,"n_dots":2.75,"target":"left","response":"left","rt":477,"correct":true,"confidence":1},{"trial_n":28,"n_dots":2.65,"target":"right","response":"right","rt":649,"correct":true,"confidence":1},{"trial_n":29,"n_dots":2.65,"target":"right","response":"right","rt":627.99999999907,"correct":true,"confidence":1},{"trial_n":30,"n_dots":2.55,"target":"right","response":"right","rt":734,"correct":true,"confidence":1},{"trial_n":31,"n_dots":2.55,"target":"left","response":"left","rt":852,"correct":true,"confidence":1},{"trial_n":32,"n_dots":2.45,"target":"left","response":"left","rt":552,"correct":true,"confidence":1},{"trial_n":33,"n_dots":2.45,"target":"left","response":"left","rt":481,"correct":true,"confidence":1},{"trial_n":34,"n_dots":2.35,"target":"right","response":"right","rt":369,"correct":true,"confidence":1},{"trial_n":35,"n_dots":2.35,"target":"right","response":"right","rt":657,"correct":true,"confidence":1},{"trial_n":36,"n_dots":2.25,"target":"right","response":"left","rt":719,"correct":false,"confidence":1},{"trial_n":37,"n_dots":2.35,"target":"right","response":"left","rt":800,"correct":false,"confidence":1},{"trial_n":38,"n_dots":2.45,"target":"left","response":"right","rt":522,"correct":false,"confidence":1},{"trial_n":39,"n_dots":2.55,"target":"right","response":"right","rt":682,"correct":true,"confidence":1},{"trial_n":40,"n_dots":2.55,"target":"right","response":"right","rt":640,"correct":true,"confidence":1},{"trial_n":41,"n_dots":2.45,"target":"left","response":"left","rt":297,"correct":true,"confidence":1},{"trial_n":42,"n_dots":2.45,"target":"left","response":"left","rt":767,"correct":true,"confidence":1},{"trial_n":43,"n_dots":2.35,"target":"left","response":"left","rt":660,"correct":true,"confidence":1},{"trial_n":44,"n_dots":2.35,"target":"right","response":"right","rt":611.99999999907,"correct":true,"confidence":1},{"trial_n":45,"n_dots":2.25,"target":"right","response":"right","rt":614,"correct":true,"confidence":1},{"trial_n":46,"n_dots":2.25,"target":"right","response":"right","rt":900,"correct":true,"confidence":1},{"trial_n":47,"n_dots":2.15,"target":"right","response":"left","rt":544,"correct":false,"confidence":1},{"trial_n":48,"n_dots":2.25,"target":"right","response":"left","rt":1180.9999999991,"correct":false,"confidence":1},{"trial_n":49,"n_dots":2.35,"target":"left","response":"left","rt":314,"correct":true,"confidence":1},{"trial_n":50,"n_dots":2.35,"target":"left","response":"left","rt":329,"correct":true,"confidence":1},{"trial_n":51,"n_dots":2.25,"target":"right","response":"right","rt":333,"correct":true,"confidence":1},{"trial_n":52,"n_dots":2.25,"target":"right","response":"left","rt":512.99999999907,"correct":false,"confidence":1},{"trial_n":53,"n_dots":2.35,"target":"left","response":"left","rt":501,"correct":true,"confidence":1},{"trial_n":54,"n_dots":2.35,"target":"left","response":"left","rt":1160,"correct":true,"confidence":1},{"trial_n":55,"n_dots":2.25,"target":"left","response":"left","rt":450,"correct":true,"confidence":1},{"trial_n":56,"n_dots":2.25,"target":"left","response":"right","rt":670,"correct":false,"confidence":1},{"trial_n":57,"n_dots":2.35,"target":"left","response":"left","rt":1171,"correct":true,"confidence":1},{"trial_n":58,"n_dots":2.35,"target":"right","response":"right","rt":276.00000000093,"correct":true,"confidence":1},{"trial_n":59,"n_dots":2.25,"target":"right","response":"left","rt":544.00000000093,"correct":false,"confidence":1},{"trial_n":60,"n_dots":2.35,"target":"right","response":"left","rt":452.00000000093,"correct":false,"confidence":1},{"trial_n":61,"n_dots":2.45,"target":"right","response":"right","rt":632,"correct":true,"confidence":1},{"trial_n":62,"n_dots":2.45,"target":"left","response":"left","rt":124,"correct":true,"confidence":1},{"trial_n":63,"n_dots":2.35,"target":"left","response":"right","rt":82,"correct":false,"confidence":1},{"trial_n":64,"n_dots":2.45,"target":"right","response":"right","rt":435,"correct":true,"confidence":1},{"trial_n":65,"n_dots":2.45,"target":"left","response":"right","rt":468,"correct":false,"confidence":1},{"trial_n":66,"n_dots":2.55,"target":"right","response":"left","rt":1854,"correct":false,"confidence":1},{"trial_n":67,"n_dots":2.65,"target":"right","response":"right","rt":398.99999999907,"correct":true,"confidence":1},{"trial_n":68,"n_dots":2.65,"target":"left","response":"left","rt":499,"correct":true,"confidence":1},{"trial_n":69,"n_dots":2.55,"target":"left","response":"right","rt":464,"correct":false,"confidence":1},{"trial_n":70,"n_dots":2.65,"target":"left","response":"right","rt":903,"correct":false,"confidence":1},{"trial_n":71,"n_dots":2.75,"target":"left","response":"left","rt":73,"correct":true,"confidence":1},{"trial_n":72,"n_dots":2.75,"target":"right","response":"left","rt":764,"correct":false,"confidence":1},{"trial_n":73,"n_dots":2.85,"target":"right","response":"right","rt":195,"correct":true,"confidence":1},{"trial_n":74,"n_dots":2.85,"target":"right","response":"left","rt":560,"correct":false,"confidence":1},{"trial_n":75,"n_dots":2.95,"target":"right","response":"left","rt":1314,"correct":false,"confidence":1},{"trial_n":76,"n_dots":3.05,"target":"right","response":"right","rt":457,"correct":true,"confidence":1},{"trial_n":77,"n_dots":3.05,"target":"left","response":"left","rt":597,"correct":true,"confidence":1},{"trial_n":78,"n_dots":2.95,"target":"left","response":"left","rt":571.00000000093,"correct":true,"confidence":1},{"trial_n":79,"n_dots":2.95,"target":"left","response":"left","rt":310,"correct":true,"confidence":1},{"trial_n":80,"n_dots":2.85,"target":"left","response":"right","rt":498,"correct":false,"confidence":1},{"trial_n":81,"n_dots":2.95,"target":"left","response":"left","rt":711,"correct":true,"confidence":1},{"trial_n":82,"n_dots":2.95,"target":"right","response":"right","rt":343,"correct":true,"confidence":1},{"trial_n":83,"n_dots":2.85,"target":"right","response":"right","rt":314.00000000093,"correct":true,"confidence":1},{"trial_n":84,"n_dots":2.85,"target":"left","response":"left","rt":410,"correct":true,"confidence":1},{"trial_n":85,"n_dots":2.75,"target":"right","response":"right","rt":433,"correct":true,"confidence":1},{"trial_n":86,"n_dots":2.75,"target":"right","response":"left","rt":486,"correct":false,"confidence":1},{"trial_n":87,"n_dots":2.85,"target":"left","response":"right","rt":324,"correct":false,"confidence":1},{"trial_n":88,"n_dots":2.95,"target":"left","response":"left","rt":1170,"correct":true,"confidence":1},{"trial_n":89,"n_dots":2.95,"target":"left","response":"right","rt":7753,"correct":false,"confidence":1},{"trial_n":90,"n_dots":3.05,"target":"left","response":"left","rt":440,"correct":true,"confidence":1},{"trial_n":91,"n_dots":3.05,"target":"left","response":"right","rt":521,"correct":false,"confidence":1},{"trial_n":92,"n_dots":3.15,"target":"left","response":"left","rt":520,"correct":true,"confidence":1},{"trial_n":93,"n_dots":3.15,"target":"left","response":"left","rt":640.00000000093,"correct":true,"confidence":1},{"trial_n":94,"n_dots":3.05,"target":"left","response":"left","rt":593,"correct":true,"confidence":1},{"trial_n":95,"n_dots":3.05,"target":"right","response":"right","rt":857,"correct":true,"confidence":1},{"trial_n":96,"n_dots":2.95,"target":"right","response":"right","rt":800.00000000093,"correct":true,"confidence":1},{"trial_n":97,"n_dots":2.95,"target":"right","response":"right","rt":651,"correct":true,"confidence":1},{"trial_n":98,"n_dots":2.85,"target":"left","response":"right","rt":1460,"correct":false,"confidence":1},{"trial_n":99,"n_dots":2.95,"target":"right","response":"right","rt":363.99999999907,"correct":true,"confidence":1},{"trial_n":100,"n_dots":2.95,"target":"left","response":"right","rt":621,"correct":false,"confidence":1},{"trial_n":101,"n_dots":3.05,"target":"left","response":"left","rt":476.99999999907,"correct":true,"confidence":1},{"trial_n":102,"n_dots":3.05,"target":"left","response":"right","rt":392,"correct":false,"confidence":1},{"trial_n":103,"n_dots":3.15,"target":"right","response":"right","rt":600.99999999907,"correct":true,"confidence":1},{"trial_n":104,"n_dots":3.15,"target":"right","response":"right","rt":524,"correct":true,"confidence":1},{"trial_n":105,"n_dots":3.05,"target":"right","response":"left","rt":514,"correct":false,"confidence":1},{"trial_n":106,"n_dots":3.15,"target":"right","response":"right","rt":445.99999999907,"correct":true,"confidence":1},{"trial_n":107,"n_dots":3.15,"target":"left","response":"left","rt":622,"correct":true,"confidence":1},{"trial_n":108,"n_dots":3.05,"target":"right","response":"right","rt":504,"correct":true,"confidence":1},{"trial_n":109,"n_dots":3.05,"target":"left","response":"left","rt":362,"correct":true,"confidence":1},{"trial_n":110,"n_dots":2.95,"target":"right","response":"right","rt":316,"correct":true,"confidence":1},{"trial_n":111,"n_dots":2.95,"target":"right","response":"right","rt":552,"correct":true,"confidence":1},{"trial_n":112,"n_dots":2.85,"target":"right","response":"right","rt":671,"correct":true,"confidence":1},{"trial_n":113,"n_dots":2.85,"target":"right","response":"left","rt":622,"correct":false,"confidence":1},{"trial_n":114,"n_dots":2.95,"target":"left","response":"right","rt":487,"correct":false,"confidence":1},{"trial_n":115,"n_dots":3.05,"target":"right","response":"right","rt":661,"correct":true,"confidence":1},{"trial_n":116,"n_dots":3.05,"target":"left","response":"left","rt":770,"correct":true,"confidence":1},{"trial_n":117,"n_dots":2.95,"target":"right","response":"right","rt":626,"correct":true,"confidence":1},{"trial_n":118,"n_dots":2.95,"target":"right","response":"right","rt":288,"correct":true,"confidence":1},{"trial_n":119,"n_dots":2.85,"target":"left","response":"left","rt":669,"correct":true,"confidence":1},{"trial_n":120,"n_dots":2.85,"target":"left","response":"right","rt":416,"correct":false,"confidence":1}]