[{"trial_n":1,"min":25,"max":230,"target":"present","response":"absent","rt":11118,"correct":false,"confidence":-1},{"trial_n":2,"min":25,"max":230,"target":"present","response":"present","rt":1233,"correct":true,"confidence":-1},{"trial_n":3,"min":25,"max":230,"target":"absent","response":"absent","rt":594,"correct":true,"confidence":-1},{"trial_n":4,"min":41,"max":214,"target":"absent","response":"absent","rt":554,"correct":true,"confidence":-1},{"trial_n":5,"min":41,"max":214,"target":"present","response":"present","rt":611,"correct":true,"confidence":-1},{"trial_n":6,"min":57,"max":198,"target":"present","response":"present","rt":762,"correct":true,"confidence":-1},{"trial_n":7,"min":57,"max":198,"target":"present","response":"present","rt":607.99999999999,"correct":true,"confidence":-1},{"trial_n":8,"min":73,"max":182,"target":"absent","response":"absent","rt":498,"correct":true,"confidence":-1},{"trial_n":9,"min":73,"max":182,"target":"present","response":"present","rt":739,"correct":true,"confidence":-1},{"trial_n":10,"min":89,"max":166,"target":"absent","response":"absent","rt":473,"correct":true,"confidence":-1},{"trial_n":11,"min":89,"max":166,"target":"present","response":"absent","rt":496,"correct":false,"confidence":-1},{"trial_n":12,"min":81,"max":174,"target":"present","response":"present","rt":636.00000000001,"correct":true,"confidence":-1},{"trial_n":13,"min":81,"max":174,"target":"present","response":"absent","rt":586.99999999999,"correct":false,"confidence":-1},{"trial_n":14,"min":73,"max":182,"target":"absent","response":"absent","rt":1069,"correct":true,"confidence":-1},{"trial_n":15,"min":73,"max":182,"target":"absent","response":"absent","rt":604,"correct":true,"confidence":-1},{"trial_n":16,"min":81,"max":174,"target":"absent","response":"absent","rt":1121,"correct":true,"confidence":-1},{"trial_n":17,"min":81,"max":174,"target":"absent","response":"absent","rt":678,"correct":true,"confidence":-1},{"trial_n":18,"min":89,"max":166,"target":"present","response":"present","rt":663,"correct":true,"confidence":-1},{"trial_n":19,"min":89,"max":166,"target":"present","response":"present","rt":1456,"correct":true,"confidence":-1},{"trial_n":20,"min":97,"max":158,"target":"present","response":"absent","rt":676.00000000001,"correct":false,"confidence":-1},{"trial_n":21,"min":93,"max":162,"target":"absent","response":"absent","rt":600.00000000003,"correct":true,"confidence":1},{"trial_n":22,"min":93,"max":162,"target":"absent","response":"present","rt":1025,"correct":false,"confidence":1},{"trial_n":23,"min":89,"max":166,"target":"present","response":"absent","rt":896,"correct":false,"confidence":1},{"trial_n":24,"min":85,"max":170,"target":"present","response":"present","rt":670.99999999997,"correct":true,"confidence":1},{"trial_n":25,"min":85,"max":170,"target":"absent","response":"absent","rt":499.00000000003,"correct":true,"confidence":1},{"trial_n":26,"min":89,"max":166,"target":"present","response":"absent","rt":511,"correct":false,"confidence":1},{"trial_n":27,"min":85,"max":170,"target":"present","response":"present","rt":1335,"correct":true,"confidence":1},{"trial_n":28,"min":85,"max":170,"target":"present","response":"absent","rt":543,"correct":false,"confidence":1},{"trial_n":29,"min":81,"max":174,"target":"present","response":"present","rt":718,"correct":true,"confidence":1},{"trial_n":30,"min":81,"max":174,"target":"absent","response":"absent","rt":447,"correct":true,"confidence":1},{"trial_n":31,"min":83,"max":172,"target":"present","response":"present","rt":460,"correct":true,"confidence":1},{"trial_n":32,"min":83,"max":172,"target":"present","response":"absent","rt":837,"correct":false,"confidence":1},{"trial_n":33,"min":81,"max":174,"target":"present","response":"present","rt":611,"correct":true,"confidence":1},{"trial_n":34,"min":81,"max":174,"target":"absent","response":"absent","rt":767.00000000003,"correct":true,"confidence":1},{"trial_n":35,"min":83,"max":172,"target":"present","response":"present","rt":686,"correct":true,"confidence":1},{"trial_n":36,"min":83,"max":172,"target":"absent","response":"absent","rt":866.99999999997,"correct":true,"confidence":1},{"trial_n":37,"min":85,"max":170,"target":"present","response":"absent","rt":660,"correct":false,"confidence":1},{"trial_n":38,"min":83,"max":172,"target":"absent","response":"absent","rt":490,"correct":true,"confidence":1},{"trial_n":39,"min":83,"max":172,"target":"present","response":"present","rt":620,"correct":true,"confidence":1},{"trial_n":40,"min":85,"max":170,"target":"present","response":"absent","rt":838,"correct":false,"confidence":1},{"trial_n":41,"min":84,"max":171,"target":"present","response":"absent","rt":1195,"correct":false,"confidence":1},{"trial_n":42,"min":83,"max":172,"target":"absent","response":"absent","rt":472,"correct":true,"confidence":1},{"trial_n":43,"min":83,"max":172,"target":"present","response":"present","rt":953,"correct":true,"confidence":1},{"trial_n":44,"min":84,"max":171,"target":"absent","response":"absent","rt":556,"correct":true,"confidence":1},{"trial_n":45,"min":84,"max":171,"target":"absent","response":"absent","rt":3596,"correct":true,"confidence":1},{"trial_n":46,"min":85,"max":170,"target":"absent","response":"absent","rt":651,"correct":true,"confidence":1},{"trial_n":47,"min":85,"max":170,"target":"absent","response":"present","rt":623,"correct":false,"confidence":1},{"trial_n":48,"min":84,"max":171,"target":"absent","response":"absent","rt":662.00000000003,"correct":true,"confidence":1},{"trial_n":49,"min":84,"max":171,"target":"absent","response":"absent","rt":865.99999999997,"correct":true,"confidence":1},{"trial_n":50,"min":85,"max":170,"target":"absent","response":"absent","rt":973.00000000003,"correct":true,"confidence":1},{"trial_n":51,"min":85,"max":170,"target":"absent","response":"present","rt":941,"correct":false,"confidence":1},{"trial_n":52,"min":84,"max":171,"target":"absent","response":"absent","rt":786,"correct":true,"confidence":1},{"trial_n":53,"min":84,"max":171,"target":"present","response":"present","rt":983,"correct":true,"confidence":2},{"trial_n":54,"min":85,"max":170,"target":"present","response":"present","rt":919,"correct":true,"confidence":2},{"trial_n":55,"min":85,"max":170,"target":"present","response":"present","rt":561.00000000003,"correct":true,"confidence":3},{"trial_n":56,"min":86,"max":169,"target":"present","response":"absent","rt":454,"correct":false,"confidence":1},{"trial_n":57,"min":85,"max":170,"target":"absent","response":"absent","rt":522,"correct":true,"confidence":1},{"trial_n":58,"min":85,"max":170,"target":"present","response":"absent","rt":734.99999999997,"correct":false,"confidence":1},{"trial_n":59,"min":84,"max":171,"target":"absent","response":"absent","rt":574,"correct":true,"confidence":1},{"trial_n":60,"min":84,"max":171,"target":"present","response":"present","rt":919.99999999997,"correct":true,"confidence":1},{"trial_n":61,"min":85,"max":170,"target":"absent","response":"absent","rt":501,"correct":true,"confidence":1},{"trial_n":62,"min":85,"max":170,"target":"absent","response":"absent","rt":1331,"correct":true,"confidence":1},{"trial_n":63,"min":86,"max":169,"target":"absent","response":"absent","rt":582.00000000006,"correct":true,"confidence":1},{"trial_n":64,"min":86,"max":169,"target":"absent","response":"present","rt":1109,"correct":false,"confidence":1},{"trial_n":65,"min":85,"max":170,"target":"present","response":"absent","rt":487.99999999997,"correct":false,"confidence":1},{"trial_n":66,"min":84,"max":171,"target":"absent","response":"absent","rt":639.00000000006,"correct":true,"confidence":1},{"trial_n":67,"min":84,"max":171,"target":"present","response":"present","rt":579,"correct":true,"confidence":1},{"trial_n":68,"min":85,"max":170,"target":"absent","response":"absent","rt":549,"correct":true,"confidence":1},{"trial_n":69,"min":85,"max":170,"target":"present","response":"present","rt":529,"correct":true,"confidence":1},{"trial_n":70,"min":86,"max":169,"target":"absent","response":"absent","rt":620,"correct":true,"confidence":1},{"trial_n":71,"min":41,"max":214,"target":"present","response":"present","rt":3151,"correct":true,"confidence":-1},{"trial_n":72,"min":41,"max":214,"target":"present","response":"present","rt":606.99999999994,"correct":true,"confidence":-1},{"trial_n":73,"min":57,"max":198,"target":"absent","response":"absent","rt":579,"correct":true,"confidence":-1},{"trial_n":74,"min":57,"max":198,"target":"absent","response":"absent","rt":656.99999999994,"correct":true,"confidence":-1},{"trial_n":75,"min":73,"max":182,"target":"present","response":"present","rt":488,"correct":true,"confidence":-1},{"trial_n":76,"min":73,"max":182,"target":"present","response":"present","rt":649,"correct":true,"confidence":-1},{"trial_n":77,"min":89,"max":166,"target":"absent","response":"absent","rt":1668,"correct":true,"confidence":-1},{"trial_n":78,"min":89,"max":166,"target":"absent","response":"absent","rt":668.00000000006,"correct":true,"confidence":-1},{"trial_n":79,"min":105,"max":150,"target":"absent","response":"present","rt":1112,"correct":false,"confidence":-1},{"trial_n":80,"min":89,"max":166,"target":"absent","response":"absent","rt":724,"correct":true,"confidence":-1},{"trial_n":81,"min":89,"max":166,"target":"present","response":"present","rt":791,"correct":true,"confidence":-1},{"trial_n":82,"min":97,"max":158,"target":"present","response":"present","rt":534.00000000006,"correct":true,"confidence":-1},{"trial_n":83,"min":97,"max":158,"target":"present","response":"present","rt":414.00000000006,"correct":true,"confidence":-1},{"trial_n":84,"min":105,"max":150,"target":"present","response":"present","rt":976,"correct":true,"confidence":-1},{"trial_n":85,"min":105,"max":150,"target":"present","response":"absent","rt":982,"correct":false,"confidence":-1},{"trial_n":86,"min":97,"max":158,"target":"present","response":"absent","rt":538,"correct":false,"confidence":-1},{"trial_n":87,"min":89,"max":166,"target":"present","response":"present","rt":936,"correct":true,"confidence":-1},{"trial_n":88,"min":89,"max":166,"target":"absent","response":"absent","rt":702,"correct":true,"confidence":-1},{"trial_n":89,"min":97,"max":158,"target":"present","response":"present","rt":740,"correct":true,"confidence":-1},{"trial_n":90,"min":97,"max":158,"target":"absent","response":"present","rt":741,"correct":false,"confidence":-1},{"trial_n":91,"min":93,"max":162,"target":"absent","response":"present","rt":823,"correct":false,"confidence":1},{"trial_n":92,"min":89,"max":166,"target":"absent","response":"present","rt":596,"correct":false,"confidence":1},{"trial_n":93,"min":85,"max":170,"target":"absent","response":"present","rt":539,"correct":false,"confidence":1},{"trial_n":94,"min":81,"max":174,"target":"present","response":"present","rt":600,"correct":true,"confidence":1},{"trial_n":95,"min":81,"max":174,"target":"present","response":"present","rt":758,"correct":true,"confidence":1},{"trial_n":96,"min":85,"max":170,"target":"absent","response":"absent","rt":568,"correct":true,"confidence":1},{"trial_n":97,"min":85,"max":170,"target":"absent","response":"absent","rt":580.00000000006,"correct":true,"confidence":1},{"trial_n":98,"min":89,"max":166,"target":"present","response":"present","rt":635,"correct":true,"confidence":1},{"trial_n":99,"min":89,"max":166,"target":"present","response":"present","rt":1201,"correct":true,"confidence":1},{"trial_n":100,"min":93,"max":162,"target":"present","response":"present","rt":674,"correct":true,"confidence":1},{"trial_n":101,"min":93,"max":162,"target":"present","response":"present","rt":501.00000000006,"correct":true,"confidence":1},{"trial_n":102,"min":95,"max":160,"target":"absent","response":"absent","rt":669.00000000006,"correct":true,"confidence":1},{"trial_n":103,"min":95,"max":160,"target":"present","response":"present","rt":599,"correct":true,"confidence":1},{"trial_n":104,"min":97,"max":158,"target":"absent","response":"present","rt":552,"correct":false,"confidence":1},{"trial_n":105,"min":95,"max":160,"target":"present","response":"absent","rt":484.99999999994,"correct":false,"confidence":1},{"trial_n":106,"min":93,"max":162,"target":"present","response":"present","rt":760,"correct":true,"confidence":1},{"trial_n":107,"min":93,"max":162,"target":"absent","response":"absent","rt":759,"correct":true,"confidence":1},{"trial_n":108,"min":95,"max":160,"target":"present","response":"present","rt":715,"correct":true,"confidence":1},{"trial_n":109,"min":95,"max":160,"target":"absent","response":"present","rt":609,"correct":false,"confidence":1},{"trial_n":110,"min":93,"max":162,"target":"present","response":"present","rt":560,"correct":true,"confidence":1},{"trial_n":111,"min":93,"max":162,"target":"present","response":"absent","rt":662.00000000006,"correct":false,"confidence":1},{"trial_n":112,"min":92,"max":163,"target":"present","response":"present","rt":660,"correct":true,"confidence":1},{"trial_n":113,"min":92,"max":163,"target":"absent","response":"absent","rt":1911,"correct":true,"confidence":1},{"trial_n":114,"min":93,"max":162,"target":"present","response":"present","rt":795.99999999994,"correct":true,"confidence":1},{"trial_n":115,"min":93,"max":162,"target":"absent","response":"present","rt":590,"correct":false,"confidence":1},{"trial_n":116,"min":92,"max":163,"target":"absent","response":"present","rt":500,"correct":false,"confidence":1},{"trial_n":117,"min":91,"max":164,"target":"present","response":"present","rt":734.00000000006,"correct":true,"confidence":1},{"trial_n":118,"min":91,"max":164,"target":"present","response":"present","rt":545,"correct":true,"confidence":1},{"trial_n":119,"min":92,"max":163,"target":"absent","response":"absent","rt":571,"correct":true,"confidence":1},{"trial_n":120,"min":92,"max":163,"target":"present","response":"present","rt":401.99999999994,"correct":true,"confidence":1},{"trial_n":121,"min":93,"max":162,"target":"absent","response":"present","rt":729,"correct":false,"confidence":1},{"trial_n":122,"min":92,"max":163,"target":"absent","response":"present","rt":620,"correct":false,"confidence":1},{"trial_n":123,"min":91,"max":164,"target":"absent","response":"absent","rt":574,"correct":true,"confidence":1},{"trial_n":124,"min":91,"max":164,"target":"absent","response":"absent","rt":602.00000000012,"correct":true,"confidence":1},{"trial_n":125,"min":92,"max":163,"target":"present","response":"present","rt":477.99999999988,"correct":true,"confidence":1},{"trial_n":126,"min":92,"max":163,"target":"absent","response":"present","rt":575,"correct":false,"confidence":1},{"trial_n":127,"min":91,"max":164,"target":"present","response":"present","rt":1701,"correct":true,"confidence":1},{"trial_n":128,"min":91,"max":164,"target":"absent","response":"absent","rt":801,"correct":true,"confidence":1},{"trial_n":129,"min":92,"max":163,"target":"present","response":"absent","rt":551,"correct":false,"confidence":1},{"trial_n":130,"min":91,"max":164,"target":"absent","response":"present","rt":394.99999999988,"correct":false,"confidence":1},{"trial_n":131,"min":90,"max":165,"target":"present","response":"absent","rt":510,"correct":false,"confidence":1},{"trial_n":132,"min":89,"max":166,"target":"absent","response":"absent","rt":374,"correct":true,"confidence":1},{"trial_n":133,"min":89,"max":166,"target":"present","response":"present","rt":508,"correct":true,"confidence":1},{"trial_n":134,"min":90,"max":165,"target":"present","response":"absent","rt":341,"correct":false,"confidence":1},{"trial_n":135,"min":89,"max":166,"target":"absent","response":"present","rt":460.99999999988,"correct":false,"confidence":1},{"trial_n":136,"min":88,"max":167,"target":"absent","response":"absent","rt":350,"correct":true,"confidence":1},{"trial_n":137,"min":88,"max":167,"target":"absent","response":"present","rt":215,"correct":false,"confidence":1},{"trial_n":138,"min":87,"max":168,"target":"absent","response":"absent","rt":344,"correct":true,"confidence":1},{"trial_n":139,"min":87,"max":168,"target":"present","response":"present","rt":464,"correct":true,"confidence":1},{"trial_n":140,"min":88,"max":167,"target":"absent","response":"absent","rt":561,"correct":true,"confidence":1}]