[{"trial_n":1,"span":8,"encoder":"98854488","distractor":"94854488","target":"present","response":"present","rt":"6647.3000000119","correct":true,"confidence":-1},{"trial_n":2,"span":8,"encoder":"38526220","distractor":"34526220","target":"present","response":"present","rt":"2737.6999999881","correct":true,"confidence":-1},{"trial_n":3,"span":10,"encoder":"1996259191","distractor":"1936259191","target":"absent","response":"present","rt":"2582.5","correct":false,"confidence":-1},{"trial_n":4,"span":8,"encoder":"59402697","distractor":"59402197","target":"absent","response":"present","rt":"2265.1999999881","correct":false,"confidence":-1},{"trial_n":5,"span":6,"encoder":"406826","distractor":"404826","target":"present","response":"present","rt":"3360.8999999762","correct":true,"confidence":-1},{"trial_n":6,"span":6,"encoder":"933220","distractor":"936220","target":"present","response":"present","rt":"3923","correct":true,"confidence":-1},{"trial_n":7,"span":8,"encoder":"66114883","distractor":"66194883","target":"absent","response":"absent","rt":"3025.6999999881","correct":true,"confidence":-1},{"trial_n":8,"span":8,"encoder":"61909284","distractor":"61709284","target":"present","response":"present","rt":"2451.8000000119","correct":true,"confidence":-1},{"trial_n":9,"span":10,"encoder":"2757756280","distractor":"2757756288","target":"present","response":"absent","rt":"1935.2999999523","correct":false,"confidence":-1},{"trial_n":10,"span":8,"encoder":"21475374","distractor":"21475378","target":"present","response":"present","rt":"1465.3999999762","correct":true,"confidence":-1},{"trial_n":11,"span":8,"encoder":"68998262","distractor":"68988262","target":"absent","response":"absent","rt":"1760.1999999881","correct":true,"confidence":-1},{"trial_n":12,"span":9,"encoder":"751539796","distractor":"751534796","target":"present","response":"present","rt":"1934.6999999881","correct":true,"confidence":-1},{"trial_n":13,"span":9,"encoder":"483666599","distractor":"486666599","target":"absent","response":"absent","rt":"1886.3000000119","correct":true,"confidence":-1},{"trial_n":14,"span":10,"encoder":"0562512738","distractor":"0562518738","target":"absent","response":"absent","rt":"4388","correct":true,"confidence":-1},{"trial_n":15,"span":10,"encoder":"5688579845","distractor":"5685579845","target":"absent","response":"present","rt":"1597.0999999642","correct":false,"confidence":-1},{"trial_n":16,"span":9,"encoder":"383694568","distractor":"383624568","target":"absent","response":"present","rt":"1286.3000000119","correct":false,"confidence":-1},{"trial_n":17,"span":8,"encoder":"05581154","distractor":"05581157","target":"absent","response":"absent","rt":"1943.9000000358","correct":true,"confidence":-1},{"trial_n":18,"span":8,"encoder":"71741813","distractor":"71745813","target":"present","response":"present","rt":"4063.6999999881","correct":true,"confidence":-1},{"trial_n":19,"span":9,"encoder":"413791136","distractor":"413791139","target":"absent","response":"present","rt":"1601.1999999881","correct":false,"confidence":-1},{"trial_n":20,"span":8,"encoder":"64763377","distractor":"68763377","target":"absent","response":"present","rt":"2616.6000000238","correct":false,"confidence":-1},{"trial_n":21,"span":7,"encoder":"7741195","distractor":"7741295","target":"absent","response":"absent","rt":"2533","correct":true,"confidence":3},{"trial_n":22,"span":7,"encoder":"3619158","distractor":"3019158","target":"absent","response":"absent","rt":"2531.1999999881","correct":true,"confidence":3},{"trial_n":23,"span":8,"encoder":"55016031","distractor":"55026031","target":"absent","response":"absent","rt":"2990.1999999881","correct":true,"confidence":4},{"trial_n":24,"span":8,"encoder":"81354061","distractor":"81364061","target":"present","response":"absent","rt":"2669.4000000358","correct":false,"confidence":4},{"trial_n":25,"span":7,"encoder":"7133208","distractor":"7133008","target":"present","response":"absent","rt":"3412","correct":false,"confidence":3},{"trial_n":26,"span":6,"encoder":"436899","distractor":"437899","target":"present","response":"present","rt":"2317.3999999762","correct":true,"confidence":3},{"trial_n":27,"span":6,"encoder":"649733","distractor":"649743","target":"absent","response":"absent","rt":"3310.3000000119","correct":true,"confidence":3},{"trial_n":28,"span":7,"encoder":"1114847","distractor":"1114827","target":"present","response":"absent","rt":"5109","correct":false,"confidence":3},{"trial_n":29,"span":6,"encoder":"160579","distractor":"164579","target":"present","response":"present","rt":"5205.1999999881","correct":true,"confidence":2},{"trial_n":30,"span":6,"encoder":"006121","distractor":"006120","target":"present","response":"present","rt":"2423.9000000358","correct":true,"confidence":4},{"trial_n":31,"span":7,"encoder":"0652002","distractor":"4652002","target":"absent","response":"absent","rt":"2436.5","correct":true,"confidence":3},{"trial_n":32,"span":7,"encoder":"9852173","distractor":"9652173","target":"present","response":"present","rt":"2746.2000000477","correct":true,"confidence":5},{"trial_n":33,"span":8,"encoder":"37437897","distractor":"37427897","target":"absent","response":"present","rt":"5878.2999999523","correct":false,"confidence":3},{"trial_n":34,"span":7,"encoder":"2835669","distractor":"2835699","target":"present","response":"present","rt":"2290.6999999881","correct":true,"confidence":3},{"trial_n":35,"span":7,"encoder":"0003087","distractor":"0003487","target":"absent","response":"absent","rt":"2576.5999999642","correct":true,"confidence":3},{"trial_n":36,"span":8,"encoder":"58018810","distractor":"58010810","target":"absent","response":"absent","rt":"2095.4000000358","correct":true,"confidence":3},{"trial_n":37,"span":8,"encoder":"58614931","distractor":"58616931","target":"present","response":"present","rt":"1511.3000000119","correct":true,"confidence":2},{"trial_n":38,"span":9,"encoder":"793953034","distractor":"793953234","target":"present","response":"absent","rt":"3717.3000000119","correct":false,"confidence":2},{"trial_n":39,"span":8,"encoder":"87762645","distractor":"77762645","target":"absent","response":"absent","rt":"2959.9000000358","correct":true,"confidence":3},{"trial_n":40,"span":8,"encoder":"12401146","distractor":"12407146","target":"absent","response":"present","rt":"4591.3000000119","correct":false,"confidence":2},{"trial_n":41,"span":7,"encoder":"5260020","distractor":"5260080","target":"present","response":"absent","rt":"5166.4000000358","correct":false,"confidence":2},{"trial_n":42,"span":6,"encoder":"819736","distractor":"819936","target":"present","response":"present","rt":"2278.1999999881","correct":true,"confidence":3},{"trial_n":43,"span":6,"encoder":"323215","distractor":"323415","target":"absent","response":"absent","rt":"4072.0999999642","correct":true,"confidence":3},{"trial_n":44,"span":7,"encoder":"6537845","distractor":"6337845","target":"absent","response":"present","rt":"2029.1000000238","correct":false,"confidence":2},{"trial_n":45,"span":6,"encoder":"882969","distractor":"882967","target":"present","response":"present","rt":"2216.9000000358","correct":true,"confidence":4},{"trial_n":46,"span":6,"encoder":"390996","distractor":"390956","target":"present","response":"present","rt":"1300.8999999762","correct":true,"confidence":3},{"trial_n":47,"span":7,"encoder":"2682032","distractor":"2680032","target":"present","response":"present","rt":"2843.3999999762","correct":true,"confidence":5},{"trial_n":48,"span":7,"encoder":"4182630","distractor":"4172630","target":"absent","response":"absent","rt":"3237.8000000119","correct":true,"confidence":5},{"trial_n":49,"span":8,"encoder":"32690831","distractor":"32690839","target":"absent","response":"absent","rt":"1977.5","correct":true,"confidence":5},{"trial_n":50,"span":8,"encoder":"14090592","distractor":"14790592","target":"present","response":"present","rt":"4452.9000000358","correct":true,"confidence":1},{"trial_n":51,"span":9,"encoder":"242128300","distractor":"241128300","target":"present","response":"present","rt":"2135.5","correct":true,"confidence":4},{"trial_n":52,"span":9,"encoder":"744850472","distractor":"754850472","target":"absent","response":"present","rt":"2283.4000000358","correct":false,"confidence":3},{"trial_n":53,"span":8,"encoder":"17874100","distractor":"15874100","target":"absent","response":"present","rt":"6329.1000000238","correct":false,"confidence":2},{"trial_n":54,"span":7,"encoder":"9841352","distractor":"9841152","target":"present","response":"present","rt":"2935.3000000119","correct":true,"confidence":5},{"trial_n":55,"span":7,"encoder":"0415144","distractor":"0515144","target":"present","response":"present","rt":"2944.0999999642","correct":true,"confidence":4},{"trial_n":56,"span":8,"encoder":"87487084","distractor":"87467084","target":"present","response":"present","rt":"2760.7999999523","correct":true,"confidence":3},{"trial_n":57,"span":8,"encoder":"62199152","distractor":"62199552","target":"absent","response":"absent","rt":"2989.5","correct":true,"confidence":2},{"trial_n":58,"span":9,"encoder":"203788576","distractor":"203788076","target":"present","response":"absent","rt":"3789.5999999642","correct":false,"confidence":2},{"trial_n":59,"span":8,"encoder":"12889500","distractor":"12889570","target":"absent","response":"absent","rt":"3373.0999999642","correct":true,"confidence":5},{"trial_n":60,"span":8,"encoder":"40668602","distractor":"40688602","target":"absent","response":"present","rt":"2608.3999999762","correct":false,"confidence":1},{"trial_n":61,"span":7,"encoder":"4366661","distractor":"4366161","target":"present","response":"present","rt":"2895.6000000238","correct":true,"confidence":3},{"trial_n":62,"span":7,"encoder":"3627738","distractor":"3627736","target":"absent","response":"absent","rt":"1754.1999999881","correct":true,"confidence":5},{"trial_n":63,"span":8,"encoder":"89425360","distractor":"89415360","target":"present","response":"present","rt":"3285.8000000119","correct":true,"confidence":2},{"trial_n":64,"span":8,"encoder":"72876488","distractor":"72876468","target":"absent","response":"present","rt":"3294","correct":false,"confidence":1},{"trial_n":65,"span":7,"encoder":"7568941","distractor":"2568941","target":"present","response":"present","rt":"1639.8000000119","correct":true,"confidence":3},{"trial_n":66,"span":7,"encoder":"9598732","distractor":"9548732","target":"present","response":"present","rt":"2606.6000000238","correct":true,"confidence":4},{"trial_n":67,"span":8,"encoder":"76528904","distractor":"76628904","target":"present","response":"absent","rt":"2887.6999999881","correct":false,"confidence":3},{"trial_n":68,"span":7,"encoder":"3109678","distractor":"3109668","target":"present","response":"present","rt":"6078.3000000119","correct":true,"confidence":3},{"trial_n":69,"span":7,"encoder":"5721723","distractor":"5722723","target":"absent","response":"absent","rt":"2138.1000000238","correct":true,"confidence":2},{"trial_n":70,"span":8,"encoder":"98495214","distractor":"98425214","target":"absent","response":"absent","rt":"3712.5","correct":true,"confidence":2},{"trial_n":71,"span":8,"encoder":"70972130","distractor":"70979130","target":"present","response":"present","rt":"2837.5","correct":true,"confidence":-1},{"trial_n":72,"span":8,"encoder":"68598407","distractor":"68598607","target":"present","response":"present","rt":"3726.6999999881","correct":true,"confidence":-1},{"trial_n":73,"span":9,"encoder":"601393194","distractor":"606393194","target":"absent","response":"absent","rt":"3176","correct":true,"confidence":-1},{"trial_n":74,"span":9,"encoder":"070295096","distractor":"070296096","target":"absent","response":"absent","rt":"2696.5","correct":true,"confidence":-1},{"trial_n":75,"span":10,"encoder":"7847197581","distractor":"7547197581","target":"present","response":"present","rt":"6554.5999999642","correct":true,"confidence":-1},{"trial_n":76,"span":10,"encoder":"5627012329","distractor":"5627082329","target":"absent","response":"absent","rt":"2029.1999999881","correct":true,"confidence":-1},{"trial_n":77,"span":11,"encoder":"62251215035","distractor":"62251213035","target":"present","response":"present","rt":"9982.4000000358","correct":true,"confidence":-1},{"trial_n":78,"span":11,"encoder":"03233925187","distractor":"03233725187","target":"present","response":"present","rt":"2544.6000000238","correct":true,"confidence":-1},{"trial_n":79,"span":12,"encoder":"927377762990","distractor":"927377764990","target":"absent","response":"present","rt":"2665.3999999762","correct":false,"confidence":-1},{"trial_n":80,"span":11,"encoder":"19909544132","distractor":"19909644132","target":"absent","response":"absent","rt":"4789.1000000238","correct":true,"confidence":-1},{"trial_n":81,"span":11,"encoder":"76791278110","distractor":"76791278119","target":"absent","response":"present","rt":"4152.8000000119","correct":false,"confidence":-1},{"trial_n":82,"span":10,"encoder":"9723741606","distractor":"9743741606","target":"present","response":"absent","rt":"3265","correct":false,"confidence":-1},{"trial_n":83,"span":9,"encoder":"617119323","distractor":"617119383","target":"present","response":"present","rt":"678.40000003576","correct":true,"confidence":-1},{"trial_n":84,"span":9,"encoder":"982587194","distractor":"982547194","target":"present","response":"present","rt":"2832.1000000238","correct":true,"confidence":-1},{"trial_n":85,"span":10,"encoder":"0811749101","distractor":"5811749101","target":"absent","response":"absent","rt":"5085","correct":true,"confidence":-1},{"trial_n":86,"span":10,"encoder":"7259831789","distractor":"7289831789","target":"absent","response":"present","rt":"2605.5","correct":false,"confidence":-1},{"trial_n":87,"span":9,"encoder":"486315210","distractor":"481315210","target":"present","response":"absent","rt":"2579.1999999881","correct":false,"confidence":-1},{"trial_n":88,"span":8,"encoder":"13524913","distractor":"13524933","target":"present","response":"present","rt":"2100","correct":true,"confidence":-1},{"trial_n":89,"span":8,"encoder":"96496967","distractor":"96496963","target":"present","response":"present","rt":"2496.1999999881","correct":true,"confidence":-1},{"trial_n":90,"span":9,"encoder":"494160188","distractor":"494260188","target":"absent","response":"present","rt":"2749.8999999762","correct":false,"confidence":-1},{"trial_n":91,"span":8,"encoder":"45995907","distractor":"45995307","target":"absent","response":"absent","rt":"3547.1999999881","correct":true,"confidence":5},{"trial_n":92,"span":8,"encoder":"55640996","distractor":"55640966","target":"present","response":"absent","rt":"3835.5","correct":false,"confidence":2},{"trial_n":93,"span":7,"encoder":"7163491","distractor":"7163401","target":"absent","response":"absent","rt":"5722.3999999762","correct":true,"confidence":5},{"trial_n":94,"span":7,"encoder":"5275860","distractor":"5875860","target":"absent","response":"absent","rt":"5864.7000000477","correct":true,"confidence":3},{"trial_n":95,"span":8,"encoder":"70890675","distractor":"70390675","target":"absent","response":"present","rt":"4444.8000000119","correct":false,"confidence":2},{"trial_n":96,"span":7,"encoder":"5844235","distractor":"6844235","target":"present","response":"present","rt":"4406.1000000238","correct":true,"confidence":3},{"trial_n":97,"span":7,"encoder":"8580236","distractor":"8580239","target":"present","response":"present","rt":"3556.6999999881","correct":true,"confidence":2},{"trial_n":98,"span":8,"encoder":"88937128","distractor":"88939128","target":"absent","response":"absent","rt":"2929.2000000477","correct":true,"confidence":5},{"trial_n":99,"span":8,"encoder":"18094772","distractor":"18024772","target":"absent","response":"absent","rt":"2936.6999999881","correct":true,"confidence":3},{"trial_n":100,"span":9,"encoder":"140798594","distractor":"140788594","target":"present","response":"present","rt":"4265.3999999762","correct":true,"confidence":4},{"trial_n":101,"span":9,"encoder":"571152163","distractor":"571153163","target":"absent","response":"absent","rt":"5527.2999999523","correct":true,"confidence":3},{"trial_n":102,"span":10,"encoder":"8157236100","distractor":"8187236100","target":"absent","response":"absent","rt":"5933.5","correct":true,"confidence":4},{"trial_n":103,"span":10,"encoder":"2881879926","distractor":"2884879926","target":"absent","response":"absent","rt":"5659.1000000238","correct":true,"confidence":3},{"trial_n":104,"span":11,"encoder":"85747074766","distractor":"85947074766","target":"absent","response":"present","rt":"2848.5","correct":false,"confidence":2},{"trial_n":105,"span":10,"encoder":"6701770899","distractor":"6701775899","target":"absent","response":"present","rt":"5572.3999999762","correct":false,"confidence":4},{"trial_n":106,"span":9,"encoder":"173046043","distractor":"173044043","target":"present","response":"present","rt":"2712","correct":true,"confidence":5},{"trial_n":107,"span":9,"encoder":"345185710","distractor":"345187710","target":"present","response":"present","rt":"3420.6000000238","correct":true,"confidence":4},{"trial_n":108,"span":10,"encoder":"5635833641","distractor":"5638833641","target":"present","response":"present","rt":"9095","correct":true,"confidence":2},{"trial_n":109,"span":10,"encoder":"2427156850","distractor":"2427146850","target":"present","response":"present","rt":"5443.7999999523","correct":true,"confidence":2},{"trial_n":110,"span":11,"encoder":"88476401912","distractor":"87476401912","target":"present","response":"absent","rt":"4738.4000000358","correct":false,"confidence":3},{"trial_n":111,"span":10,"encoder":"9105018947","distractor":"9105015947","target":"present","response":"present","rt":"3306.5999999642","correct":true,"confidence":4},{"trial_n":112,"span":10,"encoder":"2263654689","distractor":"2253654689","target":"absent","response":"present","rt":"7699.5","correct":false,"confidence":2},{"trial_n":113,"span":9,"encoder":"469755141","distractor":"469855141","target":"absent","response":"absent","rt":"5502.6000000238","correct":true,"confidence":3},{"trial_n":114,"span":9,"encoder":"060037811","distractor":"660037811","target":"absent","response":"absent","rt":"10323.199999988","correct":true,"confidence":2},{"trial_n":115,"span":10,"encoder":"1373782460","distractor":"1343782460","target":"present","response":"absent","rt":"4650.6999999881","correct":false,"confidence":2},{"trial_n":116,"span":9,"encoder":"955523501","distractor":"955503501","target":"absent","response":"absent","rt":"3152.6999999881","correct":true,"confidence":5},{"trial_n":117,"span":9,"encoder":"055432032","distractor":"055432033","target":"present","response":"present","rt":"5449.0999999642","correct":true,"confidence":4},{"trial_n":118,"span":10,"encoder":"1834657489","distractor":"1834647489","target":"absent","response":"present","rt":"7301.9000000358","correct":false,"confidence":1},{"trial_n":119,"span":9,"encoder":"110985434","distractor":"110985454","target":"present","response":"absent","rt":"6586.3000000119","correct":false,"confidence":2},{"trial_n":120,"span":8,"encoder":"13501994","distractor":"13201994","target":"absent","response":"absent","rt":"4116.3000000119","correct":true,"confidence":2},{"trial_n":121,"span":8,"encoder":"61675632","distractor":"61675639","target":"absent","response":"present","rt":"4521.6999999881","correct":false,"confidence":3},{"trial_n":122,"span":7,"encoder":"7596177","distractor":"2596177","target":"absent","response":"absent","rt":"3704.6999999881","correct":true,"confidence":5},{"trial_n":123,"span":7,"encoder":"4294757","distractor":"4294751","target":"present","response":"present","rt":"1892.6999999881","correct":true,"confidence":5},{"trial_n":124,"span":8,"encoder":"15227177","distractor":"15827177","target":"absent","response":"absent","rt":"5720","correct":true,"confidence":3},{"trial_n":125,"span":8,"encoder":"65487445","distractor":"75487445","target":"absent","response":"absent","rt":"3509.5999999642","correct":true,"confidence":1},{"trial_n":126,"span":9,"encoder":"877042548","distractor":"877042547","target":"present","response":"present","rt":"36718.300000012","correct":true,"confidence":1},{"trial_n":127,"span":9,"encoder":"808363995","distractor":"808163995","target":"present","response":"absent","rt":"5714.7999999523","correct":false,"confidence":2},{"trial_n":128,"span":8,"encoder":"87472735","distractor":"82472735","target":"absent","response":"absent","rt":"4785.3999999762","correct":true,"confidence":3},{"trial_n":129,"span":8,"encoder":"78854423","distractor":"18854423","target":"present","response":"present","rt":"4610.1999999881","correct":true,"confidence":2},{"trial_n":130,"span":9,"encoder":"603609722","distractor":"603609772","target":"present","response":"present","rt":"3215.9000000358","correct":true,"confidence":4},{"trial_n":131,"span":9,"encoder":"085180528","distractor":"785180528","target":"present","response":"present","rt":"5560.8000000119","correct":true,"confidence":4},{"trial_n":132,"span":10,"encoder":"0038295543","distractor":"0078295543","target":"absent","response":"absent","rt":"4955.0999999642","correct":true,"confidence":3},{"trial_n":133,"span":10,"encoder":"8875946639","distractor":"8475946639","target":"absent","response":"present","rt":"4437.2000000477","correct":false,"confidence":1},{"trial_n":134,"span":9,"encoder":"864710675","distractor":"864710679","target":"present","response":"absent","rt":"3412","correct":false,"confidence":1},{"trial_n":135,"span":8,"encoder":"53354305","distractor":"53356305","target":"present","response":"present","rt":"2910.8999999762","correct":true,"confidence":5},{"trial_n":136,"span":8,"encoder":"64631328","distractor":"64931328","target":"present","response":"absent","rt":"4370.5","correct":false,"confidence":2},{"trial_n":137,"span":7,"encoder":"0509890","distractor":"0509290","target":"present","response":"present","rt":"3515.6000000238","correct":true,"confidence":5},{"trial_n":138,"span":7,"encoder":"9451110","distractor":"7451110","target":"present","response":"absent","rt":"4441.1999999881","correct":false,"confidence":2},{"trial_n":139,"span":6,"encoder":"061443","distractor":"021443","target":"absent","response":"absent","rt":"2265","correct":true,"confidence":5},{"trial_n":140,"span":6,"encoder":"368746","distractor":"318746","target":"present","response":"absent","rt":"15448.5","correct":false,"confidence":1}]