[{"trial_n":1,"span":8,"encoder":"37131358","distractor":"37131351","target":"present","response":"present","rt":"9201","correct":true,"confidence":-1},{"trial_n":2,"span":8,"encoder":"88995134","distractor":"88995634","target":"present","response":"absent","rt":"11517","correct":false,"confidence":-1},{"trial_n":3,"span":6,"encoder":"194480","distractor":"194481","target":"absent","response":"absent","rt":"3583","correct":true,"confidence":-1},{"trial_n":4,"span":6,"encoder":"081722","distractor":"081022","target":"absent","response":"absent","rt":"4599","correct":true,"confidence":-1},{"trial_n":5,"span":8,"encoder":"44570933","distractor":"44570930","target":"present","response":"present","rt":"1485","correct":true,"confidence":-1},{"trial_n":6,"span":8,"encoder":"43967118","distractor":"93967118","target":"present","response":"present","rt":"3106","correct":true,"confidence":-1},{"trial_n":7,"span":10,"encoder":"6733614411","distractor":"6733614811","target":"present","response":"present","rt":"2156","correct":true,"confidence":-1},{"trial_n":8,"span":10,"encoder":"2322024856","distractor":"2332024856","target":"absent","response":"absent","rt":"2588","correct":true,"confidence":-1},{"trial_n":9,"span":12,"encoder":"552411896215","distractor":"552411896295","target":"absent","response":"absent","rt":"1975","correct":true,"confidence":-1},{"trial_n":10,"span":12,"encoder":"810263066913","distractor":"810263067913","target":"absent","response":"present","rt":"4250","correct":false,"confidence":-1},{"trial_n":11,"span":10,"encoder":"0076407346","distractor":"0076407347","target":"absent","response":"absent","rt":"8498","correct":true,"confidence":-1},{"trial_n":12,"span":10,"encoder":"6080764678","distractor":"6180764678","target":"present","response":"absent","rt":"1831","correct":false,"confidence":-1},{"trial_n":13,"span":9,"encoder":"514937419","distractor":"514937919","target":"present","response":"present","rt":"2647","correct":true,"confidence":-1},{"trial_n":14,"span":9,"encoder":"484375785","distractor":"484475785","target":"present","response":"absent","rt":"4333","correct":false,"confidence":-1},{"trial_n":15,"span":8,"encoder":"49437446","distractor":"49417446","target":"absent","response":"present","rt":"2312","correct":false,"confidence":-1},{"trial_n":16,"span":7,"encoder":"5731619","distractor":"5731613","target":"present","response":"present","rt":"1446","correct":true,"confidence":-1},{"trial_n":17,"span":7,"encoder":"9133852","distractor":"9133352","target":"absent","response":"absent","rt":"3340","correct":true,"confidence":-1},{"trial_n":18,"span":8,"encoder":"11509198","distractor":"11709198","target":"absent","response":"absent","rt":"2878","correct":true,"confidence":-1},{"trial_n":19,"span":8,"encoder":"39563520","distractor":"37563520","target":"present","response":"present","rt":"2938","correct":true,"confidence":-1},{"trial_n":20,"span":9,"encoder":"284555518","distractor":"284553518","target":"present","response":"present","rt":"4387","correct":true,"confidence":-1},{"trial_n":21,"span":9,"encoder":"179229424","distractor":"479229424","target":"present","response":"present","rt":"3245","correct":true,"confidence":2},{"trial_n":22,"span":10,"encoder":"7933266850","distractor":"7933266950","target":"present","response":"present","rt":"3567","correct":true,"confidence":3},{"trial_n":23,"span":10,"encoder":"4831225370","distractor":"4831224370","target":"present","response":"present","rt":"6793","correct":true,"confidence":1},{"trial_n":24,"span":11,"encoder":"63061178872","distractor":"63861178872","target":"present","response":"present","rt":"3469","correct":true,"confidence":2},{"trial_n":25,"span":11,"encoder":"02818860646","distractor":"02817860646","target":"absent","response":"absent","rt":"5949","correct":true,"confidence":1},{"trial_n":26,"span":12,"encoder":"201453926994","distractor":"201433926994","target":"present","response":"absent","rt":"4691","correct":false,"confidence":1},{"trial_n":27,"span":11,"encoder":"28553227813","distractor":"28503227813","target":"absent","response":"absent","rt":"4223","correct":true,"confidence":1},{"trial_n":28,"span":11,"encoder":"17167911898","distractor":"17167912898","target":"present","response":"present","rt":"1754","correct":true,"confidence":3},{"trial_n":29,"span":12,"encoder":"701479623573","distractor":"701479623673","target":"absent","response":"present","rt":"5007","correct":false,"confidence":1},{"trial_n":30,"span":11,"encoder":"51902684401","distractor":"51902684701","target":"absent","response":"present","rt":"6302","correct":false,"confidence":1},{"trial_n":31,"span":10,"encoder":"6308259474","distractor":"6303259474","target":"present","response":"present","rt":"2432.9999999999","correct":true,"confidence":1},{"trial_n":32,"span":10,"encoder":"3651220836","distractor":"3651220736","target":"present","response":"present","rt":"2400","correct":true,"confidence":1},{"trial_n":33,"span":11,"encoder":"75952371419","distractor":"15952371419","target":"absent","response":"absent","rt":"3143","correct":true,"confidence":1},{"trial_n":34,"span":11,"encoder":"40113006709","distractor":"80113006709","target":"present","response":"present","rt":"5585","correct":true,"confidence":1},{"trial_n":35,"span":12,"encoder":"654828171728","distractor":"354828171728","target":"present","response":"present","rt":"4589","correct":true,"confidence":3},{"trial_n":36,"span":12,"encoder":"281194370822","distractor":"281194370022","target":"present","response":"absent","rt":"2627.0000000001","correct":false,"confidence":1},{"trial_n":37,"span":11,"encoder":"69439020106","distractor":"69469020106","target":"absent","response":"present","rt":"5225","correct":false,"confidence":1},{"trial_n":38,"span":10,"encoder":"0012602647","distractor":"0072602647","target":"present","response":"present","rt":"3810.9999999999","correct":true,"confidence":1},{"trial_n":39,"span":10,"encoder":"5707926048","distractor":"5707326048","target":"present","response":"absent","rt":"4041","correct":false,"confidence":1},{"trial_n":40,"span":9,"encoder":"962855460","distractor":"962855469","target":"absent","response":"absent","rt":"4444","correct":true,"confidence":1},{"trial_n":41,"span":9,"encoder":"501077582","distractor":"501077282","target":"absent","response":"present","rt":"4238","correct":false,"confidence":1},{"trial_n":42,"span":8,"encoder":"86876004","distractor":"86874004","target":"present","response":"present","rt":"2761","correct":true,"confidence":1},{"trial_n":43,"span":8,"encoder":"79930443","distractor":"79960443","target":"absent","response":"absent","rt":"4289","correct":true,"confidence":1},{"trial_n":44,"span":9,"encoder":"623366134","distractor":"623366184","target":"present","response":"present","rt":"3920","correct":true,"confidence":1},{"trial_n":45,"span":9,"encoder":"133647112","distractor":"133647142","target":"absent","response":"absent","rt":"2529","correct":true,"confidence":1},{"trial_n":46,"span":10,"encoder":"1477996517","distractor":"1477996017","target":"present","response":"present","rt":"3226","correct":true,"confidence":3},{"trial_n":47,"span":10,"encoder":"1073103051","distractor":"1873103051","target":"absent","response":"absent","rt":"1733","correct":true,"confidence":2},{"trial_n":48,"span":11,"encoder":"20175647342","distractor":"20175647362","target":"absent","response":"absent","rt":"5507","correct":true,"confidence":2},{"trial_n":49,"span":11,"encoder":"74579280829","distractor":"74579280849","target":"absent","response":"absent","rt":"6036","correct":true,"confidence":1},{"trial_n":50,"span":12,"encoder":"191026357025","distractor":"191026357325","target":"present","response":"absent","rt":"2237","correct":false,"confidence":1},{"trial_n":51,"span":11,"encoder":"83476046777","distractor":"83496046777","target":"absent","response":"present","rt":"1622","correct":false,"confidence":2},{"trial_n":52,"span":10,"encoder":"4728917295","distractor":"4728917095","target":"absent","response":"absent","rt":"3997.0000000001","correct":true,"confidence":3},{"trial_n":53,"span":10,"encoder":"8280901241","distractor":"8280907241","target":"present","response":"present","rt":"2277.9999999999","correct":true,"confidence":2},{"trial_n":54,"span":11,"encoder":"44905227216","distractor":"44965227216","target":"absent","response":"present","rt":"2348","correct":false,"confidence":1},{"trial_n":55,"span":10,"encoder":"7187064354","distractor":"7187094354","target":"absent","response":"present","rt":"5858","correct":false,"confidence":1},{"trial_n":56,"span":9,"encoder":"199795606","distractor":"199795646","target":"absent","response":"absent","rt":"3049","correct":true,"confidence":1},{"trial_n":57,"span":9,"encoder":"617445935","distractor":"617445835","target":"absent","response":"present","rt":"11058","correct":false,"confidence":2},{"trial_n":58,"span":8,"encoder":"66062846","distractor":"69062846","target":"present","response":"present","rt":"3089","correct":true,"confidence":4},{"trial_n":59,"span":8,"encoder":"38108921","distractor":"38608921","target":"absent","response":"absent","rt":"2016","correct":true,"confidence":2},{"trial_n":60,"span":9,"encoder":"764750518","distractor":"964750518","target":"present","response":"absent","rt":"2493","correct":false,"confidence":1},{"trial_n":61,"span":8,"encoder":"77324393","distractor":"77324399","target":"absent","response":"absent","rt":"2519","correct":true,"confidence":3},{"trial_n":62,"span":8,"encoder":"18430293","distractor":"12430293","target":"absent","response":"absent","rt":"6142","correct":true,"confidence":1},{"trial_n":63,"span":9,"encoder":"478353752","distractor":"478353652","target":"absent","response":"present","rt":"2307","correct":false,"confidence":2},{"trial_n":64,"span":8,"encoder":"98738123","distractor":"98938123","target":"absent","response":"present","rt":"1666","correct":false,"confidence":3},{"trial_n":65,"span":7,"encoder":"8683277","distractor":"8683287","target":"present","response":"present","rt":"1466","correct":true,"confidence":3},{"trial_n":66,"span":7,"encoder":"6556241","distractor":"5556241","target":"present","response":"present","rt":"2430.0000000001","correct":true,"confidence":3},{"trial_n":67,"span":8,"encoder":"10411546","distractor":"10411346","target":"absent","response":"absent","rt":"3920.9999999999","correct":true,"confidence":2},{"trial_n":68,"span":8,"encoder":"95603141","distractor":"95603441","target":"present","response":"present","rt":"2770","correct":true,"confidence":4},{"trial_n":69,"span":9,"encoder":"986984001","distractor":"916984001","target":"present","response":"present","rt":"3223","correct":true,"confidence":3},{"trial_n":70,"span":9,"encoder":"789093823","distractor":"789095823","target":"present","response":"present","rt":"4894","correct":true,"confidence":3},{"trial_n":71,"span":8,"encoder":"00786434","distractor":"00781434","target":"present","response":"present","rt":"10405","correct":true,"confidence":-1},{"trial_n":72,"span":8,"encoder":"90366200","distractor":"95366200","target":"present","response":"absent","rt":"5601","correct":false,"confidence":-1},{"trial_n":73,"span":7,"encoder":"8419728","distractor":"6419728","target":"absent","response":"absent","rt":"2339","correct":true,"confidence":-1},{"trial_n":74,"span":7,"encoder":"9019102","distractor":"9019122","target":"absent","response":"present","rt":"2072","correct":false,"confidence":-1},{"trial_n":75,"span":6,"encoder":"529359","distractor":"549359","target":"present","response":"present","rt":"9696","correct":true,"confidence":-1},{"trial_n":76,"span":6,"encoder":"582864","distractor":"582866","target":"present","response":"present","rt":"2929","correct":true,"confidence":-1},{"trial_n":77,"span":7,"encoder":"3721768","distractor":"3720768","target":"present","response":"present","rt":"3429","correct":true,"confidence":-1},{"trial_n":78,"span":7,"encoder":"0496737","distractor":"0696737","target":"absent","response":"present","rt":"4131","correct":false,"confidence":-1},{"trial_n":79,"span":6,"encoder":"766651","distractor":"766650","target":"present","response":"present","rt":"3075.0000000002","correct":true,"confidence":-1},{"trial_n":80,"span":6,"encoder":"335215","distractor":"335213","target":"present","response":"present","rt":"3447","correct":true,"confidence":-1},{"trial_n":81,"span":7,"encoder":"8142901","distractor":"8143901","target":"present","response":"absent","rt":"1011","correct":false,"confidence":-1},{"trial_n":82,"span":6,"encoder":"945221","distractor":"945227","target":"absent","response":"absent","rt":"119663","correct":true,"confidence":-1},{"trial_n":83,"span":6,"encoder":"672648","distractor":"672948","target":"absent","response":"absent","rt":"4260","correct":true,"confidence":-1},{"trial_n":84,"span":7,"encoder":"3056476","distractor":"3058476","target":"absent","response":"present","rt":"6352.0000000002","correct":false,"confidence":-1},{"trial_n":85,"span":6,"encoder":"956728","distractor":"956428","target":"absent","response":"absent","rt":"2359","correct":true,"confidence":-1},{"trial_n":86,"span":6,"encoder":"069994","distractor":"069999","target":"absent","response":"absent","rt":"2049","correct":true,"confidence":-1},{"trial_n":87,"span":7,"encoder":"0420191","distractor":"0420161","target":"present","response":"absent","rt":"1528","correct":false,"confidence":-1},{"trial_n":88,"span":6,"encoder":"382408","distractor":"332408","target":"absent","response":"present","rt":"3301","correct":false,"confidence":-1},{"trial_n":89,"span":5,"encoder":"54560","distractor":"44560","target":"present","response":"absent","rt":"6221","correct":false,"confidence":-1},{"trial_n":90,"span":4,"encoder":"5885","distractor":"5835","target":"absent","response":"absent","rt":"1885","correct":true,"confidence":-1},{"trial_n":91,"span":4,"encoder":"5609","distractor":"5669","target":"present","response":"present","rt":"1774","correct":true,"confidence":1},{"trial_n":92,"span":5,"encoder":"16018","distractor":"15018","target":"absent","response":"absent","rt":"2212","correct":true,"confidence":4},{"trial_n":93,"span":5,"encoder":"91468","distractor":"91464","target":"absent","response":"absent","rt":"3126","correct":true,"confidence":4},{"trial_n":94,"span":6,"encoder":"626392","distractor":"626322","target":"present","response":"present","rt":"4190","correct":true,"confidence":4},{"trial_n":95,"span":6,"encoder":"704813","distractor":"705813","target":"present","response":"present","rt":"2876","correct":true,"confidence":5},{"trial_n":96,"span":7,"encoder":"2858446","distractor":"2658446","target":"absent","response":"absent","rt":"6433","correct":true,"confidence":3},{"trial_n":97,"span":7,"encoder":"8703845","distractor":"8703445","target":"absent","response":"absent","rt":"5395.9999999998","correct":true,"confidence":2},{"trial_n":98,"span":8,"encoder":"47163131","distractor":"47160131","target":"present","response":"present","rt":"6496","correct":true,"confidence":4},{"trial_n":99,"span":8,"encoder":"77618820","distractor":"73618820","target":"present","response":"present","rt":"3653","correct":true,"confidence":5},{"trial_n":100,"span":9,"encoder":"909458597","distractor":"989458597","target":"present","response":"absent","rt":"16615","correct":false,"confidence":2},{"trial_n":101,"span":8,"encoder":"85206522","distractor":"85206562","target":"present","response":"present","rt":"3704","correct":true,"confidence":3},{"trial_n":102,"span":8,"encoder":"93407459","distractor":"93467459","target":"present","response":"present","rt":"3347","correct":true,"confidence":4},{"trial_n":103,"span":9,"encoder":"831122199","distractor":"831122193","target":"absent","response":"absent","rt":"1911.9999999998","correct":true,"confidence":3},{"trial_n":104,"span":9,"encoder":"815737326","distractor":"815237326","target":"present","response":"absent","rt":"2204.0000000002","correct":false,"confidence":1},{"trial_n":105,"span":8,"encoder":"24175654","distractor":"24115654","target":"present","response":"present","rt":"3901","correct":true,"confidence":1},{"trial_n":106,"span":8,"encoder":"04652758","distractor":"04652754","target":"present","response":"present","rt":"4934.9999999998","correct":true,"confidence":3},{"trial_n":107,"span":9,"encoder":"855734888","distractor":"955734888","target":"present","response":"present","rt":"4663","correct":true,"confidence":1},{"trial_n":108,"span":9,"encoder":"074694069","distractor":"074694068","target":"absent","response":"present","rt":"11873","correct":false,"confidence":1},{"trial_n":109,"span":8,"encoder":"64671089","distractor":"64671085","target":"present","response":"present","rt":"4299","correct":true,"confidence":2},{"trial_n":110,"span":8,"encoder":"13272593","distractor":"13472593","target":"absent","response":"absent","rt":"7305","correct":true,"confidence":2},{"trial_n":111,"span":9,"encoder":"158106915","distractor":"157106915","target":"absent","response":"absent","rt":"4312","correct":true,"confidence":1},{"trial_n":112,"span":9,"encoder":"077355988","distractor":"077345988","target":"absent","response":"absent","rt":"4516","correct":true,"confidence":3},{"trial_n":113,"span":10,"encoder":"0260626153","distractor":"0260626154","target":"absent","response":"absent","rt":"3693","correct":true,"confidence":4},{"trial_n":114,"span":10,"encoder":"1771510432","distractor":"1771510433","target":"present","response":"present","rt":"3168.9999999998","correct":true,"confidence":3},{"trial_n":115,"span":11,"encoder":"82075797190","distractor":"82072797190","target":"absent","response":"absent","rt":"38752","correct":true,"confidence":1},{"trial_n":116,"span":11,"encoder":"59824295461","distractor":"59824295491","target":"absent","response":"absent","rt":"17193","correct":true,"confidence":1},{"trial_n":117,"span":12,"encoder":"180667248387","distractor":"180667848387","target":"absent","response":"present","rt":"7059.0000000002","correct":false,"confidence":1},{"trial_n":118,"span":11,"encoder":"41166865543","distractor":"41166865843","target":"absent","response":"present","rt":"838","correct":false,"confidence":1},{"trial_n":119,"span":10,"encoder":"7619596127","distractor":"7719596127","target":"present","response":"present","rt":"6529","correct":true,"confidence":1},{"trial_n":120,"span":10,"encoder":"3192996630","distractor":"3592996630","target":"absent","response":"absent","rt":"6753","correct":true,"confidence":1},{"trial_n":121,"span":11,"encoder":"02462885266","distractor":"08462885266","target":"absent","response":"present","rt":"5486","correct":false,"confidence":1},{"trial_n":122,"span":10,"encoder":"6442469416","distractor":"6442469410","target":"present","response":"present","rt":"3394","correct":true,"confidence":1},{"trial_n":123,"span":10,"encoder":"1576881821","distractor":"1576881121","target":"absent","response":"absent","rt":"2732","correct":true,"confidence":2},{"trial_n":124,"span":11,"encoder":"50068391127","distractor":"50068391027","target":"present","response":"present","rt":"3312.0000000002","correct":true,"confidence":1},{"trial_n":125,"span":11,"encoder":"29843366402","distractor":"29843766402","target":"present","response":"present","rt":"15835","correct":true,"confidence":1},{"trial_n":126,"span":12,"encoder":"640228746944","distractor":"240228746944","target":"absent","response":"absent","rt":"6864","correct":true,"confidence":1},{"trial_n":127,"span":12,"encoder":"661229078342","distractor":"661029078342","target":"present","response":"present","rt":"1461","correct":true,"confidence":1},{"trial_n":128,"span":13,"encoder":"6851473515295","distractor":"6851471515295","target":"absent","response":"absent","rt":"26631","correct":true,"confidence":1},{"trial_n":129,"span":13,"encoder":"3194715038928","distractor":"3194715058928","target":"present","response":"absent","rt":"10904","correct":false,"confidence":1},{"trial_n":130,"span":12,"encoder":"286923501978","distractor":"286973501978","target":"absent","response":"present","rt":"2276","correct":false,"confidence":1},{"trial_n":131,"span":11,"encoder":"20132552441","distractor":"26132552441","target":"absent","response":"present","rt":"7486","correct":false,"confidence":1},{"trial_n":132,"span":10,"encoder":"3018521433","distractor":"3018521403","target":"absent","response":"absent","rt":"4945.0000000005","correct":true,"confidence":1},{"trial_n":133,"span":10,"encoder":"9468252833","distractor":"9468252836","target":"present","response":"present","rt":"8445","correct":true,"confidence":1},{"trial_n":134,"span":11,"encoder":"50394884914","distractor":"50344884914","target":"absent","response":"absent","rt":"5010.9999999995","correct":true,"confidence":1},{"trial_n":135,"span":11,"encoder":"20164427186","distractor":"20164427187","target":"absent","response":"absent","rt":"2589.0000000005","correct":true,"confidence":1},{"trial_n":136,"span":12,"encoder":"376988905598","distractor":"376988905518","target":"present","response":"present","rt":"2346","correct":true,"confidence":1},{"trial_n":137,"span":12,"encoder":"311705772995","distractor":"311705732995","target":"present","response":"absent","rt":"7658","correct":false,"confidence":1},{"trial_n":138,"span":11,"encoder":"35364984366","distractor":"35364984966","target":"present","response":"present","rt":"21839","correct":true,"confidence":1},{"trial_n":139,"span":11,"encoder":"14953490138","distractor":"14993490138","target":"present","response":"present","rt":"3399","correct":true,"confidence":1},{"trial_n":140,"span":12,"encoder":"775199303609","distractor":"775199303602","target":"present","response":"present","rt":"4229","correct":true,"confidence":1}]