[{"trial_n":1,"span":8,"encoder":"21573584","distractor":"21173584","target":"present","response":"present","rt":"10016","correct":true,"confidence":-1},{"trial_n":2,"span":8,"encoder":"91139385","distractor":"91139365","target":"present","response":"present","rt":"7382","correct":true,"confidence":-1},{"trial_n":3,"span":10,"encoder":"9452718374","distractor":"9452768374","target":"absent","response":"absent","rt":"4275","correct":true,"confidence":-1},{"trial_n":4,"span":10,"encoder":"4303602979","distractor":"4333602979","target":"absent","response":"absent","rt":"4498","correct":true,"confidence":-1},{"trial_n":5,"span":12,"encoder":"840761718192","distractor":"844761718192","target":"present","response":"absent","rt":"6729","correct":false,"confidence":-1},{"trial_n":6,"span":10,"encoder":"0413737502","distractor":"0413337502","target":"present","response":"present","rt":"5469","correct":true,"confidence":-1},{"trial_n":7,"span":10,"encoder":"5939464399","distractor":"5939464999","target":"absent","response":"absent","rt":"5730","correct":true,"confidence":-1},{"trial_n":8,"span":12,"encoder":"976583380376","distractor":"976523380376","target":"present","response":"absent","rt":"6246","correct":false,"confidence":-1},{"trial_n":9,"span":10,"encoder":"2159096336","distractor":"3159096336","target":"absent","response":"present","rt":"5616","correct":false,"confidence":-1},{"trial_n":10,"span":8,"encoder":"14894616","distractor":"74894616","target":"present","response":"present","rt":"4557","correct":true,"confidence":-1},{"trial_n":11,"span":8,"encoder":"44012751","distractor":"44012711","target":"absent","response":"present","rt":"5571","correct":false,"confidence":-1},{"trial_n":12,"span":7,"encoder":"7584276","distractor":"7584676","target":"absent","response":"absent","rt":"3612","correct":true,"confidence":-1},{"trial_n":13,"span":7,"encoder":"0707999","distractor":"0707919","target":"absent","response":"absent","rt":"3490","correct":true,"confidence":-1},{"trial_n":14,"span":8,"encoder":"64019022","distractor":"64019002","target":"absent","response":"absent","rt":"5033","correct":true,"confidence":-1},{"trial_n":15,"span":8,"encoder":"12726096","distractor":"12796096","target":"present","response":"present","rt":"4885","correct":true,"confidence":-1},{"trial_n":16,"span":9,"encoder":"591660783","distractor":"591660781","target":"present","response":"absent","rt":"5134","correct":false,"confidence":-1},{"trial_n":17,"span":8,"encoder":"83161405","distractor":"83161495","target":"absent","response":"absent","rt":"4412","correct":true,"confidence":-1},{"trial_n":18,"span":8,"encoder":"54257662","distractor":"54251662","target":"absent","response":"present","rt":"4636","correct":false,"confidence":-1},{"trial_n":19,"span":7,"encoder":"7774411","distractor":"7774421","target":"present","response":"present","rt":"2688","correct":true,"confidence":-1},{"trial_n":20,"span":7,"encoder":"4629654","distractor":"4628654","target":"present","response":"present","rt":"3511","correct":true,"confidence":-1},{"trial_n":21,"span":8,"encoder":"61080525","distractor":"61010525","target":"absent","response":"absent","rt":"4478","correct":true,"confidence":4},{"trial_n":22,"span":8,"encoder":"71746401","distractor":"71746405","target":"present","response":"present","rt":"6148","correct":true,"confidence":4},{"trial_n":23,"span":9,"encoder":"823260591","distractor":"823260491","target":"present","response":"absent","rt":"7860","correct":false,"confidence":5},{"trial_n":24,"span":8,"encoder":"68868702","distractor":"68868701","target":"absent","response":"absent","rt":"5366","correct":true,"confidence":5},{"trial_n":25,"span":8,"encoder":"88967386","distractor":"88927386","target":"absent","response":"absent","rt":"6643","correct":true,"confidence":4},{"trial_n":26,"span":9,"encoder":"136324182","distractor":"136324185","target":"present","response":"absent","rt":"5886","correct":false,"confidence":4},{"trial_n":27,"span":8,"encoder":"91654403","distractor":"91654703","target":"present","response":"absent","rt":"5976","correct":false,"confidence":4},{"trial_n":28,"span":7,"encoder":"7662935","distractor":"7665935","target":"present","response":"absent","rt":"6740","correct":false,"confidence":4},{"trial_n":29,"span":6,"encoder":"952192","distractor":"952198","target":"absent","response":"absent","rt":"2934","correct":true,"confidence":5},{"trial_n":30,"span":6,"encoder":"968496","distractor":"968495","target":"present","response":"present","rt":"2941","correct":true,"confidence":5},{"trial_n":31,"span":7,"encoder":"9331212","distractor":"9333212","target":"absent","response":"present","rt":"3715","correct":false,"confidence":5},{"trial_n":32,"span":6,"encoder":"425037","distractor":"420037","target":"absent","response":"absent","rt":"4339","correct":true,"confidence":5},{"trial_n":33,"span":6,"encoder":"869426","distractor":"869526","target":"absent","response":"absent","rt":"5991","correct":true,"confidence":4},{"trial_n":34,"span":7,"encoder":"5803979","distractor":"5103979","target":"absent","response":"absent","rt":"7047","correct":true,"confidence":5},{"trial_n":35,"span":7,"encoder":"3528832","distractor":"3548832","target":"present","response":"present","rt":"2857","correct":true,"confidence":5},{"trial_n":36,"span":8,"encoder":"07536101","distractor":"05536101","target":"present","response":"present","rt":"3242","correct":true,"confidence":4},{"trial_n":37,"span":8,"encoder":"65262286","distractor":"65262986","target":"present","response":"present","rt":"5035","correct":true,"confidence":5},{"trial_n":38,"span":9,"encoder":"901971033","distractor":"905971033","target":"present","response":"absent","rt":"4784","correct":false,"confidence":4},{"trial_n":39,"span":8,"encoder":"21420293","distractor":"21460293","target":"present","response":"absent","rt":"4340","correct":false,"confidence":4},{"trial_n":40,"span":7,"encoder":"0971656","distractor":"0976656","target":"present","response":"present","rt":"3809","correct":true,"confidence":5},{"trial_n":41,"span":7,"encoder":"0865469","distractor":"6865469","target":"present","response":"present","rt":"3670","correct":true,"confidence":5},{"trial_n":42,"span":8,"encoder":"44480154","distractor":"44487154","target":"absent","response":"absent","rt":"4315","correct":true,"confidence":5},{"trial_n":43,"span":8,"encoder":"81155494","distractor":"81155414","target":"absent","response":"absent","rt":"3236","correct":true,"confidence":5},{"trial_n":44,"span":9,"encoder":"131830705","distractor":"131830706","target":"absent","response":"absent","rt":"4258","correct":true,"confidence":5},{"trial_n":45,"span":9,"encoder":"036151846","distractor":"036151886","target":"present","response":"absent","rt":"7017","correct":false,"confidence":3},{"trial_n":46,"span":8,"encoder":"62657736","distractor":"62257736","target":"present","response":"present","rt":"4750","correct":true,"confidence":3},{"trial_n":47,"span":8,"encoder":"21903211","distractor":"21903219","target":"absent","response":"absent","rt":"4362","correct":true,"confidence":5},{"trial_n":48,"span":9,"encoder":"411057193","distractor":"411057190","target":"present","response":"present","rt":"5567","correct":true,"confidence":4},{"trial_n":49,"span":9,"encoder":"107099787","distractor":"207099787","target":"present","response":"absent","rt":"4606","correct":false,"confidence":5},{"trial_n":50,"span":8,"encoder":"71288721","distractor":"71288521","target":"absent","response":"absent","rt":"4494","correct":true,"confidence":5},{"trial_n":51,"span":8,"encoder":"80858377","distractor":"87858377","target":"present","response":"present","rt":"4517","correct":true,"confidence":5},{"trial_n":52,"span":9,"encoder":"778938067","distractor":"778958067","target":"present","response":"absent","rt":"5553","correct":false,"confidence":5},{"trial_n":53,"span":8,"encoder":"49931772","distractor":"49931779","target":"absent","response":"absent","rt":"4151","correct":true,"confidence":5},{"trial_n":54,"span":8,"encoder":"49296908","distractor":"49256908","target":"present","response":"present","rt":"3901","correct":true,"confidence":5},{"trial_n":55,"span":9,"encoder":"220325964","distractor":"220325994","target":"absent","response":"absent","rt":"5496","correct":true,"confidence":4},{"trial_n":56,"span":9,"encoder":"174639465","distractor":"174639415","target":"absent","response":"absent","rt":"5536","correct":true,"confidence":4},{"trial_n":57,"span":10,"encoder":"9442293225","distractor":"9442293025","target":"present","response":"absent","rt":"4861","correct":false,"confidence":3},{"trial_n":58,"span":9,"encoder":"897184683","distractor":"897184685","target":"absent","response":"absent","rt":"6999","correct":true,"confidence":3},{"trial_n":59,"span":9,"encoder":"448699719","distractor":"448699019","target":"absent","response":"absent","rt":"3917","correct":true,"confidence":4},{"trial_n":60,"span":10,"encoder":"8133971111","distractor":"8133571111","target":"present","response":"present","rt":"4223","correct":true,"confidence":4},{"trial_n":61,"span":10,"encoder":"9161630502","distractor":"6161630502","target":"absent","response":"absent","rt":"4046","correct":true,"confidence":5},{"trial_n":62,"span":11,"encoder":"32575987776","distractor":"32575982776","target":"absent","response":"present","rt":"5957","correct":false,"confidence":4},{"trial_n":63,"span":10,"encoder":"6921447996","distractor":"6921445996","target":"present","response":"present","rt":"5403","correct":true,"confidence":4},{"trial_n":64,"span":10,"encoder":"1049049498","distractor":"1049249498","target":"present","response":"present","rt":"5159","correct":true,"confidence":3},{"trial_n":65,"span":11,"encoder":"48509595130","distractor":"48502595130","target":"absent","response":"present","rt":"6752","correct":false,"confidence":3},{"trial_n":66,"span":10,"encoder":"2900501052","distractor":"2909501052","target":"absent","response":"present","rt":"5998","correct":false,"confidence":4},{"trial_n":67,"span":9,"encoder":"626563123","distractor":"626963123","target":"present","response":"present","rt":"5293","correct":true,"confidence":5},{"trial_n":68,"span":9,"encoder":"476991802","distractor":"976991802","target":"absent","response":"absent","rt":"4784","correct":true,"confidence":4},{"trial_n":69,"span":10,"encoder":"9239753711","distractor":"9239753771","target":"absent","response":"absent","rt":"2194","correct":true,"confidence":5},{"trial_n":70,"span":10,"encoder":"7513633855","distractor":"7533633855","target":"present","response":"absent","rt":"5552","correct":false,"confidence":5},{"trial_n":71,"span":8,"encoder":"00333936","distractor":"00373936","target":"present","response":"present","rt":"6088","correct":true,"confidence":-1},{"trial_n":72,"span":8,"encoder":"55411386","distractor":"35411386","target":"present","response":"present","rt":"6404","correct":true,"confidence":-1},{"trial_n":73,"span":9,"encoder":"652489685","distractor":"656489685","target":"absent","response":"absent","rt":"8077","correct":true,"confidence":-1},{"trial_n":74,"span":9,"encoder":"525472225","distractor":"523472225","target":"absent","response":"absent","rt":"7202","correct":true,"confidence":-1},{"trial_n":75,"span":10,"encoder":"6572092983","distractor":"6572092683","target":"present","response":"absent","rt":"6204","correct":false,"confidence":-1},{"trial_n":76,"span":9,"encoder":"400082614","distractor":"400087614","target":"absent","response":"present","rt":"5835","correct":false,"confidence":-1},{"trial_n":77,"span":8,"encoder":"81189621","distractor":"81199621","target":"present","response":"present","rt":"4048","correct":true,"confidence":-1},{"trial_n":78,"span":8,"encoder":"17668952","distractor":"17698952","target":"present","response":"absent","rt":"8460","correct":false,"confidence":-1},{"trial_n":79,"span":7,"encoder":"2961486","distractor":"3961486","target":"absent","response":"absent","rt":"4432","correct":true,"confidence":-1},{"trial_n":80,"span":7,"encoder":"3025387","distractor":"3025787","target":"present","response":"present","rt":"2149","correct":true,"confidence":-1},{"trial_n":81,"span":8,"encoder":"29973251","distractor":"29473251","target":"present","response":"present","rt":"3966","correct":true,"confidence":-1},{"trial_n":82,"span":8,"encoder":"15316979","distractor":"15816979","target":"absent","response":"absent","rt":"3276","correct":true,"confidence":-1},{"trial_n":83,"span":9,"encoder":"029979470","distractor":"029979474","target":"absent","response":"absent","rt":"4019","correct":true,"confidence":-1},{"trial_n":84,"span":9,"encoder":"697662378","distractor":"677662378","target":"present","response":"present","rt":"6522","correct":true,"confidence":-1},{"trial_n":85,"span":10,"encoder":"0322197207","distractor":"0326197207","target":"absent","response":"present","rt":"3850","correct":false,"confidence":-1},{"trial_n":86,"span":9,"encoder":"623577213","distractor":"673577213","target":"present","response":"present","rt":"5596","correct":true,"confidence":-1},{"trial_n":87,"span":9,"encoder":"386113585","distractor":"386113587","target":"present","response":"absent","rt":"8424","correct":false,"confidence":-1},{"trial_n":88,"span":8,"encoder":"61659278","distractor":"61619278","target":"absent","response":"absent","rt":"5351","correct":true,"confidence":-1},{"trial_n":89,"span":8,"encoder":"51972979","distractor":"59972979","target":"present","response":"present","rt":"8054","correct":true,"confidence":-1},{"trial_n":90,"span":9,"encoder":"495512377","distractor":"795512377","target":"absent","response":"absent","rt":"3119","correct":true,"confidence":-1},{"trial_n":91,"span":9,"encoder":"619290333","distractor":"615290333","target":"present","response":"absent","rt":"5184","correct":false,"confidence":4},{"trial_n":92,"span":8,"encoder":"08214848","distractor":"08514848","target":"present","response":"present","rt":"4091","correct":true,"confidence":5},{"trial_n":93,"span":8,"encoder":"44080186","distractor":"44080180","target":"present","response":"present","rt":"2944","correct":true,"confidence":5},{"trial_n":94,"span":9,"encoder":"595712026","distractor":"595710026","target":"present","response":"present","rt":"3400","correct":true,"confidence":4},{"trial_n":95,"span":9,"encoder":"275094406","distractor":"215094406","target":"present","response":"present","rt":"6201","correct":true,"confidence":4},{"trial_n":96,"span":10,"encoder":"6811759878","distractor":"6811759871","target":"absent","response":"absent","rt":"10638","correct":true,"confidence":3},{"trial_n":97,"span":10,"encoder":"0643347701","distractor":"0643347301","target":"absent","response":"absent","rt":"1870","correct":true,"confidence":5},{"trial_n":98,"span":11,"encoder":"29299607550","distractor":"29299607557","target":"present","response":"present","rt":"1843","correct":true,"confidence":5},{"trial_n":99,"span":11,"encoder":"35690515646","distractor":"35690515642","target":"present","response":"present","rt":"2103","correct":true,"confidence":5},{"trial_n":100,"span":12,"encoder":"231778288409","distractor":"231778288407","target":"absent","response":"absent","rt":"1266","correct":true,"confidence":5},{"trial_n":101,"span":12,"encoder":"339736561622","distractor":"335736561622","target":"absent","response":"absent","rt":"5930","correct":true,"confidence":3},{"trial_n":102,"span":13,"encoder":"9849297080441","distractor":"9849597080441","target":"present","response":"present","rt":"13351","correct":true,"confidence":3},{"trial_n":103,"span":13,"encoder":"7001604159028","distractor":"7001604159029","target":"absent","response":"absent","rt":"2234","correct":true,"confidence":5},{"trial_n":104,"span":14,"encoder":"20528823037157","distractor":"20522823037157","target":"present","response":"absent","rt":"12983","correct":false,"confidence":4},{"trial_n":105,"span":13,"encoder":"6797539154350","distractor":"6797537154350","target":"present","response":"absent","rt":"11163","correct":false,"confidence":4},{"trial_n":106,"span":12,"encoder":"777355190436","distractor":"777355990436","target":"absent","response":"absent","rt":"7102","correct":true,"confidence":4},{"trial_n":107,"span":12,"encoder":"150967226362","distractor":"155967226362","target":"absent","response":"present","rt":"7819","correct":false,"confidence":4},{"trial_n":108,"span":11,"encoder":"33412538847","distractor":"33412538841","target":"absent","response":"absent","rt":"1814","correct":true,"confidence":5},{"trial_n":109,"span":11,"encoder":"48866325652","distractor":"48866325252","target":"present","response":"present","rt":"20433","correct":true,"confidence":4},{"trial_n":110,"span":12,"encoder":"574109149431","distractor":"574109146431","target":"present","response":"present","rt":"2884","correct":true,"confidence":5},{"trial_n":111,"span":12,"encoder":"488377060004","distractor":"488367060004","target":"present","response":"present","rt":"5118","correct":true,"confidence":4},{"trial_n":112,"span":13,"encoder":"2692985937984","distractor":"2682985937984","target":"absent","response":"present","rt":"13892","correct":false,"confidence":3},{"trial_n":113,"span":12,"encoder":"115432379405","distractor":"115432679405","target":"absent","response":"absent","rt":"6676","correct":true,"confidence":5},{"trial_n":114,"span":12,"encoder":"364856131944","distractor":"364856131934","target":"present","response":"present","rt":"2102","correct":true,"confidence":5},{"trial_n":115,"span":13,"encoder":"0854713171960","distractor":"0854713171940","target":"absent","response":"absent","rt":"14024","correct":true,"confidence":4},{"trial_n":116,"span":13,"encoder":"6494859499948","distractor":"1494859499948","target":"present","response":"absent","rt":"11601","correct":false,"confidence":4},{"trial_n":117,"span":12,"encoder":"216451628581","distractor":"216451627581","target":"present","response":"present","rt":"8550","correct":true,"confidence":4},{"trial_n":118,"span":12,"encoder":"395198096360","distractor":"395198056360","target":"absent","response":"absent","rt":"3771","correct":true,"confidence":5},{"trial_n":119,"span":13,"encoder":"9740145456111","distractor":"9740645456111","target":"absent","response":"absent","rt":"7861","correct":true,"confidence":5},{"trial_n":120,"span":13,"encoder":"7776600594688","distractor":"7776600594698","target":"absent","response":"absent","rt":"1508","correct":true,"confidence":5},{"trial_n":121,"span":14,"encoder":"27193963653524","distractor":"21193963653524","target":"absent","response":"absent","rt":"9439","correct":true,"confidence":5},{"trial_n":122,"span":14,"encoder":"64726096046355","distractor":"34726096046355","target":"absent","response":"present","rt":"5226","correct":false,"confidence":4},{"trial_n":123,"span":13,"encoder":"8736661223418","distractor":"8736561223418","target":"present","response":"absent","rt":"4952","correct":false,"confidence":4},{"trial_n":124,"span":12,"encoder":"832247582034","distractor":"832247582084","target":"present","response":"present","rt":"2722","correct":true,"confidence":5},{"trial_n":125,"span":12,"encoder":"235315487185","distractor":"225315487185","target":"present","response":"present","rt":"9338","correct":true,"confidence":4},{"trial_n":126,"span":13,"encoder":"4792506418051","distractor":"4792506618051","target":"present","response":"present","rt":"8519","correct":true,"confidence":4},{"trial_n":127,"span":13,"encoder":"3137327643314","distractor":"3137307643314","target":"present","response":"present","rt":"5455","correct":true,"confidence":4},{"trial_n":128,"span":14,"encoder":"92282692599739","distractor":"92282692399739","target":"absent","response":"absent","rt":"10697","correct":true,"confidence":3},{"trial_n":129,"span":14,"encoder":"71278230670863","distractor":"78278230670863","target":"present","response":"present","rt":"11707","correct":true,"confidence":4},{"trial_n":130,"span":15,"encoder":"281845266725641","distractor":"281445266725641","target":"absent","response":"present","rt":"5842","correct":false,"confidence":4},{"trial_n":131,"span":14,"encoder":"77101083416280","distractor":"77101583416280","target":"present","response":"present","rt":"10547","correct":true,"confidence":4},{"trial_n":132,"span":14,"encoder":"03945690541153","distractor":"03445690541153","target":"absent","response":"present","rt":"10180","correct":false,"confidence":3},{"trial_n":133,"span":13,"encoder":"7534934075669","distractor":"7534934075469","target":"absent","response":"absent","rt":"3465","correct":true,"confidence":5},{"trial_n":134,"span":13,"encoder":"6557825833980","distractor":"6527825833980","target":"absent","response":"absent","rt":"8465","correct":true,"confidence":3},{"trial_n":135,"span":14,"encoder":"38091878966582","distractor":"58091878966582","target":"absent","response":"present","rt":"9507","correct":false,"confidence":4},{"trial_n":136,"span":13,"encoder":"2131087599522","distractor":"2731087599522","target":"absent","response":"present","rt":"3499","correct":false,"confidence":5},{"trial_n":137,"span":12,"encoder":"999301643794","distractor":"999307643794","target":"absent","response":"absent","rt":"8684","correct":true,"confidence":4},{"trial_n":138,"span":12,"encoder":"746088947706","distractor":"746088927706","target":"absent","response":"absent","rt":"7238","correct":true,"confidence":4},{"trial_n":139,"span":13,"encoder":"1547080965669","distractor":"1547080985669","target":"present","response":"present","rt":"10550","correct":true,"confidence":3},{"trial_n":140,"span":13,"encoder":"5954741088076","distractor":"5954741088056","target":"present","response":"present","rt":"2405","correct":true,"confidence":5}]