[{"trial_n":1,"span":8,"encoder":"32385167","distractor":"62385167","target":"present","response":"present","rt":"2777","correct":true,"confidence":-1},{"trial_n":2,"span":8,"encoder":"03043673","distractor":"03048673","target":"present","response":"present","rt":"3181","correct":true,"confidence":-1},{"trial_n":3,"span":10,"encoder":"2687322593","distractor":"2687329593","target":"absent","response":"absent","rt":"2363","correct":true,"confidence":-1},{"trial_n":4,"span":10,"encoder":"4696618184","distractor":"4646618184","target":"absent","response":"present","rt":"1589","correct":false,"confidence":-1},{"trial_n":5,"span":8,"encoder":"39942966","distractor":"49942966","target":"present","response":"present","rt":"1495","correct":true,"confidence":-1},{"trial_n":6,"span":8,"encoder":"80214349","distractor":"80254349","target":"absent","response":"present","rt":"2544","correct":false,"confidence":-1},{"trial_n":7,"span":6,"encoder":"008927","distractor":"308927","target":"present","response":"present","rt":"1989","correct":true,"confidence":-1},{"trial_n":8,"span":6,"encoder":"661453","distractor":"662453","target":"absent","response":"absent","rt":"1772","correct":true,"confidence":-1},{"trial_n":9,"span":8,"encoder":"32366558","distractor":"32366578","target":"absent","response":"absent","rt":"1899","correct":true,"confidence":-1},{"trial_n":10,"span":8,"encoder":"94995891","distractor":"94995890","target":"present","response":"present","rt":"1819","correct":true,"confidence":-1},{"trial_n":11,"span":10,"encoder":"0881062308","distractor":"0881061308","target":"absent","response":"absent","rt":"1615","correct":true,"confidence":-1},{"trial_n":12,"span":10,"encoder":"7930733758","distractor":"7938733758","target":"present","response":"absent","rt":"2065","correct":false,"confidence":-1},{"trial_n":13,"span":9,"encoder":"840121194","distractor":"840121184","target":"present","response":"present","rt":"990","correct":true,"confidence":-1},{"trial_n":14,"span":9,"encoder":"433061249","distractor":"433061243","target":"present","response":"present","rt":"1732","correct":true,"confidence":-1},{"trial_n":15,"span":10,"encoder":"4136057674","distractor":"4036057674","target":"present","response":"present","rt":"1633","correct":true,"confidence":-1},{"trial_n":16,"span":10,"encoder":"1581429518","distractor":"1541429518","target":"absent","response":"present","rt":"1742","correct":false,"confidence":-1},{"trial_n":17,"span":9,"encoder":"345786641","distractor":"345746641","target":"absent","response":"present","rt":"1762","correct":false,"confidence":-1},{"trial_n":18,"span":8,"encoder":"16208566","distractor":"16201566","target":"absent","response":"present","rt":"1522","correct":false,"confidence":-1},{"trial_n":19,"span":7,"encoder":"6844711","distractor":"9844711","target":"present","response":"present","rt":"1133","correct":true,"confidence":-1},{"trial_n":20,"span":7,"encoder":"5178839","distractor":"4178839","target":"absent","response":"present","rt":"1545","correct":false,"confidence":-1},{"trial_n":21,"span":6,"encoder":"416097","distractor":"416007","target":"present","response":"present","rt":"3546","correct":true,"confidence":3},{"trial_n":22,"span":6,"encoder":"015372","distractor":"045372","target":"present","response":"present","rt":"2365","correct":true,"confidence":5},{"trial_n":23,"span":7,"encoder":"8908624","distractor":"8908694","target":"present","response":"present","rt":"2190","correct":true,"confidence":4},{"trial_n":24,"span":7,"encoder":"7767695","distractor":"5767695","target":"absent","response":"absent","rt":"2222","correct":true,"confidence":3},{"trial_n":25,"span":8,"encoder":"86347061","distractor":"86367061","target":"present","response":"present","rt":"3041","correct":true,"confidence":3},{"trial_n":26,"span":8,"encoder":"58795713","distractor":"58790713","target":"absent","response":"absent","rt":"3716","correct":true,"confidence":2},{"trial_n":27,"span":9,"encoder":"915952064","distractor":"985952064","target":"absent","response":"present","rt":"2915","correct":false,"confidence":4},{"trial_n":28,"span":8,"encoder":"58678987","distractor":"58648987","target":"absent","response":"absent","rt":"2289","correct":true,"confidence":2},{"trial_n":29,"span":8,"encoder":"73336659","distractor":"73331659","target":"absent","response":"present","rt":"1969","correct":false,"confidence":4},{"trial_n":30,"span":7,"encoder":"9620881","distractor":"7620881","target":"present","response":"absent","rt":"3324","correct":false,"confidence":2},{"trial_n":31,"span":6,"encoder":"973099","distractor":"973093","target":"present","response":"present","rt":"1970.0000000001","correct":true,"confidence":5},{"trial_n":32,"span":6,"encoder":"364671","distractor":"364971","target":"absent","response":"absent","rt":"1934","correct":true,"confidence":5},{"trial_n":33,"span":7,"encoder":"2755022","distractor":"2755023","target":"present","response":"absent","rt":"3182","correct":false,"confidence":4},{"trial_n":34,"span":6,"encoder":"817550","distractor":"887550","target":"present","response":"present","rt":"1820.0000000001","correct":true,"confidence":5},{"trial_n":35,"span":6,"encoder":"290075","distractor":"290065","target":"absent","response":"absent","rt":"2152","correct":true,"confidence":5},{"trial_n":36,"span":7,"encoder":"4669238","distractor":"4679238","target":"present","response":"absent","rt":"2783","correct":false,"confidence":3},{"trial_n":37,"span":6,"encoder":"884481","distractor":"874481","target":"absent","response":"absent","rt":"1759","correct":true,"confidence":4},{"trial_n":38,"span":6,"encoder":"286136","distractor":"686136","target":"present","response":"present","rt":"1784","correct":true,"confidence":3},{"trial_n":39,"span":7,"encoder":"6417452","distractor":"7417452","target":"absent","response":"absent","rt":"1758","correct":true,"confidence":4},{"trial_n":40,"span":7,"encoder":"5785648","distractor":"7785648","target":"present","response":"absent","rt":"4507","correct":false,"confidence":3},{"trial_n":41,"span":6,"encoder":"846279","distractor":"246279","target":"absent","response":"absent","rt":"1789","correct":true,"confidence":5},{"trial_n":42,"span":6,"encoder":"412057","distractor":"412050","target":"absent","response":"absent","rt":"3242","correct":true,"confidence":5},{"trial_n":43,"span":7,"encoder":"4350354","distractor":"4350355","target":"present","response":"present","rt":"7389","correct":true,"confidence":2},{"trial_n":44,"span":7,"encoder":"2341231","distractor":"2341251","target":"absent","response":"absent","rt":"2974","correct":true,"confidence":5},{"trial_n":45,"span":8,"encoder":"48365458","distractor":"48365558","target":"present","response":"present","rt":"3043","correct":true,"confidence":3},{"trial_n":46,"span":8,"encoder":"38221262","distractor":"38221462","target":"absent","response":"present","rt":"3133","correct":false,"confidence":3},{"trial_n":47,"span":7,"encoder":"7856666","distractor":"7156666","target":"present","response":"absent","rt":"2711","correct":false,"confidence":4},{"trial_n":48,"span":6,"encoder":"160795","distractor":"167795","target":"present","response":"absent","rt":"2030","correct":false,"confidence":1},{"trial_n":49,"span":5,"encoder":"46991","distractor":"46996","target":"present","response":"present","rt":"2324","correct":true,"confidence":3},{"trial_n":50,"span":5,"encoder":"36358","distractor":"35358","target":"absent","response":"absent","rt":"2751","correct":true,"confidence":3},{"trial_n":51,"span":6,"encoder":"403924","distractor":"503924","target":"present","response":"present","rt":"2455","correct":true,"confidence":5},{"trial_n":52,"span":6,"encoder":"103084","distractor":"103184","target":"absent","response":"absent","rt":"2362","correct":true,"confidence":5},{"trial_n":53,"span":7,"encoder":"2273748","distractor":"2273948","target":"present","response":"present","rt":"2311","correct":true,"confidence":5},{"trial_n":54,"span":7,"encoder":"4641307","distractor":"4641507","target":"absent","response":"absent","rt":"2534","correct":true,"confidence":5},{"trial_n":55,"span":8,"encoder":"55740331","distractor":"55720331","target":"absent","response":"present","rt":"4846","correct":false,"confidence":3},{"trial_n":56,"span":7,"encoder":"8845352","distractor":"8845322","target":"absent","response":"absent","rt":"3904","correct":true,"confidence":4},{"trial_n":57,"span":7,"encoder":"0267419","distractor":"0237419","target":"absent","response":"absent","rt":"3692.9999999999","correct":true,"confidence":4},{"trial_n":58,"span":8,"encoder":"07868974","distractor":"07828974","target":"absent","response":"absent","rt":"4096","correct":true,"confidence":4},{"trial_n":59,"span":8,"encoder":"69753299","distractor":"99753299","target":"absent","response":"absent","rt":"2546","correct":true,"confidence":2},{"trial_n":60,"span":9,"encoder":"421300239","distractor":"401300239","target":"present","response":"present","rt":"1555","correct":true,"confidence":3},{"trial_n":61,"span":9,"encoder":"315169719","distractor":"355169719","target":"absent","response":"absent","rt":"3213.9999999999","correct":true,"confidence":1},{"trial_n":62,"span":10,"encoder":"8783516528","distractor":"8783566528","target":"present","response":"present","rt":"1304","correct":true,"confidence":2},{"trial_n":63,"span":10,"encoder":"7143800196","distractor":"7143802196","target":"present","response":"present","rt":"2409","correct":true,"confidence":4},{"trial_n":64,"span":11,"encoder":"20103151849","distractor":"20107151849","target":"absent","response":"present","rt":"2359","correct":false,"confidence":3},{"trial_n":65,"span":10,"encoder":"5958998669","distractor":"5958998662","target":"present","response":"present","rt":"1866.0000000001","correct":true,"confidence":3},{"trial_n":66,"span":10,"encoder":"3989970829","distractor":"3989870829","target":"present","response":"present","rt":"3195","correct":true,"confidence":2},{"trial_n":67,"span":11,"encoder":"51498365501","distractor":"51498065501","target":"absent","response":"absent","rt":"2379","correct":true,"confidence":3},{"trial_n":68,"span":11,"encoder":"62072588026","distractor":"62072588046","target":"present","response":"present","rt":"2077","correct":true,"confidence":3},{"trial_n":69,"span":12,"encoder":"600028530541","distractor":"600028536541","target":"present","response":"present","rt":"2551","correct":true,"confidence":3},{"trial_n":70,"span":12,"encoder":"286805908785","distractor":"286805918785","target":"present","response":"absent","rt":"1415","correct":false,"confidence":3},{"trial_n":71,"span":8,"encoder":"66334819","distractor":"66334849","target":"present","response":"absent","rt":"1934","correct":false,"confidence":-1},{"trial_n":72,"span":7,"encoder":"3653197","distractor":"3653147","target":"present","response":"present","rt":"1529.0000000001","correct":true,"confidence":-1},{"trial_n":73,"span":7,"encoder":"8332736","distractor":"8332731","target":"absent","response":"absent","rt":"1172","correct":true,"confidence":-1},{"trial_n":74,"span":8,"encoder":"34078058","distractor":"34078958","target":"absent","response":"absent","rt":"1507","correct":true,"confidence":-1},{"trial_n":75,"span":8,"encoder":"95282917","distractor":"95482917","target":"present","response":"present","rt":"3623","correct":true,"confidence":-1},{"trial_n":76,"span":9,"encoder":"341488828","distractor":"343488828","target":"present","response":"present","rt":"3473.0000000001","correct":true,"confidence":-1},{"trial_n":77,"span":9,"encoder":"476532015","distractor":"470532015","target":"absent","response":"present","rt":"2426","correct":false,"confidence":-1},{"trial_n":78,"span":8,"encoder":"50215366","distractor":"50218366","target":"absent","response":"absent","rt":"1809","correct":true,"confidence":-1},{"trial_n":79,"span":8,"encoder":"28250362","distractor":"28250392","target":"absent","response":"absent","rt":"2181.0000000001","correct":true,"confidence":-1},{"trial_n":80,"span":9,"encoder":"070163289","distractor":"070163280","target":"absent","response":"absent","rt":"1684","correct":true,"confidence":-1},{"trial_n":81,"span":9,"encoder":"328779963","distractor":"328779563","target":"absent","response":"absent","rt":"2571","correct":true,"confidence":-1},{"trial_n":82,"span":10,"encoder":"3079269325","distractor":"3079259325","target":"absent","response":"absent","rt":"2542","correct":true,"confidence":-1},{"trial_n":83,"span":10,"encoder":"9786272068","distractor":"9786672068","target":"present","response":"present","rt":"2907","correct":true,"confidence":-1},{"trial_n":84,"span":11,"encoder":"63220191833","distractor":"63220191834","target":"absent","response":"absent","rt":"1682.9999999999","correct":true,"confidence":-1},{"trial_n":85,"span":11,"encoder":"70990132949","distractor":"70990132849","target":"absent","response":"absent","rt":"1567","correct":true,"confidence":-1},{"trial_n":86,"span":12,"encoder":"025134106232","distractor":"025134606232","target":"absent","response":"present","rt":"2226","correct":false,"confidence":-1},{"trial_n":87,"span":11,"encoder":"98459350624","distractor":"98459350629","target":"absent","response":"absent","rt":"1304","correct":true,"confidence":-1},{"trial_n":88,"span":11,"encoder":"18054738749","distractor":"18034738749","target":"absent","response":"absent","rt":"4278.0000000001","correct":true,"confidence":-1},{"trial_n":89,"span":12,"encoder":"811140911724","distractor":"851140911724","target":"present","response":"present","rt":"2140","correct":true,"confidence":-1},{"trial_n":90,"span":12,"encoder":"749807677802","distractor":"749807677806","target":"absent","response":"absent","rt":"1211","correct":true,"confidence":-1},{"trial_n":91,"span":13,"encoder":"9790123820239","distractor":"9790723820239","target":"present","response":"absent","rt":"5505","correct":false,"confidence":2},{"trial_n":92,"span":12,"encoder":"120025382974","distractor":"120025982974","target":"present","response":"present","rt":"4846","correct":true,"confidence":4},{"trial_n":93,"span":12,"encoder":"038264415978","distractor":"038264419978","target":"absent","response":"absent","rt":"2501","correct":true,"confidence":5},{"trial_n":94,"span":13,"encoder":"7706617646253","distractor":"7706677646253","target":"present","response":"absent","rt":"3233","correct":false,"confidence":4},{"trial_n":95,"span":12,"encoder":"521831749717","distractor":"521881749717","target":"present","response":"present","rt":"4137.0000000001","correct":true,"confidence":3},{"trial_n":96,"span":12,"encoder":"549371834399","distractor":"549371831399","target":"present","response":"present","rt":"3013","correct":true,"confidence":5},{"trial_n":97,"span":13,"encoder":"4266378936728","distractor":"4266388936728","target":"absent","response":"present","rt":"6088","correct":false,"confidence":3},{"trial_n":98,"span":12,"encoder":"416062840145","distractor":"716062840145","target":"absent","response":"absent","rt":"4914.9999999999","correct":true,"confidence":1},{"trial_n":99,"span":12,"encoder":"671513654845","distractor":"671513054845","target":"present","response":"absent","rt":"5051","correct":false,"confidence":2},{"trial_n":100,"span":11,"encoder":"53158372634","distractor":"13158372634","target":"absent","response":"absent","rt":"5322","correct":true,"confidence":3},{"trial_n":101,"span":11,"encoder":"62404424263","distractor":"62404924263","target":"present","response":"present","rt":"2022","correct":true,"confidence":5},{"trial_n":102,"span":12,"encoder":"558315231315","distractor":"558316231315","target":"absent","response":"present","rt":"10298","correct":false,"confidence":1},{"trial_n":103,"span":11,"encoder":"82809402219","distractor":"82809405219","target":"present","response":"present","rt":"2209","correct":true,"confidence":4},{"trial_n":104,"span":11,"encoder":"05442772699","distractor":"05442779699","target":"present","response":"present","rt":"5882","correct":true,"confidence":3},{"trial_n":105,"span":12,"encoder":"348666139192","distractor":"348666239192","target":"present","response":"absent","rt":"6570.9999999998","correct":false,"confidence":3},{"trial_n":106,"span":11,"encoder":"99687948743","distractor":"99287948743","target":"present","response":"absent","rt":"1667","correct":false,"confidence":2},{"trial_n":107,"span":10,"encoder":"4179864297","distractor":"1179864297","target":"present","response":"present","rt":"1944","correct":true,"confidence":3},{"trial_n":108,"span":10,"encoder":"6471407498","distractor":"6471427498","target":"absent","response":"absent","rt":"1957","correct":true,"confidence":5},{"trial_n":109,"span":11,"encoder":"56289710572","distractor":"56289710578","target":"absent","response":"absent","rt":"1628","correct":true,"confidence":5},{"trial_n":110,"span":11,"encoder":"38845118820","distractor":"38545118820","target":"absent","response":"present","rt":"4066","correct":false,"confidence":4},{"trial_n":111,"span":10,"encoder":"9632176994","distractor":"9632476994","target":"present","response":"present","rt":"3422","correct":true,"confidence":3},{"trial_n":112,"span":10,"encoder":"2060088277","distractor":"4060088277","target":"present","response":"present","rt":"3158.0000000002","correct":true,"confidence":2},{"trial_n":113,"span":11,"encoder":"52099783624","distractor":"52099783674","target":"present","response":"absent","rt":"1803.9999999998","correct":false,"confidence":4},{"trial_n":114,"span":10,"encoder":"9014943757","distractor":"9014943557","target":"present","response":"present","rt":"2168","correct":true,"confidence":3},{"trial_n":115,"span":10,"encoder":"3695442354","distractor":"3695412354","target":"present","response":"present","rt":"4375","correct":true,"confidence":4},{"trial_n":116,"span":11,"encoder":"18612275401","distractor":"18612275407","target":"absent","response":"absent","rt":"1920","correct":true,"confidence":5},{"trial_n":117,"span":11,"encoder":"72413437744","distractor":"72413437749","target":"absent","response":"absent","rt":"2120","correct":true,"confidence":4},{"trial_n":118,"span":12,"encoder":"033398988827","distractor":"533398988827","target":"absent","response":"present","rt":"4227","correct":false,"confidence":1},{"trial_n":119,"span":11,"encoder":"96579912835","distractor":"26579912835","target":"present","response":"absent","rt":"3845.0000000002","correct":false,"confidence":2},{"trial_n":120,"span":10,"encoder":"0633664852","distractor":"0633660852","target":"absent","response":"absent","rt":"2981","correct":true,"confidence":3},{"trial_n":121,"span":10,"encoder":"5577085856","distractor":"5577885856","target":"absent","response":"absent","rt":"3879","correct":true,"confidence":5},{"trial_n":122,"span":11,"encoder":"85368142510","distractor":"85368145510","target":"present","response":"present","rt":"2642","correct":true,"confidence":5},{"trial_n":123,"span":11,"encoder":"15611327367","distractor":"15611321367","target":"absent","response":"absent","rt":"5705","correct":true,"confidence":5},{"trial_n":124,"span":12,"encoder":"396138097970","distractor":"316138097970","target":"absent","response":"absent","rt":"3969.0000000002","correct":true,"confidence":4},{"trial_n":125,"span":12,"encoder":"060912082934","distractor":"065912082934","target":"absent","response":"absent","rt":"8050","correct":true,"confidence":1},{"trial_n":126,"span":13,"encoder":"0690748789249","distractor":"7690748789249","target":"present","response":"present","rt":"2514.9999999998","correct":true,"confidence":2},{"trial_n":127,"span":13,"encoder":"2768023148335","distractor":"2768823148335","target":"present","response":"present","rt":"4467","correct":true,"confidence":3},{"trial_n":128,"span":14,"encoder":"81663513104405","distractor":"81663513103405","target":"present","response":"present","rt":"2191","correct":true,"confidence":3},{"trial_n":129,"span":14,"encoder":"37192283572735","distractor":"37192283872735","target":"present","response":"present","rt":"7535","correct":true,"confidence":4},{"trial_n":130,"span":15,"encoder":"488347379148167","distractor":"468347379148167","target":"absent","response":"present","rt":"1674","correct":false,"confidence":1},{"trial_n":131,"span":14,"encoder":"89451714827061","distractor":"89451714827065","target":"present","response":"present","rt":"1422","correct":true,"confidence":5},{"trial_n":132,"span":14,"encoder":"99897856706712","distractor":"99897816706712","target":"present","response":"present","rt":"4015.9999999998","correct":true,"confidence":2},{"trial_n":133,"span":15,"encoder":"495302927528928","distractor":"495302927528988","target":"absent","response":"absent","rt":"1928.9999999998","correct":true,"confidence":5},{"trial_n":134,"span":15,"encoder":"598344579787044","distractor":"598344519787044","target":"present","response":"present","rt":"3953.9999999998","correct":true,"confidence":2},{"trial_n":135,"span":16,"encoder":"4783953905106744","distractor":"4783953955106744","target":"present","response":"present","rt":"2981","correct":true,"confidence":2},{"trial_n":136,"span":16,"encoder":"1034147183712920","distractor":"1034147883712920","target":"absent","response":"present","rt":"3406.9999999998","correct":false,"confidence":3},{"trial_n":137,"span":15,"encoder":"251112794627402","distractor":"251112794627407","target":"present","response":"present","rt":"1273","correct":true,"confidence":5},{"trial_n":138,"span":15,"encoder":"180119877776596","distractor":"180189877776596","target":"absent","response":"present","rt":"3467","correct":false,"confidence":2},{"trial_n":139,"span":14,"encoder":"82151647132892","distractor":"82151627132892","target":"present","response":"present","rt":"2934","correct":true,"confidence":3},{"trial_n":140,"span":14,"encoder":"31418882921886","distractor":"31418882921881","target":"present","response":"present","rt":"1488","correct":true,"confidence":5}]