[{"trial_n":1,"n_dots":4.25,"target":"left","response":"left","rt":7578.2999999523,"correct":true,"confidence":-1},{"trial_n":2,"n_dots":4.25,"target":"right","response":"right","rt":798,"correct":true,"confidence":-1},{"trial_n":3,"n_dots":3.85,"target":"right","response":"right","rt":983,"correct":true,"confidence":-1},{"trial_n":4,"n_dots":3.85,"target":"left","response":"left","rt":876.90000009537,"correct":true,"confidence":-1},{"trial_n":5,"n_dots":3.45,"target":"left","response":"right","rt":1461.5999999046,"correct":false,"confidence":-1},{"trial_n":6,"n_dots":3.85,"target":"left","response":"left","rt":331.90000009537,"correct":true,"confidence":-1},{"trial_n":7,"n_dots":3.85,"target":"left","response":"right","rt":2864.7999999523,"correct":false,"confidence":-1},{"trial_n":8,"n_dots":4.05,"target":"right","response":"right","rt":408.90000009537,"correct":true,"confidence":-1},{"trial_n":9,"n_dots":4.05,"target":"left","response":"left","rt":359.89999985695,"correct":true,"confidence":-1},{"trial_n":10,"n_dots":3.85,"target":"left","response":"left","rt":1162.6999998093,"correct":true,"confidence":-1},{"trial_n":11,"n_dots":3.85,"target":"right","response":"right","rt":473.79999995232,"correct":true,"confidence":-1},{"trial_n":12,"n_dots":3.65,"target":"left","response":"left","rt":224.10000014305,"correct":true,"confidence":-1},{"trial_n":13,"n_dots":3.65,"target":"left","response":"left","rt":529.90000009537,"correct":true,"confidence":-1},{"trial_n":14,"n_dots":3.55,"target":"left","response":"left","rt":424.79999995232,"correct":true,"confidence":-1},{"trial_n":15,"n_dots":3.55,"target":"right","response":"right","rt":862.19999980927,"correct":true,"confidence":-1},{"trial_n":16,"n_dots":3.45,"target":"right","response":"left","rt":1803.2000000477,"correct":false,"confidence":-1},{"trial_n":17,"n_dots":3.55,"target":"left","response":"left","rt":791.90000009537,"correct":true,"confidence":-1},{"trial_n":18,"n_dots":3.55,"target":"right","response":"right","rt":335,"correct":true,"confidence":-1},{"trial_n":19,"n_dots":3.45,"target":"left","response":"left","rt":398.60000014305,"correct":true,"confidence":-1},{"trial_n":20,"n_dots":3.45,"target":"right","response":"right","rt":176.5,"correct":true,"confidence":-1},{"trial_n":21,"n_dots":3.35,"target":"left","response":"left","rt":333.10000014305,"correct":true,"confidence":2},{"trial_n":22,"n_dots":3.35,"target":"left","response":"left","rt":615.20000004768,"correct":true,"confidence":3},{"trial_n":23,"n_dots":3.25,"target":"right","response":"right","rt":463.29999995232,"correct":true,"confidence":2},{"trial_n":24,"n_dots":3.25,"target":"right","response":"right","rt":485,"correct":true,"confidence":2},{"trial_n":25,"n_dots":3.15,"target":"left","response":"right","rt":417.60000014305,"correct":false,"confidence":3},{"trial_n":26,"n_dots":3.25,"target":"left","response":"left","rt":432.5,"correct":true,"confidence":2},{"trial_n":27,"n_dots":3.25,"target":"right","response":"right","rt":216.29999995232,"correct":true,"confidence":4},{"trial_n":28,"n_dots":3.15,"target":"right","response":"right","rt":224.59999990463,"correct":true,"confidence":3},{"trial_n":29,"n_dots":3.15,"target":"right","response":"left","rt":1626.1000001431,"correct":false,"confidence":1},{"trial_n":30,"n_dots":3.25,"target":"right","response":"left","rt":477.70000004768,"correct":false,"confidence":2},{"trial_n":31,"n_dots":3.35,"target":"right","response":"right","rt":95.299999952316,"correct":true,"confidence":3},{"trial_n":32,"n_dots":3.35,"target":"right","response":"right","rt":292.29999995232,"correct":true,"confidence":3},{"trial_n":33,"n_dots":3.25,"target":"right","response":"right","rt":156.20000004768,"correct":true,"confidence":1},{"trial_n":34,"n_dots":3.25,"target":"left","response":"left","rt":1166.5,"correct":true,"confidence":2},{"trial_n":35,"n_dots":3.15,"target":"right","response":"right","rt":230.10000014305,"correct":true,"confidence":3},{"trial_n":36,"n_dots":3.15,"target":"right","response":"right","rt":175.19999980927,"correct":true,"confidence":3},{"trial_n":37,"n_dots":3.05,"target":"left","response":"right","rt":2656.8000001907,"correct":false,"confidence":1},{"trial_n":38,"n_dots":3.15,"target":"right","response":"right","rt":534.19999980927,"correct":true,"confidence":2},{"trial_n":39,"n_dots":3.15,"target":"right","response":"left","rt":303.90000009537,"correct":false,"confidence":2},{"trial_n":40,"n_dots":3.25,"target":"right","response":"right","rt":210.5,"correct":true,"confidence":3},{"trial_n":41,"n_dots":3.25,"target":"right","response":"right","rt":504.29999995232,"correct":true,"confidence":3},{"trial_n":42,"n_dots":3.15,"target":"left","response":"left","rt":1062.2999999523,"correct":true,"confidence":1},{"trial_n":43,"n_dots":3.15,"target":"left","response":"left","rt":320,"correct":true,"confidence":3},{"trial_n":44,"n_dots":3.05,"target":"left","response":"left","rt":134.60000014305,"correct":true,"confidence":4},{"trial_n":45,"n_dots":3.05,"target":"right","response":"right","rt":103.59999990463,"correct":true,"confidence":3},{"trial_n":46,"n_dots":2.95,"target":"right","response":"right","rt":892.79999995232,"correct":true,"confidence":3},{"trial_n":47,"n_dots":2.95,"target":"left","response":"left","rt":42.100000143051,"correct":true,"confidence":3},{"trial_n":48,"n_dots":2.85,"target":"right","response":"right","rt":316.70000004768,"correct":true,"confidence":3},{"trial_n":49,"n_dots":2.85,"target":"left","response":"left","rt":88.800000190735,"correct":true,"confidence":1},{"trial_n":50,"n_dots":2.75,"target":"left","response":"right","rt":129.79999995232,"correct":false,"confidence":2},{"trial_n":51,"n_dots":2.85,"target":"right","response":"left","rt":411.90000009537,"correct":false,"confidence":1},{"trial_n":52,"n_dots":2.95,"target":"left","response":"left","rt":471.09999990463,"correct":true,"confidence":3},{"trial_n":53,"n_dots":2.95,"target":"right","response":"left","rt":246.90000009537,"correct":false,"confidence":3},{"trial_n":54,"n_dots":3.05,"target":"right","response":"right","rt":101.90000009537,"correct":true,"confidence":3},{"trial_n":55,"n_dots":3.05,"target":"right","response":"left","rt":112.20000004768,"correct":false,"confidence":3},{"trial_n":56,"n_dots":3.15,"target":"right","response":"right","rt":132.5,"correct":true,"confidence":3},{"trial_n":57,"n_dots":3.15,"target":"right","response":"right","rt":209.70000004768,"correct":true,"confidence":3},{"trial_n":58,"n_dots":3.05,"target":"left","response":"left","rt":90,"correct":true,"confidence":3},{"trial_n":59,"n_dots":3.05,"target":"left","response":"right","rt":35.700000047684,"correct":false,"confidence":3},{"trial_n":60,"n_dots":3.15,"target":"right","response":"right","rt":45.099999904633,"correct":true,"confidence":2},{"trial_n":61,"n_dots":3.15,"target":"right","response":"right","rt":312.69999980927,"correct":true,"confidence":3},{"trial_n":62,"n_dots":3.05,"target":"right","response":"right","rt":107.90000009537,"correct":true,"confidence":3},{"trial_n":63,"n_dots":3.05,"target":"right","response":"right","rt":115.70000004768,"correct":true,"confidence":3},{"trial_n":64,"n_dots":2.95,"target":"left","response":"left","rt":483.09999990463,"correct":true,"confidence":1},{"trial_n":65,"n_dots":2.95,"target":"left","response":"left","rt":322.29999995232,"correct":true,"confidence":2},{"trial_n":66,"n_dots":2.85,"target":"right","response":"left","rt":391.09999990463,"correct":false,"confidence":3},{"trial_n":67,"n_dots":2.95,"target":"left","response":"right","rt":522,"correct":false,"confidence":1},{"trial_n":68,"n_dots":3.05,"target":"right","response":"right","rt":533.90000009537,"correct":true,"confidence":3},{"trial_n":69,"n_dots":3.05,"target":"right","response":"right","rt":373.59999990463,"correct":true,"confidence":3},{"trial_n":70,"n_dots":2.95,"target":"left","response":"left","rt":203,"correct":true,"confidence":3},{"trial_n":71,"n_dots":2.95,"target":"right","response":"right","rt":88.399999856949,"correct":true,"confidence":3},{"trial_n":72,"n_dots":2.85,"target":"left","response":"left","rt":85,"correct":true,"confidence":2},{"trial_n":73,"n_dots":2.85,"target":"right","response":"right","rt":334.60000014305,"correct":true,"confidence":2},{"trial_n":74,"n_dots":2.75,"target":"right","response":"right","rt":1002.8999998569,"correct":true,"confidence":1},{"trial_n":75,"n_dots":2.75,"target":"left","response":"left","rt":331.09999990463,"correct":true,"confidence":2},{"trial_n":76,"n_dots":2.65,"target":"left","response":"left","rt":2270.6999998093,"correct":true,"confidence":1},{"trial_n":77,"n_dots":2.65,"target":"right","response":"right","rt":103.40000009537,"correct":true,"confidence":1},{"trial_n":78,"n_dots":2.55,"target":"right","response":"left","rt":284.09999990463,"correct":false,"confidence":2},{"trial_n":79,"n_dots":2.65,"target":"left","response":"right","rt":28.400000095367,"correct":false,"confidence":1},{"trial_n":80,"n_dots":2.75,"target":"left","response":"left","rt":251.70000004768,"correct":true,"confidence":2},{"trial_n":81,"n_dots":2.75,"target":"left","response":"right","rt":485.79999995232,"correct":false,"confidence":3},{"trial_n":82,"n_dots":2.85,"target":"left","response":"left","rt":126.69999980927,"correct":true,"confidence":3},{"trial_n":83,"n_dots":2.85,"target":"left","response":"right","rt":801.5,"correct":false,"confidence":3},{"trial_n":84,"n_dots":2.95,"target":"right","response":"left","rt":558.69999980927,"correct":false,"confidence":2},{"trial_n":85,"n_dots":3.05,"target":"left","response":"left","rt":269,"correct":true,"confidence":3},{"trial_n":86,"n_dots":3.05,"target":"left","response":"right","rt":501.10000014305,"correct":false,"confidence":3},{"trial_n":87,"n_dots":3.15,"target":"left","response":"left","rt":689.59999990463,"correct":true,"confidence":2},{"trial_n":88,"n_dots":3.15,"target":"left","response":"right","rt":184.89999985695,"correct":false,"confidence":2},{"trial_n":89,"n_dots":3.25,"target":"left","response":"left","rt":9.1999998092651,"correct":true,"confidence":2},{"trial_n":90,"n_dots":3.25,"target":"left","response":"left","rt":790.89999985695,"correct":true,"confidence":1},{"trial_n":91,"n_dots":3.15,"target":"left","response":"left","rt":144.29999995232,"correct":true,"confidence":2},{"trial_n":92,"n_dots":3.15,"target":"right","response":"right","rt":820.60000014305,"correct":true,"confidence":3},{"trial_n":93,"n_dots":3.05,"target":"left","response":"left","rt":298,"correct":true,"confidence":2},{"trial_n":94,"n_dots":3.05,"target":"right","response":"right","rt":86.399999856949,"correct":true,"confidence":3},{"trial_n":95,"n_dots":2.95,"target":"left","response":"left","rt":463.5,"correct":true,"confidence":1},{"trial_n":96,"n_dots":2.95,"target":"right","response":"right","rt":259.70000004768,"correct":true,"confidence":3},{"trial_n":97,"n_dots":2.85,"target":"left","response":"right","rt":222.60000014305,"correct":false,"confidence":2},{"trial_n":98,"n_dots":2.95,"target":"left","response":"left","rt":65.700000047684,"correct":true,"confidence":3},{"trial_n":99,"n_dots":2.95,"target":"right","response":"right","rt":135.20000004768,"correct":true,"confidence":3},{"trial_n":100,"n_dots":2.85,"target":"right","response":"left","rt":274.90000009537,"correct":false,"confidence":1},{"trial_n":101,"n_dots":2.95,"target":"right","response":"right","rt":358.90000009537,"correct":true,"confidence":4},{"trial_n":102,"n_dots":2.95,"target":"left","response":"left","rt":595.29999995232,"correct":true,"confidence":2},{"trial_n":103,"n_dots":2.85,"target":"left","response":"right","rt":419.80000019073,"correct":false,"confidence":1},{"trial_n":104,"n_dots":2.95,"target":"right","response":"right","rt":226.90000009537,"correct":true,"confidence":1},{"trial_n":105,"n_dots":2.95,"target":"left","response":"left","rt":200.70000004768,"correct":true,"confidence":3},{"trial_n":106,"n_dots":2.85,"target":"left","response":"left","rt":90.900000095367,"correct":true,"confidence":3},{"trial_n":107,"n_dots":2.85,"target":"left","response":"left","rt":839.80000019073,"correct":true,"confidence":3},{"trial_n":108,"n_dots":2.75,"target":"right","response":"right","rt":239.29999995232,"correct":true,"confidence":3},{"trial_n":109,"n_dots":2.75,"target":"right","response":"right","rt":244.89999985695,"correct":true,"confidence":3},{"trial_n":110,"n_dots":2.65,"target":"left","response":"left","rt":42.5,"correct":true,"confidence":3},{"trial_n":111,"n_dots":2.65,"target":"right","response":"right","rt":173.20000004768,"correct":true,"confidence":4},{"trial_n":112,"n_dots":2.55,"target":"right","response":"right","rt":515.5,"correct":true,"confidence":3},{"trial_n":113,"n_dots":2.55,"target":"right","response":"right","rt":699.29999995232,"correct":true,"confidence":3},{"trial_n":114,"n_dots":2.45,"target":"right","response":"right","rt":563.5,"correct":true,"confidence":3},{"trial_n":115,"n_dots":2.45,"target":"left","response":"left","rt":385.60000014305,"correct":true,"confidence":3},{"trial_n":116,"n_dots":2.35,"target":"left","response":"left","rt":588.20000004768,"correct":true,"confidence":3},{"trial_n":117,"n_dots":2.35,"target":"right","response":"right","rt":536.80000019073,"correct":true,"confidence":3},{"trial_n":118,"n_dots":2.25,"target":"left","response":"right","rt":682.5,"correct":false,"confidence":1},{"trial_n":119,"n_dots":2.35,"target":"right","response":"right","rt":209.5,"correct":true,"confidence":3},{"trial_n":120,"n_dots":2.35,"target":"left","response":"left","rt":97.099999904633,"correct":true,"confidence":2}]