[{"trial_n":1,"span":8,"encoder":"99216958","distractor":"99216938","target":"present","response":"present","rt":"4295.3999998569","correct":true,"confidence":-1},{"trial_n":2,"span":8,"encoder":"39085656","distractor":"39088656","target":"present","response":"absent","rt":"2089.5999999046","correct":false,"confidence":-1},{"trial_n":3,"span":6,"encoder":"806686","distractor":"506686","target":"absent","response":"absent","rt":"2885.7000000477","correct":true,"confidence":-1},{"trial_n":4,"span":6,"encoder":"353537","distractor":"353437","target":"absent","response":"absent","rt":"2678.7999999523","correct":true,"confidence":-1},{"trial_n":5,"span":8,"encoder":"92730226","distractor":"92730228","target":"present","response":"present","rt":"2682.4000000954","correct":true,"confidence":-1},{"trial_n":6,"span":8,"encoder":"71276194","distractor":"71286194","target":"absent","response":"present","rt":"1356.8999998569","correct":false,"confidence":-1},{"trial_n":7,"span":6,"encoder":"415948","distractor":"455948","target":"absent","response":"present","rt":"892.10000014305","correct":false,"confidence":-1},{"trial_n":8,"span":4,"encoder":"5840","distractor":"5847","target":"present","response":"present","rt":"1279.7000000477","correct":true,"confidence":-1},{"trial_n":9,"span":4,"encoder":"0979","distractor":"0969","target":"present","response":"present","rt":"1070.1000001431","correct":true,"confidence":-1},{"trial_n":10,"span":6,"encoder":"824286","distractor":"804286","target":"present","response":"present","rt":"870.29999995232","correct":true,"confidence":-1},{"trial_n":11,"span":6,"encoder":"181794","distractor":"131794","target":"absent","response":"absent","rt":"1917","correct":true,"confidence":-1},{"trial_n":12,"span":7,"encoder":"9951168","distractor":"9951468","target":"absent","response":"absent","rt":"1425.2999999523","correct":true,"confidence":-1},{"trial_n":13,"span":7,"encoder":"0043224","distractor":"0043228","target":"present","response":"present","rt":"1320.3999998569","correct":true,"confidence":-1},{"trial_n":14,"span":8,"encoder":"19316116","distractor":"19316316","target":"present","response":"present","rt":"1197","correct":true,"confidence":-1},{"trial_n":15,"span":8,"encoder":"96079857","distractor":"96779857","target":"present","response":"present","rt":"1068","correct":true,"confidence":-1},{"trial_n":16,"span":9,"encoder":"436497807","distractor":"436497802","target":"present","response":"present","rt":"1027.8999998569","correct":true,"confidence":-1},{"trial_n":17,"span":9,"encoder":"525240300","distractor":"525940300","target":"present","response":"present","rt":"910.20000004768","correct":true,"confidence":-1},{"trial_n":18,"span":10,"encoder":"1316072054","distractor":"1319072054","target":"absent","response":"absent","rt":"1983.6999998093","correct":true,"confidence":-1},{"trial_n":19,"span":10,"encoder":"1422930796","distractor":"1422930096","target":"absent","response":"present","rt":"1161.9000000954","correct":false,"confidence":-1},{"trial_n":20,"span":9,"encoder":"406568230","distractor":"408568230","target":"present","response":"absent","rt":"1282.0999999046","correct":false,"confidence":-1},{"trial_n":21,"span":8,"encoder":"44398552","distractor":"44198552","target":"present","response":"absent","rt":"3702.7000000477","correct":false,"confidence":1},{"trial_n":22,"span":7,"encoder":"2141789","distractor":"2241789","target":"absent","response":"present","rt":"2091.7000000477","correct":false,"confidence":1},{"trial_n":23,"span":6,"encoder":"109003","distractor":"129003","target":"absent","response":"present","rt":"1639.1000001431","correct":false,"confidence":3},{"trial_n":24,"span":5,"encoder":"61566","distractor":"68566","target":"present","response":"present","rt":"1174.4000000954","correct":true,"confidence":4},{"trial_n":25,"span":5,"encoder":"31359","distractor":"31159","target":"present","response":"present","rt":"1835.2999999523","correct":true,"confidence":4},{"trial_n":26,"span":6,"encoder":"586836","distractor":"586856","target":"absent","response":"absent","rt":"2366.7000000477","correct":true,"confidence":4},{"trial_n":27,"span":6,"encoder":"691034","distractor":"691084","target":"present","response":"present","rt":"3127","correct":true,"confidence":3},{"trial_n":28,"span":7,"encoder":"4652247","distractor":"4552247","target":"present","response":"present","rt":"2334","correct":true,"confidence":3},{"trial_n":29,"span":7,"encoder":"5501263","distractor":"5501203","target":"present","response":"present","rt":"1077.6000001431","correct":true,"confidence":3},{"trial_n":30,"span":8,"encoder":"34423606","distractor":"94423606","target":"present","response":"present","rt":"1572.3999998569","correct":true,"confidence":1},{"trial_n":31,"span":8,"encoder":"89923513","distractor":"29923513","target":"present","response":"present","rt":"1527.7999999523","correct":true,"confidence":3},{"trial_n":32,"span":9,"encoder":"307465536","distractor":"307465535","target":"absent","response":"present","rt":"2751.7000000477","correct":false,"confidence":3},{"trial_n":33,"span":8,"encoder":"17177506","distractor":"17177509","target":"present","response":"absent","rt":"3015.7000000477","correct":false,"confidence":3},{"trial_n":34,"span":7,"encoder":"5176767","distractor":"5176067","target":"absent","response":"absent","rt":"4879.5999999046","correct":true,"confidence":3},{"trial_n":35,"span":7,"encoder":"2931779","distractor":"1931779","target":"present","response":"present","rt":"1122.2999999523","correct":true,"confidence":3},{"trial_n":36,"span":8,"encoder":"28862541","distractor":"28862741","target":"present","response":"present","rt":"1603.6000001431","correct":true,"confidence":1},{"trial_n":37,"span":8,"encoder":"96481337","distractor":"96481437","target":"absent","response":"absent","rt":"1462.8000001907","correct":true,"confidence":3},{"trial_n":38,"span":9,"encoder":"621704729","distractor":"421704729","target":"absent","response":"present","rt":"932.80000019073","correct":false,"confidence":2},{"trial_n":39,"span":8,"encoder":"67617022","distractor":"67617722","target":"present","response":"present","rt":"1044.0999999046","correct":true,"confidence":3},{"trial_n":40,"span":8,"encoder":"44998406","distractor":"44998405","target":"absent","response":"present","rt":"2295.5","correct":false,"confidence":3},{"trial_n":41,"span":7,"encoder":"1243266","distractor":"1243264","target":"absent","response":"present","rt":"1340.2999999523","correct":false,"confidence":3},{"trial_n":42,"span":6,"encoder":"030762","distractor":"010762","target":"absent","response":"present","rt":"1135.7000000477","correct":false,"confidence":2},{"trial_n":43,"span":5,"encoder":"74693","distractor":"74593","target":"absent","response":"present","rt":"1082.7999999523","correct":false,"confidence":3},{"trial_n":44,"span":4,"encoder":"7200","distractor":"0200","target":"present","response":"present","rt":"1109.3000001907","correct":true,"confidence":5},{"trial_n":45,"span":4,"encoder":"8407","distractor":"8400","target":"present","response":"present","rt":"1400.3000001907","correct":true,"confidence":3},{"trial_n":46,"span":5,"encoder":"37924","distractor":"37934","target":"absent","response":"present","rt":"3274.6999998093","correct":false,"confidence":1},{"trial_n":47,"span":4,"encoder":"7926","distractor":"7916","target":"present","response":"present","rt":"1299.5","correct":true,"confidence":4},{"trial_n":48,"span":4,"encoder":"6472","distractor":"6172","target":"present","response":"present","rt":"1232.3000001907","correct":true,"confidence":5},{"trial_n":49,"span":5,"encoder":"19424","distractor":"19124","target":"absent","response":"absent","rt":"2744.3999998569","correct":true,"confidence":3},{"trial_n":50,"span":5,"encoder":"39478","distractor":"35478","target":"absent","response":"present","rt":"3541.5","correct":false,"confidence":1},{"trial_n":51,"span":4,"encoder":"8521","distractor":"8321","target":"absent","response":"absent","rt":"1703.4000000954","correct":true,"confidence":5},{"trial_n":52,"span":4,"encoder":"4842","distractor":"4802","target":"absent","response":"absent","rt":"2800.7999999523","correct":true,"confidence":5},{"trial_n":53,"span":5,"encoder":"29841","distractor":"22841","target":"present","response":"present","rt":"1311.7999999523","correct":true,"confidence":5},{"trial_n":54,"span":5,"encoder":"91693","distractor":"91193","target":"present","response":"present","rt":"1514.5","correct":true,"confidence":5},{"trial_n":55,"span":6,"encoder":"946403","distractor":"956403","target":"absent","response":"present","rt":"1899.5","correct":false,"confidence":2},{"trial_n":56,"span":5,"encoder":"48138","distractor":"18138","target":"present","response":"present","rt":"1279.4000000954","correct":true,"confidence":3},{"trial_n":57,"span":5,"encoder":"17830","distractor":"17810","target":"present","response":"present","rt":"2565","correct":true,"confidence":5},{"trial_n":58,"span":6,"encoder":"596926","distractor":"526926","target":"absent","response":"absent","rt":"1226.0999999046","correct":true,"confidence":1},{"trial_n":59,"span":6,"encoder":"612221","distractor":"652221","target":"absent","response":"present","rt":"980.90000009537","correct":false,"confidence":5},{"trial_n":60,"span":5,"encoder":"83403","distractor":"83463","target":"present","response":"present","rt":"1136.8000001907","correct":true,"confidence":3},{"trial_n":61,"span":5,"encoder":"06995","distractor":"06295","target":"absent","response":"absent","rt":"1453.2999999523","correct":true,"confidence":5},{"trial_n":62,"span":6,"encoder":"014347","distractor":"094347","target":"present","response":"present","rt":"3055.8999998569","correct":true,"confidence":5},{"trial_n":63,"span":6,"encoder":"441321","distractor":"431321","target":"absent","response":"absent","rt":"1296.7999999523","correct":true,"confidence":4},{"trial_n":64,"span":7,"encoder":"5041888","distractor":"5041088","target":"present","response":"present","rt":"1896.2000000477","correct":true,"confidence":4},{"trial_n":65,"span":7,"encoder":"4152861","distractor":"9152861","target":"present","response":"absent","rt":"1617.7000000477","correct":false,"confidence":1},{"trial_n":66,"span":6,"encoder":"292917","distractor":"282917","target":"absent","response":"present","rt":"2807","correct":false,"confidence":4},{"trial_n":67,"span":5,"encoder":"23522","distractor":"27522","target":"absent","response":"absent","rt":"1606.0999999046","correct":true,"confidence":4},{"trial_n":68,"span":5,"encoder":"34964","distractor":"24964","target":"absent","response":"absent","rt":"2273.7999999523","correct":true,"confidence":3},{"trial_n":69,"span":6,"encoder":"610952","distractor":"620952","target":"absent","response":"absent","rt":"1776.3999998569","correct":true,"confidence":1},{"trial_n":70,"span":6,"encoder":"191704","distractor":"291704","target":"absent","response":"present","rt":"3141.7000000477","correct":false,"confidence":4},{"trial_n":71,"span":8,"encoder":"79539470","distractor":"79539471","target":"present","response":"present","rt":"1634.2999999523","correct":true,"confidence":-1},{"trial_n":72,"span":8,"encoder":"22097371","distractor":"23097371","target":"present","response":"absent","rt":"2415.8999998569","correct":false,"confidence":-1},{"trial_n":73,"span":7,"encoder":"3196122","distractor":"3194122","target":"absent","response":"absent","rt":"689.70000004768","correct":true,"confidence":-1},{"trial_n":74,"span":7,"encoder":"4610276","distractor":"4310276","target":"absent","response":"present","rt":"1266.3999998569","correct":false,"confidence":-1},{"trial_n":75,"span":6,"encoder":"068283","distractor":"018283","target":"present","response":"present","rt":"2037.2000000477","correct":true,"confidence":-1},{"trial_n":76,"span":6,"encoder":"493758","distractor":"433758","target":"present","response":"present","rt":"1785.2999999523","correct":true,"confidence":-1},{"trial_n":77,"span":7,"encoder":"3050670","distractor":"3250670","target":"absent","response":"absent","rt":"1307.5","correct":true,"confidence":-1},{"trial_n":78,"span":7,"encoder":"6480945","distractor":"6470945","target":"present","response":"present","rt":"1198.5999999046","correct":true,"confidence":-1},{"trial_n":79,"span":8,"encoder":"90665126","distractor":"40665126","target":"absent","response":"present","rt":"1606.7000000477","correct":false,"confidence":-1},{"trial_n":80,"span":7,"encoder":"8216299","distractor":"8016299","target":"present","response":"present","rt":"889.90000009537","correct":true,"confidence":-1},{"trial_n":81,"span":7,"encoder":"1266133","distractor":"1260133","target":"absent","response":"present","rt":"799.59999990463","correct":false,"confidence":-1},{"trial_n":82,"span":6,"encoder":"800498","distractor":"800598","target":"present","response":"absent","rt":"1060.2999999523","correct":false,"confidence":-1},{"trial_n":83,"span":5,"encoder":"00391","distractor":"40391","target":"present","response":"present","rt":"884.29999995232","correct":true,"confidence":-1},{"trial_n":84,"span":5,"encoder":"37268","distractor":"37298","target":"absent","response":"absent","rt":"1786.8999998569","correct":true,"confidence":-1},{"trial_n":85,"span":6,"encoder":"095795","distractor":"795795","target":"absent","response":"present","rt":"763.59999990463","correct":false,"confidence":-1},{"trial_n":86,"span":5,"encoder":"84642","distractor":"84672","target":"absent","response":"absent","rt":"1493.8000001907","correct":true,"confidence":-1},{"trial_n":87,"span":5,"encoder":"18195","distractor":"18196","target":"present","response":"present","rt":"1228.7000000477","correct":true,"confidence":-1},{"trial_n":88,"span":6,"encoder":"532935","distractor":"532435","target":"present","response":"present","rt":"930.5","correct":true,"confidence":-1},{"trial_n":89,"span":6,"encoder":"024743","distractor":"024143","target":"absent","response":"absent","rt":"1355","correct":true,"confidence":-1},{"trial_n":90,"span":7,"encoder":"9741889","distractor":"9741839","target":"absent","response":"absent","rt":"1264.7999999523","correct":true,"confidence":-1},{"trial_n":91,"span":7,"encoder":"4486891","distractor":"4488891","target":"present","response":"absent","rt":"814","correct":false,"confidence":1},{"trial_n":92,"span":6,"encoder":"346144","distractor":"343144","target":"absent","response":"absent","rt":"3086.7999999523","correct":true,"confidence":3},{"trial_n":93,"span":6,"encoder":"127226","distractor":"121226","target":"absent","response":"absent","rt":"1876.5","correct":true,"confidence":4},{"trial_n":94,"span":7,"encoder":"7630569","distractor":"7630564","target":"present","response":"present","rt":"1395.5999999046","correct":true,"confidence":1},{"trial_n":95,"span":7,"encoder":"3963154","distractor":"3563154","target":"absent","response":"absent","rt":"3073.9000000954","correct":true,"confidence":3},{"trial_n":96,"span":8,"encoder":"24608885","distractor":"24608886","target":"present","response":"present","rt":"1491.9000000954","correct":true,"confidence":5},{"trial_n":97,"span":8,"encoder":"26978610","distractor":"26678610","target":"absent","response":"present","rt":"1361.5","correct":false,"confidence":3},{"trial_n":98,"span":7,"encoder":"7104620","distractor":"7104622","target":"present","response":"present","rt":"2607.3999998569","correct":true,"confidence":4},{"trial_n":99,"span":7,"encoder":"6933201","distractor":"6933221","target":"absent","response":"present","rt":"2524.5","correct":false,"confidence":2},{"trial_n":100,"span":6,"encoder":"774964","distractor":"775964","target":"absent","response":"absent","rt":"2215.7999999523","correct":true,"confidence":5},{"trial_n":101,"span":6,"encoder":"510140","distractor":"513140","target":"absent","response":"absent","rt":"3179.7000000477","correct":true,"confidence":3},{"trial_n":102,"span":7,"encoder":"5409930","distractor":"5429930","target":"present","response":"present","rt":"1979.8999998569","correct":true,"confidence":3},{"trial_n":103,"span":7,"encoder":"7749020","distractor":"7649020","target":"present","response":"present","rt":"1193.1000001431","correct":true,"confidence":1},{"trial_n":104,"span":8,"encoder":"44031476","distractor":"44031876","target":"present","response":"present","rt":"5464.0999999046","correct":true,"confidence":3},{"trial_n":105,"span":8,"encoder":"50413398","distractor":"50413198","target":"present","response":"present","rt":"2271.2000000477","correct":true,"confidence":4},{"trial_n":106,"span":9,"encoder":"717193077","distractor":"717193079","target":"absent","response":"absent","rt":"1248.9000000954","correct":true,"confidence":5},{"trial_n":107,"span":9,"encoder":"641692807","distractor":"641292807","target":"present","response":"present","rt":"1904","correct":true,"confidence":3},{"trial_n":108,"span":10,"encoder":"8704518570","distractor":"8704218570","target":"absent","response":"present","rt":"1631.8000001907","correct":false,"confidence":3},{"trial_n":109,"span":9,"encoder":"075429024","distractor":"075429324","target":"absent","response":"present","rt":"3692.5","correct":false,"confidence":3},{"trial_n":110,"span":8,"encoder":"10244373","distractor":"10944373","target":"present","response":"present","rt":"1635.4000000954","correct":true,"confidence":4},{"trial_n":111,"span":8,"encoder":"98557564","distractor":"98557464","target":"absent","response":"present","rt":"3690.3999998569","correct":false,"confidence":1},{"trial_n":112,"span":7,"encoder":"6328887","distractor":"3328887","target":"absent","response":"absent","rt":"3046.9000000954","correct":true,"confidence":4},{"trial_n":113,"span":7,"encoder":"8610126","distractor":"8310126","target":"present","response":"present","rt":"3877","correct":true,"confidence":3},{"trial_n":114,"span":8,"encoder":"28048122","distractor":"28048127","target":"present","response":"present","rt":"1186.4000000954","correct":true,"confidence":5},{"trial_n":115,"span":8,"encoder":"15248152","distractor":"15249152","target":"present","response":"present","rt":"1700.0999999046","correct":true,"confidence":1},{"trial_n":116,"span":9,"encoder":"251819454","distractor":"251810454","target":"absent","response":"present","rt":"2646.4000000954","correct":false,"confidence":3},{"trial_n":117,"span":8,"encoder":"04623446","distractor":"04623449","target":"absent","response":"absent","rt":"3647.2999999523","correct":true,"confidence":4},{"trial_n":118,"span":8,"encoder":"58208377","distractor":"55208377","target":"absent","response":"absent","rt":"2759.6999998093","correct":true,"confidence":3},{"trial_n":119,"span":9,"encoder":"105636070","distractor":"805636070","target":"present","response":"absent","rt":"4208.4000000954","correct":false,"confidence":3},{"trial_n":120,"span":8,"encoder":"69603526","distractor":"69653526","target":"present","response":"present","rt":"2556.5999999046","correct":true,"confidence":4},{"trial_n":121,"span":8,"encoder":"68144906","distractor":"68164906","target":"absent","response":"absent","rt":"3106.2999999523","correct":true,"confidence":4},{"trial_n":122,"span":9,"encoder":"876911600","distractor":"876911609","target":"absent","response":"present","rt":"98034.700000048","correct":false,"confidence":1},{"trial_n":123,"span":8,"encoder":"33100441","distractor":"33100421","target":"present","response":"present","rt":"3230.7000000477","correct":true,"confidence":3},{"trial_n":124,"span":8,"encoder":"88623610","distractor":"88323610","target":"present","response":"present","rt":"40612.200000048","correct":true,"confidence":1},{"trial_n":125,"span":9,"encoder":"245673446","distractor":"945673446","target":"absent","response":"absent","rt":"4326.8999998569","correct":true,"confidence":5},{"trial_n":126,"span":9,"encoder":"194672873","distractor":"194672878","target":"absent","response":"present","rt":"2156.3000001907","correct":false,"confidence":1},{"trial_n":127,"span":8,"encoder":"75861159","distractor":"75869159","target":"present","response":"present","rt":"2048.5999999046","correct":true,"confidence":1},{"trial_n":128,"span":8,"encoder":"79556922","distractor":"79516922","target":"present","response":"absent","rt":"1550.5","correct":false,"confidence":1},{"trial_n":129,"span":7,"encoder":"4338534","distractor":"4338533","target":"present","response":"present","rt":"3254.2999999523","correct":true,"confidence":5},{"trial_n":130,"span":7,"encoder":"8024870","distractor":"8024370","target":"present","response":"present","rt":"2120.0999999046","correct":true,"confidence":5},{"trial_n":131,"span":8,"encoder":"39123715","distractor":"39128715","target":"absent","response":"present","rt":"2102.5","correct":false,"confidence":4},{"trial_n":132,"span":7,"encoder":"6997539","distractor":"6197539","target":"present","response":"present","rt":"1910.7999999523","correct":true,"confidence":3},{"trial_n":133,"span":7,"encoder":"7596888","distractor":"7598888","target":"present","response":"present","rt":"2563.9000000954","correct":true,"confidence":4},{"trial_n":134,"span":8,"encoder":"02893794","distractor":"02890794","target":"absent","response":"present","rt":"1664.5","correct":false,"confidence":1},{"trial_n":135,"span":7,"encoder":"3719858","distractor":"3719058","target":"absent","response":"absent","rt":"2103.5","correct":true,"confidence":5},{"trial_n":136,"span":7,"encoder":"3411227","distractor":"3411027","target":"present","response":"present","rt":"2423.5","correct":true,"confidence":3},{"trial_n":137,"span":8,"encoder":"73778193","distractor":"73777193","target":"present","response":"present","rt":"3346.3999998569","correct":true,"confidence":3},{"trial_n":138,"span":8,"encoder":"17044813","distractor":"17044313","target":"absent","response":"absent","rt":"2049.2999999523","correct":true,"confidence":5},{"trial_n":139,"span":9,"encoder":"577248516","distractor":"571248516","target":"absent","response":"present","rt":"1608.5","correct":false,"confidence":1},{"trial_n":140,"span":8,"encoder":"48480083","distractor":"48780083","target":"present","response":"present","rt":"5990.6000001431","correct":true,"confidence":5}]