[{"trial_n":1,"n_dots":4.25,"target":"left","response":"left","rt":2987,"correct":true,"confidence":-1},{"trial_n":2,"n_dots":4.25,"target":"left","response":"right","rt":1460,"correct":false,"confidence":-1},{"trial_n":3,"n_dots":4.65,"target":"left","response":"left","rt":651,"correct":true,"confidence":-1},{"trial_n":4,"n_dots":4.65,"target":"right","response":"right","rt":862,"correct":true,"confidence":-1},{"trial_n":5,"n_dots":4.25,"target":"left","response":"left","rt":665,"correct":true,"confidence":-1},{"trial_n":6,"n_dots":4.25,"target":"right","response":"right","rt":621,"correct":true,"confidence":-1},{"trial_n":7,"n_dots":3.85,"target":"right","response":"left","rt":830,"correct":false,"confidence":-1},{"trial_n":8,"n_dots":4.05,"target":"right","response":"right","rt":818,"correct":true,"confidence":-1},{"trial_n":9,"n_dots":4.05,"target":"right","response":"right","rt":777,"correct":true,"confidence":-1},{"trial_n":10,"n_dots":3.85,"target":"left","response":"left","rt":394,"correct":true,"confidence":-1},{"trial_n":11,"n_dots":3.85,"target":"left","response":"left","rt":587,"correct":true,"confidence":-1},{"trial_n":12,"n_dots":3.65,"target":"left","response":"left","rt":383,"correct":true,"confidence":-1},{"trial_n":13,"n_dots":3.65,"target":"left","response":"right","rt":746,"correct":false,"confidence":-1},{"trial_n":14,"n_dots":3.75,"target":"right","response":"right","rt":253,"correct":true,"confidence":-1},{"trial_n":15,"n_dots":3.75,"target":"left","response":"left","rt":548,"correct":true,"confidence":-1},{"trial_n":16,"n_dots":3.65,"target":"right","response":"right","rt":535,"correct":true,"confidence":-1},{"trial_n":17,"n_dots":3.65,"target":"right","response":"right","rt":234,"correct":true,"confidence":-1},{"trial_n":18,"n_dots":3.55,"target":"right","response":"right","rt":587,"correct":true,"confidence":-1},{"trial_n":19,"n_dots":3.55,"target":"right","response":"right","rt":433,"correct":true,"confidence":-1},{"trial_n":20,"n_dots":3.45,"target":"right","response":"left","rt":301,"correct":false,"confidence":-1},{"trial_n":21,"n_dots":3.55,"target":"right","response":"right","rt":588,"correct":true,"confidence":3},{"trial_n":22,"n_dots":3.55,"target":"right","response":"right","rt":523,"correct":true,"confidence":5},{"trial_n":23,"n_dots":3.45,"target":"left","response":"left","rt":972,"correct":true,"confidence":4},{"trial_n":24,"n_dots":3.45,"target":"right","response":"left","rt":1439,"correct":false,"confidence":3},{"trial_n":25,"n_dots":3.55,"target":"right","response":"right","rt":366,"correct":true,"confidence":5},{"trial_n":26,"n_dots":3.55,"target":"left","response":"left","rt":782,"correct":true,"confidence":3},{"trial_n":27,"n_dots":3.45,"target":"right","response":"right","rt":598,"correct":true,"confidence":4},{"trial_n":28,"n_dots":3.45,"target":"left","response":"left","rt":721,"correct":true,"confidence":5},{"trial_n":29,"n_dots":3.35,"target":"right","response":"right","rt":533,"correct":true,"confidence":4},{"trial_n":30,"n_dots":3.35,"target":"left","response":"right","rt":395,"correct":false,"confidence":5},{"trial_n":31,"n_dots":3.45,"target":"left","response":"right","rt":597,"correct":false,"confidence":4},{"trial_n":32,"n_dots":3.55,"target":"left","response":"left","rt":737,"correct":true,"confidence":3},{"trial_n":33,"n_dots":3.55,"target":"left","response":"left","rt":711,"correct":true,"confidence":4},{"trial_n":34,"n_dots":3.45,"target":"left","response":"left","rt":1135,"correct":true,"confidence":3},{"trial_n":35,"n_dots":3.45,"target":"left","response":"left","rt":868,"correct":true,"confidence":3},{"trial_n":36,"n_dots":3.35,"target":"right","response":"right","rt":940,"correct":true,"confidence":4},{"trial_n":37,"n_dots":3.35,"target":"right","response":"right","rt":851,"correct":true,"confidence":5},{"trial_n":38,"n_dots":3.25,"target":"left","response":"left","rt":650,"correct":true,"confidence":5},{"trial_n":39,"n_dots":3.25,"target":"left","response":"right","rt":837,"correct":false,"confidence":4},{"trial_n":40,"n_dots":3.35,"target":"left","response":"right","rt":1017,"correct":false,"confidence":4},{"trial_n":41,"n_dots":3.45,"target":"left","response":"left","rt":421,"correct":true,"confidence":5},{"trial_n":42,"n_dots":3.45,"target":"left","response":"left","rt":551,"correct":true,"confidence":5},{"trial_n":43,"n_dots":3.35,"target":"right","response":"right","rt":222,"correct":true,"confidence":5},{"trial_n":44,"n_dots":3.35,"target":"right","response":"right","rt":694,"correct":true,"confidence":4},{"trial_n":45,"n_dots":3.25,"target":"left","response":"left","rt":470,"correct":true,"confidence":5},{"trial_n":46,"n_dots":3.25,"target":"left","response":"right","rt":750,"correct":false,"confidence":3},{"trial_n":47,"n_dots":3.35,"target":"right","response":"right","rt":468,"correct":true,"confidence":3},{"trial_n":48,"n_dots":3.35,"target":"left","response":"left","rt":505,"correct":true,"confidence":4},{"trial_n":49,"n_dots":3.25,"target":"right","response":"right","rt":506,"correct":true,"confidence":4},{"trial_n":50,"n_dots":3.25,"target":"right","response":"right","rt":605,"correct":true,"confidence":3},{"trial_n":51,"n_dots":3.15,"target":"left","response":"left","rt":590,"correct":true,"confidence":3},{"trial_n":52,"n_dots":3.15,"target":"right","response":"right","rt":795,"correct":true,"confidence":3},{"trial_n":53,"n_dots":3.05,"target":"right","response":"right","rt":446,"correct":true,"confidence":5},{"trial_n":54,"n_dots":3.05,"target":"right","response":"right","rt":532,"correct":true,"confidence":5},{"trial_n":55,"n_dots":2.95,"target":"left","response":"left","rt":401,"correct":true,"confidence":5},{"trial_n":56,"n_dots":2.95,"target":"left","response":"right","rt":411,"correct":false,"confidence":5},{"trial_n":57,"n_dots":3.05,"target":"right","response":"right","rt":376,"correct":true,"confidence":5},{"trial_n":58,"n_dots":3.05,"target":"left","response":"left","rt":738,"correct":true,"confidence":4},{"trial_n":59,"n_dots":2.95,"target":"right","response":"right","rt":550,"correct":true,"confidence":4},{"trial_n":60,"n_dots":2.95,"target":"right","response":"right","rt":938,"correct":true,"confidence":4},{"trial_n":61,"n_dots":2.85,"target":"right","response":"right","rt":572,"correct":true,"confidence":4},{"trial_n":62,"n_dots":2.85,"target":"right","response":"right","rt":524,"correct":true,"confidence":4},{"trial_n":63,"n_dots":2.75,"target":"right","response":"right","rt":519,"correct":true,"confidence":4},{"trial_n":64,"n_dots":2.75,"target":"right","response":"right","rt":504,"correct":true,"confidence":4},{"trial_n":65,"n_dots":2.65,"target":"left","response":"left","rt":867,"correct":true,"confidence":3},{"trial_n":66,"n_dots":2.65,"target":"right","response":"right","rt":720,"correct":true,"confidence":3},{"trial_n":67,"n_dots":2.55,"target":"right","response":"left","rt":704,"correct":false,"confidence":3},{"trial_n":68,"n_dots":2.65,"target":"left","response":"left","rt":625,"correct":true,"confidence":3},{"trial_n":69,"n_dots":2.65,"target":"right","response":"right","rt":520,"correct":true,"confidence":3},{"trial_n":70,"n_dots":2.55,"target":"left","response":"left","rt":487,"correct":true,"confidence":4},{"trial_n":71,"n_dots":2.55,"target":"right","response":"right","rt":586,"correct":true,"confidence":5},{"trial_n":72,"n_dots":2.45,"target":"left","response":"right","rt":709,"correct":false,"confidence":3},{"trial_n":73,"n_dots":2.55,"target":"right","response":"right","rt":605,"correct":true,"confidence":3},{"trial_n":74,"n_dots":2.55,"target":"left","response":"left","rt":561,"correct":true,"confidence":5},{"trial_n":75,"n_dots":2.45,"target":"right","response":"right","rt":624,"correct":true,"confidence":4},{"trial_n":76,"n_dots":2.45,"target":"right","response":"right","rt":681,"correct":true,"confidence":3},{"trial_n":77,"n_dots":2.35,"target":"left","response":"left","rt":420,"correct":true,"confidence":4},{"trial_n":78,"n_dots":2.35,"target":"left","response":"left","rt":987,"correct":true,"confidence":3},{"trial_n":79,"n_dots":2.25,"target":"right","response":"right","rt":705,"correct":true,"confidence":3},{"trial_n":80,"n_dots":2.25,"target":"left","response":"right","rt":547,"correct":false,"confidence":3},{"trial_n":81,"n_dots":2.35,"target":"left","response":"left","rt":972,"correct":true,"confidence":3},{"trial_n":82,"n_dots":2.35,"target":"right","response":"right","rt":301,"correct":true,"confidence":5},{"trial_n":83,"n_dots":2.25,"target":"left","response":"right","rt":838,"correct":false,"confidence":3},{"trial_n":84,"n_dots":2.35,"target":"right","response":"right","rt":426,"correct":true,"confidence":4},{"trial_n":85,"n_dots":2.35,"target":"left","response":"right","rt":1168,"correct":false,"confidence":3},{"trial_n":86,"n_dots":2.45,"target":"left","response":"right","rt":693,"correct":false,"confidence":4},{"trial_n":87,"n_dots":2.55,"target":"left","response":"left","rt":938,"correct":true,"confidence":4},{"trial_n":88,"n_dots":2.55,"target":"left","response":"right","rt":904,"correct":false,"confidence":3},{"trial_n":89,"n_dots":2.65,"target":"right","response":"right","rt":718,"correct":true,"confidence":3},{"trial_n":90,"n_dots":2.65,"target":"right","response":"right","rt":618,"correct":true,"confidence":3},{"trial_n":91,"n_dots":2.55,"target":"left","response":"right","rt":504,"correct":false,"confidence":4},{"trial_n":92,"n_dots":2.65,"target":"left","response":"right","rt":523,"correct":false,"confidence":3},{"trial_n":93,"n_dots":2.75,"target":"left","response":"right","rt":1097,"correct":false,"confidence":4},{"trial_n":94,"n_dots":2.85,"target":"left","response":"right","rt":738,"correct":false,"confidence":3},{"trial_n":95,"n_dots":2.95,"target":"right","response":"right","rt":482,"correct":true,"confidence":5},{"trial_n":96,"n_dots":2.95,"target":"right","response":"right","rt":380,"correct":true,"confidence":4},{"trial_n":97,"n_dots":2.85,"target":"left","response":"right","rt":538,"correct":false,"confidence":3},{"trial_n":98,"n_dots":2.95,"target":"left","response":"right","rt":537,"correct":false,"confidence":3},{"trial_n":99,"n_dots":3.05,"target":"right","response":"right","rt":604,"correct":true,"confidence":3},{"trial_n":100,"n_dots":3.05,"target":"left","response":"left","rt":693,"correct":true,"confidence":3},{"trial_n":101,"n_dots":2.95,"target":"right","response":"right","rt":275,"correct":true,"confidence":3},{"trial_n":102,"n_dots":2.95,"target":"right","response":"right","rt":750,"correct":true,"confidence":3},{"trial_n":103,"n_dots":2.85,"target":"right","response":"right","rt":579,"correct":true,"confidence":4},{"trial_n":104,"n_dots":2.85,"target":"right","response":"right","rt":571,"correct":true,"confidence":3},{"trial_n":105,"n_dots":2.75,"target":"left","response":"right","rt":820,"correct":false,"confidence":3},{"trial_n":106,"n_dots":2.85,"target":"right","response":"right","rt":592,"correct":true,"confidence":3},{"trial_n":107,"n_dots":2.85,"target":"right","response":"right","rt":471,"correct":true,"confidence":3},{"trial_n":108,"n_dots":2.75,"target":"left","response":"left","rt":692,"correct":true,"confidence":3},{"trial_n":109,"n_dots":2.75,"target":"left","response":"left","rt":741,"correct":true,"confidence":4},{"trial_n":110,"n_dots":2.65,"target":"right","response":"left","rt":661,"correct":false,"confidence":3},{"trial_n":111,"n_dots":2.75,"target":"right","response":"right","rt":207,"correct":true,"confidence":4},{"trial_n":112,"n_dots":2.75,"target":"left","response":"left","rt":629,"correct":true,"confidence":4},{"trial_n":113,"n_dots":2.65,"target":"left","response":"left","rt":797,"correct":true,"confidence":4},{"trial_n":114,"n_dots":2.65,"target":"left","response":"left","rt":1100,"correct":true,"confidence":4},{"trial_n":115,"n_dots":2.55,"target":"right","response":"right","rt":1079,"correct":true,"confidence":1},{"trial_n":116,"n_dots":2.55,"target":"left","response":"left","rt":787,"correct":true,"confidence":4},{"trial_n":117,"n_dots":2.45,"target":"left","response":"left","rt":559,"correct":true,"confidence":5},{"trial_n":118,"n_dots":2.45,"target":"right","response":"left","rt":1946,"correct":false,"confidence":2},{"trial_n":119,"n_dots":2.55,"target":"left","response":"left","rt":640,"correct":true,"confidence":3},{"trial_n":120,"n_dots":2.55,"target":"right","response":"right","rt":940,"correct":true,"confidence":3}]