[{"trial_n":1,"n_dots":4.25,"target":"left","response":"left","rt":1438,"correct":true,"confidence":-1},{"trial_n":2,"n_dots":4.25,"target":"right","response":"right","rt":495,"correct":true,"confidence":-1},{"trial_n":3,"n_dots":3.85,"target":"left","response":"left","rt":128,"correct":true,"confidence":-1},{"trial_n":4,"n_dots":3.85,"target":"right","response":"right","rt":422,"correct":true,"confidence":-1},{"trial_n":5,"n_dots":3.45,"target":"right","response":"right","rt":435,"correct":true,"confidence":-1},{"trial_n":6,"n_dots":3.45,"target":"right","response":"right","rt":432,"correct":true,"confidence":-1},{"trial_n":7,"n_dots":3.05,"target":"left","response":"left","rt":485,"correct":true,"confidence":-1},{"trial_n":8,"n_dots":3.05,"target":"right","response":"right","rt":362.00000000001,"correct":true,"confidence":-1},{"trial_n":9,"n_dots":2.85,"target":"right","response":"right","rt":297.00000000001,"correct":true,"confidence":-1},{"trial_n":10,"n_dots":2.85,"target":"left","response":"left","rt":184.00000000001,"correct":true,"confidence":-1},{"trial_n":11,"n_dots":2.65,"target":"left","response":"right","rt":520,"correct":false,"confidence":-1},{"trial_n":12,"n_dots":2.85,"target":"right","response":"right","rt":287,"correct":true,"confidence":-1},{"trial_n":13,"n_dots":2.85,"target":"right","response":"right","rt":383.00000000001,"correct":true,"confidence":-1},{"trial_n":14,"n_dots":2.75,"target":"right","response":"right","rt":347,"correct":true,"confidence":-1},{"trial_n":15,"n_dots":2.75,"target":"right","response":"right","rt":387,"correct":true,"confidence":-1},{"trial_n":16,"n_dots":2.65,"target":"right","response":"right","rt":546.99999999999,"correct":true,"confidence":-1},{"trial_n":17,"n_dots":2.65,"target":"right","response":"left","rt":491,"correct":false,"confidence":-1},{"trial_n":18,"n_dots":2.75,"target":"left","response":"left","rt":312,"correct":true,"confidence":-1},{"trial_n":19,"n_dots":2.75,"target":"right","response":"left","rt":346,"correct":false,"confidence":-1},{"trial_n":20,"n_dots":2.85,"target":"left","response":"right","rt":142,"correct":false,"confidence":-1},{"trial_n":21,"n_dots":2.95,"target":"left","response":"right","rt":111,"correct":false,"confidence":3},{"trial_n":22,"n_dots":3.05,"target":"left","response":"left","rt":340.00000000001,"correct":true,"confidence":3},{"trial_n":23,"n_dots":3.05,"target":"right","response":"right","rt":404.00000000001,"correct":true,"confidence":5},{"trial_n":24,"n_dots":2.95,"target":"left","response":"right","rt":482,"correct":false,"confidence":3},{"trial_n":25,"n_dots":3.05,"target":"right","response":"right","rt":240,"correct":true,"confidence":5},{"trial_n":26,"n_dots":3.05,"target":"right","response":"right","rt":205,"correct":true,"confidence":5},{"trial_n":27,"n_dots":2.95,"target":"left","response":"right","rt":751,"correct":false,"confidence":5},{"trial_n":28,"n_dots":3.05,"target":"left","response":"left","rt":631,"correct":true,"confidence":3},{"trial_n":29,"n_dots":3.05,"target":"left","response":"left","rt":458,"correct":true,"confidence":3},{"trial_n":30,"n_dots":2.95,"target":"left","response":"left","rt":431.00000000001,"correct":true,"confidence":3},{"trial_n":31,"n_dots":2.95,"target":"right","response":"right","rt":469,"correct":true,"confidence":5},{"trial_n":32,"n_dots":2.85,"target":"left","response":"left","rt":427,"correct":true,"confidence":4},{"trial_n":33,"n_dots":2.85,"target":"left","response":"right","rt":418,"correct":false,"confidence":4},{"trial_n":34,"n_dots":2.95,"target":"left","response":"left","rt":441,"correct":true,"confidence":4},{"trial_n":35,"n_dots":2.95,"target":"left","response":"left","rt":202,"correct":true,"confidence":5},{"trial_n":36,"n_dots":2.85,"target":"left","response":"left","rt":242.00000000003,"correct":true,"confidence":5},{"trial_n":37,"n_dots":2.85,"target":"right","response":"left","rt":255,"correct":false,"confidence":5},{"trial_n":38,"n_dots":2.95,"target":"right","response":"right","rt":265,"correct":true,"confidence":5},{"trial_n":39,"n_dots":2.95,"target":"left","response":"left","rt":125,"correct":true,"confidence":5},{"trial_n":40,"n_dots":2.85,"target":"right","response":"right","rt":1104,"correct":true,"confidence":3},{"trial_n":41,"n_dots":2.85,"target":"left","response":"left","rt":163.99999999997,"correct":true,"confidence":4},{"trial_n":42,"n_dots":2.75,"target":"right","response":"right","rt":387,"correct":true,"confidence":5},{"trial_n":43,"n_dots":2.75,"target":"right","response":"left","rt":494,"correct":false,"confidence":4},{"trial_n":44,"n_dots":2.85,"target":"right","response":"right","rt":1228,"correct":true,"confidence":5},{"trial_n":45,"n_dots":2.85,"target":"right","response":"right","rt":242,"correct":true,"confidence":4},{"trial_n":46,"n_dots":2.75,"target":"right","response":"left","rt":971,"correct":false,"confidence":3},{"trial_n":47,"n_dots":2.85,"target":"right","response":"right","rt":298,"correct":true,"confidence":4},{"trial_n":48,"n_dots":2.85,"target":"right","response":"right","rt":347,"correct":true,"confidence":4},{"trial_n":49,"n_dots":2.75,"target":"right","response":"right","rt":76.999999999971,"correct":true,"confidence":4},{"trial_n":50,"n_dots":2.75,"target":"left","response":"right","rt":536,"correct":false,"confidence":4},{"trial_n":51,"n_dots":2.85,"target":"left","response":"left","rt":338,"correct":true,"confidence":3},{"trial_n":52,"n_dots":2.85,"target":"right","response":"right","rt":288,"correct":true,"confidence":4},{"trial_n":53,"n_dots":2.75,"target":"right","response":"right","rt":412.99999999997,"correct":true,"confidence":4},{"trial_n":54,"n_dots":2.75,"target":"right","response":"left","rt":459.00000000003,"correct":false,"confidence":3},{"trial_n":55,"n_dots":2.85,"target":"right","response":"left","rt":285,"correct":false,"confidence":3},{"trial_n":56,"n_dots":2.95,"target":"left","response":"left","rt":408,"correct":true,"confidence":4},{"trial_n":57,"n_dots":2.95,"target":"right","response":"right","rt":289,"correct":true,"confidence":5},{"trial_n":58,"n_dots":2.85,"target":"left","response":"left","rt":284,"correct":true,"confidence":3},{"trial_n":59,"n_dots":2.85,"target":"right","response":"right","rt":195,"correct":true,"confidence":4},{"trial_n":60,"n_dots":2.75,"target":"right","response":"left","rt":196.00000000003,"correct":false,"confidence":2},{"trial_n":61,"n_dots":2.85,"target":"left","response":"left","rt":401,"correct":true,"confidence":3},{"trial_n":62,"n_dots":2.85,"target":"left","response":"right","rt":52,"correct":false,"confidence":5},{"trial_n":63,"n_dots":2.95,"target":"left","response":"left","rt":384.00000000006,"correct":true,"confidence":4},{"trial_n":64,"n_dots":2.95,"target":"left","response":"left","rt":265.99999999994,"correct":true,"confidence":4},{"trial_n":65,"n_dots":2.85,"target":"left","response":"right","rt":226,"correct":false,"confidence":4},{"trial_n":66,"n_dots":2.95,"target":"right","response":"right","rt":382,"correct":true,"confidence":4},{"trial_n":67,"n_dots":2.95,"target":"right","response":"left","rt":553,"correct":false,"confidence":4},{"trial_n":68,"n_dots":3.05,"target":"right","response":"right","rt":244,"correct":true,"confidence":3},{"trial_n":69,"n_dots":3.05,"target":"left","response":"left","rt":434,"correct":true,"confidence":3},{"trial_n":70,"n_dots":2.95,"target":"left","response":"right","rt":332,"correct":false,"confidence":3},{"trial_n":71,"n_dots":3.05,"target":"right","response":"right","rt":286,"correct":true,"confidence":3},{"trial_n":72,"n_dots":3.05,"target":"right","response":"left","rt":510,"correct":false,"confidence":1},{"trial_n":73,"n_dots":3.15,"target":"left","response":"left","rt":125,"correct":true,"confidence":2},{"trial_n":74,"n_dots":3.15,"target":"left","response":"left","rt":191,"correct":true,"confidence":4},{"trial_n":75,"n_dots":3.05,"target":"right","response":"left","rt":165,"correct":false,"confidence":3},{"trial_n":76,"n_dots":3.15,"target":"left","response":"left","rt":157,"correct":true,"confidence":4},{"trial_n":77,"n_dots":3.15,"target":"left","response":"left","rt":799,"correct":true,"confidence":5},{"trial_n":78,"n_dots":3.05,"target":"left","response":"left","rt":158,"correct":true,"confidence":5},{"trial_n":79,"n_dots":3.05,"target":"left","response":"left","rt":250.99999999994,"correct":true,"confidence":4},{"trial_n":80,"n_dots":2.95,"target":"right","response":"right","rt":194,"correct":true,"confidence":4},{"trial_n":81,"n_dots":2.95,"target":"left","response":"left","rt":111,"correct":true,"confidence":4},{"trial_n":82,"n_dots":2.85,"target":"left","response":"left","rt":718,"correct":true,"confidence":4},{"trial_n":83,"n_dots":2.85,"target":"right","response":"left","rt":68,"correct":false,"confidence":4},{"trial_n":84,"n_dots":2.95,"target":"left","response":"left","rt":218.00000000006,"correct":true,"confidence":4},{"trial_n":85,"n_dots":2.95,"target":"right","response":"right","rt":185,"correct":true,"confidence":5},{"trial_n":86,"n_dots":2.85,"target":"left","response":"left","rt":158,"correct":true,"confidence":4},{"trial_n":87,"n_dots":2.85,"target":"left","response":"left","rt":666.99999999994,"correct":true,"confidence":4},{"trial_n":88,"n_dots":2.75,"target":"left","response":"right","rt":98,"correct":false,"confidence":4},{"trial_n":89,"n_dots":2.85,"target":"left","response":"left","rt":11,"correct":true,"confidence":5},{"trial_n":90,"n_dots":2.85,"target":"right","response":"left","rt":330,"correct":false,"confidence":2},{"trial_n":91,"n_dots":2.95,"target":"left","response":"left","rt":192.00000000006,"correct":true,"confidence":3},{"trial_n":92,"n_dots":2.95,"target":"right","response":"right","rt":156.00000000006,"correct":true,"confidence":4},{"trial_n":93,"n_dots":2.85,"target":"right","response":"right","rt":375,"correct":true,"confidence":4},{"trial_n":94,"n_dots":2.85,"target":"right","response":"right","rt":500,"correct":true,"confidence":4},{"trial_n":95,"n_dots":2.75,"target":"left","response":"left","rt":545,"correct":true,"confidence":4},{"trial_n":96,"n_dots":2.75,"target":"right","response":"right","rt":144.00000000006,"correct":true,"confidence":4},{"trial_n":97,"n_dots":2.65,"target":"left","response":"right","rt":66,"correct":false,"confidence":4},{"trial_n":98,"n_dots":2.75,"target":"left","response":"right","rt":435,"correct":false,"confidence":3},{"trial_n":99,"n_dots":2.85,"target":"left","response":"right","rt":716.00000000006,"correct":false,"confidence":4},{"trial_n":100,"n_dots":2.95,"target":"left","response":"left","rt":492,"correct":true,"confidence":3},{"trial_n":101,"n_dots":2.95,"target":"left","response":"right","rt":352.00000000012,"correct":false,"confidence":1},{"trial_n":102,"n_dots":3.05,"target":"left","response":"right","rt":368,"correct":false,"confidence":3},{"trial_n":103,"n_dots":3.15,"target":"left","response":"left","rt":1561,"correct":true,"confidence":1},{"trial_n":104,"n_dots":3.15,"target":"right","response":"right","rt":480,"correct":true,"confidence":4},{"trial_n":105,"n_dots":3.05,"target":"right","response":"right","rt":14,"correct":true,"confidence":4},{"trial_n":106,"n_dots":3.05,"target":"left","response":"right","rt":34.000000000116,"correct":false,"confidence":4},{"trial_n":107,"n_dots":3.15,"target":"left","response":"left","rt":60.000000000116,"correct":true,"confidence":4},{"trial_n":108,"n_dots":3.15,"target":"left","response":"right","rt":335,"correct":false,"confidence":3},{"trial_n":109,"n_dots":3.25,"target":"right","response":"right","rt":195,"correct":true,"confidence":3},{"trial_n":110,"n_dots":3.25,"target":"right","response":"right","rt":93.000000000116,"correct":true,"confidence":4},{"trial_n":111,"n_dots":3.15,"target":"left","response":"left","rt":40,"correct":true,"confidence":5},{"trial_n":112,"n_dots":3.15,"target":"right","response":"left","rt":187.00000000012,"correct":false,"confidence":5},{"trial_n":113,"n_dots":3.25,"target":"right","response":"left","rt":260,"correct":false,"confidence":4},{"trial_n":114,"n_dots":3.35,"target":"left","response":"left","rt":-30,"correct":true,"confidence":4},{"trial_n":115,"n_dots":3.35,"target":"right","response":"right","rt":242,"correct":true,"confidence":5},{"trial_n":116,"n_dots":3.25,"target":"right","response":"right","rt":111,"correct":true,"confidence":4},{"trial_n":117,"n_dots":3.25,"target":"left","response":"left","rt":107.99999999977,"correct":true,"confidence":4},{"trial_n":118,"n_dots":3.15,"target":"right","response":"left","rt":50,"correct":false,"confidence":5},{"trial_n":119,"n_dots":3.25,"target":"right","response":"right","rt":120,"correct":true,"confidence":5},{"trial_n":120,"n_dots":3.25,"target":"right","response":"right","rt":103,"correct":true,"confidence":4}]