[{"trial_n":1,"min":25,"max":230,"target":"present","response":"absent","rt":6328,"correct":false,"confidence":-1},{"trial_n":2,"min":25,"max":230,"target":"present","response":"present","rt":1026,"correct":true,"confidence":-1},{"trial_n":3,"min":25,"max":230,"target":"absent","response":"absent","rt":1038,"correct":true,"confidence":-1},{"trial_n":4,"min":41,"max":214,"target":"absent","response":"absent","rt":496,"correct":true,"confidence":-1},{"trial_n":5,"min":41,"max":214,"target":"present","response":"present","rt":797,"correct":true,"confidence":-1},{"trial_n":6,"min":57,"max":198,"target":"absent","response":"absent","rt":817,"correct":true,"confidence":-1},{"trial_n":7,"min":57,"max":198,"target":"present","response":"present","rt":810,"correct":true,"confidence":-1},{"trial_n":8,"min":73,"max":182,"target":"present","response":"present","rt":600,"correct":true,"confidence":-1},{"trial_n":9,"min":73,"max":182,"target":"present","response":"present","rt":463,"correct":true,"confidence":-1},{"trial_n":10,"min":89,"max":166,"target":"present","response":"present","rt":791,"correct":true,"confidence":-1},{"trial_n":11,"min":89,"max":166,"target":"absent","response":"absent","rt":644,"correct":true,"confidence":-1},{"trial_n":12,"min":97,"max":158,"target":"absent","response":"absent","rt":713,"correct":true,"confidence":-1},{"trial_n":13,"min":97,"max":158,"target":"absent","response":"absent","rt":404,"correct":true,"confidence":-1},{"trial_n":14,"min":105,"max":150,"target":"present","response":"absent","rt":445,"correct":false,"confidence":-1},{"trial_n":15,"min":97,"max":158,"target":"absent","response":"absent","rt":601.00000000001,"correct":true,"confidence":-1},{"trial_n":16,"min":97,"max":158,"target":"absent","response":"absent","rt":522,"correct":true,"confidence":-1},{"trial_n":17,"min":105,"max":150,"target":"present","response":"absent","rt":489.00000000001,"correct":false,"confidence":-1},{"trial_n":18,"min":97,"max":158,"target":"present","response":"absent","rt":531,"correct":false,"confidence":-1},{"trial_n":19,"min":89,"max":166,"target":"absent","response":"absent","rt":564,"correct":true,"confidence":-1},{"trial_n":20,"min":89,"max":166,"target":"absent","response":"absent","rt":727,"correct":true,"confidence":-1},{"trial_n":21,"min":93,"max":162,"target":"absent","response":"present","rt":921.99999999999,"correct":false,"confidence":3},{"trial_n":22,"min":89,"max":166,"target":"present","response":"present","rt":906,"correct":true,"confidence":3},{"trial_n":23,"min":89,"max":166,"target":"absent","response":"present","rt":1039,"correct":false,"confidence":4},{"trial_n":24,"min":85,"max":170,"target":"absent","response":"absent","rt":644.00000000001,"correct":true,"confidence":4},{"trial_n":25,"min":85,"max":170,"target":"absent","response":"absent","rt":872.99999999999,"correct":true,"confidence":4},{"trial_n":26,"min":89,"max":166,"target":"present","response":"present","rt":544.99999999999,"correct":true,"confidence":3},{"trial_n":27,"min":89,"max":166,"target":"absent","response":"present","rt":661,"correct":false,"confidence":4},{"trial_n":28,"min":85,"max":170,"target":"absent","response":"present","rt":559,"correct":false,"confidence":5},{"trial_n":29,"min":81,"max":174,"target":"present","response":"present","rt":601,"correct":true,"confidence":5},{"trial_n":30,"min":81,"max":174,"target":"absent","response":"absent","rt":826,"correct":true,"confidence":3},{"trial_n":31,"min":83,"max":172,"target":"absent","response":"present","rt":622,"correct":false,"confidence":3},{"trial_n":32,"min":81,"max":174,"target":"present","response":"present","rt":639,"correct":true,"confidence":4},{"trial_n":33,"min":81,"max":174,"target":"present","response":"present","rt":708.00000000001,"correct":true,"confidence":3},{"trial_n":34,"min":83,"max":172,"target":"present","response":"absent","rt":895,"correct":false,"confidence":3},{"trial_n":35,"min":81,"max":174,"target":"present","response":"present","rt":569,"correct":true,"confidence":5},{"trial_n":36,"min":81,"max":174,"target":"present","response":"present","rt":555,"correct":true,"confidence":5},{"trial_n":37,"min":83,"max":172,"target":"absent","response":"absent","rt":908,"correct":true,"confidence":5},{"trial_n":38,"min":83,"max":172,"target":"absent","response":"absent","rt":660,"correct":true,"confidence":4},{"trial_n":39,"min":85,"max":170,"target":"present","response":"present","rt":801,"correct":true,"confidence":3},{"trial_n":40,"min":85,"max":170,"target":"present","response":"present","rt":569,"correct":true,"confidence":4},{"trial_n":41,"min":86,"max":169,"target":"absent","response":"present","rt":793,"correct":false,"confidence":3},{"trial_n":42,"min":85,"max":170,"target":"present","response":"present","rt":906.00000000003,"correct":true,"confidence":4},{"trial_n":43,"min":85,"max":170,"target":"absent","response":"present","rt":560,"correct":false,"confidence":3},{"trial_n":44,"min":84,"max":171,"target":"present","response":"absent","rt":708,"correct":false,"confidence":2},{"trial_n":45,"min":83,"max":172,"target":"present","response":"present","rt":612,"correct":true,"confidence":3},{"trial_n":46,"min":83,"max":172,"target":"present","response":"present","rt":582.00000000003,"correct":true,"confidence":2},{"trial_n":47,"min":84,"max":171,"target":"absent","response":"present","rt":676,"correct":false,"confidence":4},{"trial_n":48,"min":83,"max":172,"target":"absent","response":"present","rt":576.00000000003,"correct":false,"confidence":4},{"trial_n":49,"min":82,"max":173,"target":"present","response":"present","rt":536,"correct":true,"confidence":5},{"trial_n":50,"min":82,"max":173,"target":"absent","response":"present","rt":703.99999999997,"correct":false,"confidence":3},{"trial_n":51,"min":81,"max":174,"target":"present","response":"present","rt":950,"correct":true,"confidence":4},{"trial_n":52,"min":81,"max":174,"target":"present","response":"absent","rt":947,"correct":false,"confidence":3},{"trial_n":53,"min":80,"max":175,"target":"present","response":"absent","rt":681.99999999997,"correct":false,"confidence":4},{"trial_n":54,"min":79,"max":176,"target":"present","response":"present","rt":744.99999999997,"correct":true,"confidence":2},{"trial_n":55,"min":79,"max":176,"target":"absent","response":"absent","rt":1504,"correct":true,"confidence":4},{"trial_n":56,"min":80,"max":175,"target":"absent","response":"absent","rt":756,"correct":true,"confidence":4},{"trial_n":57,"min":80,"max":175,"target":"present","response":"present","rt":586,"correct":true,"confidence":4},{"trial_n":58,"min":81,"max":174,"target":"present","response":"present","rt":533,"correct":true,"confidence":4},{"trial_n":59,"min":81,"max":174,"target":"present","response":"present","rt":555,"correct":true,"confidence":5},{"trial_n":60,"min":82,"max":173,"target":"present","response":"absent","rt":1056,"correct":false,"confidence":2},{"trial_n":61,"min":81,"max":174,"target":"present","response":"present","rt":996,"correct":true,"confidence":3},{"trial_n":62,"min":81,"max":174,"target":"absent","response":"present","rt":576,"correct":false,"confidence":4},{"trial_n":63,"min":80,"max":175,"target":"present","response":"present","rt":480.00000000003,"correct":true,"confidence":5},{"trial_n":64,"min":80,"max":175,"target":"absent","response":"absent","rt":531,"correct":true,"confidence":5},{"trial_n":65,"min":81,"max":174,"target":"present","response":"absent","rt":1404,"correct":false,"confidence":4},{"trial_n":66,"min":80,"max":175,"target":"absent","response":"absent","rt":596,"correct":true,"confidence":4},{"trial_n":67,"min":80,"max":175,"target":"absent","response":"absent","rt":663,"correct":true,"confidence":4},{"trial_n":68,"min":81,"max":174,"target":"absent","response":"absent","rt":663.99999999997,"correct":true,"confidence":4},{"trial_n":69,"min":81,"max":174,"target":"absent","response":"absent","rt":1058,"correct":true,"confidence":3},{"trial_n":70,"min":82,"max":173,"target":"absent","response":"absent","rt":684.99999999997,"correct":true,"confidence":3},{"trial_n":71,"min":41,"max":214,"target":"present","response":"present","rt":2818,"correct":true,"confidence":-1},{"trial_n":72,"min":41,"max":214,"target":"present","response":"present","rt":607,"correct":true,"confidence":-1},{"trial_n":73,"min":57,"max":198,"target":"absent","response":"absent","rt":1462,"correct":true,"confidence":-1},{"trial_n":74,"min":57,"max":198,"target":"absent","response":"absent","rt":1101,"correct":true,"confidence":-1},{"trial_n":75,"min":73,"max":182,"target":"present","response":"present","rt":808,"correct":true,"confidence":-1},{"trial_n":76,"min":73,"max":182,"target":"absent","response":"absent","rt":884,"correct":true,"confidence":-1},{"trial_n":77,"min":89,"max":166,"target":"present","response":"present","rt":796,"correct":true,"confidence":-1},{"trial_n":78,"min":89,"max":166,"target":"absent","response":"absent","rt":856,"correct":true,"confidence":-1},{"trial_n":79,"min":105,"max":150,"target":"present","response":"present","rt":763,"correct":true,"confidence":-1},{"trial_n":80,"min":105,"max":150,"target":"present","response":"present","rt":767,"correct":true,"confidence":-1},{"trial_n":81,"min":113,"max":142,"target":"absent","response":"present","rt":662,"correct":false,"confidence":-1},{"trial_n":82,"min":105,"max":150,"target":"absent","response":"present","rt":1152,"correct":false,"confidence":-1},{"trial_n":83,"min":97,"max":158,"target":"present","response":"present","rt":903,"correct":true,"confidence":-1},{"trial_n":84,"min":97,"max":158,"target":"absent","response":"absent","rt":667,"correct":true,"confidence":-1},{"trial_n":85,"min":105,"max":150,"target":"present","response":"absent","rt":645,"correct":false,"confidence":-1},{"trial_n":86,"min":97,"max":158,"target":"absent","response":"present","rt":762,"correct":false,"confidence":-1},{"trial_n":87,"min":89,"max":166,"target":"present","response":"present","rt":1058,"correct":true,"confidence":-1},{"trial_n":88,"min":89,"max":166,"target":"present","response":"present","rt":645,"correct":true,"confidence":-1},{"trial_n":89,"min":97,"max":158,"target":"present","response":"present","rt":629,"correct":true,"confidence":-1},{"trial_n":90,"min":97,"max":158,"target":"present","response":"present","rt":645.99999999994,"correct":true,"confidence":-1},{"trial_n":91,"min":101,"max":154,"target":"present","response":"present","rt":681,"correct":true,"confidence":3},{"trial_n":92,"min":101,"max":154,"target":"absent","response":"present","rt":642,"correct":false,"confidence":4},{"trial_n":93,"min":97,"max":158,"target":"absent","response":"present","rt":851,"correct":false,"confidence":4},{"trial_n":94,"min":93,"max":162,"target":"present","response":"present","rt":1056,"correct":true,"confidence":5},{"trial_n":95,"min":93,"max":162,"target":"absent","response":"present","rt":654,"correct":false,"confidence":3},{"trial_n":96,"min":89,"max":166,"target":"absent","response":"present","rt":724,"correct":false,"confidence":4},{"trial_n":97,"min":85,"max":170,"target":"present","response":"present","rt":740,"correct":true,"confidence":4},{"trial_n":98,"min":85,"max":170,"target":"absent","response":"absent","rt":679,"correct":true,"confidence":5},{"trial_n":99,"min":89,"max":166,"target":"absent","response":"absent","rt":1193,"correct":true,"confidence":4},{"trial_n":100,"min":89,"max":166,"target":"absent","response":"present","rt":723,"correct":false,"confidence":4},{"trial_n":101,"min":87,"max":168,"target":"present","response":"present","rt":744,"correct":true,"confidence":3},{"trial_n":102,"min":87,"max":168,"target":"absent","response":"absent","rt":1020,"correct":true,"confidence":3},{"trial_n":103,"min":89,"max":166,"target":"present","response":"present","rt":1435,"correct":true,"confidence":4},{"trial_n":104,"min":89,"max":166,"target":"present","response":"present","rt":815.99999999994,"correct":true,"confidence":4},{"trial_n":105,"min":91,"max":164,"target":"absent","response":"absent","rt":671,"correct":true,"confidence":2},{"trial_n":106,"min":91,"max":164,"target":"absent","response":"absent","rt":1188,"correct":true,"confidence":3},{"trial_n":107,"min":93,"max":162,"target":"present","response":"present","rt":678.99999999994,"correct":true,"confidence":3},{"trial_n":108,"min":93,"max":162,"target":"present","response":"present","rt":653,"correct":true,"confidence":4},{"trial_n":109,"min":95,"max":160,"target":"absent","response":"present","rt":704,"correct":false,"confidence":4},{"trial_n":110,"min":93,"max":162,"target":"present","response":"present","rt":1012,"correct":true,"confidence":5},{"trial_n":111,"min":93,"max":162,"target":"present","response":"present","rt":560,"correct":true,"confidence":5},{"trial_n":112,"min":94,"max":161,"target":"present","response":"present","rt":692,"correct":true,"confidence":4},{"trial_n":113,"min":94,"max":161,"target":"present","response":"present","rt":822,"correct":true,"confidence":4},{"trial_n":114,"min":95,"max":160,"target":"present","response":"present","rt":863,"correct":true,"confidence":3},{"trial_n":115,"min":95,"max":160,"target":"absent","response":"present","rt":685,"correct":false,"confidence":3},{"trial_n":116,"min":94,"max":161,"target":"present","response":"absent","rt":768,"correct":false,"confidence":3},{"trial_n":117,"min":93,"max":162,"target":"absent","response":"present","rt":621,"correct":false,"confidence":3},{"trial_n":118,"min":92,"max":163,"target":"present","response":"absent","rt":953,"correct":false,"confidence":2},{"trial_n":119,"min":91,"max":164,"target":"absent","response":"present","rt":2648,"correct":false,"confidence":3},{"trial_n":120,"min":90,"max":165,"target":"present","response":"present","rt":1039,"correct":true,"confidence":2},{"trial_n":121,"min":90,"max":165,"target":"absent","response":"absent","rt":1033.0000000001,"correct":true,"confidence":4},{"trial_n":122,"min":91,"max":164,"target":"absent","response":"absent","rt":1228.9999999999,"correct":true,"confidence":4},{"trial_n":123,"min":91,"max":164,"target":"absent","response":"present","rt":680,"correct":false,"confidence":3},{"trial_n":124,"min":90,"max":165,"target":"present","response":"present","rt":941.99999999994,"correct":true,"confidence":2},{"trial_n":125,"min":90,"max":165,"target":"present","response":"absent","rt":1029,"correct":false,"confidence":2},{"trial_n":126,"min":89,"max":166,"target":"absent","response":"present","rt":466.00000000006,"correct":false,"confidence":3},{"trial_n":127,"min":88,"max":167,"target":"absent","response":"present","rt":1009.9999999999,"correct":false,"confidence":3},{"trial_n":128,"min":87,"max":168,"target":"absent","response":"present","rt":1479,"correct":false,"confidence":4},{"trial_n":129,"min":86,"max":169,"target":"present","response":"present","rt":558,"correct":true,"confidence":5},{"trial_n":130,"min":86,"max":169,"target":"absent","response":"present","rt":1671.9999999999,"correct":false,"confidence":1},{"trial_n":131,"min":85,"max":170,"target":"absent","response":"present","rt":521.00000000006,"correct":false,"confidence":4},{"trial_n":132,"min":84,"max":171,"target":"absent","response":"present","rt":971,"correct":false,"confidence":4},{"trial_n":133,"min":83,"max":172,"target":"present","response":"present","rt":726,"correct":true,"confidence":4},{"trial_n":134,"min":83,"max":172,"target":"present","response":"present","rt":660,"correct":true,"confidence":5},{"trial_n":135,"min":84,"max":171,"target":"present","response":"absent","rt":793.00000000006,"correct":false,"confidence":4},{"trial_n":136,"min":83,"max":172,"target":"present","response":"present","rt":689,"correct":true,"confidence":3},{"trial_n":137,"min":83,"max":172,"target":"absent","response":"absent","rt":738,"correct":true,"confidence":4},{"trial_n":138,"min":84,"max":171,"target":"absent","response":"present","rt":807,"correct":false,"confidence":1},{"trial_n":139,"min":83,"max":172,"target":"absent","response":"absent","rt":840,"correct":true,"confidence":3},{"trial_n":140,"min":83,"max":172,"target":"present","response":"present","rt":682,"correct":true,"confidence":3}]