[{"trial_n":1,"min":25,"max":230,"target":"present","response":"absent","rt":17510,"correct":false,"confidence":-1},{"trial_n":2,"min":25,"max":230,"target":"present","response":"present","rt":1320,"correct":true,"confidence":-1},{"trial_n":3,"min":25,"max":230,"target":"absent","response":"absent","rt":887,"correct":true,"confidence":-1},{"trial_n":4,"min":41,"max":214,"target":"absent","response":"absent","rt":717,"correct":true,"confidence":-1},{"trial_n":5,"min":41,"max":214,"target":"present","response":"present","rt":893,"correct":true,"confidence":-1},{"trial_n":6,"min":57,"max":198,"target":"present","response":"present","rt":1856,"correct":true,"confidence":-1},{"trial_n":7,"min":57,"max":198,"target":"absent","response":"absent","rt":1153,"correct":true,"confidence":-1},{"trial_n":8,"min":73,"max":182,"target":"present","response":"present","rt":1127,"correct":true,"confidence":-1},{"trial_n":9,"min":73,"max":182,"target":"present","response":"present","rt":1509,"correct":true,"confidence":-1},{"trial_n":10,"min":89,"max":166,"target":"absent","response":"present","rt":1200,"correct":false,"confidence":-1},{"trial_n":11,"min":81,"max":174,"target":"present","response":"absent","rt":990,"correct":false,"confidence":-1},{"trial_n":12,"min":73,"max":182,"target":"present","response":"absent","rt":1344,"correct":false,"confidence":-1},{"trial_n":13,"min":65,"max":190,"target":"present","response":"present","rt":845,"correct":true,"confidence":-1},{"trial_n":14,"min":65,"max":190,"target":"present","response":"present","rt":1129,"correct":true,"confidence":-1},{"trial_n":15,"min":73,"max":182,"target":"absent","response":"absent","rt":2519,"correct":true,"confidence":-1},{"trial_n":16,"min":73,"max":182,"target":"present","response":"present","rt":837,"correct":true,"confidence":-1},{"trial_n":17,"min":81,"max":174,"target":"absent","response":"present","rt":1969,"correct":false,"confidence":-1},{"trial_n":18,"min":73,"max":182,"target":"absent","response":"present","rt":1048,"correct":false,"confidence":-1},{"trial_n":19,"min":65,"max":190,"target":"absent","response":"present","rt":1531,"correct":false,"confidence":-1},{"trial_n":20,"min":57,"max":198,"target":"absent","response":"absent","rt":1200,"correct":true,"confidence":-1},{"trial_n":21,"min":57,"max":198,"target":"present","response":"present","rt":837,"correct":true,"confidence":5},{"trial_n":22,"min":61,"max":194,"target":"present","response":"present","rt":1079,"correct":true,"confidence":5},{"trial_n":23,"min":61,"max":194,"target":"present","response":"present","rt":779,"correct":true,"confidence":5},{"trial_n":24,"min":65,"max":190,"target":"absent","response":"absent","rt":1892,"correct":true,"confidence":4},{"trial_n":25,"min":65,"max":190,"target":"absent","response":"absent","rt":1625,"correct":true,"confidence":4},{"trial_n":26,"min":69,"max":186,"target":"present","response":"present","rt":1032,"correct":true,"confidence":5},{"trial_n":27,"min":69,"max":186,"target":"present","response":"present","rt":1496,"correct":true,"confidence":3},{"trial_n":28,"min":73,"max":182,"target":"present","response":"present","rt":883,"correct":true,"confidence":5},{"trial_n":29,"min":73,"max":182,"target":"absent","response":"absent","rt":1103,"correct":true,"confidence":4},{"trial_n":30,"min":77,"max":178,"target":"present","response":"present","rt":1263,"correct":true,"confidence":5},{"trial_n":31,"min":77,"max":178,"target":"present","response":"present","rt":886,"correct":true,"confidence":5},{"trial_n":32,"min":79,"max":176,"target":"absent","response":"absent","rt":1589,"correct":true,"confidence":4},{"trial_n":33,"min":79,"max":176,"target":"absent","response":"absent","rt":1112,"correct":true,"confidence":5},{"trial_n":34,"min":81,"max":174,"target":"present","response":"present","rt":947,"correct":true,"confidence":4},{"trial_n":35,"min":81,"max":174,"target":"absent","response":"absent","rt":1060,"correct":true,"confidence":5},{"trial_n":36,"min":83,"max":172,"target":"absent","response":"absent","rt":906,"correct":true,"confidence":5},{"trial_n":37,"min":83,"max":172,"target":"present","response":"absent","rt":2216,"correct":false,"confidence":3},{"trial_n":38,"min":81,"max":174,"target":"present","response":"present","rt":1095,"correct":true,"confidence":4},{"trial_n":39,"min":81,"max":174,"target":"present","response":"present","rt":1681,"correct":true,"confidence":3},{"trial_n":40,"min":83,"max":172,"target":"absent","response":"absent","rt":1024,"correct":true,"confidence":5},{"trial_n":41,"min":83,"max":172,"target":"present","response":"present","rt":2916,"correct":true,"confidence":3},{"trial_n":42,"min":84,"max":171,"target":"absent","response":"absent","rt":1157,"correct":true,"confidence":5},{"trial_n":43,"min":84,"max":171,"target":"absent","response":"absent","rt":1074,"correct":true,"confidence":5},{"trial_n":44,"min":85,"max":170,"target":"absent","response":"absent","rt":991,"correct":true,"confidence":5},{"trial_n":45,"min":85,"max":170,"target":"absent","response":"absent","rt":1025,"correct":true,"confidence":5},{"trial_n":46,"min":86,"max":169,"target":"absent","response":"absent","rt":1503,"correct":true,"confidence":5},{"trial_n":47,"min":86,"max":169,"target":"present","response":"present","rt":1263,"correct":true,"confidence":3},{"trial_n":48,"min":87,"max":168,"target":"absent","response":"absent","rt":1474,"correct":true,"confidence":4},{"trial_n":49,"min":87,"max":168,"target":"present","response":"absent","rt":1163,"correct":false,"confidence":4},{"trial_n":50,"min":86,"max":169,"target":"absent","response":"absent","rt":888,"correct":true,"confidence":4},{"trial_n":51,"min":86,"max":169,"target":"present","response":"present","rt":1075,"correct":true,"confidence":3},{"trial_n":52,"min":87,"max":168,"target":"absent","response":"absent","rt":2273,"correct":true,"confidence":1},{"trial_n":53,"min":87,"max":168,"target":"present","response":"absent","rt":1136,"correct":false,"confidence":1},{"trial_n":54,"min":86,"max":169,"target":"present","response":"absent","rt":2547,"correct":false,"confidence":4},{"trial_n":55,"min":85,"max":170,"target":"present","response":"present","rt":1384,"correct":true,"confidence":4},{"trial_n":56,"min":85,"max":170,"target":"present","response":"absent","rt":1687,"correct":false,"confidence":4},{"trial_n":57,"min":84,"max":171,"target":"absent","response":"absent","rt":987,"correct":true,"confidence":4},{"trial_n":58,"min":84,"max":171,"target":"present","response":"absent","rt":1097,"correct":false,"confidence":4},{"trial_n":59,"min":83,"max":172,"target":"absent","response":"absent","rt":1360,"correct":true,"confidence":4},{"trial_n":60,"min":83,"max":172,"target":"present","response":"present","rt":1286,"correct":true,"confidence":4},{"trial_n":61,"min":84,"max":171,"target":"absent","response":"absent","rt":1310,"correct":true,"confidence":4},{"trial_n":62,"min":84,"max":171,"target":"absent","response":"absent","rt":953,"correct":true,"confidence":4},{"trial_n":63,"min":85,"max":170,"target":"absent","response":"absent","rt":1056,"correct":true,"confidence":4},{"trial_n":64,"min":85,"max":170,"target":"present","response":"present","rt":996,"correct":true,"confidence":4},{"trial_n":65,"min":86,"max":169,"target":"present","response":"absent","rt":2020,"correct":false,"confidence":4},{"trial_n":66,"min":85,"max":170,"target":"present","response":"present","rt":999,"correct":true,"confidence":4},{"trial_n":67,"min":85,"max":170,"target":"absent","response":"absent","rt":1237,"correct":true,"confidence":4},{"trial_n":68,"min":86,"max":169,"target":"absent","response":"absent","rt":1004,"correct":true,"confidence":4},{"trial_n":69,"min":86,"max":169,"target":"absent","response":"absent","rt":1937,"correct":true,"confidence":4},{"trial_n":70,"min":87,"max":168,"target":"absent","response":"absent","rt":2955,"correct":true,"confidence":4},{"trial_n":71,"min":41,"max":214,"target":"present","response":"absent","rt":7458,"correct":false,"confidence":-1},{"trial_n":72,"min":41,"max":214,"target":"present","response":"present","rt":2048,"correct":true,"confidence":-1},{"trial_n":73,"min":41,"max":214,"target":"absent","response":"absent","rt":1373,"correct":true,"confidence":-1},{"trial_n":74,"min":57,"max":198,"target":"absent","response":"absent","rt":1515,"correct":true,"confidence":-1},{"trial_n":75,"min":57,"max":198,"target":"present","response":"present","rt":817,"correct":true,"confidence":-1},{"trial_n":76,"min":73,"max":182,"target":"present","response":"present","rt":1104,"correct":true,"confidence":-1},{"trial_n":77,"min":73,"max":182,"target":"absent","response":"absent","rt":1054,"correct":true,"confidence":-1},{"trial_n":78,"min":89,"max":166,"target":"present","response":"present","rt":2010,"correct":true,"confidence":-1},{"trial_n":79,"min":89,"max":166,"target":"absent","response":"present","rt":2099,"correct":false,"confidence":-1},{"trial_n":80,"min":73,"max":182,"target":"absent","response":"absent","rt":987,"correct":true,"confidence":-1},{"trial_n":81,"min":73,"max":182,"target":"present","response":"present","rt":779,"correct":true,"confidence":-1},{"trial_n":82,"min":81,"max":174,"target":"absent","response":"absent","rt":949,"correct":true,"confidence":-1},{"trial_n":83,"min":81,"max":174,"target":"present","response":"present","rt":911,"correct":true,"confidence":-1},{"trial_n":84,"min":89,"max":166,"target":"absent","response":"absent","rt":1412,"correct":true,"confidence":-1},{"trial_n":85,"min":89,"max":166,"target":"absent","response":"present","rt":1545,"correct":false,"confidence":-1},{"trial_n":86,"min":81,"max":174,"target":"present","response":"present","rt":780,"correct":true,"confidence":-1},{"trial_n":87,"min":81,"max":174,"target":"present","response":"present","rt":656,"correct":true,"confidence":-1},{"trial_n":88,"min":89,"max":166,"target":"absent","response":"present","rt":1352,"correct":false,"confidence":-1},{"trial_n":89,"min":81,"max":174,"target":"present","response":"present","rt":811,"correct":true,"confidence":-1},{"trial_n":90,"min":81,"max":174,"target":"absent","response":"absent","rt":1718,"correct":true,"confidence":-1},{"trial_n":91,"min":85,"max":170,"target":"absent","response":"absent","rt":919,"correct":true,"confidence":5},{"trial_n":92,"min":85,"max":170,"target":"present","response":"present","rt":755,"correct":true,"confidence":5},{"trial_n":93,"min":89,"max":166,"target":"absent","response":"absent","rt":966,"correct":true,"confidence":5},{"trial_n":94,"min":89,"max":166,"target":"present","response":"present","rt":1634,"correct":true,"confidence":5},{"trial_n":95,"min":93,"max":162,"target":"absent","response":"present","rt":1292,"correct":false,"confidence":3},{"trial_n":96,"min":89,"max":166,"target":"present","response":"absent","rt":1154,"correct":false,"confidence":2},{"trial_n":97,"min":85,"max":170,"target":"present","response":"present","rt":893,"correct":true,"confidence":4},{"trial_n":98,"min":85,"max":170,"target":"absent","response":"present","rt":1602,"correct":false,"confidence":4},{"trial_n":99,"min":81,"max":174,"target":"absent","response":"absent","rt":1405,"correct":true,"confidence":3},{"trial_n":100,"min":81,"max":174,"target":"absent","response":"absent","rt":884,"correct":true,"confidence":5},{"trial_n":101,"min":83,"max":172,"target":"absent","response":"absent","rt":1278,"correct":true,"confidence":3},{"trial_n":102,"min":83,"max":172,"target":"absent","response":"absent","rt":1288,"correct":true,"confidence":5},{"trial_n":103,"min":85,"max":170,"target":"present","response":"present","rt":918,"correct":true,"confidence":5},{"trial_n":104,"min":85,"max":170,"target":"absent","response":"absent","rt":1057,"correct":true,"confidence":5},{"trial_n":105,"min":87,"max":168,"target":"absent","response":"absent","rt":936,"correct":true,"confidence":4},{"trial_n":106,"min":87,"max":168,"target":"present","response":"present","rt":891,"correct":true,"confidence":5},{"trial_n":107,"min":89,"max":166,"target":"present","response":"present","rt":2158,"correct":true,"confidence":3},{"trial_n":108,"min":89,"max":166,"target":"absent","response":"absent","rt":2136,"correct":true,"confidence":3},{"trial_n":109,"min":91,"max":164,"target":"present","response":"present","rt":705,"correct":true,"confidence":5},{"trial_n":110,"min":91,"max":164,"target":"present","response":"present","rt":971,"correct":true,"confidence":4},{"trial_n":111,"min":92,"max":163,"target":"present","response":"present","rt":1856,"correct":true,"confidence":3},{"trial_n":112,"min":92,"max":163,"target":"present","response":"present","rt":936,"correct":true,"confidence":4},{"trial_n":113,"min":93,"max":162,"target":"present","response":"present","rt":809,"correct":true,"confidence":5},{"trial_n":114,"min":93,"max":162,"target":"absent","response":"present","rt":1102,"correct":false,"confidence":2},{"trial_n":115,"min":92,"max":163,"target":"present","response":"present","rt":735,"correct":true,"confidence":5},{"trial_n":116,"min":92,"max":163,"target":"present","response":"present","rt":803,"correct":true,"confidence":5},{"trial_n":117,"min":93,"max":162,"target":"present","response":"present","rt":723,"correct":true,"confidence":5},{"trial_n":118,"min":93,"max":162,"target":"present","response":"present","rt":739,"correct":true,"confidence":5},{"trial_n":119,"min":94,"max":161,"target":"present","response":"present","rt":711,"correct":true,"confidence":5},{"trial_n":120,"min":94,"max":161,"target":"present","response":"present","rt":541,"correct":true,"confidence":5},{"trial_n":121,"min":95,"max":160,"target":"present","response":"present","rt":2597,"correct":true,"confidence":4},{"trial_n":122,"min":95,"max":160,"target":"absent","response":"absent","rt":1085,"correct":true,"confidence":3},{"trial_n":123,"min":96,"max":159,"target":"absent","response":"present","rt":856,"correct":false,"confidence":3},{"trial_n":124,"min":95,"max":160,"target":"absent","response":"present","rt":1727,"correct":false,"confidence":3},{"trial_n":125,"min":94,"max":161,"target":"absent","response":"present","rt":653,"correct":false,"confidence":3},{"trial_n":126,"min":93,"max":162,"target":"present","response":"present","rt":970,"correct":true,"confidence":3},{"trial_n":127,"min":93,"max":162,"target":"absent","response":"present","rt":920,"correct":false,"confidence":3},{"trial_n":128,"min":92,"max":163,"target":"present","response":"present","rt":1072,"correct":true,"confidence":3},{"trial_n":129,"min":92,"max":163,"target":"absent","response":"present","rt":1535,"correct":false,"confidence":3},{"trial_n":130,"min":91,"max":164,"target":"absent","response":"absent","rt":1084,"correct":true,"confidence":4},{"trial_n":131,"min":91,"max":164,"target":"absent","response":"absent","rt":1186,"correct":true,"confidence":3},{"trial_n":132,"min":92,"max":163,"target":"present","response":"present","rt":2024,"correct":true,"confidence":3},{"trial_n":133,"min":92,"max":163,"target":"present","response":"present","rt":723,"correct":true,"confidence":5},{"trial_n":134,"min":93,"max":162,"target":"absent","response":"present","rt":2021,"correct":false,"confidence":2},{"trial_n":135,"min":92,"max":163,"target":"absent","response":"present","rt":1368,"correct":false,"confidence":3},{"trial_n":136,"min":91,"max":164,"target":"present","response":"present","rt":750,"correct":true,"confidence":5},{"trial_n":137,"min":91,"max":164,"target":"present","response":"present","rt":702,"correct":true,"confidence":5},{"trial_n":138,"min":92,"max":163,"target":"absent","response":"present","rt":768,"correct":false,"confidence":4},{"trial_n":139,"min":91,"max":164,"target":"present","response":"present","rt":974,"correct":true,"confidence":4},{"trial_n":140,"min":91,"max":164,"target":"absent","response":"present","rt":956,"correct":false,"confidence":3}]