[{"trial_n":1,"min":25,"max":230,"target":"present","response":"present","rt":22853.199999988,"correct":true,"confidence":-1},{"trial_n":2,"min":25,"max":230,"target":"present","response":"present","rt":1715.5,"correct":true,"confidence":-1},{"trial_n":3,"min":41,"max":214,"target":"absent","response":"present","rt":567.40000000596,"correct":false,"confidence":-1},{"trial_n":4,"min":25,"max":230,"target":"absent","response":"present","rt":983.30000001192,"correct":false,"confidence":-1},{"trial_n":5,"min":9,"max":246,"target":"present","response":"absent","rt":1723.599999994,"correct":false,"confidence":-1},{"trial_n":6,"min":0,"max":255,"target":"present","response":"present","rt":1160.2999999821,"correct":true,"confidence":-1},{"trial_n":7,"min":0,"max":255,"target":"present","response":"present","rt":592.90000000596,"correct":true,"confidence":-1},{"trial_n":8,"min":16,"max":239,"target":"present","response":"present","rt":484.59999999404,"correct":true,"confidence":-1},{"trial_n":9,"min":16,"max":239,"target":"present","response":"present","rt":480.10000002384,"correct":true,"confidence":-1},{"trial_n":10,"min":32,"max":223,"target":"absent","response":"absent","rt":851.69999998808,"correct":true,"confidence":-1},{"trial_n":11,"min":32,"max":223,"target":"present","response":"present","rt":608.09999999404,"correct":true,"confidence":-1},{"trial_n":12,"min":40,"max":215,"target":"present","response":"present","rt":555.40000000596,"correct":true,"confidence":-1},{"trial_n":13,"min":40,"max":215,"target":"absent","response":"absent","rt":841.20000001788,"correct":true,"confidence":-1},{"trial_n":14,"min":48,"max":207,"target":"present","response":"present","rt":548.19999998808,"correct":true,"confidence":-1},{"trial_n":15,"min":48,"max":207,"target":"present","response":"present","rt":1267.1999999881,"correct":true,"confidence":-1},{"trial_n":16,"min":56,"max":199,"target":"absent","response":"absent","rt":927.20000001788,"correct":true,"confidence":-1},{"trial_n":17,"min":56,"max":199,"target":"present","response":"present","rt":703.80000001192,"correct":true,"confidence":-1},{"trial_n":18,"min":64,"max":191,"target":"absent","response":"absent","rt":1310.2000000179,"correct":true,"confidence":-1},{"trial_n":19,"min":64,"max":191,"target":"absent","response":"absent","rt":877.20000001788,"correct":true,"confidence":-1},{"trial_n":20,"min":72,"max":183,"target":"present","response":"absent","rt":657.70000001788,"correct":false,"confidence":-1},{"trial_n":21,"min":68,"max":187,"target":"absent","response":"absent","rt":1259.900000006,"correct":true,"confidence":5},{"trial_n":22,"min":68,"max":187,"target":"absent","response":"absent","rt":1142.900000006,"correct":true,"confidence":4},{"trial_n":23,"min":72,"max":183,"target":"absent","response":"absent","rt":1304.6999999881,"correct":true,"confidence":4},{"trial_n":24,"min":72,"max":183,"target":"absent","response":"absent","rt":826.69999998808,"correct":true,"confidence":4},{"trial_n":25,"min":76,"max":179,"target":"absent","response":"absent","rt":1948.5,"correct":true,"confidence":3},{"trial_n":26,"min":76,"max":179,"target":"present","response":"present","rt":1007.3000000119,"correct":true,"confidence":3},{"trial_n":27,"min":80,"max":175,"target":"present","response":"present","rt":1419.5,"correct":true,"confidence":3},{"trial_n":28,"min":80,"max":175,"target":"present","response":"absent","rt":1839.3000000119,"correct":false,"confidence":3},{"trial_n":29,"min":76,"max":179,"target":"present","response":"present","rt":750,"correct":true,"confidence":3},{"trial_n":30,"min":76,"max":179,"target":"present","response":"present","rt":831,"correct":true,"confidence":3},{"trial_n":31,"min":78,"max":177,"target":"absent","response":"absent","rt":1018,"correct":true,"confidence":4},{"trial_n":32,"min":78,"max":177,"target":"present","response":"present","rt":714,"correct":true,"confidence":3},{"trial_n":33,"min":80,"max":175,"target":"present","response":"present","rt":1218.3999999762,"correct":true,"confidence":2},{"trial_n":34,"min":80,"max":175,"target":"present","response":"present","rt":2226.5,"correct":true,"confidence":2},{"trial_n":35,"min":82,"max":173,"target":"present","response":"present","rt":699.29999998212,"correct":true,"confidence":3},{"trial_n":36,"min":82,"max":173,"target":"absent","response":"absent","rt":1152,"correct":true,"confidence":3},{"trial_n":37,"min":84,"max":171,"target":"present","response":"present","rt":726.40000000596,"correct":true,"confidence":2},{"trial_n":38,"min":84,"max":171,"target":"absent","response":"absent","rt":892.09999999404,"correct":true,"confidence":3},{"trial_n":39,"min":86,"max":169,"target":"present","response":"present","rt":1500.3000000119,"correct":true,"confidence":3},{"trial_n":40,"min":86,"max":169,"target":"absent","response":"absent","rt":1028.5,"correct":true,"confidence":2},{"trial_n":41,"min":87,"max":168,"target":"present","response":"present","rt":1677.2999999821,"correct":true,"confidence":2},{"trial_n":42,"min":87,"max":168,"target":"absent","response":"absent","rt":1057.2999999821,"correct":true,"confidence":3},{"trial_n":43,"min":88,"max":167,"target":"absent","response":"absent","rt":857.70000001788,"correct":true,"confidence":3},{"trial_n":44,"min":88,"max":167,"target":"present","response":"absent","rt":1176.7000000179,"correct":false,"confidence":3},{"trial_n":45,"min":87,"max":168,"target":"absent","response":"absent","rt":1598.5,"correct":true,"confidence":3},{"trial_n":46,"min":87,"max":168,"target":"absent","response":"present","rt":738.79999998212,"correct":false,"confidence":2},{"trial_n":47,"min":86,"max":169,"target":"absent","response":"absent","rt":881.19999998808,"correct":true,"confidence":3},{"trial_n":48,"min":86,"max":169,"target":"absent","response":"absent","rt":878.90000000596,"correct":true,"confidence":3},{"trial_n":49,"min":87,"max":168,"target":"present","response":"present","rt":858.10000002384,"correct":true,"confidence":3},{"trial_n":50,"min":87,"max":168,"target":"absent","response":"absent","rt":893.09999999404,"correct":true,"confidence":4},{"trial_n":51,"min":88,"max":167,"target":"present","response":"present","rt":1102.900000006,"correct":true,"confidence":2},{"trial_n":52,"min":88,"max":167,"target":"present","response":"present","rt":1342.3000000119,"correct":true,"confidence":2},{"trial_n":53,"min":89,"max":166,"target":"present","response":"present","rt":663.19999998808,"correct":true,"confidence":2},{"trial_n":54,"min":89,"max":166,"target":"absent","response":"absent","rt":969.80000001192,"correct":true,"confidence":3},{"trial_n":55,"min":90,"max":165,"target":"present","response":"absent","rt":843.29999998212,"correct":false,"confidence":3},{"trial_n":56,"min":89,"max":166,"target":"absent","response":"present","rt":2706,"correct":false,"confidence":1},{"trial_n":57,"min":88,"max":167,"target":"absent","response":"absent","rt":764.20000001788,"correct":true,"confidence":4},{"trial_n":58,"min":88,"max":167,"target":"absent","response":"absent","rt":725.30000001192,"correct":true,"confidence":4},{"trial_n":59,"min":89,"max":166,"target":"absent","response":"present","rt":932.69999998808,"correct":false,"confidence":2},{"trial_n":60,"min":88,"max":167,"target":"absent","response":"absent","rt":2168.6999999881,"correct":true,"confidence":2},{"trial_n":61,"min":88,"max":167,"target":"absent","response":"absent","rt":1211.3999999762,"correct":true,"confidence":3},{"trial_n":62,"min":89,"max":166,"target":"present","response":"absent","rt":3399.6000000238,"correct":false,"confidence":3},{"trial_n":63,"min":88,"max":167,"target":"present","response":"present","rt":1362.5,"correct":true,"confidence":3},{"trial_n":64,"min":88,"max":167,"target":"present","response":"absent","rt":1089.400000006,"correct":false,"confidence":3},{"trial_n":65,"min":87,"max":168,"target":"absent","response":"absent","rt":829.19999998808,"correct":true,"confidence":3},{"trial_n":66,"min":87,"max":168,"target":"absent","response":"absent","rt":950.5,"correct":true,"confidence":3},{"trial_n":67,"min":88,"max":167,"target":"present","response":"present","rt":970.79999998212,"correct":true,"confidence":2},{"trial_n":68,"min":88,"max":167,"target":"absent","response":"present","rt":661.90000000596,"correct":false,"confidence":2},{"trial_n":69,"min":87,"max":168,"target":"present","response":"absent","rt":676.69999998808,"correct":false,"confidence":4},{"trial_n":70,"min":86,"max":169,"target":"absent","response":"absent","rt":1122.900000006,"correct":true,"confidence":3},{"trial_n":71,"min":41,"max":214,"target":"present","response":"present","rt":3428,"correct":true,"confidence":-1},{"trial_n":72,"min":41,"max":214,"target":"present","response":"present","rt":510.30000001192,"correct":true,"confidence":-1},{"trial_n":73,"min":57,"max":198,"target":"absent","response":"absent","rt":883.90000000596,"correct":true,"confidence":-1},{"trial_n":74,"min":57,"max":198,"target":"absent","response":"absent","rt":649.10000002384,"correct":true,"confidence":-1},{"trial_n":75,"min":73,"max":182,"target":"present","response":"absent","rt":788.30000001192,"correct":false,"confidence":-1},{"trial_n":76,"min":57,"max":198,"target":"present","response":"present","rt":645,"correct":true,"confidence":-1},{"trial_n":77,"min":57,"max":198,"target":"absent","response":"absent","rt":855.19999998808,"correct":true,"confidence":-1},{"trial_n":78,"min":73,"max":182,"target":"present","response":"present","rt":1189,"correct":true,"confidence":-1},{"trial_n":79,"min":73,"max":182,"target":"absent","response":"absent","rt":666.40000000596,"correct":true,"confidence":-1},{"trial_n":80,"min":89,"max":166,"target":"present","response":"present","rt":793.09999999404,"correct":true,"confidence":-1},{"trial_n":81,"min":89,"max":166,"target":"absent","response":"present","rt":698.90000000596,"correct":false,"confidence":-1},{"trial_n":82,"min":81,"max":174,"target":"present","response":"present","rt":752,"correct":true,"confidence":-1},{"trial_n":83,"min":81,"max":174,"target":"present","response":"absent","rt":668.59999999404,"correct":false,"confidence":-1},{"trial_n":84,"min":73,"max":182,"target":"absent","response":"absent","rt":791,"correct":true,"confidence":-1},{"trial_n":85,"min":73,"max":182,"target":"present","response":"present","rt":917.5,"correct":true,"confidence":-1},{"trial_n":86,"min":81,"max":174,"target":"present","response":"present","rt":1270.2000000179,"correct":true,"confidence":-1},{"trial_n":87,"min":81,"max":174,"target":"present","response":"absent","rt":532.90000000596,"correct":false,"confidence":-1},{"trial_n":88,"min":73,"max":182,"target":"absent","response":"absent","rt":962.40000000596,"correct":true,"confidence":-1},{"trial_n":89,"min":73,"max":182,"target":"absent","response":"present","rt":770.40000000596,"correct":false,"confidence":-1},{"trial_n":90,"min":65,"max":190,"target":"present","response":"present","rt":1299.400000006,"correct":true,"confidence":-1},{"trial_n":91,"min":65,"max":190,"target":"present","response":"present","rt":946.19999998808,"correct":true,"confidence":5},{"trial_n":92,"min":69,"max":186,"target":"absent","response":"absent","rt":1031.8000000119,"correct":true,"confidence":5},{"trial_n":93,"min":69,"max":186,"target":"present","response":"present","rt":795.5,"correct":true,"confidence":5},{"trial_n":94,"min":73,"max":182,"target":"present","response":"present","rt":1432.7000000179,"correct":true,"confidence":3},{"trial_n":95,"min":73,"max":182,"target":"absent","response":"absent","rt":828.09999999404,"correct":true,"confidence":5},{"trial_n":96,"min":77,"max":178,"target":"present","response":"present","rt":1010.3000000119,"correct":true,"confidence":5},{"trial_n":97,"min":77,"max":178,"target":"absent","response":"absent","rt":747.5,"correct":true,"confidence":5},{"trial_n":98,"min":81,"max":174,"target":"absent","response":"absent","rt":2905.7000000179,"correct":true,"confidence":2},{"trial_n":99,"min":81,"max":174,"target":"present","response":"present","rt":658.30000001192,"correct":true,"confidence":4},{"trial_n":100,"min":85,"max":170,"target":"present","response":"present","rt":780.70000001788,"correct":true,"confidence":4},{"trial_n":101,"min":85,"max":170,"target":"absent","response":"present","rt":1824.2000000179,"correct":false,"confidence":2},{"trial_n":102,"min":83,"max":172,"target":"present","response":"present","rt":845.90000000596,"correct":true,"confidence":3},{"trial_n":103,"min":83,"max":172,"target":"present","response":"present","rt":1533.599999994,"correct":true,"confidence":3},{"trial_n":104,"min":85,"max":170,"target":"absent","response":"absent","rt":675.09999999404,"correct":true,"confidence":3},{"trial_n":105,"min":85,"max":170,"target":"absent","response":"absent","rt":1217,"correct":true,"confidence":2},{"trial_n":106,"min":87,"max":168,"target":"present","response":"present","rt":661.80000001192,"correct":true,"confidence":3},{"trial_n":107,"min":87,"max":168,"target":"present","response":"present","rt":1276.6999999881,"correct":true,"confidence":3},{"trial_n":108,"min":89,"max":166,"target":"present","response":"present","rt":2836.5,"correct":true,"confidence":1},{"trial_n":109,"min":89,"max":166,"target":"present","response":"present","rt":815.90000000596,"correct":true,"confidence":1},{"trial_n":110,"min":91,"max":164,"target":"present","response":"absent","rt":2099.8999999762,"correct":false,"confidence":1},{"trial_n":111,"min":90,"max":165,"target":"present","response":"present","rt":1394.5,"correct":true,"confidence":2},{"trial_n":112,"min":90,"max":165,"target":"present","response":"present","rt":645.79999998212,"correct":true,"confidence":2},{"trial_n":113,"min":91,"max":164,"target":"present","response":"present","rt":602.90000000596,"correct":true,"confidence":3},{"trial_n":114,"min":91,"max":164,"target":"present","response":"present","rt":1446.400000006,"correct":true,"confidence":2},{"trial_n":115,"min":92,"max":163,"target":"absent","response":"absent","rt":964.80000001192,"correct":true,"confidence":2},{"trial_n":116,"min":92,"max":163,"target":"absent","response":"present","rt":921.79999998212,"correct":false,"confidence":1},{"trial_n":117,"min":91,"max":164,"target":"absent","response":"absent","rt":1012.1999999881,"correct":true,"confidence":2},{"trial_n":118,"min":91,"max":164,"target":"absent","response":"present","rt":938.5,"correct":false,"confidence":1},{"trial_n":119,"min":90,"max":165,"target":"present","response":"absent","rt":860.80000001192,"correct":false,"confidence":1},{"trial_n":120,"min":89,"max":166,"target":"absent","response":"absent","rt":800.20000001788,"correct":true,"confidence":1},{"trial_n":121,"min":89,"max":166,"target":"present","response":"present","rt":1304.1999999881,"correct":true,"confidence":1},{"trial_n":122,"min":90,"max":165,"target":"absent","response":"absent","rt":856.80000001192,"correct":true,"confidence":1},{"trial_n":123,"min":90,"max":165,"target":"absent","response":"absent","rt":2063.099999994,"correct":true,"confidence":1},{"trial_n":124,"min":91,"max":164,"target":"absent","response":"present","rt":613.09999999404,"correct":false,"confidence":2},{"trial_n":125,"min":90,"max":165,"target":"absent","response":"absent","rt":1085.8999999762,"correct":true,"confidence":1},{"trial_n":126,"min":90,"max":165,"target":"absent","response":"present","rt":889.40000000596,"correct":false,"confidence":1},{"trial_n":127,"min":89,"max":166,"target":"absent","response":"present","rt":1923.1999999881,"correct":false,"confidence":1},{"trial_n":128,"min":88,"max":167,"target":"absent","response":"absent","rt":894.80000001192,"correct":true,"confidence":1},{"trial_n":129,"min":88,"max":167,"target":"absent","response":"present","rt":1047.2000000179,"correct":false,"confidence":1},{"trial_n":130,"min":87,"max":168,"target":"absent","response":"absent","rt":1128.900000006,"correct":true,"confidence":1},{"trial_n":131,"min":87,"max":168,"target":"absent","response":"present","rt":1063.400000006,"correct":false,"confidence":1},{"trial_n":132,"min":86,"max":169,"target":"absent","response":"absent","rt":839.59999999404,"correct":true,"confidence":2},{"trial_n":133,"min":86,"max":169,"target":"absent","response":"absent","rt":848.69999998808,"correct":true,"confidence":2},{"trial_n":134,"min":87,"max":168,"target":"absent","response":"present","rt":697.39999997616,"correct":false,"confidence":1},{"trial_n":135,"min":86,"max":169,"target":"present","response":"present","rt":909.69999998808,"correct":true,"confidence":1},{"trial_n":136,"min":86,"max":169,"target":"present","response":"present","rt":713.30000001192,"correct":true,"confidence":2},{"trial_n":137,"min":87,"max":168,"target":"present","response":"present","rt":694.69999998808,"correct":true,"confidence":2},{"trial_n":138,"min":87,"max":168,"target":"present","response":"present","rt":582.69999998808,"correct":true,"confidence":3},{"trial_n":139,"min":88,"max":167,"target":"absent","response":"absent","rt":733.19999998808,"correct":true,"confidence":2},{"trial_n":140,"min":88,"max":167,"target":"present","response":"absent","rt":1765.900000006,"correct":false,"confidence":2}]