[{"trial_n":1,"min":25,"max":230,"target":"present","response":"absent","rt":48356.699999809,"correct":false,"confidence":-1},{"trial_n":2,"min":25,"max":230,"target":"present","response":"present","rt":3375.9000000954,"correct":true,"confidence":-1},{"trial_n":3,"min":25,"max":230,"target":"absent","response":"present","rt":1835.4000000954,"correct":false,"confidence":-1},{"trial_n":4,"min":9,"max":246,"target":"absent","response":"present","rt":3818,"correct":false,"confidence":-1},{"trial_n":5,"min":0,"max":255,"target":"present","response":"absent","rt":2394.0999999046,"correct":false,"confidence":-1},{"trial_n":6,"min":0,"max":255,"target":"present","response":"absent","rt":14578.599999905,"correct":false,"confidence":-1},{"trial_n":7,"min":0,"max":255,"target":"present","response":"present","rt":1187.9000000954,"correct":true,"confidence":-1},{"trial_n":8,"min":0,"max":255,"target":"absent","response":"absent","rt":932.69999980927,"correct":true,"confidence":-1},{"trial_n":9,"min":16,"max":239,"target":"absent","response":"present","rt":499.2999997139,"correct":false,"confidence":-1},{"trial_n":10,"min":0,"max":255,"target":"present","response":"absent","rt":358.80000019073,"correct":false,"confidence":-1},{"trial_n":11,"min":0,"max":255,"target":"absent","response":"absent","rt":342.59999990463,"correct":true,"confidence":-1},{"trial_n":12,"min":0,"max":255,"target":"absent","response":"absent","rt":485.10000038147,"correct":true,"confidence":-1},{"trial_n":13,"min":8,"max":247,"target":"present","response":"present","rt":663.69999980927,"correct":true,"confidence":-1},{"trial_n":14,"min":8,"max":247,"target":"absent","response":"present","rt":416.40000009537,"correct":false,"confidence":-1},{"trial_n":15,"min":0,"max":255,"target":"present","response":"absent","rt":245.5,"correct":false,"confidence":-1},{"trial_n":16,"min":0,"max":255,"target":"absent","response":"absent","rt":273.19999980927,"correct":true,"confidence":-1},{"trial_n":17,"min":0,"max":255,"target":"absent","response":"absent","rt":701.69999980927,"correct":true,"confidence":-1},{"trial_n":18,"min":8,"max":247,"target":"absent","response":"absent","rt":792.09999990463,"correct":true,"confidence":-1},{"trial_n":19,"min":8,"max":247,"target":"present","response":"present","rt":259.80000019073,"correct":true,"confidence":-1},{"trial_n":20,"min":16,"max":239,"target":"present","response":"absent","rt":1236.7999997139,"correct":false,"confidence":-1},{"trial_n":21,"min":12,"max":243,"target":"absent","response":"present","rt":3497.5,"correct":false,"confidence":2},{"trial_n":22,"min":8,"max":247,"target":"absent","response":"present","rt":1574.5999999046,"correct":false,"confidence":2},{"trial_n":23,"min":4,"max":251,"target":"present","response":"absent","rt":488.09999990463,"correct":false,"confidence":2},{"trial_n":24,"min":0,"max":255,"target":"absent","response":"present","rt":1070.5999999046,"correct":false,"confidence":3},{"trial_n":25,"min":0,"max":255,"target":"absent","response":"present","rt":374.5,"correct":false,"confidence":2},{"trial_n":26,"min":0,"max":255,"target":"present","response":"absent","rt":1951.6999998093,"correct":false,"confidence":2},{"trial_n":27,"min":0,"max":255,"target":"present","response":"present","rt":767.5,"correct":true,"confidence":2},{"trial_n":28,"min":0,"max":255,"target":"absent","response":"absent","rt":1604,"correct":true,"confidence":2},{"trial_n":29,"min":4,"max":251,"target":"absent","response":"present","rt":1132.7000002861,"correct":false,"confidence":2},{"trial_n":30,"min":0,"max":255,"target":"present","response":"absent","rt":920.40000009537,"correct":false,"confidence":2},{"trial_n":31,"min":0,"max":255,"target":"present","response":"present","rt":1452,"correct":true,"confidence":2},{"trial_n":32,"min":0,"max":255,"target":"present","response":"absent","rt":2313,"correct":false,"confidence":2},{"trial_n":33,"min":0,"max":255,"target":"absent","response":"absent","rt":415.2999997139,"correct":true,"confidence":2},{"trial_n":34,"min":0,"max":255,"target":"absent","response":"present","rt":375.7000002861,"correct":false,"confidence":2},{"trial_n":35,"min":0,"max":255,"target":"absent","response":"absent","rt":312.7000002861,"correct":true,"confidence":2},{"trial_n":36,"min":0,"max":255,"target":"absent","response":"present","rt":150.7000002861,"correct":false,"confidence":2},{"trial_n":37,"min":0,"max":255,"target":"absent","response":"absent","rt":506,"correct":true,"confidence":2},{"trial_n":38,"min":0,"max":255,"target":"present","response":"present","rt":862.10000038147,"correct":true,"confidence":2},{"trial_n":39,"min":2,"max":253,"target":"present","response":"absent","rt":667.2000002861,"correct":false,"confidence":2},{"trial_n":40,"min":0,"max":255,"target":"absent","response":"present","rt":1262.7999997139,"correct":false,"confidence":2},{"trial_n":41,"min":0,"max":255,"target":"absent","response":"present","rt":1629.0999999046,"correct":false,"confidence":3},{"trial_n":42,"min":0,"max":255,"target":"present","response":"absent","rt":441,"correct":false,"confidence":3},{"trial_n":43,"min":0,"max":255,"target":"present","response":"absent","rt":479.09999990463,"correct":false,"confidence":3},{"trial_n":44,"min":0,"max":255,"target":"present","response":"present","rt":808.69999980927,"correct":true,"confidence":3},{"trial_n":45,"min":0,"max":255,"target":"present","response":"absent","rt":343.19999980927,"correct":false,"confidence":3},{"trial_n":46,"min":0,"max":255,"target":"absent","response":"present","rt":290.09999990463,"correct":false,"confidence":3},{"trial_n":47,"min":0,"max":255,"target":"present","response":"absent","rt":260.40000009537,"correct":false,"confidence":3},{"trial_n":48,"min":0,"max":255,"target":"present","response":"present","rt":8671.1999998093,"correct":true,"confidence":3},{"trial_n":49,"min":0,"max":255,"target":"present","response":"absent","rt":1240.0999999046,"correct":false,"confidence":3},{"trial_n":50,"min":0,"max":255,"target":"absent","response":"absent","rt":1082.7000002861,"correct":true,"confidence":3},{"trial_n":51,"min":0,"max":255,"target":"present","response":"absent","rt":1579.5,"correct":false,"confidence":3},{"trial_n":52,"min":0,"max":255,"target":"present","response":"present","rt":555.30000019073,"correct":true,"confidence":3},{"trial_n":53,"min":0,"max":255,"target":"absent","response":"absent","rt":1968.9000000954,"correct":true,"confidence":3},{"trial_n":54,"min":1,"max":254,"target":"absent","response":"present","rt":444.69999980927,"correct":false,"confidence":3},{"trial_n":55,"min":0,"max":255,"target":"present","response":"absent","rt":376,"correct":false,"confidence":3},{"trial_n":56,"min":0,"max":255,"target":"present","response":"present","rt":205.09999990463,"correct":true,"confidence":3},{"trial_n":57,"min":0,"max":255,"target":"absent","response":"absent","rt":257.69999980927,"correct":true,"confidence":3},{"trial_n":58,"min":1,"max":254,"target":"present","response":"present","rt":59,"correct":true,"confidence":3},{"trial_n":59,"min":1,"max":254,"target":"absent","response":"absent","rt":206.59999990463,"correct":true,"confidence":3},{"trial_n":60,"min":2,"max":253,"target":"present","response":"present","rt":298.40000009537,"correct":true,"confidence":3},{"trial_n":61,"min":2,"max":253,"target":"absent","response":"absent","rt":1648.3000001907,"correct":true,"confidence":4},{"trial_n":62,"min":3,"max":252,"target":"absent","response":"absent","rt":328.69999980927,"correct":true,"confidence":4},{"trial_n":63,"min":3,"max":252,"target":"absent","response":"present","rt":333.40000009537,"correct":false,"confidence":1},{"trial_n":64,"min":2,"max":253,"target":"present","response":"absent","rt":1950,"correct":false,"confidence":1},{"trial_n":65,"min":1,"max":254,"target":"absent","response":"present","rt":1157.7000002861,"correct":false,"confidence":4},{"trial_n":66,"min":0,"max":255,"target":"present","response":"absent","rt":1735.6999998093,"correct":false,"confidence":1},{"trial_n":67,"min":0,"max":255,"target":"present","response":"present","rt":509.30000019073,"correct":true,"confidence":1},{"trial_n":68,"min":0,"max":255,"target":"present","response":"absent","rt":319.80000019073,"correct":false,"confidence":1},{"trial_n":69,"min":0,"max":255,"target":"present","response":"present","rt":39.5,"correct":true,"confidence":1},{"trial_n":70,"min":0,"max":255,"target":"absent","response":"present","rt":251.2999997139,"correct":false,"confidence":1},{"trial_n":71,"min":41,"max":214,"target":"present","response":"present","rt":3777.6000003815,"correct":true,"confidence":-1},{"trial_n":72,"min":41,"max":214,"target":"present","response":"absent","rt":766,"correct":false,"confidence":-1},{"trial_n":73,"min":25,"max":230,"target":"absent","response":"absent","rt":857.2999997139,"correct":true,"confidence":-1},{"trial_n":74,"min":25,"max":230,"target":"absent","response":"present","rt":286.09999990463,"correct":false,"confidence":-1},{"trial_n":75,"min":9,"max":246,"target":"present","response":"absent","rt":347.59999990463,"correct":false,"confidence":-1},{"trial_n":76,"min":0,"max":255,"target":"present","response":"absent","rt":540.7999997139,"correct":false,"confidence":-1},{"trial_n":77,"min":0,"max":255,"target":"present","response":"absent","rt":483.19999980927,"correct":false,"confidence":-1},{"trial_n":78,"min":0,"max":255,"target":"absent","response":"absent","rt":762.90000009537,"correct":true,"confidence":-1},{"trial_n":79,"min":0,"max":255,"target":"absent","response":"absent","rt":125.69999980927,"correct":true,"confidence":-1},{"trial_n":80,"min":16,"max":239,"target":"absent","response":"absent","rt":403.40000009537,"correct":true,"confidence":-1},{"trial_n":81,"min":16,"max":239,"target":"absent","response":"absent","rt":68.300000190735,"correct":true,"confidence":-1},{"trial_n":82,"min":24,"max":231,"target":"present","response":"absent","rt":42.400000095367,"correct":false,"confidence":-1},{"trial_n":83,"min":16,"max":239,"target":"absent","response":"present","rt":493.40000009537,"correct":false,"confidence":-1},{"trial_n":84,"min":8,"max":247,"target":"absent","response":"absent","rt":310.39999961853,"correct":true,"confidence":-1},{"trial_n":85,"min":8,"max":247,"target":"present","response":"absent","rt":362.5,"correct":false,"confidence":-1},{"trial_n":86,"min":0,"max":255,"target":"absent","response":"absent","rt":105.90000009537,"correct":true,"confidence":-1},{"trial_n":87,"min":0,"max":255,"target":"present","response":"absent","rt":419.69999980927,"correct":false,"confidence":-1},{"trial_n":88,"min":0,"max":255,"target":"present","response":"absent","rt":182.30000019073,"correct":false,"confidence":-1},{"trial_n":89,"min":0,"max":255,"target":"absent","response":"present","rt":151.69999980927,"correct":false,"confidence":-1},{"trial_n":90,"min":0,"max":255,"target":"present","response":"present","rt":403,"correct":true,"confidence":-1},{"trial_n":91,"min":0,"max":255,"target":"present","response":"absent","rt":605.59999990463,"correct":false,"confidence":2},{"trial_n":92,"min":0,"max":255,"target":"present","response":"absent","rt":484,"correct":false,"confidence":2},{"trial_n":93,"min":0,"max":255,"target":"present","response":"present","rt":323.09999990463,"correct":true,"confidence":1},{"trial_n":94,"min":0,"max":255,"target":"present","response":"absent","rt":222.40000009537,"correct":false,"confidence":1},{"trial_n":95,"min":0,"max":255,"target":"present","response":"present","rt":193,"correct":true,"confidence":1},{"trial_n":96,"min":0,"max":255,"target":"present","response":"absent","rt":110.09999990463,"correct":false,"confidence":1},{"trial_n":97,"min":0,"max":255,"target":"absent","response":"present","rt":24.199999809265,"correct":false,"confidence":1},{"trial_n":98,"min":0,"max":255,"target":"present","response":"present","rt":968.90000009537,"correct":true,"confidence":1},{"trial_n":99,"min":0,"max":255,"target":"present","response":"present","rt":1259.5,"correct":true,"confidence":1},{"trial_n":100,"min":4,"max":251,"target":"absent","response":"present","rt":925.60000038147,"correct":false,"confidence":1},{"trial_n":101,"min":2,"max":253,"target":"absent","response":"absent","rt":1326.3000001907,"correct":true,"confidence":1},{"trial_n":102,"min":2,"max":253,"target":"absent","response":"absent","rt":1067.1000003815,"correct":true,"confidence":1},{"trial_n":103,"min":4,"max":251,"target":"absent","response":"absent","rt":1060.5,"correct":true,"confidence":1},{"trial_n":104,"min":4,"max":251,"target":"absent","response":"present","rt":77.5,"correct":false,"confidence":1},{"trial_n":105,"min":2,"max":253,"target":"present","response":"present","rt":1533.7000002861,"correct":true,"confidence":1},{"trial_n":106,"min":2,"max":253,"target":"present","response":"absent","rt":141.69999980927,"correct":false,"confidence":1},{"trial_n":107,"min":0,"max":255,"target":"absent","response":"present","rt":103.09999990463,"correct":false,"confidence":1},{"trial_n":108,"min":0,"max":255,"target":"present","response":"present","rt":1454.2000002861,"correct":true,"confidence":1},{"trial_n":109,"min":0,"max":255,"target":"absent","response":"absent","rt":175.30000019073,"correct":true,"confidence":1},{"trial_n":110,"min":2,"max":253,"target":"present","response":"present","rt":1137.2999997139,"correct":true,"confidence":1},{"trial_n":111,"min":2,"max":253,"target":"present","response":"absent","rt":1181.0999999046,"correct":false,"confidence":1},{"trial_n":112,"min":1,"max":254,"target":"present","response":"present","rt":541.80000019073,"correct":true,"confidence":2},{"trial_n":113,"min":1,"max":254,"target":"absent","response":"present","rt":202.40000009537,"correct":false,"confidence":1},{"trial_n":114,"min":0,"max":255,"target":"present","response":"absent","rt":515.5,"correct":false,"confidence":1},{"trial_n":115,"min":0,"max":255,"target":"absent","response":"present","rt":344.40000009537,"correct":false,"confidence":1},{"trial_n":116,"min":0,"max":255,"target":"present","response":"absent","rt":238.5,"correct":false,"confidence":1},{"trial_n":117,"min":0,"max":255,"target":"present","response":"present","rt":354.59999990463,"correct":true,"confidence":1},{"trial_n":118,"min":0,"max":255,"target":"absent","response":"absent","rt":329,"correct":true,"confidence":1},{"trial_n":119,"min":1,"max":254,"target":"present","response":"present","rt":411.90000009537,"correct":true,"confidence":1},{"trial_n":120,"min":1,"max":254,"target":"present","response":"absent","rt":280.30000019073,"correct":false,"confidence":1},{"trial_n":121,"min":0,"max":255,"target":"absent","response":"absent","rt":325.2999997139,"correct":true,"confidence":1},{"trial_n":122,"min":0,"max":255,"target":"absent","response":"present","rt":67,"correct":false,"confidence":1},{"trial_n":123,"min":0,"max":255,"target":"absent","response":"present","rt":1376.3000001907,"correct":false,"confidence":1},{"trial_n":124,"min":0,"max":255,"target":"absent","response":"present","rt":1195.7999997139,"correct":false,"confidence":1},{"trial_n":125,"min":0,"max":255,"target":"present","response":"present","rt":770.90000009537,"correct":true,"confidence":1},{"trial_n":126,"min":0,"max":255,"target":"absent","response":"present","rt":1041.7000002861,"correct":false,"confidence":1},{"trial_n":127,"min":0,"max":255,"target":"present","response":"present","rt":645.19999980927,"correct":true,"confidence":1},{"trial_n":128,"min":0,"max":255,"target":"absent","response":"present","rt":601.40000009537,"correct":false,"confidence":1},{"trial_n":129,"min":0,"max":255,"target":"present","response":"present","rt":576.7999997139,"correct":true,"confidence":1},{"trial_n":130,"min":0,"max":255,"target":"absent","response":"present","rt":748.09999990463,"correct":false,"confidence":1},{"trial_n":131,"min":0,"max":255,"target":"absent","response":"absent","rt":627.69999980927,"correct":true,"confidence":1},{"trial_n":132,"min":0,"max":255,"target":"present","response":"absent","rt":413.69999980927,"correct":false,"confidence":1},{"trial_n":133,"min":0,"max":255,"target":"present","response":"absent","rt":500.59999990463,"correct":false,"confidence":1},{"trial_n":134,"min":0,"max":255,"target":"absent","response":"absent","rt":394.5,"correct":true,"confidence":1},{"trial_n":135,"min":0,"max":255,"target":"absent","response":"absent","rt":564.7999997139,"correct":true,"confidence":1},{"trial_n":136,"min":1,"max":254,"target":"absent","response":"absent","rt":546.30000019073,"correct":true,"confidence":1},{"trial_n":137,"min":1,"max":254,"target":"absent","response":"absent","rt":171.39999961853,"correct":true,"confidence":1},{"trial_n":138,"min":2,"max":253,"target":"absent","response":"absent","rt":797.7999997139,"correct":true,"confidence":1},{"trial_n":139,"min":2,"max":253,"target":"present","response":"absent","rt":807.80000019073,"correct":false,"confidence":1},{"trial_n":140,"min":1,"max":254,"target":"present","response":"absent","rt":905.5,"correct":false,"confidence":1}]