[{"trial_n":1,"span":8,"encoder":"80663314","distractor":"80603314","target":"present","response":"absent","rt":"5976","correct":false,"confidence":-1},{"trial_n":2,"span":6,"encoder":"311283","distractor":"611283","target":"present","response":"present","rt":"1956.6000000238","correct":true,"confidence":-1},{"trial_n":3,"span":6,"encoder":"307416","distractor":"307316","target":"absent","response":"absent","rt":"2615.1000000238","correct":true,"confidence":-1},{"trial_n":4,"span":8,"encoder":"91704242","distractor":"91704272","target":"absent","response":"present","rt":"2150.3999999762","correct":false,"confidence":-1},{"trial_n":5,"span":6,"encoder":"725576","distractor":"795576","target":"present","response":"present","rt":"2176.6000000238","correct":true,"confidence":-1},{"trial_n":6,"span":6,"encoder":"271193","distractor":"271195","target":"present","response":"present","rt":"1924.0999999642","correct":true,"confidence":-1},{"trial_n":7,"span":8,"encoder":"80293930","distractor":"81293930","target":"present","response":"present","rt":"2615.6000000238","correct":true,"confidence":-1},{"trial_n":8,"span":8,"encoder":"20970803","distractor":"20970804","target":"absent","response":"absent","rt":"3205","correct":true,"confidence":-1},{"trial_n":9,"span":10,"encoder":"5227796995","distractor":"5227746995","target":"present","response":"absent","rt":"5115","correct":false,"confidence":-1},{"trial_n":10,"span":8,"encoder":"49699747","distractor":"49692747","target":"present","response":"present","rt":"1665.6999999881","correct":true,"confidence":-1},{"trial_n":11,"span":8,"encoder":"75873498","distractor":"75813498","target":"absent","response":"absent","rt":"2431.7999999523","correct":true,"confidence":-1},{"trial_n":12,"span":9,"encoder":"043724813","distractor":"043704813","target":"present","response":"present","rt":"2920.6999999881","correct":true,"confidence":-1},{"trial_n":13,"span":9,"encoder":"391108009","distractor":"391108079","target":"present","response":"present","rt":"4324.5999999642","correct":true,"confidence":-1},{"trial_n":14,"span":10,"encoder":"8262360237","distractor":"6262360237","target":"present","response":"absent","rt":"4201.9000000358","correct":false,"confidence":-1},{"trial_n":15,"span":9,"encoder":"707179058","distractor":"707179958","target":"present","response":"present","rt":"4352.5","correct":true,"confidence":-1},{"trial_n":16,"span":9,"encoder":"066391737","distractor":"066390737","target":"absent","response":"absent","rt":"3076","correct":true,"confidence":-1},{"trial_n":17,"span":10,"encoder":"9616136040","distractor":"9616176040","target":"absent","response":"present","rt":"3421.6999999881","correct":false,"confidence":-1},{"trial_n":18,"span":9,"encoder":"409706197","distractor":"409706107","target":"present","response":"present","rt":"1692.3999999762","correct":true,"confidence":-1},{"trial_n":19,"span":9,"encoder":"792099818","distractor":"792099918","target":"present","response":"present","rt":"3162.5","correct":true,"confidence":-1},{"trial_n":20,"span":10,"encoder":"6732402299","distractor":"6732432299","target":"absent","response":"present","rt":"2420.6000000238","correct":false,"confidence":-1},{"trial_n":21,"span":9,"encoder":"524371398","distractor":"624371398","target":"present","response":"present","rt":"3682.7999999523","correct":true,"confidence":3},{"trial_n":22,"span":9,"encoder":"352632964","distractor":"352636964","target":"absent","response":"absent","rt":"3139.0999999642","correct":true,"confidence":3},{"trial_n":23,"span":10,"encoder":"6025788625","distractor":"6025688625","target":"present","response":"present","rt":"4360.5","correct":true,"confidence":3},{"trial_n":24,"span":10,"encoder":"9641137103","distractor":"9641137303","target":"present","response":"present","rt":"3676","correct":true,"confidence":3},{"trial_n":25,"span":11,"encoder":"34414319867","distractor":"54414319867","target":"absent","response":"present","rt":"4746.5","correct":false,"confidence":3},{"trial_n":26,"span":10,"encoder":"1344683131","distractor":"1344683138","target":"present","response":"present","rt":"3839.8000000119","correct":true,"confidence":4},{"trial_n":27,"span":10,"encoder":"1728501113","distractor":"1628501113","target":"present","response":"absent","rt":"3858.3999999762","correct":false,"confidence":3},{"trial_n":28,"span":9,"encoder":"581721833","distractor":"587721833","target":"absent","response":"present","rt":"3249.2000000477","correct":false,"confidence":3},{"trial_n":29,"span":8,"encoder":"98211070","distractor":"98211080","target":"absent","response":"absent","rt":"4886.4000000358","correct":true,"confidence":3},{"trial_n":30,"span":8,"encoder":"22233898","distractor":"22213898","target":"absent","response":"absent","rt":"3003.7999999523","correct":true,"confidence":4},{"trial_n":31,"span":9,"encoder":"213743574","distractor":"213743573","target":"present","response":"present","rt":"3219.8000000119","correct":true,"confidence":4},{"trial_n":32,"span":9,"encoder":"907207126","distractor":"907207106","target":"present","response":"present","rt":"2745.4000000358","correct":true,"confidence":4},{"trial_n":33,"span":10,"encoder":"5274898879","distractor":"5274894879","target":"absent","response":"absent","rt":"3528.9000000358","correct":true,"confidence":5},{"trial_n":34,"span":10,"encoder":"6925356774","distractor":"6925156774","target":"absent","response":"present","rt":"4593.8000000119","correct":false,"confidence":4},{"trial_n":35,"span":9,"encoder":"473512983","distractor":"473572983","target":"present","response":"present","rt":"4265.1999999881","correct":true,"confidence":4},{"trial_n":36,"span":9,"encoder":"551472707","distractor":"551472807","target":"absent","response":"present","rt":"5024.6999999881","correct":false,"confidence":3},{"trial_n":37,"span":8,"encoder":"66523352","distractor":"86523352","target":"present","response":"present","rt":"2875.1000000238","correct":true,"confidence":5},{"trial_n":38,"span":8,"encoder":"47360776","distractor":"47360746","target":"absent","response":"absent","rt":"2000.6999999881","correct":true,"confidence":5},{"trial_n":39,"span":9,"encoder":"608690282","distractor":"608692282","target":"absent","response":"absent","rt":"9855.8999999762","correct":true,"confidence":4},{"trial_n":40,"span":9,"encoder":"638555511","distractor":"638555517","target":"absent","response":"present","rt":"2810.3999999762","correct":false,"confidence":4},{"trial_n":41,"span":8,"encoder":"20954676","distractor":"20154676","target":"absent","response":"absent","rt":"3916.3000000119","correct":true,"confidence":4},{"trial_n":42,"span":8,"encoder":"93228107","distractor":"93028107","target":"present","response":"present","rt":"4266.9000000358","correct":true,"confidence":3},{"trial_n":43,"span":9,"encoder":"490379830","distractor":"495379830","target":"absent","response":"present","rt":"3464.1000000238","correct":false,"confidence":4},{"trial_n":44,"span":8,"encoder":"32752378","distractor":"32752358","target":"absent","response":"absent","rt":"3801.6999999881","correct":true,"confidence":4},{"trial_n":45,"span":8,"encoder":"89969844","distractor":"89969744","target":"absent","response":"present","rt":"3166.8999999762","correct":false,"confidence":5},{"trial_n":46,"span":7,"encoder":"9208864","distractor":"9608864","target":"present","response":"present","rt":"2462.6999999881","correct":true,"confidence":5},{"trial_n":47,"span":7,"encoder":"8227890","distractor":"8207890","target":"present","response":"present","rt":"2073.6999999881","correct":true,"confidence":5},{"trial_n":48,"span":8,"encoder":"06516129","distractor":"06576129","target":"absent","response":"absent","rt":"2691.5","correct":true,"confidence":5},{"trial_n":49,"span":8,"encoder":"94517645","distractor":"94557645","target":"absent","response":"absent","rt":"2559.8999999762","correct":true,"confidence":3},{"trial_n":50,"span":9,"encoder":"593432955","distractor":"593431955","target":"absent","response":"absent","rt":"4514.3999999762","correct":true,"confidence":2},{"trial_n":51,"span":9,"encoder":"208661086","distractor":"208661286","target":"absent","response":"present","rt":"2355.8000000119","correct":false,"confidence":4},{"trial_n":52,"span":8,"encoder":"65843138","distractor":"65843238","target":"present","response":"present","rt":"2412.5999999642","correct":true,"confidence":4},{"trial_n":53,"span":8,"encoder":"61017408","distractor":"61017403","target":"present","response":"present","rt":"2539.5999999642","correct":true,"confidence":4},{"trial_n":54,"span":9,"encoder":"427932159","distractor":"427942159","target":"absent","response":"absent","rt":"4712.8999999762","correct":true,"confidence":2},{"trial_n":55,"span":9,"encoder":"068301088","distractor":"068301078","target":"absent","response":"absent","rt":"3059.4000000358","correct":true,"confidence":5},{"trial_n":56,"span":10,"encoder":"5829610396","distractor":"5889610396","target":"absent","response":"absent","rt":"1995.3000000119","correct":true,"confidence":4},{"trial_n":57,"span":10,"encoder":"8497942071","distractor":"8497902071","target":"absent","response":"present","rt":"3113.8999999762","correct":false,"confidence":3},{"trial_n":58,"span":9,"encoder":"239304474","distractor":"739304474","target":"present","response":"present","rt":"3389.8000000119","correct":true,"confidence":4},{"trial_n":59,"span":9,"encoder":"849286504","distractor":"849286804","target":"present","response":"present","rt":"3051.6999999881","correct":true,"confidence":3},{"trial_n":60,"span":10,"encoder":"3944100692","distractor":"3944100694","target":"absent","response":"absent","rt":"4483.9000000358","correct":true,"confidence":3},{"trial_n":61,"span":10,"encoder":"2651570488","distractor":"1651570488","target":"present","response":"present","rt":"5163.2000000477","correct":true,"confidence":2},{"trial_n":62,"span":11,"encoder":"58351468592","distractor":"58352468592","target":"present","response":"absent","rt":"4297.5","correct":false,"confidence":4},{"trial_n":63,"span":10,"encoder":"5969206701","distractor":"5969106701","target":"absent","response":"present","rt":"5557.6999999881","correct":false,"confidence":3},{"trial_n":64,"span":9,"encoder":"601559200","distractor":"501559200","target":"absent","response":"present","rt":"4143","correct":false,"confidence":3},{"trial_n":65,"span":8,"encoder":"85938982","distractor":"85938992","target":"present","response":"present","rt":"3911.8999999762","correct":true,"confidence":2},{"trial_n":66,"span":8,"encoder":"01163736","distractor":"01123736","target":"present","response":"present","rt":"3017.3999999762","correct":true,"confidence":4},{"trial_n":67,"span":9,"encoder":"049414585","distractor":"029414585","target":"present","response":"present","rt":"2794.8999999762","correct":true,"confidence":3},{"trial_n":68,"span":9,"encoder":"277400569","distractor":"279400569","target":"present","response":"present","rt":"4145.3999999762","correct":true,"confidence":4},{"trial_n":69,"span":10,"encoder":"6942720276","distractor":"6942750276","target":"absent","response":"absent","rt":"3133.2000000477","correct":true,"confidence":4},{"trial_n":70,"span":10,"encoder":"7313998371","distractor":"7313994371","target":"present","response":"present","rt":"3871.5999999642","correct":true,"confidence":4},{"trial_n":71,"span":8,"encoder":"75525625","distractor":"75525675","target":"present","response":"absent","rt":"5933.8999999762","correct":false,"confidence":-1},{"trial_n":72,"span":7,"encoder":"6963644","distractor":"1963644","target":"present","response":"present","rt":"6219.5","correct":true,"confidence":-1},{"trial_n":73,"span":7,"encoder":"3816391","distractor":"3816396","target":"absent","response":"absent","rt":"2133.9000000358","correct":true,"confidence":-1},{"trial_n":74,"span":8,"encoder":"08542927","distractor":"08542921","target":"absent","response":"absent","rt":"1433.3000000119","correct":true,"confidence":-1},{"trial_n":75,"span":8,"encoder":"39122089","distractor":"32122089","target":"present","response":"absent","rt":"4383.6999999881","correct":false,"confidence":-1},{"trial_n":76,"span":7,"encoder":"0743303","distractor":"0743301","target":"present","response":"present","rt":"2748.5","correct":true,"confidence":-1},{"trial_n":77,"span":7,"encoder":"6750975","distractor":"6750875","target":"present","response":"present","rt":"4683.3999999762","correct":true,"confidence":-1},{"trial_n":78,"span":8,"encoder":"74042027","distractor":"74042025","target":"present","response":"present","rt":"2855","correct":true,"confidence":-1},{"trial_n":79,"span":8,"encoder":"93504133","distractor":"97504133","target":"present","response":"present","rt":"5590.0999999642","correct":true,"confidence":-1},{"trial_n":80,"span":9,"encoder":"107728997","distractor":"107728998","target":"present","response":"present","rt":"3980.5","correct":true,"confidence":-1},{"trial_n":81,"span":9,"encoder":"838770757","distractor":"837770757","target":"present","response":"present","rt":"5945.2999999523","correct":true,"confidence":-1},{"trial_n":82,"span":10,"encoder":"1266695556","distractor":"1266693556","target":"present","response":"present","rt":"8551","correct":true,"confidence":-1},{"trial_n":83,"span":10,"encoder":"3882245558","distractor":"3887245558","target":"absent","response":"present","rt":"4284.3999999762","correct":false,"confidence":-1},{"trial_n":84,"span":9,"encoder":"349989572","distractor":"349989570","target":"absent","response":"absent","rt":"1389.3999999762","correct":true,"confidence":-1},{"trial_n":85,"span":9,"encoder":"107693645","distractor":"007693645","target":"present","response":"absent","rt":"5642.1000000238","correct":false,"confidence":-1},{"trial_n":86,"span":8,"encoder":"76398576","distractor":"76395576","target":"absent","response":"present","rt":"4366.3999999762","correct":false,"confidence":-1},{"trial_n":87,"span":7,"encoder":"2211550","distractor":"2211150","target":"present","response":"present","rt":"2892.2000000477","correct":true,"confidence":-1},{"trial_n":88,"span":7,"encoder":"7825588","distractor":"7825538","target":"absent","response":"absent","rt":"2862.1999999881","correct":true,"confidence":-1},{"trial_n":89,"span":8,"encoder":"02297264","distractor":"02297261","target":"present","response":"present","rt":"1318.8000000119","correct":true,"confidence":-1},{"trial_n":90,"span":8,"encoder":"04560396","distractor":"09560396","target":"present","response":"present","rt":"2487.8000000119","correct":true,"confidence":-1},{"trial_n":91,"span":9,"encoder":"503348131","distractor":"503348135","target":"absent","response":"absent","rt":"2320.6000000238","correct":true,"confidence":5},{"trial_n":92,"span":9,"encoder":"849526862","distractor":"849525862","target":"absent","response":"absent","rt":"8430.5","correct":true,"confidence":2},{"trial_n":93,"span":10,"encoder":"1468530314","distractor":"6468530314","target":"present","response":"absent","rt":"7647.5999999642","correct":false,"confidence":1},{"trial_n":94,"span":9,"encoder":"394935282","distractor":"694935282","target":"absent","response":"absent","rt":"1925.6999999881","correct":true,"confidence":4},{"trial_n":95,"span":9,"encoder":"040047927","distractor":"040447927","target":"present","response":"present","rt":"4615.6999999881","correct":true,"confidence":5},{"trial_n":96,"span":10,"encoder":"1098972960","distractor":"1098872960","target":"absent","response":"absent","rt":"4208.4000000358","correct":true,"confidence":4},{"trial_n":97,"span":10,"encoder":"0837238353","distractor":"0837238453","target":"absent","response":"absent","rt":"5512.1999999881","correct":true,"confidence":3},{"trial_n":98,"span":11,"encoder":"73253982932","distractor":"79253982932","target":"present","response":"absent","rt":"6492.5","correct":false,"confidence":3},{"trial_n":99,"span":10,"encoder":"2889865558","distractor":"2889965558","target":"present","response":"present","rt":"7082.8000000119","correct":true,"confidence":4},{"trial_n":100,"span":10,"encoder":"0736739900","distractor":"0336739900","target":"absent","response":"absent","rt":"3760","correct":true,"confidence":3},{"trial_n":101,"span":11,"encoder":"17797948815","distractor":"17897948815","target":"absent","response":"absent","rt":"2645.1999999881","correct":true,"confidence":4},{"trial_n":102,"span":11,"encoder":"66357215975","distractor":"66357315975","target":"absent","response":"absent","rt":"7070.1999999881","correct":true,"confidence":2},{"trial_n":103,"span":12,"encoder":"693039853481","distractor":"193039853481","target":"absent","response":"absent","rt":"11142","correct":true,"confidence":1},{"trial_n":104,"span":12,"encoder":"719030220702","distractor":"719060220702","target":"present","response":"absent","rt":"5937.7999999523","correct":false,"confidence":1},{"trial_n":105,"span":11,"encoder":"33657916218","distractor":"33957916218","target":"absent","response":"absent","rt":"11668.799999952","correct":true,"confidence":3},{"trial_n":106,"span":11,"encoder":"03535173992","distractor":"03545173992","target":"absent","response":"absent","rt":"6241.6000000238","correct":true,"confidence":2},{"trial_n":107,"span":12,"encoder":"416564412273","distractor":"416564402273","target":"present","response":"present","rt":"7262.9000000358","correct":true,"confidence":3},{"trial_n":108,"span":12,"encoder":"540640540305","distractor":"540650540305","target":"present","response":"present","rt":"6146.2999999523","correct":true,"confidence":2},{"trial_n":109,"span":13,"encoder":"2517541051118","distractor":"2517541051114","target":"absent","response":"absent","rt":"1983.1999999881","correct":true,"confidence":5},{"trial_n":110,"span":13,"encoder":"0210751135413","distractor":"0210751138413","target":"present","response":"present","rt":"7842","correct":true,"confidence":4},{"trial_n":111,"span":14,"encoder":"96069945061257","distractor":"96069945061657","target":"absent","response":"absent","rt":"2242.6000000238","correct":true,"confidence":5},{"trial_n":112,"span":14,"encoder":"84923672101728","distractor":"84923675101728","target":"present","response":"absent","rt":"6201.1999999881","correct":false,"confidence":2},{"trial_n":113,"span":13,"encoder":"5000223940064","distractor":"5000223940464","target":"absent","response":"absent","rt":"8247.3999999762","correct":true,"confidence":2},{"trial_n":114,"span":13,"encoder":"5629020113418","distractor":"5629020110418","target":"absent","response":"absent","rt":"3320.1999999881","correct":true,"confidence":4},{"trial_n":115,"span":14,"encoder":"16536951914696","distractor":"16533951914696","target":"absent","response":"absent","rt":"8748.0999999642","correct":true,"confidence":1},{"trial_n":116,"span":14,"encoder":"81795565257198","distractor":"81795565257898","target":"present","response":"present","rt":"5103.3999999762","correct":true,"confidence":5},{"trial_n":117,"span":15,"encoder":"818324474929389","distractor":"818324424929389","target":"present","response":"absent","rt":"9212.3000000119","correct":false,"confidence":2},{"trial_n":118,"span":14,"encoder":"95142952543849","distractor":"95142952743849","target":"present","response":"present","rt":"1503.8000000119","correct":true,"confidence":5},{"trial_n":119,"span":14,"encoder":"85791375096967","distractor":"86791375096967","target":"absent","response":"absent","rt":"6128.5","correct":true,"confidence":3},{"trial_n":120,"span":15,"encoder":"714637546732567","distractor":"714647546732567","target":"present","response":"absent","rt":"4428.5","correct":false,"confidence":2},{"trial_n":121,"span":14,"encoder":"06260921424482","distractor":"06860921424482","target":"present","response":"absent","rt":"3700.1000000238","correct":false,"confidence":3},{"trial_n":122,"span":13,"encoder":"7682149100557","distractor":"7682142100557","target":"absent","response":"absent","rt":"8126.1000000238","correct":true,"confidence":4},{"trial_n":123,"span":13,"encoder":"0990764378664","distractor":"0990764178664","target":"absent","response":"present","rt":"9840.8000000119","correct":false,"confidence":4},{"trial_n":124,"span":12,"encoder":"538773013381","distractor":"538773018381","target":"present","response":"present","rt":"10704.200000048","correct":true,"confidence":1},{"trial_n":125,"span":12,"encoder":"083805445055","distractor":"083805446055","target":"present","response":"present","rt":"7934.5","correct":true,"confidence":4},{"trial_n":126,"span":13,"encoder":"7854803591645","distractor":"7854803591644","target":"absent","response":"absent","rt":"2162.5","correct":true,"confidence":5},{"trial_n":127,"span":13,"encoder":"5855069648031","distractor":"0855069648031","target":"absent","response":"absent","rt":"3685.6999999881","correct":true,"confidence":4},{"trial_n":128,"span":14,"encoder":"39973674818532","distractor":"09973674818532","target":"present","response":"present","rt":"1782.1999999881","correct":true,"confidence":5},{"trial_n":129,"span":14,"encoder":"02578733845514","distractor":"02578733845515","target":"present","response":"present","rt":"9324.3999999762","correct":true,"confidence":2},{"trial_n":130,"span":15,"encoder":"072496454069139","distractor":"072496454060139","target":"present","response":"present","rt":"14435","correct":true,"confidence":3},{"trial_n":131,"span":15,"encoder":"105480508896772","distractor":"105482508896772","target":"present","response":"absent","rt":"4907.6999999881","correct":false,"confidence":2},{"trial_n":132,"span":14,"encoder":"22047547840616","distractor":"22347547840616","target":"absent","response":"absent","rt":"2724.7000000477","correct":true,"confidence":4},{"trial_n":133,"span":14,"encoder":"28276311181092","distractor":"28276311191092","target":"absent","response":"absent","rt":"6049.5999999642","correct":true,"confidence":4},{"trial_n":134,"span":15,"encoder":"495294142970370","distractor":"445294142970370","target":"absent","response":"present","rt":"5357.3000000119","correct":false,"confidence":4},{"trial_n":135,"span":14,"encoder":"43500898278891","distractor":"43500398278891","target":"absent","response":"present","rt":"6986.8000000119","correct":false,"confidence":1},{"trial_n":136,"span":13,"encoder":"6928289843688","distractor":"3928289843688","target":"absent","response":"absent","rt":"24260.900000036","correct":true,"confidence":2},{"trial_n":137,"span":13,"encoder":"7946525242425","distractor":"7946525242424","target":"absent","response":"absent","rt":"10474.799999952","correct":true,"confidence":4},{"trial_n":138,"span":14,"encoder":"15470194537518","distractor":"15470194534518","target":"present","response":"present","rt":"7136.7000000477","correct":true,"confidence":3},{"trial_n":139,"span":14,"encoder":"49661694584946","distractor":"49661694574946","target":"present","response":"present","rt":"11431.899999976","correct":true,"confidence":3},{"trial_n":140,"span":15,"encoder":"690040034786813","distractor":"690040044786813","target":"absent","response":"present","rt":"6177.6000000238","correct":false,"confidence":2}]