[{"trial_n":1,"n_dots":4.25,"target":"right","response":"left","rt":4786.5,"correct":false,"confidence":-1},{"trial_n":2,"n_dots":4.25,"target":"left","response":"left","rt":434,"correct":true,"confidence":-1},{"trial_n":3,"n_dots":4.25,"target":"right","response":"right","rt":280.59999990463,"correct":true,"confidence":-1},{"trial_n":4,"n_dots":3.85,"target":"left","response":"left","rt":44.300000190735,"correct":true,"confidence":-1},{"trial_n":5,"n_dots":3.85,"target":"left","response":"right","rt":398.09999990463,"correct":false,"confidence":-1},{"trial_n":6,"n_dots":4.25,"target":"right","response":"left","rt":-0.39999961853027,"correct":false,"confidence":-1},{"trial_n":7,"n_dots":4.65,"target":"right","response":"right","rt":73.5,"correct":true,"confidence":-1},{"trial_n":8,"n_dots":4.65,"target":"left","response":"right","rt":105.19999980927,"correct":false,"confidence":-1},{"trial_n":9,"n_dots":4.85,"target":"right","response":"right","rt":3678.4000000954,"correct":true,"confidence":-1},{"trial_n":10,"n_dots":4.85,"target":"right","response":"left","rt":81.5,"correct":false,"confidence":-1},{"trial_n":11,"n_dots":5.05,"target":"right","response":"left","rt":71.599999904633,"correct":false,"confidence":-1},{"trial_n":12,"n_dots":5.25,"target":"right","response":"left","rt":321.5,"correct":false,"confidence":-1},{"trial_n":13,"n_dots":5.35,"target":"right","response":"right","rt":239.2000002861,"correct":true,"confidence":-1},{"trial_n":14,"n_dots":5.35,"target":"left","response":"left","rt":189.30000019073,"correct":true,"confidence":-1},{"trial_n":15,"n_dots":5.25,"target":"left","response":"right","rt":290,"correct":false,"confidence":-1},{"trial_n":16,"n_dots":5.35,"target":"right","response":"right","rt":583.2999997139,"correct":true,"confidence":-1},{"trial_n":17,"n_dots":5.35,"target":"right","response":"left","rt":359.19999980927,"correct":false,"confidence":-1},{"trial_n":18,"n_dots":5.45,"target":"right","response":"right","rt":2056.4000000954,"correct":true,"confidence":-1},{"trial_n":19,"n_dots":5.45,"target":"left","response":"right","rt":6594.3000001907,"correct":false,"confidence":-1},{"trial_n":20,"n_dots":5.55,"target":"right","response":"left","rt":158.09999990463,"correct":false,"confidence":-1},{"trial_n":21,"n_dots":5.65,"target":"right","response":"left","rt":358.39999961853,"correct":false,"confidence":1},{"trial_n":22,"n_dots":5.743,"target":"right","response":"right","rt":722.40000009537,"correct":true,"confidence":1},{"trial_n":23,"n_dots":5.743,"target":"right","response":"right","rt":165.39999961853,"correct":true,"confidence":1},{"trial_n":24,"n_dots":5.643,"target":"left","response":"left","rt":610.89999961853,"correct":true,"confidence":1},{"trial_n":25,"n_dots":5.643,"target":"right","response":"right","rt":1887.3000001907,"correct":true,"confidence":1},{"trial_n":26,"n_dots":5.543,"target":"left","response":"left","rt":621,"correct":true,"confidence":1},{"trial_n":27,"n_dots":5.543,"target":"left","response":"right","rt":219.09999990463,"correct":false,"confidence":1},{"trial_n":28,"n_dots":5.643,"target":"left","response":"left","rt":1401.6000003815,"correct":true,"confidence":1},{"trial_n":29,"n_dots":5.643,"target":"left","response":"left","rt":1418.4000000954,"correct":true,"confidence":1},{"trial_n":30,"n_dots":5.543,"target":"left","response":"right","rt":381.40000009537,"correct":false,"confidence":1},{"trial_n":31,"n_dots":5.643,"target":"left","response":"left","rt":435.90000009537,"correct":true,"confidence":1},{"trial_n":32,"n_dots":5.643,"target":"left","response":"right","rt":8671.0999999046,"correct":false,"confidence":1},{"trial_n":33,"n_dots":5.743,"target":"left","response":"left","rt":727.30000019073,"correct":true,"confidence":1},{"trial_n":34,"n_dots":5.743,"target":"right","response":"left","rt":965.40000009537,"correct":false,"confidence":1},{"trial_n":35,"n_dots":5.743,"target":"right","response":"left","rt":40.200000286102,"correct":false,"confidence":1},{"trial_n":36,"n_dots":5.743,"target":"right","response":"left","rt":523.7999997139,"correct":false,"confidence":1},{"trial_n":37,"n_dots":5.743,"target":"right","response":"right","rt":353,"correct":true,"confidence":1},{"trial_n":38,"n_dots":5.743,"target":"right","response":"left","rt":293.30000019073,"correct":false,"confidence":1},{"trial_n":39,"n_dots":5.743,"target":"left","response":"right","rt":3517.4000000954,"correct":false,"confidence":1},{"trial_n":40,"n_dots":5.743,"target":"right","response":"left","rt":7996.6000003815,"correct":false,"confidence":1},{"trial_n":41,"n_dots":5.743,"target":"right","response":"right","rt":4324,"correct":true,"confidence":1},{"trial_n":42,"n_dots":5.743,"target":"left","response":"right","rt":414.59999990463,"correct":false,"confidence":1},{"trial_n":43,"n_dots":5.743,"target":"right","response":"left","rt":478.19999980927,"correct":false,"confidence":1},{"trial_n":44,"n_dots":5.743,"target":"left","response":"right","rt":842.5,"correct":false,"confidence":1},{"trial_n":45,"n_dots":5.743,"target":"right","response":"left","rt":76.699999809265,"correct":false,"confidence":1},{"trial_n":46,"n_dots":5.743,"target":"right","response":"right","rt":80.599999904633,"correct":true,"confidence":1},{"trial_n":47,"n_dots":5.743,"target":"left","response":"left","rt":209.30000019073,"correct":true,"confidence":1},{"trial_n":48,"n_dots":5.643,"target":"left","response":"right","rt":3027.5999999046,"correct":false,"confidence":1},{"trial_n":49,"n_dots":5.743,"target":"right","response":"left","rt":12691.900000095,"correct":false,"confidence":1},{"trial_n":50,"n_dots":5.743,"target":"left","response":"right","rt":2075.6999998093,"correct":false,"confidence":1},{"trial_n":51,"n_dots":5.743,"target":"right","response":"left","rt":5037.8000001907,"correct":false,"confidence":1},{"trial_n":52,"n_dots":5.743,"target":"right","response":"right","rt":67.099999904633,"correct":true,"confidence":1},{"trial_n":53,"n_dots":5.743,"target":"left","response":"right","rt":1716.5999999046,"correct":false,"confidence":1},{"trial_n":54,"n_dots":5.743,"target":"left","response":"right","rt":7951.7999997139,"correct":false,"confidence":1},{"trial_n":55,"n_dots":5.743,"target":"right","response":"right","rt":3042.1999998093,"correct":true,"confidence":1},{"trial_n":56,"n_dots":5.743,"target":"left","response":"right","rt":4366.9000000954,"correct":false,"confidence":1},{"trial_n":57,"n_dots":5.743,"target":"right","response":"right","rt":37979.5,"correct":true,"confidence":1},{"trial_n":58,"n_dots":5.743,"target":"left","response":"left","rt":3102.6999998093,"correct":true,"confidence":1},{"trial_n":59,"n_dots":5.643,"target":"left","response":"right","rt":118.90000009537,"correct":false,"confidence":1},{"trial_n":60,"n_dots":5.743,"target":"right","response":"right","rt":110,"correct":true,"confidence":1},{"trial_n":61,"n_dots":5.743,"target":"left","response":"left","rt":260.30000019073,"correct":true,"confidence":1},{"trial_n":62,"n_dots":5.643,"target":"right","response":"left","rt":1363.2999997139,"correct":false,"confidence":1},{"trial_n":63,"n_dots":5.743,"target":"right","response":"left","rt":1962.0999999046,"correct":false,"confidence":1},{"trial_n":64,"n_dots":5.743,"target":"right","response":"left","rt":1550.2999997139,"correct":false,"confidence":1},{"trial_n":65,"n_dots":5.743,"target":"left","response":"right","rt":7889.0999999046,"correct":false,"confidence":1},{"trial_n":66,"n_dots":5.743,"target":"left","response":"right","rt":3136.2999997139,"correct":false,"confidence":1},{"trial_n":67,"n_dots":5.743,"target":"right","response":"left","rt":840.80000019073,"correct":false,"confidence":1},{"trial_n":68,"n_dots":5.743,"target":"left","response":"left","rt":4694.5999999046,"correct":true,"confidence":1},{"trial_n":69,"n_dots":5.743,"target":"left","response":"right","rt":5720.4000000954,"correct":false,"confidence":1},{"trial_n":70,"n_dots":5.743,"target":"right","response":"left","rt":1087.1000003815,"correct":false,"confidence":1},{"trial_n":71,"n_dots":5.743,"target":"left","response":"right","rt":5991.2000002861,"correct":false,"confidence":1},{"trial_n":72,"n_dots":5.743,"target":"left","response":"left","rt":63.400000095367,"correct":true,"confidence":1},{"trial_n":73,"n_dots":5.743,"target":"left","response":"left","rt":15292.300000191,"correct":true,"confidence":1},{"trial_n":74,"n_dots":5.643,"target":"left","response":"right","rt":855.7000002861,"correct":false,"confidence":1},{"trial_n":75,"n_dots":5.743,"target":"left","response":"left","rt":676.2000002861,"correct":true,"confidence":1},{"trial_n":76,"n_dots":5.743,"target":"right","response":"right","rt":1366.0999999046,"correct":true,"confidence":1},{"trial_n":77,"n_dots":5.643,"target":"right","response":"left","rt":638.5,"correct":false,"confidence":1},{"trial_n":78,"n_dots":5.743,"target":"right","response":"right","rt":149.5,"correct":true,"confidence":1},{"trial_n":79,"n_dots":5.743,"target":"right","response":"left","rt":392.10000038147,"correct":false,"confidence":1},{"trial_n":80,"n_dots":5.743,"target":"left","response":"right","rt":1576.0999999046,"correct":false,"confidence":1},{"trial_n":81,"n_dots":5.743,"target":"right","response":"left","rt":2100,"correct":false,"confidence":1},{"trial_n":82,"n_dots":5.743,"target":"right","response":"left","rt":1616,"correct":false,"confidence":1},{"trial_n":83,"n_dots":5.743,"target":"left","response":"left","rt":6928.4000000954,"correct":true,"confidence":1},{"trial_n":84,"n_dots":5.743,"target":"left","response":"left","rt":1070.2000002861,"correct":true,"confidence":1},{"trial_n":85,"n_dots":5.643,"target":"left","response":"left","rt":97.5,"correct":true,"confidence":1},{"trial_n":86,"n_dots":5.643,"target":"left","response":"right","rt":309.59999990463,"correct":false,"confidence":1},{"trial_n":87,"n_dots":5.743,"target":"right","response":"right","rt":552,"correct":true,"confidence":1},{"trial_n":88,"n_dots":5.743,"target":"left","response":"right","rt":333.90000009537,"correct":false,"confidence":1},{"trial_n":89,"n_dots":5.743,"target":"right","response":"right","rt":109.09999990463,"correct":true,"confidence":1},{"trial_n":90,"n_dots":5.743,"target":"right","response":"right","rt":193.10000038147,"correct":true,"confidence":1},{"trial_n":91,"n_dots":5.643,"target":"right","response":"right","rt":18,"correct":true,"confidence":1},{"trial_n":92,"n_dots":5.643,"target":"left","response":"right","rt":6268.8000001907,"correct":false,"confidence":1},{"trial_n":93,"n_dots":5.743,"target":"left","response":"right","rt":6991.0999999046,"correct":false,"confidence":1},{"trial_n":94,"n_dots":5.743,"target":"left","response":"right","rt":4990.3000001907,"correct":false,"confidence":1},{"trial_n":95,"n_dots":5.743,"target":"right","response":"right","rt":5689,"correct":true,"confidence":1},{"trial_n":96,"n_dots":5.743,"target":"left","response":"left","rt":47118.900000095,"correct":true,"confidence":1},{"trial_n":97,"n_dots":5.643,"target":"right","response":"right","rt":120.5,"correct":true,"confidence":1},{"trial_n":98,"n_dots":5.643,"target":"right","response":"left","rt":129.7000002861,"correct":false,"confidence":1},{"trial_n":99,"n_dots":5.743,"target":"left","response":"right","rt":40.799999713898,"correct":false,"confidence":1},{"trial_n":100,"n_dots":5.743,"target":"left","response":"left","rt":2397.7000002861,"correct":true,"confidence":1},{"trial_n":101,"n_dots":5.743,"target":"left","response":"right","rt":220.7999997139,"correct":false,"confidence":1},{"trial_n":102,"n_dots":5.743,"target":"left","response":"left","rt":571.30000019073,"correct":true,"confidence":1},{"trial_n":103,"n_dots":5.743,"target":"right","response":"right","rt":253.69999980927,"correct":true,"confidence":1},{"trial_n":104,"n_dots":5.643,"target":"left","response":"left","rt":363.59999990463,"correct":true,"confidence":1},{"trial_n":105,"n_dots":5.643,"target":"left","response":"left","rt":2884.2000002861,"correct":true,"confidence":1},{"trial_n":106,"n_dots":5.543,"target":"right","response":"left","rt":262.69999980927,"correct":false,"confidence":1},{"trial_n":107,"n_dots":5.643,"target":"right","response":"right","rt":494.7999997139,"correct":true,"confidence":1},{"trial_n":108,"n_dots":5.643,"target":"left","response":"right","rt":561.7000002861,"correct":false,"confidence":1},{"trial_n":109,"n_dots":5.743,"target":"right","response":"left","rt":40.699999809265,"correct":false,"confidence":1},{"trial_n":110,"n_dots":5.743,"target":"right","response":"right","rt":287.80000019073,"correct":true,"confidence":1},{"trial_n":111,"n_dots":5.743,"target":"left","response":"left","rt":308.90000009537,"correct":true,"confidence":1},{"trial_n":112,"n_dots":5.643,"target":"right","response":"right","rt":211.7999997139,"correct":true,"confidence":1},{"trial_n":113,"n_dots":5.643,"target":"right","response":"left","rt":50.200000286102,"correct":false,"confidence":1},{"trial_n":114,"n_dots":5.743,"target":"left","response":"right","rt":421.40000009537,"correct":false,"confidence":1},{"trial_n":115,"n_dots":5.743,"target":"right","response":"left","rt":628.80000019073,"correct":false,"confidence":1},{"trial_n":116,"n_dots":5.743,"target":"left","response":"right","rt":170.10000038147,"correct":false,"confidence":1},{"trial_n":117,"n_dots":5.743,"target":"left","response":"right","rt":2894.5999999046,"correct":false,"confidence":1},{"trial_n":118,"n_dots":5.743,"target":"right","response":"left","rt":14,"correct":false,"confidence":1},{"trial_n":119,"n_dots":5.743,"target":"left","response":"right","rt":314.59999990463,"correct":false,"confidence":1},{"trial_n":120,"n_dots":5.743,"target":"left","response":"left","rt":756.19999980927,"correct":true,"confidence":1}]