[{"trial_n":1,"min":25,"max":230,"target":"present","response":"present","rt":5370.5,"correct":true,"confidence":-1},{"trial_n":2,"min":25,"max":230,"target":"present","response":"present","rt":923.40000003576,"correct":true,"confidence":-1},{"trial_n":3,"min":41,"max":214,"target":"absent","response":"present","rt":585.60000002384,"correct":false,"confidence":-1},{"trial_n":4,"min":25,"max":230,"target":"absent","response":"present","rt":2828.0999999642,"correct":false,"confidence":-1},{"trial_n":5,"min":9,"max":246,"target":"present","response":"present","rt":1371.2999999523,"correct":true,"confidence":-1},{"trial_n":6,"min":9,"max":246,"target":"absent","response":"absent","rt":1252.2000000477,"correct":true,"confidence":-1},{"trial_n":7,"min":25,"max":230,"target":"present","response":"present","rt":881.80000001192,"correct":true,"confidence":-1},{"trial_n":8,"min":25,"max":230,"target":"absent","response":"absent","rt":1125.6999999881,"correct":true,"confidence":-1},{"trial_n":9,"min":41,"max":214,"target":"present","response":"present","rt":837.80000001192,"correct":true,"confidence":-1},{"trial_n":10,"min":41,"max":214,"target":"present","response":"present","rt":1026.5,"correct":true,"confidence":-1},{"trial_n":11,"min":49,"max":206,"target":"present","response":"present","rt":798,"correct":true,"confidence":-1},{"trial_n":12,"min":49,"max":206,"target":"present","response":"present","rt":761.59999996424,"correct":true,"confidence":-1},{"trial_n":13,"min":57,"max":198,"target":"absent","response":"absent","rt":1339.5,"correct":true,"confidence":-1},{"trial_n":14,"min":57,"max":198,"target":"present","response":"present","rt":742.5,"correct":true,"confidence":-1},{"trial_n":15,"min":65,"max":190,"target":"absent","response":"absent","rt":1096.2000000477,"correct":true,"confidence":-1},{"trial_n":16,"min":65,"max":190,"target":"absent","response":"absent","rt":1099,"correct":true,"confidence":-1},{"trial_n":17,"min":73,"max":182,"target":"absent","response":"absent","rt":1912.3000000119,"correct":true,"confidence":-1},{"trial_n":18,"min":73,"max":182,"target":"present","response":"present","rt":1949.1000000238,"correct":true,"confidence":-1},{"trial_n":19,"min":81,"max":174,"target":"present","response":"present","rt":647,"correct":true,"confidence":-1},{"trial_n":20,"min":81,"max":174,"target":"present","response":"present","rt":961.60000002384,"correct":true,"confidence":-1},{"trial_n":21,"min":85,"max":170,"target":"absent","response":"present","rt":845.69999998808,"correct":false,"confidence":4},{"trial_n":22,"min":81,"max":174,"target":"present","response":"present","rt":867.5,"correct":true,"confidence":4},{"trial_n":23,"min":81,"max":174,"target":"present","response":"present","rt":2877.8999999762,"correct":true,"confidence":3},{"trial_n":24,"min":85,"max":170,"target":"present","response":"present","rt":2226.2000000477,"correct":true,"confidence":2},{"trial_n":25,"min":85,"max":170,"target":"absent","response":"absent","rt":858.90000003576,"correct":true,"confidence":3},{"trial_n":26,"min":89,"max":166,"target":"absent","response":"absent","rt":929.59999996424,"correct":true,"confidence":4},{"trial_n":27,"min":89,"max":166,"target":"present","response":"absent","rt":965.09999996424,"correct":false,"confidence":4},{"trial_n":28,"min":85,"max":170,"target":"present","response":"absent","rt":6341.9000000358,"correct":false,"confidence":2},{"trial_n":29,"min":81,"max":174,"target":"absent","response":"absent","rt":955.39999997616,"correct":true,"confidence":3},{"trial_n":30,"min":81,"max":174,"target":"absent","response":"absent","rt":910.89999997616,"correct":true,"confidence":3},{"trial_n":31,"min":83,"max":172,"target":"absent","response":"absent","rt":1007.0999999642,"correct":true,"confidence":3},{"trial_n":32,"min":83,"max":172,"target":"present","response":"present","rt":896.60000002384,"correct":true,"confidence":3},{"trial_n":33,"min":85,"max":170,"target":"absent","response":"absent","rt":825.89999997616,"correct":true,"confidence":4},{"trial_n":34,"min":85,"max":170,"target":"absent","response":"absent","rt":1185.5,"correct":true,"confidence":4},{"trial_n":35,"min":87,"max":168,"target":"present","response":"absent","rt":884,"correct":false,"confidence":4},{"trial_n":36,"min":85,"max":170,"target":"absent","response":"absent","rt":1327.6999999881,"correct":true,"confidence":5},{"trial_n":37,"min":85,"max":170,"target":"absent","response":"absent","rt":857.59999996424,"correct":true,"confidence":5},{"trial_n":38,"min":87,"max":168,"target":"absent","response":"absent","rt":1013.1000000238,"correct":true,"confidence":5},{"trial_n":39,"min":87,"max":168,"target":"present","response":"absent","rt":879.39999997616,"correct":false,"confidence":5},{"trial_n":40,"min":85,"max":170,"target":"absent","response":"absent","rt":744.69999998808,"correct":true,"confidence":5},{"trial_n":41,"min":85,"max":170,"target":"absent","response":"absent","rt":946.19999998808,"correct":true,"confidence":4},{"trial_n":42,"min":86,"max":169,"target":"present","response":"present","rt":1262,"correct":true,"confidence":4},{"trial_n":43,"min":86,"max":169,"target":"absent","response":"absent","rt":1465.6000000238,"correct":true,"confidence":2},{"trial_n":44,"min":87,"max":168,"target":"present","response":"absent","rt":1061.5,"correct":false,"confidence":2},{"trial_n":45,"min":86,"max":169,"target":"absent","response":"absent","rt":915.10000002384,"correct":true,"confidence":3},{"trial_n":46,"min":86,"max":169,"target":"absent","response":"absent","rt":1976.5,"correct":true,"confidence":1},{"trial_n":47,"min":87,"max":168,"target":"present","response":"present","rt":1132.3000000119,"correct":true,"confidence":4},{"trial_n":48,"min":87,"max":168,"target":"present","response":"present","rt":1137.1000000238,"correct":true,"confidence":4},{"trial_n":49,"min":88,"max":167,"target":"absent","response":"absent","rt":885,"correct":true,"confidence":4},{"trial_n":50,"min":88,"max":167,"target":"present","response":"present","rt":1759.8999999762,"correct":true,"confidence":2},{"trial_n":51,"min":89,"max":166,"target":"present","response":"present","rt":7402.8000000119,"correct":true,"confidence":2},{"trial_n":52,"min":89,"max":166,"target":"present","response":"absent","rt":806.39999997616,"correct":false,"confidence":4},{"trial_n":53,"min":88,"max":167,"target":"present","response":"absent","rt":1182.8000000119,"correct":false,"confidence":4},{"trial_n":54,"min":87,"max":168,"target":"absent","response":"absent","rt":940.5,"correct":true,"confidence":4},{"trial_n":55,"min":87,"max":168,"target":"absent","response":"absent","rt":774.5,"correct":true,"confidence":5},{"trial_n":56,"min":88,"max":167,"target":"present","response":"present","rt":888,"correct":true,"confidence":4},{"trial_n":57,"min":88,"max":167,"target":"present","response":"present","rt":1206.1999999881,"correct":true,"confidence":4},{"trial_n":58,"min":89,"max":166,"target":"absent","response":"absent","rt":925.60000002384,"correct":true,"confidence":4},{"trial_n":59,"min":89,"max":166,"target":"absent","response":"absent","rt":1068.6999999881,"correct":true,"confidence":4},{"trial_n":60,"min":90,"max":165,"target":"absent","response":"absent","rt":1056.1000000238,"correct":true,"confidence":3},{"trial_n":61,"min":90,"max":165,"target":"present","response":"present","rt":968.80000001192,"correct":true,"confidence":3},{"trial_n":62,"min":91,"max":164,"target":"present","response":"absent","rt":827.09999996424,"correct":false,"confidence":4},{"trial_n":63,"min":90,"max":165,"target":"present","response":"present","rt":838.69999998808,"correct":true,"confidence":4},{"trial_n":64,"min":90,"max":165,"target":"absent","response":"absent","rt":909.39999997616,"correct":true,"confidence":4},{"trial_n":65,"min":91,"max":164,"target":"present","response":"present","rt":1732.5,"correct":true,"confidence":3},{"trial_n":66,"min":91,"max":164,"target":"present","response":"absent","rt":866.89999997616,"correct":false,"confidence":4},{"trial_n":67,"min":90,"max":165,"target":"present","response":"absent","rt":1155.8000000119,"correct":false,"confidence":4},{"trial_n":68,"min":89,"max":166,"target":"absent","response":"absent","rt":1106.5999999642,"correct":true,"confidence":4},{"trial_n":69,"min":89,"max":166,"target":"absent","response":"absent","rt":2010.5,"correct":true,"confidence":2},{"trial_n":70,"min":90,"max":165,"target":"absent","response":"present","rt":1035.3999999762,"correct":false,"confidence":3},{"trial_n":71,"min":41,"max":214,"target":"present","response":"present","rt":1876.1999999881,"correct":true,"confidence":-1},{"trial_n":72,"min":41,"max":214,"target":"present","response":"present","rt":1060,"correct":true,"confidence":-1},{"trial_n":73,"min":57,"max":198,"target":"absent","response":"absent","rt":3943.9000000358,"correct":true,"confidence":-1},{"trial_n":74,"min":57,"max":198,"target":"absent","response":"absent","rt":1944.1000000238,"correct":true,"confidence":-1},{"trial_n":75,"min":73,"max":182,"target":"present","response":"present","rt":1232.5,"correct":true,"confidence":-1},{"trial_n":76,"min":73,"max":182,"target":"absent","response":"absent","rt":1755.8999999762,"correct":true,"confidence":-1},{"trial_n":77,"min":89,"max":166,"target":"present","response":"absent","rt":1451,"correct":false,"confidence":-1},{"trial_n":78,"min":73,"max":182,"target":"present","response":"present","rt":1421.5,"correct":true,"confidence":-1},{"trial_n":79,"min":73,"max":182,"target":"absent","response":"absent","rt":907.5,"correct":true,"confidence":-1},{"trial_n":80,"min":89,"max":166,"target":"present","response":"absent","rt":1130.3999999762,"correct":false,"confidence":-1},{"trial_n":81,"min":81,"max":174,"target":"absent","response":"absent","rt":758.5,"correct":true,"confidence":-1},{"trial_n":82,"min":81,"max":174,"target":"absent","response":"absent","rt":698.5,"correct":true,"confidence":-1},{"trial_n":83,"min":89,"max":166,"target":"absent","response":"absent","rt":2423.3999999762,"correct":true,"confidence":-1},{"trial_n":84,"min":89,"max":166,"target":"absent","response":"present","rt":1555.3999999762,"correct":false,"confidence":-1},{"trial_n":85,"min":81,"max":174,"target":"absent","response":"absent","rt":1357.8000000119,"correct":true,"confidence":-1},{"trial_n":86,"min":81,"max":174,"target":"absent","response":"absent","rt":693,"correct":true,"confidence":-1},{"trial_n":87,"min":89,"max":166,"target":"present","response":"absent","rt":1351.8999999762,"correct":false,"confidence":-1},{"trial_n":88,"min":81,"max":174,"target":"absent","response":"absent","rt":1107.8999999762,"correct":true,"confidence":-1},{"trial_n":89,"min":81,"max":174,"target":"present","response":"present","rt":1110.1000000238,"correct":true,"confidence":-1},{"trial_n":90,"min":89,"max":166,"target":"absent","response":"absent","rt":926.10000002384,"correct":true,"confidence":-1},{"trial_n":91,"min":89,"max":166,"target":"present","response":"present","rt":958.80000001192,"correct":true,"confidence":3},{"trial_n":92,"min":93,"max":162,"target":"absent","response":"present","rt":1197.8000000119,"correct":false,"confidence":3},{"trial_n":93,"min":89,"max":166,"target":"absent","response":"absent","rt":2369.0999999642,"correct":true,"confidence":1},{"trial_n":94,"min":89,"max":166,"target":"present","response":"present","rt":1174.0999999642,"correct":true,"confidence":2},{"trial_n":95,"min":93,"max":162,"target":"present","response":"present","rt":4213.5999999642,"correct":true,"confidence":1},{"trial_n":96,"min":93,"max":162,"target":"present","response":"present","rt":1998,"correct":true,"confidence":2},{"trial_n":97,"min":97,"max":158,"target":"present","response":"absent","rt":967.70000004768,"correct":false,"confidence":2},{"trial_n":98,"min":93,"max":162,"target":"present","response":"absent","rt":905,"correct":false,"confidence":2},{"trial_n":99,"min":89,"max":166,"target":"present","response":"present","rt":2182.3000000119,"correct":true,"confidence":2},{"trial_n":100,"min":89,"max":166,"target":"absent","response":"absent","rt":860.80000001192,"correct":true,"confidence":3},{"trial_n":101,"min":91,"max":164,"target":"absent","response":"absent","rt":860.39999997616,"correct":true,"confidence":3},{"trial_n":102,"min":91,"max":164,"target":"absent","response":"absent","rt":1260.3999999762,"correct":true,"confidence":3},{"trial_n":103,"min":93,"max":162,"target":"present","response":"absent","rt":2005.3000000119,"correct":false,"confidence":3},{"trial_n":104,"min":91,"max":164,"target":"present","response":"absent","rt":1850.8999999762,"correct":false,"confidence":2},{"trial_n":105,"min":89,"max":166,"target":"present","response":"present","rt":968.90000003576,"correct":true,"confidence":2},{"trial_n":106,"min":89,"max":166,"target":"absent","response":"absent","rt":1244.3999999762,"correct":true,"confidence":3},{"trial_n":107,"min":91,"max":164,"target":"present","response":"present","rt":998.30000001192,"correct":true,"confidence":3},{"trial_n":108,"min":91,"max":164,"target":"absent","response":"absent","rt":1710,"correct":true,"confidence":1},{"trial_n":109,"min":93,"max":162,"target":"present","response":"present","rt":888.89999997616,"correct":true,"confidence":4},{"trial_n":110,"min":93,"max":162,"target":"absent","response":"absent","rt":1461.3000000119,"correct":true,"confidence":2},{"trial_n":111,"min":94,"max":161,"target":"absent","response":"absent","rt":950.80000001192,"correct":true,"confidence":2},{"trial_n":112,"min":94,"max":161,"target":"present","response":"absent","rt":955.69999998808,"correct":false,"confidence":3},{"trial_n":113,"min":93,"max":162,"target":"absent","response":"present","rt":4349.8000000119,"correct":false,"confidence":3},{"trial_n":114,"min":92,"max":163,"target":"present","response":"absent","rt":841.19999998808,"correct":false,"confidence":2},{"trial_n":115,"min":91,"max":164,"target":"present","response":"present","rt":3141.0999999642,"correct":true,"confidence":2},{"trial_n":116,"min":91,"max":164,"target":"present","response":"absent","rt":1229.5,"correct":false,"confidence":3},{"trial_n":117,"min":90,"max":165,"target":"absent","response":"present","rt":1667.6000000238,"correct":false,"confidence":1},{"trial_n":118,"min":89,"max":166,"target":"present","response":"present","rt":2039.7000000477,"correct":true,"confidence":4},{"trial_n":119,"min":89,"max":166,"target":"present","response":"present","rt":1323.6000000238,"correct":true,"confidence":4},{"trial_n":120,"min":90,"max":165,"target":"present","response":"present","rt":2350.7000000477,"correct":true,"confidence":1},{"trial_n":121,"min":90,"max":165,"target":"absent","response":"present","rt":1450.3000000119,"correct":false,"confidence":1},{"trial_n":122,"min":89,"max":166,"target":"absent","response":"absent","rt":1651.2000000477,"correct":true,"confidence":2},{"trial_n":123,"min":89,"max":166,"target":"present","response":"present","rt":763.90000003576,"correct":true,"confidence":4},{"trial_n":124,"min":90,"max":165,"target":"present","response":"present","rt":1431.1000000238,"correct":true,"confidence":1},{"trial_n":125,"min":90,"max":165,"target":"present","response":"present","rt":871,"correct":true,"confidence":1},{"trial_n":126,"min":91,"max":164,"target":"absent","response":"present","rt":2163.8999999762,"correct":false,"confidence":2},{"trial_n":127,"min":90,"max":165,"target":"absent","response":"present","rt":1286.7999999523,"correct":false,"confidence":1},{"trial_n":128,"min":89,"max":166,"target":"absent","response":"present","rt":986.69999998808,"correct":false,"confidence":1},{"trial_n":129,"min":88,"max":167,"target":"absent","response":"absent","rt":1514.3000000119,"correct":true,"confidence":2},{"trial_n":130,"min":88,"max":167,"target":"present","response":"present","rt":770.30000001192,"correct":true,"confidence":4},{"trial_n":131,"min":89,"max":166,"target":"absent","response":"absent","rt":1229.4000000358,"correct":true,"confidence":2},{"trial_n":132,"min":89,"max":166,"target":"present","response":"present","rt":1061.6000000238,"correct":true,"confidence":2},{"trial_n":133,"min":90,"max":165,"target":"present","response":"present","rt":1560.6000000238,"correct":true,"confidence":4},{"trial_n":134,"min":90,"max":165,"target":"present","response":"present","rt":1045.6000000238,"correct":true,"confidence":4},{"trial_n":135,"min":91,"max":164,"target":"absent","response":"absent","rt":974.79999995232,"correct":true,"confidence":3},{"trial_n":136,"min":91,"max":164,"target":"present","response":"present","rt":1211.3000000119,"correct":true,"confidence":1},{"trial_n":137,"min":92,"max":163,"target":"absent","response":"absent","rt":1178,"correct":true,"confidence":2},{"trial_n":138,"min":92,"max":163,"target":"absent","response":"present","rt":1014.8000000119,"correct":false,"confidence":1},{"trial_n":139,"min":91,"max":164,"target":"absent","response":"present","rt":1348.3000000119,"correct":false,"confidence":3},{"trial_n":140,"min":90,"max":165,"target":"present","response":"present","rt":996,"correct":true,"confidence":3}]