[{"trial_n":1,"span":8,"encoder":"23392843","distractor":"43392843","target":"present","response":"present","rt":"5411","correct":true,"confidence":-1},{"trial_n":2,"span":8,"encoder":"63254305","distractor":"63254308","target":"present","response":"present","rt":"4024","correct":true,"confidence":-1},{"trial_n":3,"span":10,"encoder":"8145599101","distractor":"8144599101","target":"absent","response":"present","rt":"2178","correct":false,"confidence":-1},{"trial_n":4,"span":8,"encoder":"99993623","distractor":"99963623","target":"absent","response":"present","rt":"3643","correct":false,"confidence":-1},{"trial_n":5,"span":6,"encoder":"668400","distractor":"666400","target":"present","response":"present","rt":"1219","correct":true,"confidence":-1},{"trial_n":6,"span":6,"encoder":"657683","distractor":"687683","target":"absent","response":"present","rt":"1608","correct":false,"confidence":-1},{"trial_n":7,"span":4,"encoder":"8969","distractor":"8962","target":"absent","response":"absent","rt":"1472","correct":true,"confidence":-1},{"trial_n":8,"span":4,"encoder":"8480","distractor":"8380","target":"absent","response":"absent","rt":"2380","correct":true,"confidence":-1},{"trial_n":9,"span":6,"encoder":"191644","distractor":"195644","target":"absent","response":"present","rt":"1957","correct":false,"confidence":-1},{"trial_n":10,"span":4,"encoder":"1574","distractor":"1576","target":"absent","response":"absent","rt":"1828","correct":true,"confidence":-1},{"trial_n":11,"span":4,"encoder":"2698","distractor":"2695","target":"present","response":"present","rt":"1625","correct":true,"confidence":-1},{"trial_n":12,"span":5,"encoder":"10854","distractor":"10856","target":"absent","response":"absent","rt":"1453","correct":true,"confidence":-1},{"trial_n":13,"span":5,"encoder":"33541","distractor":"33741","target":"absent","response":"absent","rt":"1181","correct":true,"confidence":-1},{"trial_n":14,"span":6,"encoder":"031820","distractor":"031828","target":"absent","response":"absent","rt":"1474","correct":true,"confidence":-1},{"trial_n":15,"span":6,"encoder":"580252","distractor":"540252","target":"present","response":"present","rt":"1167","correct":true,"confidence":-1},{"trial_n":16,"span":7,"encoder":"9486413","distractor":"9186413","target":"absent","response":"present","rt":"930.99999999999","correct":false,"confidence":-1},{"trial_n":17,"span":6,"encoder":"886831","distractor":"886835","target":"absent","response":"present","rt":"1570","correct":false,"confidence":-1},{"trial_n":18,"span":5,"encoder":"14229","distractor":"34229","target":"absent","response":"absent","rt":"1207","correct":true,"confidence":-1},{"trial_n":19,"span":5,"encoder":"74038","distractor":"74037","target":"absent","response":"absent","rt":"1366","correct":true,"confidence":-1},{"trial_n":20,"span":6,"encoder":"731813","distractor":"431813","target":"absent","response":"present","rt":"1811","correct":false,"confidence":-1},{"trial_n":21,"span":5,"encoder":"02440","distractor":"02448","target":"present","response":"absent","rt":"2460","correct":false,"confidence":3},{"trial_n":22,"span":4,"encoder":"6066","distractor":"6056","target":"present","response":"present","rt":"5023","correct":true,"confidence":5},{"trial_n":23,"span":4,"encoder":"5647","distractor":"5645","target":"present","response":"present","rt":"1312","correct":true,"confidence":5},{"trial_n":24,"span":5,"encoder":"46054","distractor":"96054","target":"present","response":"present","rt":"1822","correct":true,"confidence":5},{"trial_n":25,"span":5,"encoder":"86031","distractor":"26031","target":"absent","response":"absent","rt":"3017","correct":true,"confidence":3},{"trial_n":26,"span":6,"encoder":"254025","distractor":"253025","target":"present","response":"absent","rt":"2859","correct":false,"confidence":4},{"trial_n":27,"span":5,"encoder":"69220","distractor":"69228","target":"absent","response":"absent","rt":"1757","correct":true,"confidence":5},{"trial_n":28,"span":5,"encoder":"41914","distractor":"41913","target":"present","response":"present","rt":"4443","correct":true,"confidence":5},{"trial_n":29,"span":6,"encoder":"020017","distractor":"080017","target":"absent","response":"present","rt":"1688","correct":false,"confidence":2},{"trial_n":30,"span":5,"encoder":"16463","distractor":"15463","target":"absent","response":"present","rt":"1392","correct":false,"confidence":4},{"trial_n":31,"span":4,"encoder":"6435","distractor":"6431","target":"present","response":"present","rt":"1364","correct":true,"confidence":5},{"trial_n":32,"span":4,"encoder":"6193","distractor":"6493","target":"absent","response":"absent","rt":"1718","correct":true,"confidence":4},{"trial_n":33,"span":5,"encoder":"47263","distractor":"47063","target":"present","response":"present","rt":"1677","correct":true,"confidence":5},{"trial_n":34,"span":5,"encoder":"56338","distractor":"52338","target":"present","response":"present","rt":"1277","correct":true,"confidence":2},{"trial_n":35,"span":6,"encoder":"608493","distractor":"408493","target":"present","response":"present","rt":"1715","correct":true,"confidence":5},{"trial_n":36,"span":6,"encoder":"264564","distractor":"264594","target":"present","response":"present","rt":"1659","correct":true,"confidence":5},{"trial_n":37,"span":7,"encoder":"5036542","distractor":"5036562","target":"present","response":"present","rt":"2901","correct":true,"confidence":3},{"trial_n":38,"span":7,"encoder":"0053716","distractor":"0053786","target":"present","response":"present","rt":"2872","correct":true,"confidence":4},{"trial_n":39,"span":8,"encoder":"67833347","distractor":"67833447","target":"absent","response":"present","rt":"1475","correct":false,"confidence":4},{"trial_n":40,"span":7,"encoder":"0829363","distractor":"0829663","target":"absent","response":"present","rt":"1640.0000000001","correct":false,"confidence":4},{"trial_n":41,"span":6,"encoder":"390529","distractor":"340529","target":"present","response":"present","rt":"1942","correct":true,"confidence":5},{"trial_n":42,"span":6,"encoder":"230435","distractor":"260435","target":"present","response":"present","rt":"2926","correct":true,"confidence":4},{"trial_n":43,"span":7,"encoder":"2838745","distractor":"3838745","target":"absent","response":"present","rt":"2744","correct":false,"confidence":2},{"trial_n":44,"span":6,"encoder":"646958","distractor":"346958","target":"present","response":"present","rt":"2357","correct":true,"confidence":5},{"trial_n":45,"span":6,"encoder":"519990","distractor":"519980","target":"absent","response":"absent","rt":"1701","correct":true,"confidence":5},{"trial_n":46,"span":7,"encoder":"1671725","distractor":"5671725","target":"present","response":"present","rt":"2643","correct":true,"confidence":3},{"trial_n":47,"span":7,"encoder":"4832815","distractor":"4832819","target":"present","response":"present","rt":"3764","correct":true,"confidence":4},{"trial_n":48,"span":8,"encoder":"49342408","distractor":"49742408","target":"absent","response":"absent","rt":"2735","correct":true,"confidence":3},{"trial_n":49,"span":8,"encoder":"71661454","distractor":"71361454","target":"absent","response":"absent","rt":"3912","correct":true,"confidence":3},{"trial_n":50,"span":9,"encoder":"562516256","distractor":"552516256","target":"present","response":"present","rt":"3582","correct":true,"confidence":5},{"trial_n":51,"span":9,"encoder":"696816022","distractor":"696816422","target":"absent","response":"present","rt":"2544","correct":false,"confidence":5},{"trial_n":52,"span":8,"encoder":"75012200","distractor":"75022200","target":"present","response":"present","rt":"1601","correct":true,"confidence":2},{"trial_n":53,"span":8,"encoder":"19315619","distractor":"19315639","target":"present","response":"absent","rt":"4089","correct":false,"confidence":3},{"trial_n":54,"span":7,"encoder":"4631565","distractor":"4631564","target":"present","response":"present","rt":"1415","correct":true,"confidence":4},{"trial_n":55,"span":7,"encoder":"2526761","distractor":"2926761","target":"absent","response":"absent","rt":"1831","correct":true,"confidence":5},{"trial_n":56,"span":8,"encoder":"40641127","distractor":"40641727","target":"present","response":"absent","rt":"2924","correct":false,"confidence":1},{"trial_n":57,"span":7,"encoder":"7815439","distractor":"7815839","target":"present","response":"absent","rt":"1893.0000000001","correct":false,"confidence":1},{"trial_n":58,"span":6,"encoder":"872981","distractor":"862981","target":"present","response":"present","rt":"1896.0000000001","correct":true,"confidence":5},{"trial_n":59,"span":6,"encoder":"094151","distractor":"090151","target":"absent","response":"absent","rt":"3520.0000000001","correct":true,"confidence":3},{"trial_n":60,"span":7,"encoder":"0406289","distractor":"0446289","target":"absent","response":"absent","rt":"2488.9999999999","correct":true,"confidence":4},{"trial_n":61,"span":7,"encoder":"9126454","distractor":"9126554","target":"absent","response":"absent","rt":"2072","correct":true,"confidence":4},{"trial_n":62,"span":8,"encoder":"59944349","distractor":"59944345","target":"absent","response":"present","rt":"3265","correct":false,"confidence":4},{"trial_n":63,"span":7,"encoder":"6235421","distractor":"6215421","target":"present","response":"present","rt":"2888.9999999999","correct":true,"confidence":5},{"trial_n":64,"span":7,"encoder":"6309600","distractor":"6309620","target":"absent","response":"present","rt":"1861","correct":false,"confidence":4},{"trial_n":65,"span":6,"encoder":"892931","distractor":"832931","target":"present","response":"present","rt":"2853.9999999999","correct":true,"confidence":5},{"trial_n":66,"span":6,"encoder":"799539","distractor":"799839","target":"present","response":"present","rt":"2674","correct":true,"confidence":4},{"trial_n":67,"span":7,"encoder":"3437542","distractor":"3435542","target":"absent","response":"absent","rt":"1842","correct":true,"confidence":4},{"trial_n":68,"span":7,"encoder":"9255661","distractor":"9255660","target":"present","response":"present","rt":"1899","correct":true,"confidence":5},{"trial_n":69,"span":8,"encoder":"98328336","distractor":"98328376","target":"present","response":"present","rt":"1657","correct":true,"confidence":4},{"trial_n":70,"span":8,"encoder":"45607712","distractor":"45687712","target":"present","response":"absent","rt":"1337","correct":false,"confidence":2},{"trial_n":71,"span":8,"encoder":"51913927","distractor":"53913927","target":"present","response":"present","rt":"6271.9999999999","correct":true,"confidence":-1},{"trial_n":72,"span":8,"encoder":"50131076","distractor":"50931076","target":"present","response":"present","rt":"6923.9999999999","correct":true,"confidence":-1},{"trial_n":73,"span":9,"encoder":"188128314","distractor":"198128314","target":"absent","response":"absent","rt":"2641","correct":true,"confidence":-1},{"trial_n":74,"span":9,"encoder":"326208989","distractor":"326202989","target":"absent","response":"absent","rt":"1437.0000000001","correct":true,"confidence":-1},{"trial_n":75,"span":10,"encoder":"9017671953","distractor":"9017871953","target":"present","response":"present","rt":"995","correct":true,"confidence":-1},{"trial_n":76,"span":10,"encoder":"2116106222","distractor":"2116606222","target":"absent","response":"absent","rt":"1337","correct":true,"confidence":-1},{"trial_n":77,"span":11,"encoder":"38789423011","distractor":"38789323011","target":"present","response":"present","rt":"700.99999999988","correct":true,"confidence":-1},{"trial_n":78,"span":11,"encoder":"93247006360","distractor":"93247606360","target":"absent","response":"absent","rt":"2433","correct":true,"confidence":-1},{"trial_n":79,"span":12,"encoder":"070970986497","distractor":"070970986493","target":"absent","response":"absent","rt":"4818.0000000001","correct":true,"confidence":-1},{"trial_n":80,"span":12,"encoder":"330288016319","distractor":"330281016319","target":"present","response":"absent","rt":"2655.9999999999","correct":false,"confidence":-1},{"trial_n":81,"span":11,"encoder":"44768442750","distractor":"44768442550","target":"absent","response":"present","rt":"4434","correct":false,"confidence":-1},{"trial_n":82,"span":10,"encoder":"3113541849","distractor":"3113441849","target":"absent","response":"absent","rt":"1116","correct":true,"confidence":-1},{"trial_n":83,"span":10,"encoder":"8137702207","distractor":"8137712207","target":"absent","response":"present","rt":"1320","correct":false,"confidence":-1},{"trial_n":84,"span":9,"encoder":"419096468","distractor":"459096468","target":"present","response":"absent","rt":"1267","correct":false,"confidence":-1},{"trial_n":85,"span":8,"encoder":"23414671","distractor":"93414671","target":"absent","response":"present","rt":"954","correct":false,"confidence":-1},{"trial_n":86,"span":7,"encoder":"5337761","distractor":"5237761","target":"present","response":"absent","rt":"1104","correct":false,"confidence":-1},{"trial_n":87,"span":6,"encoder":"084322","distractor":"184322","target":"present","response":"absent","rt":"4194","correct":false,"confidence":-1},{"trial_n":88,"span":5,"encoder":"61917","distractor":"61817","target":"present","response":"present","rt":"1216","correct":true,"confidence":-1},{"trial_n":89,"span":5,"encoder":"51948","distractor":"51048","target":"present","response":"present","rt":"538","correct":true,"confidence":-1},{"trial_n":90,"span":6,"encoder":"200463","distractor":"205463","target":"present","response":"present","rt":"1280","correct":true,"confidence":-1},{"trial_n":91,"span":6,"encoder":"599224","distractor":"592224","target":"present","response":"present","rt":"3547","correct":true,"confidence":4},{"trial_n":92,"span":7,"encoder":"6976475","distractor":"6976775","target":"present","response":"present","rt":"3187","correct":true,"confidence":5},{"trial_n":93,"span":7,"encoder":"4597029","distractor":"4597025","target":"present","response":"present","rt":"2537.9999999999","correct":true,"confidence":5},{"trial_n":94,"span":8,"encoder":"88356269","distractor":"88356469","target":"absent","response":"present","rt":"1053","correct":false,"confidence":1},{"trial_n":95,"span":7,"encoder":"9744355","distractor":"9764355","target":"absent","response":"absent","rt":"1985.9999999999","correct":true,"confidence":5},{"trial_n":96,"span":7,"encoder":"6563812","distractor":"6563814","target":"present","response":"absent","rt":"5435","correct":false,"confidence":2},{"trial_n":97,"span":6,"encoder":"184800","distractor":"784800","target":"absent","response":"absent","rt":"1316","correct":true,"confidence":5},{"trial_n":98,"span":6,"encoder":"501736","distractor":"501236","target":"present","response":"present","rt":"3149","correct":true,"confidence":4},{"trial_n":99,"span":7,"encoder":"9518642","distractor":"9518672","target":"absent","response":"absent","rt":"1203","correct":true,"confidence":5},{"trial_n":100,"span":7,"encoder":"9915482","distractor":"9915442","target":"absent","response":"absent","rt":"2442","correct":true,"confidence":5},{"trial_n":101,"span":8,"encoder":"78384043","distractor":"48384043","target":"absent","response":"absent","rt":"794","correct":true,"confidence":2},{"trial_n":102,"span":8,"encoder":"25248057","distractor":"25228057","target":"absent","response":"absent","rt":"3529","correct":true,"confidence":5},{"trial_n":103,"span":9,"encoder":"897195736","distractor":"897195739","target":"absent","response":"present","rt":"4800","correct":false,"confidence":3},{"trial_n":104,"span":8,"encoder":"96172815","distractor":"96372815","target":"present","response":"absent","rt":"4438","correct":false,"confidence":4},{"trial_n":105,"span":7,"encoder":"6968053","distractor":"6468053","target":"present","response":"absent","rt":"4830","correct":false,"confidence":3},{"trial_n":106,"span":6,"encoder":"382832","distractor":"387832","target":"absent","response":"absent","rt":"1602","correct":true,"confidence":3},{"trial_n":107,"span":6,"encoder":"784242","distractor":"784202","target":"present","response":"present","rt":"2856","correct":true,"confidence":5},{"trial_n":108,"span":7,"encoder":"3121538","distractor":"3141538","target":"present","response":"present","rt":"2534","correct":true,"confidence":4},{"trial_n":109,"span":7,"encoder":"2681911","distractor":"2681411","target":"present","response":"present","rt":"2411","correct":true,"confidence":3},{"trial_n":110,"span":8,"encoder":"09318356","distractor":"04318356","target":"absent","response":"present","rt":"5338","correct":false,"confidence":2},{"trial_n":111,"span":7,"encoder":"6462413","distractor":"6462213","target":"present","response":"present","rt":"3572","correct":true,"confidence":4},{"trial_n":112,"span":7,"encoder":"8477342","distractor":"8477392","target":"present","response":"present","rt":"3153","correct":true,"confidence":4},{"trial_n":113,"span":8,"encoder":"78959064","distractor":"76959064","target":"absent","response":"present","rt":"5020","correct":false,"confidence":4},{"trial_n":114,"span":7,"encoder":"4657177","distractor":"4637177","target":"present","response":"present","rt":"3115","correct":true,"confidence":3},{"trial_n":115,"span":7,"encoder":"0248314","distractor":"0243314","target":"present","response":"present","rt":"3231.9999999998","correct":true,"confidence":2},{"trial_n":116,"span":8,"encoder":"32715451","distractor":"32715491","target":"present","response":"present","rt":"3826","correct":true,"confidence":5},{"trial_n":117,"span":8,"encoder":"14600195","distractor":"14604195","target":"present","response":"present","rt":"3256.0000000001","correct":true,"confidence":1},{"trial_n":118,"span":9,"encoder":"447132952","distractor":"447132953","target":"absent","response":"absent","rt":"1374","correct":true,"confidence":4},{"trial_n":119,"span":9,"encoder":"493613503","distractor":"493643503","target":"absent","response":"absent","rt":"3835.0000000002","correct":true,"confidence":5},{"trial_n":120,"span":10,"encoder":"3010055636","distractor":"3010055633","target":"present","response":"absent","rt":"5588","correct":false,"confidence":4},{"trial_n":121,"span":9,"encoder":"669471203","distractor":"609471203","target":"absent","response":"absent","rt":"1683","correct":true,"confidence":4},{"trial_n":122,"span":9,"encoder":"274884804","distractor":"874884804","target":"present","response":"present","rt":"1860","correct":true,"confidence":4},{"trial_n":123,"span":10,"encoder":"9630317559","distractor":"9630417559","target":"absent","response":"present","rt":"6526","correct":false,"confidence":2},{"trial_n":124,"span":9,"encoder":"717400574","distractor":"817400574","target":"absent","response":"absent","rt":"1015.0000000002","correct":true,"confidence":5},{"trial_n":125,"span":9,"encoder":"388676883","distractor":"388876883","target":"absent","response":"absent","rt":"2259","correct":true,"confidence":4},{"trial_n":126,"span":10,"encoder":"6384590140","distractor":"6384990140","target":"absent","response":"present","rt":"3217","correct":false,"confidence":4},{"trial_n":127,"span":9,"encoder":"781010121","distractor":"781017121","target":"present","response":"present","rt":"3326","correct":true,"confidence":5},{"trial_n":128,"span":9,"encoder":"520042771","distractor":"524042771","target":"present","response":"present","rt":"3688","correct":true,"confidence":2},{"trial_n":129,"span":10,"encoder":"3505996442","distractor":"3505996462","target":"absent","response":"absent","rt":"3679.0000000002","correct":true,"confidence":2},{"trial_n":130,"span":10,"encoder":"8588424558","distractor":"7588424558","target":"absent","response":"absent","rt":"3833","correct":true,"confidence":2},{"trial_n":131,"span":11,"encoder":"43627898631","distractor":"43627998631","target":"present","response":"absent","rt":"6411","correct":false,"confidence":3},{"trial_n":132,"span":10,"encoder":"4402483697","distractor":"4402483696","target":"absent","response":"present","rt":"7995","correct":false,"confidence":2},{"trial_n":133,"span":9,"encoder":"258261134","distractor":"258261334","target":"present","response":"present","rt":"1580","correct":true,"confidence":4},{"trial_n":134,"span":9,"encoder":"934279051","distractor":"974279051","target":"present","response":"absent","rt":"3778","correct":false,"confidence":2},{"trial_n":135,"span":8,"encoder":"17214311","distractor":"17217311","target":"absent","response":"present","rt":"2105","correct":false,"confidence":1},{"trial_n":136,"span":7,"encoder":"9334346","distractor":"9336346","target":"absent","response":"absent","rt":"2452.9999999998","correct":true,"confidence":5},{"trial_n":137,"span":7,"encoder":"4732726","distractor":"4732736","target":"absent","response":"present","rt":"4470","correct":false,"confidence":4},{"trial_n":138,"span":6,"encoder":"800401","distractor":"400401","target":"present","response":"present","rt":"2190","correct":true,"confidence":5},{"trial_n":139,"span":6,"encoder":"181843","distractor":"182843","target":"absent","response":"present","rt":"1218","correct":false,"confidence":2},{"trial_n":140,"span":5,"encoder":"23541","distractor":"23531","target":"present","response":"present","rt":"1930","correct":true,"confidence":5}]