[{"trial_n":1,"min":25,"max":230,"target":"present","response":"absent","rt":2387,"correct":false,"confidence":-1},{"trial_n":2,"min":25,"max":230,"target":"present","response":"present","rt":2289,"correct":true,"confidence":-1},{"trial_n":3,"min":25,"max":230,"target":"absent","response":"absent","rt":1304,"correct":true,"confidence":-1},{"trial_n":4,"min":41,"max":214,"target":"absent","response":"absent","rt":745,"correct":true,"confidence":-1},{"trial_n":5,"min":41,"max":214,"target":"present","response":"present","rt":870,"correct":true,"confidence":-1},{"trial_n":6,"min":57,"max":198,"target":"absent","response":"absent","rt":906,"correct":true,"confidence":-1},{"trial_n":7,"min":57,"max":198,"target":"absent","response":"absent","rt":1157,"correct":true,"confidence":-1},{"trial_n":8,"min":73,"max":182,"target":"absent","response":"absent","rt":706,"correct":true,"confidence":-1},{"trial_n":9,"min":73,"max":182,"target":"absent","response":"absent","rt":697.00000000001,"correct":true,"confidence":-1},{"trial_n":10,"min":89,"max":166,"target":"present","response":"present","rt":1151,"correct":true,"confidence":-1},{"trial_n":11,"min":89,"max":166,"target":"absent","response":"absent","rt":656,"correct":true,"confidence":-1},{"trial_n":12,"min":97,"max":158,"target":"absent","response":"absent","rt":1379,"correct":true,"confidence":-1},{"trial_n":13,"min":97,"max":158,"target":"absent","response":"absent","rt":608,"correct":true,"confidence":-1},{"trial_n":14,"min":105,"max":150,"target":"present","response":"absent","rt":677.99999999999,"correct":false,"confidence":-1},{"trial_n":15,"min":97,"max":158,"target":"present","response":"absent","rt":1673,"correct":false,"confidence":-1},{"trial_n":16,"min":89,"max":166,"target":"absent","response":"present","rt":900,"correct":false,"confidence":-1},{"trial_n":17,"min":81,"max":174,"target":"absent","response":"absent","rt":786,"correct":true,"confidence":-1},{"trial_n":18,"min":81,"max":174,"target":"present","response":"absent","rt":822,"correct":false,"confidence":-1},{"trial_n":19,"min":73,"max":182,"target":"present","response":"absent","rt":1463,"correct":false,"confidence":-1},{"trial_n":20,"min":65,"max":190,"target":"present","response":"present","rt":919,"correct":true,"confidence":-1},{"trial_n":21,"min":65,"max":190,"target":"absent","response":"absent","rt":1488,"correct":true,"confidence":2},{"trial_n":22,"min":69,"max":186,"target":"present","response":"present","rt":1050,"correct":true,"confidence":4},{"trial_n":23,"min":69,"max":186,"target":"absent","response":"present","rt":949,"correct":false,"confidence":3},{"trial_n":24,"min":65,"max":190,"target":"absent","response":"absent","rt":1500,"correct":true,"confidence":2},{"trial_n":25,"min":65,"max":190,"target":"present","response":"present","rt":1127,"correct":true,"confidence":4},{"trial_n":26,"min":69,"max":186,"target":"absent","response":"absent","rt":827,"correct":true,"confidence":3},{"trial_n":27,"min":69,"max":186,"target":"present","response":"present","rt":820,"correct":true,"confidence":4},{"trial_n":28,"min":73,"max":182,"target":"present","response":"present","rt":986,"correct":true,"confidence":4},{"trial_n":29,"min":73,"max":182,"target":"present","response":"present","rt":1142,"correct":true,"confidence":4},{"trial_n":30,"min":77,"max":178,"target":"present","response":"present","rt":986,"correct":true,"confidence":4},{"trial_n":31,"min":77,"max":178,"target":"absent","response":"absent","rt":865.00000000001,"correct":true,"confidence":4},{"trial_n":32,"min":79,"max":176,"target":"present","response":"present","rt":909.99999999999,"correct":true,"confidence":4},{"trial_n":33,"min":79,"max":176,"target":"present","response":"absent","rt":814.00000000001,"correct":false,"confidence":1},{"trial_n":34,"min":77,"max":178,"target":"absent","response":"absent","rt":1096,"correct":true,"confidence":3},{"trial_n":35,"min":77,"max":178,"target":"present","response":"absent","rt":1259,"correct":false,"confidence":2},{"trial_n":36,"min":75,"max":180,"target":"absent","response":"absent","rt":3486,"correct":true,"confidence":4},{"trial_n":37,"min":75,"max":180,"target":"present","response":"present","rt":1017,"correct":true,"confidence":4},{"trial_n":38,"min":77,"max":178,"target":"absent","response":"absent","rt":834,"correct":true,"confidence":4},{"trial_n":39,"min":77,"max":178,"target":"absent","response":"absent","rt":1336,"correct":true,"confidence":2},{"trial_n":40,"min":79,"max":176,"target":"absent","response":"absent","rt":2383,"correct":true,"confidence":4},{"trial_n":41,"min":79,"max":176,"target":"present","response":"present","rt":1313,"correct":true,"confidence":4},{"trial_n":42,"min":80,"max":175,"target":"absent","response":"absent","rt":860,"correct":true,"confidence":3},{"trial_n":43,"min":80,"max":175,"target":"present","response":"present","rt":1188,"correct":true,"confidence":5},{"trial_n":44,"min":81,"max":174,"target":"absent","response":"absent","rt":923.00000000003,"correct":true,"confidence":5},{"trial_n":45,"min":81,"max":174,"target":"absent","response":"absent","rt":834,"correct":true,"confidence":3},{"trial_n":46,"min":82,"max":173,"target":"present","response":"present","rt":1399,"correct":true,"confidence":4},{"trial_n":47,"min":82,"max":173,"target":"present","response":"present","rt":1236,"correct":true,"confidence":4},{"trial_n":48,"min":83,"max":172,"target":"absent","response":"absent","rt":1597,"correct":true,"confidence":5},{"trial_n":49,"min":83,"max":172,"target":"present","response":"present","rt":847,"correct":true,"confidence":2},{"trial_n":50,"min":84,"max":171,"target":"absent","response":"absent","rt":941,"correct":true,"confidence":4},{"trial_n":51,"min":84,"max":171,"target":"absent","response":"absent","rt":785,"correct":true,"confidence":4},{"trial_n":52,"min":85,"max":170,"target":"absent","response":"absent","rt":729,"correct":true,"confidence":4},{"trial_n":53,"min":85,"max":170,"target":"present","response":"present","rt":854.00000000003,"correct":true,"confidence":2},{"trial_n":54,"min":86,"max":169,"target":"absent","response":"absent","rt":1197,"correct":true,"confidence":2},{"trial_n":55,"min":86,"max":169,"target":"absent","response":"absent","rt":3414,"correct":true,"confidence":4},{"trial_n":56,"min":87,"max":168,"target":"present","response":"present","rt":830.99999999997,"correct":true,"confidence":1},{"trial_n":57,"min":87,"max":168,"target":"absent","response":"present","rt":1799,"correct":false,"confidence":3},{"trial_n":58,"min":86,"max":169,"target":"present","response":"absent","rt":1118,"correct":false,"confidence":4},{"trial_n":59,"min":85,"max":170,"target":"present","response":"absent","rt":1445,"correct":false,"confidence":1},{"trial_n":60,"min":84,"max":171,"target":"present","response":"present","rt":1033,"correct":true,"confidence":1},{"trial_n":61,"min":84,"max":171,"target":"present","response":"present","rt":1058,"correct":true,"confidence":2},{"trial_n":62,"min":85,"max":170,"target":"present","response":"present","rt":860.99999999997,"correct":true,"confidence":3},{"trial_n":63,"min":85,"max":170,"target":"absent","response":"absent","rt":1068,"correct":true,"confidence":4},{"trial_n":64,"min":86,"max":169,"target":"present","response":"present","rt":834,"correct":true,"confidence":2},{"trial_n":65,"min":86,"max":169,"target":"present","response":"present","rt":896.00000000003,"correct":true,"confidence":2},{"trial_n":66,"min":87,"max":168,"target":"present","response":"present","rt":756,"correct":true,"confidence":4},{"trial_n":67,"min":87,"max":168,"target":"present","response":"absent","rt":1293.0000000001,"correct":false,"confidence":5},{"trial_n":68,"min":86,"max":169,"target":"absent","response":"absent","rt":1882,"correct":true,"confidence":4},{"trial_n":69,"min":86,"max":169,"target":"absent","response":"absent","rt":3558,"correct":true,"confidence":4},{"trial_n":70,"min":87,"max":168,"target":"present","response":"present","rt":1039,"correct":true,"confidence":3},{"trial_n":71,"min":41,"max":214,"target":"present","response":"present","rt":3283,"correct":true,"confidence":-1},{"trial_n":72,"min":41,"max":214,"target":"present","response":"present","rt":792.99999999994,"correct":true,"confidence":-1},{"trial_n":73,"min":57,"max":198,"target":"absent","response":"absent","rt":1051,"correct":true,"confidence":-1},{"trial_n":74,"min":57,"max":198,"target":"absent","response":"absent","rt":1295,"correct":true,"confidence":-1},{"trial_n":75,"min":73,"max":182,"target":"present","response":"absent","rt":1162,"correct":false,"confidence":-1},{"trial_n":76,"min":57,"max":198,"target":"absent","response":"absent","rt":905,"correct":true,"confidence":-1},{"trial_n":77,"min":57,"max":198,"target":"present","response":"present","rt":851,"correct":true,"confidence":-1},{"trial_n":78,"min":73,"max":182,"target":"absent","response":"absent","rt":921,"correct":true,"confidence":-1},{"trial_n":79,"min":73,"max":182,"target":"present","response":"absent","rt":810,"correct":false,"confidence":-1},{"trial_n":80,"min":57,"max":198,"target":"absent","response":"absent","rt":1612,"correct":true,"confidence":-1},{"trial_n":81,"min":57,"max":198,"target":"present","response":"present","rt":859,"correct":true,"confidence":-1},{"trial_n":82,"min":65,"max":190,"target":"present","response":"present","rt":1149,"correct":true,"confidence":-1},{"trial_n":83,"min":65,"max":190,"target":"absent","response":"absent","rt":662,"correct":true,"confidence":-1},{"trial_n":84,"min":73,"max":182,"target":"present","response":"present","rt":1378,"correct":true,"confidence":-1},{"trial_n":85,"min":73,"max":182,"target":"absent","response":"absent","rt":2235,"correct":true,"confidence":-1},{"trial_n":86,"min":81,"max":174,"target":"absent","response":"absent","rt":1459,"correct":true,"confidence":-1},{"trial_n":87,"min":81,"max":174,"target":"absent","response":"absent","rt":762,"correct":true,"confidence":-1},{"trial_n":88,"min":89,"max":166,"target":"absent","response":"present","rt":1157,"correct":false,"confidence":-1},{"trial_n":89,"min":81,"max":174,"target":"absent","response":"absent","rt":986.99999999994,"correct":true,"confidence":-1},{"trial_n":90,"min":81,"max":174,"target":"absent","response":"absent","rt":3458.0000000001,"correct":true,"confidence":-1},{"trial_n":91,"min":85,"max":170,"target":"present","response":"present","rt":939,"correct":true,"confidence":1},{"trial_n":92,"min":85,"max":170,"target":"present","response":"present","rt":1311,"correct":true,"confidence":4},{"trial_n":93,"min":89,"max":166,"target":"absent","response":"present","rt":1457,"correct":false,"confidence":1},{"trial_n":94,"min":85,"max":170,"target":"present","response":"present","rt":1618,"correct":true,"confidence":4},{"trial_n":95,"min":85,"max":170,"target":"present","response":"present","rt":946,"correct":true,"confidence":3},{"trial_n":96,"min":89,"max":166,"target":"absent","response":"present","rt":924,"correct":false,"confidence":3},{"trial_n":97,"min":85,"max":170,"target":"present","response":"present","rt":754,"correct":true,"confidence":5},{"trial_n":98,"min":85,"max":170,"target":"absent","response":"absent","rt":810,"correct":true,"confidence":5},{"trial_n":99,"min":89,"max":166,"target":"absent","response":"absent","rt":866,"correct":true,"confidence":4},{"trial_n":100,"min":89,"max":166,"target":"present","response":"present","rt":988,"correct":true,"confidence":1},{"trial_n":101,"min":91,"max":164,"target":"present","response":"present","rt":933,"correct":true,"confidence":3},{"trial_n":102,"min":91,"max":164,"target":"present","response":"present","rt":963.00000000006,"correct":true,"confidence":1},{"trial_n":103,"min":93,"max":162,"target":"absent","response":"present","rt":979.99999999994,"correct":false,"confidence":4},{"trial_n":104,"min":91,"max":164,"target":"absent","response":"present","rt":1557,"correct":false,"confidence":1},{"trial_n":105,"min":89,"max":166,"target":"present","response":"present","rt":1060,"correct":true,"confidence":1},{"trial_n":106,"min":89,"max":166,"target":"absent","response":"present","rt":1019.9999999999,"correct":false,"confidence":1},{"trial_n":107,"min":87,"max":168,"target":"absent","response":"absent","rt":954.00000000006,"correct":true,"confidence":5},{"trial_n":108,"min":87,"max":168,"target":"present","response":"present","rt":1125,"correct":true,"confidence":3},{"trial_n":109,"min":89,"max":166,"target":"present","response":"present","rt":2528,"correct":true,"confidence":3},{"trial_n":110,"min":89,"max":166,"target":"absent","response":"absent","rt":940,"correct":true,"confidence":2},{"trial_n":111,"min":90,"max":165,"target":"present","response":"present","rt":1100,"correct":true,"confidence":2},{"trial_n":112,"min":90,"max":165,"target":"present","response":"absent","rt":883,"correct":false,"confidence":3},{"trial_n":113,"min":89,"max":166,"target":"absent","response":"present","rt":1447.0000000001,"correct":false,"confidence":2},{"trial_n":114,"min":88,"max":167,"target":"present","response":"present","rt":1155,"correct":true,"confidence":4},{"trial_n":115,"min":88,"max":167,"target":"absent","response":"present","rt":2098,"correct":false,"confidence":3},{"trial_n":116,"min":87,"max":168,"target":"present","response":"present","rt":1333.9999999999,"correct":true,"confidence":3},{"trial_n":117,"min":87,"max":168,"target":"absent","response":"absent","rt":1774,"correct":true,"confidence":1},{"trial_n":118,"min":88,"max":167,"target":"present","response":"present","rt":816,"correct":true,"confidence":4},{"trial_n":119,"min":88,"max":167,"target":"present","response":"present","rt":1302,"correct":true,"confidence":2},{"trial_n":120,"min":89,"max":166,"target":"present","response":"present","rt":1019,"correct":true,"confidence":1},{"trial_n":121,"min":89,"max":166,"target":"absent","response":"present","rt":1073,"correct":false,"confidence":2},{"trial_n":122,"min":88,"max":167,"target":"present","response":"present","rt":1141,"correct":true,"confidence":4},{"trial_n":123,"min":88,"max":167,"target":"absent","response":"absent","rt":1755,"correct":true,"confidence":3},{"trial_n":124,"min":89,"max":166,"target":"present","response":"present","rt":1027.9999999999,"correct":true,"confidence":4},{"trial_n":125,"min":89,"max":166,"target":"absent","response":"present","rt":2959,"correct":false,"confidence":1},{"trial_n":126,"min":88,"max":167,"target":"absent","response":"present","rt":874,"correct":false,"confidence":4},{"trial_n":127,"min":87,"max":168,"target":"present","response":"present","rt":823.00000000012,"correct":true,"confidence":4},{"trial_n":128,"min":87,"max":168,"target":"present","response":"present","rt":1183,"correct":true,"confidence":3},{"trial_n":129,"min":88,"max":167,"target":"present","response":"present","rt":718,"correct":true,"confidence":4},{"trial_n":130,"min":88,"max":167,"target":"present","response":"present","rt":1142,"correct":true,"confidence":3},{"trial_n":131,"min":89,"max":166,"target":"absent","response":"absent","rt":1212,"correct":true,"confidence":2},{"trial_n":132,"min":89,"max":166,"target":"present","response":"present","rt":1861.0000000001,"correct":true,"confidence":3},{"trial_n":133,"min":90,"max":165,"target":"absent","response":"absent","rt":1475,"correct":true,"confidence":3},{"trial_n":134,"min":90,"max":165,"target":"present","response":"present","rt":840,"correct":true,"confidence":5},{"trial_n":135,"min":91,"max":164,"target":"absent","response":"present","rt":949,"correct":false,"confidence":3},{"trial_n":136,"min":90,"max":165,"target":"absent","response":"absent","rt":1350,"correct":true,"confidence":4},{"trial_n":137,"min":90,"max":165,"target":"present","response":"present","rt":1660.0000000001,"correct":true,"confidence":4},{"trial_n":138,"min":91,"max":164,"target":"absent","response":"absent","rt":1011,"correct":true,"confidence":1},{"trial_n":139,"min":91,"max":164,"target":"present","response":"present","rt":1222,"correct":true,"confidence":4},{"trial_n":140,"min":92,"max":163,"target":"absent","response":"absent","rt":1837,"correct":true,"confidence":1}]