[{"trial_n":1,"span":8,"encoder":"20860058","distractor":"20860958","target":"present","response":"present","rt":"4614.8000000119","correct":true,"confidence":-1},{"trial_n":2,"span":8,"encoder":"15795873","distractor":"15790873","target":"present","response":"present","rt":"2921","correct":true,"confidence":-1},{"trial_n":3,"span":10,"encoder":"5448586686","distractor":"5448586786","target":"absent","response":"absent","rt":"3535.6999999881","correct":true,"confidence":-1},{"trial_n":4,"span":10,"encoder":"9901516440","distractor":"9981516440","target":"absent","response":"absent","rt":"2588.400000006","correct":true,"confidence":-1},{"trial_n":5,"span":12,"encoder":"188758733884","distractor":"188758533884","target":"present","response":"present","rt":"2610.5","correct":true,"confidence":-1},{"trial_n":6,"span":12,"encoder":"432137602332","distractor":"432137602331","target":"present","response":"absent","rt":"2215.7000000179","correct":false,"confidence":-1},{"trial_n":7,"span":10,"encoder":"4954650811","distractor":"4954650818","target":"present","response":"present","rt":"1239.5","correct":true,"confidence":-1},{"trial_n":8,"span":10,"encoder":"7708570114","distractor":"7708570814","target":"present","response":"present","rt":"2306.5","correct":true,"confidence":-1},{"trial_n":9,"span":12,"encoder":"295434222877","distractor":"295434222077","target":"present","response":"present","rt":"1918.5","correct":true,"confidence":-1},{"trial_n":10,"span":12,"encoder":"465784083410","distractor":"465784073410","target":"absent","response":"absent","rt":"3115.1999999881","correct":true,"confidence":-1},{"trial_n":11,"span":14,"encoder":"42002828731219","distractor":"42002828731519","target":"present","response":"absent","rt":"4097.599999994","correct":false,"confidence":-1},{"trial_n":12,"span":13,"encoder":"3004864011169","distractor":"3004884011169","target":"present","response":"present","rt":"2765.099999994","correct":true,"confidence":-1},{"trial_n":13,"span":13,"encoder":"1746389462354","distractor":"1746389462344","target":"absent","response":"absent","rt":"1733.7000000179","correct":true,"confidence":-1},{"trial_n":14,"span":14,"encoder":"74625924913575","distractor":"94625924913575","target":"absent","response":"absent","rt":"2638.6999999881","correct":true,"confidence":-1},{"trial_n":15,"span":14,"encoder":"47325886003511","distractor":"47325886003111","target":"present","response":"present","rt":"2917.8000000119","correct":true,"confidence":-1},{"trial_n":16,"span":15,"encoder":"522815813647422","distractor":"522810813647422","target":"absent","response":"absent","rt":"3343.2000000179","correct":true,"confidence":-1},{"trial_n":17,"span":15,"encoder":"977520719292953","distractor":"977570719292953","target":"absent","response":"present","rt":"2752.6999999881","correct":false,"confidence":-1},{"trial_n":18,"span":14,"encoder":"76218281060197","distractor":"76418281060197","target":"present","response":"absent","rt":"2829.2999999821","correct":false,"confidence":-1},{"trial_n":19,"span":13,"encoder":"5916499918548","distractor":"5416499918548","target":"present","response":"absent","rt":"2448.8999999762","correct":false,"confidence":-1},{"trial_n":20,"span":12,"encoder":"103205686899","distractor":"103209686899","target":"absent","response":"absent","rt":"4997.8000000119","correct":true,"confidence":-1},{"trial_n":21,"span":12,"encoder":"953635096113","distractor":"953631096113","target":"present","response":"present","rt":"1950.2999999821","correct":true,"confidence":3},{"trial_n":22,"span":13,"encoder":"2686698192226","distractor":"2686698192296","target":"absent","response":"absent","rt":"7691.3000000119","correct":true,"confidence":4},{"trial_n":23,"span":13,"encoder":"6484043711179","distractor":"6484943711179","target":"present","response":"present","rt":"2247.6999999881","correct":true,"confidence":3},{"trial_n":24,"span":14,"encoder":"09822053381101","distractor":"09822053381103","target":"absent","response":"absent","rt":"1829.1000000238","correct":true,"confidence":5},{"trial_n":25,"span":14,"encoder":"99355867160454","distractor":"69355867160454","target":"absent","response":"absent","rt":"3496.8000000119","correct":true,"confidence":4},{"trial_n":26,"span":15,"encoder":"677008653290818","distractor":"677038653290818","target":"present","response":"present","rt":"7408.400000006","correct":true,"confidence":3},{"trial_n":27,"span":15,"encoder":"552086332272329","distractor":"552086362272329","target":"absent","response":"absent","rt":"11258.100000024","correct":true,"confidence":4},{"trial_n":28,"span":16,"encoder":"8547247933122020","distractor":"8547247933122060","target":"present","response":"absent","rt":"6761.5","correct":false,"confidence":3},{"trial_n":29,"span":15,"encoder":"468339016101627","distractor":"468339066101627","target":"absent","response":"absent","rt":"7600.3000000119","correct":true,"confidence":3},{"trial_n":30,"span":15,"encoder":"993348636426614","distractor":"993348696426614","target":"present","response":"present","rt":"8026.3000000119","correct":true,"confidence":4},{"trial_n":31,"span":16,"encoder":"0952724082657856","distractor":"0952724082653856","target":"absent","response":"absent","rt":"12218.300000012","correct":true,"confidence":3},{"trial_n":32,"span":16,"encoder":"4019340405270336","distractor":"4012340405270336","target":"present","response":"present","rt":"11407.100000024","correct":true,"confidence":3},{"trial_n":33,"span":17,"encoder":"52047954998250339","distractor":"52047954993250339","target":"present","response":"present","rt":"9572.5","correct":true,"confidence":3},{"trial_n":34,"span":17,"encoder":"49754390755303996","distractor":"49754390755300996","target":"absent","response":"present","rt":"8034.8000000119","correct":false,"confidence":3},{"trial_n":35,"span":16,"encoder":"9800041070486489","distractor":"9800091070486489","target":"present","response":"present","rt":"7712","correct":true,"confidence":4},{"trial_n":36,"span":16,"encoder":"0721768386576316","distractor":"0721764386576316","target":"absent","response":"present","rt":"6892.6999999881","correct":false,"confidence":3},{"trial_n":37,"span":15,"encoder":"531000171288514","distractor":"511000171288514","target":"present","response":"present","rt":"6931.2000000179","correct":true,"confidence":4},{"trial_n":38,"span":15,"encoder":"983887583662403","distractor":"983889583662403","target":"absent","response":"present","rt":"3207.1999999881","correct":false,"confidence":3},{"trial_n":39,"span":14,"encoder":"52155186970816","distractor":"52155186270816","target":"present","response":"present","rt":"5992.6000000238","correct":true,"confidence":3},{"trial_n":40,"span":14,"encoder":"33062898533706","distractor":"83062898533706","target":"absent","response":"absent","rt":"5507.8000000119","correct":true,"confidence":4},{"trial_n":41,"span":15,"encoder":"118781498213519","distractor":"118781098213519","target":"absent","response":"absent","rt":"15779.099999994","correct":true,"confidence":2},{"trial_n":42,"span":15,"encoder":"122071837090529","distractor":"122071837090579","target":"present","response":"present","rt":"5950.400000006","correct":true,"confidence":3},{"trial_n":43,"span":16,"encoder":"6694766642551039","distractor":"6694766642551739","target":"present","response":"present","rt":"5015.3000000119","correct":true,"confidence":3},{"trial_n":44,"span":16,"encoder":"5322054857288840","distractor":"5322754857288840","target":"present","response":"present","rt":"3820.400000006","correct":true,"confidence":3},{"trial_n":45,"span":17,"encoder":"11299951822794591","distractor":"11299951852794591","target":"absent","response":"present","rt":"6686.2999999821","correct":false,"confidence":3},{"trial_n":46,"span":16,"encoder":"6018297886721779","distractor":"6018297866721779","target":"absent","response":"absent","rt":"9106.6999999881","correct":true,"confidence":3},{"trial_n":47,"span":16,"encoder":"2305740402762060","distractor":"2305730402762060","target":"absent","response":"absent","rt":"10281.700000018","correct":true,"confidence":3},{"trial_n":48,"span":17,"encoder":"55599223330612685","distractor":"55599223330712685","target":"absent","response":"absent","rt":"9140.2999999821","correct":true,"confidence":2},{"trial_n":49,"span":17,"encoder":"97297018592849461","distractor":"97297018592849471","target":"present","response":"absent","rt":"8949.6999999881","correct":false,"confidence":2},{"trial_n":50,"span":16,"encoder":"4898360777619111","distractor":"4892360777619111","target":"absent","response":"absent","rt":"10989","correct":true,"confidence":3},{"trial_n":51,"span":16,"encoder":"3905456760548790","distractor":"3905456760543790","target":"absent","response":"absent","rt":"6103.099999994","correct":true,"confidence":2},{"trial_n":52,"span":17,"encoder":"42613860456649229","distractor":"42613560456649229","target":"present","response":"present","rt":"6439","correct":true,"confidence":3},{"trial_n":53,"span":17,"encoder":"89133275991085921","distractor":"89136275991085921","target":"absent","response":"absent","rt":"4624.2999999821","correct":true,"confidence":5},{"trial_n":54,"span":18,"encoder":"769163199913223098","distractor":"769163199913123098","target":"present","response":"present","rt":"9330.3000000119","correct":true,"confidence":3},{"trial_n":55,"span":18,"encoder":"969020750282815612","distractor":"969020450282815612","target":"absent","response":"absent","rt":"8160.5","correct":true,"confidence":2},{"trial_n":56,"span":19,"encoder":"8457881826114828361","distractor":"8457881824114828361","target":"present","response":"present","rt":"8323.599999994","correct":true,"confidence":2},{"trial_n":57,"span":19,"encoder":"5847466024128832549","distractor":"5847466020128832549","target":"absent","response":"absent","rt":"7412.7999999821","correct":true,"confidence":4},{"trial_n":58,"span":20,"encoder":"68225232996669757815","distractor":"68225292996669757815","target":"absent","response":"absent","rt":"7125","correct":true,"confidence":4},{"trial_n":59,"span":20,"encoder":"93715450328372866734","distractor":"93715450328392866734","target":"present","response":"present","rt":"10108.400000006","correct":true,"confidence":2},{"trial_n":60,"span":21,"encoder":"073985125952435491495","distractor":"073985125932435491495","target":"absent","response":"absent","rt":"2239.1999999881","correct":true,"confidence":2},{"trial_n":61,"span":21,"encoder":"207625263213808310392","distractor":"247625263213808310392","target":"present","response":"present","rt":"82198.700000018","correct":true,"confidence":3},{"trial_n":62,"span":22,"encoder":"8008023527628602252630","distractor":"8008023527628602253630","target":"present","response":"present","rt":"9976.1999999881","correct":true,"confidence":2},{"trial_n":63,"span":22,"encoder":"8248341608055197472599","distractor":"8248340608055197472599","target":"absent","response":"present","rt":"5918.5","correct":false,"confidence":2},{"trial_n":64,"span":21,"encoder":"713004087457443586146","distractor":"713004087457445586146","target":"absent","response":"present","rt":"9550.900000006","correct":false,"confidence":3},{"trial_n":65,"span":20,"encoder":"01594641787975359419","distractor":"01594641787975359449","target":"absent","response":"absent","rt":"11243.599999994","correct":true,"confidence":5},{"trial_n":66,"span":20,"encoder":"89165106545756547468","distractor":"89465106545756547468","target":"absent","response":"absent","rt":"10753.5","correct":true,"confidence":3},{"trial_n":67,"span":21,"encoder":"569891535390609425004","distractor":"569891535390609425044","target":"present","response":"present","rt":"10884.600000024","correct":true,"confidence":3},{"trial_n":68,"span":21,"encoder":"325588467142344815387","distractor":"355588467142344815387","target":"present","response":"present","rt":"5330.6999999881","correct":true,"confidence":3},{"trial_n":69,"span":22,"encoder":"0718611440276440749943","distractor":"0718711440276440749943","target":"present","response":"present","rt":"3311.900000006","correct":true,"confidence":2},{"trial_n":70,"span":22,"encoder":"9434434071106722475789","distractor":"9434434071106722475769","target":"present","response":"present","rt":"8924.8999999762","correct":true,"confidence":3},{"trial_n":71,"span":8,"encoder":"93971336","distractor":"93991336","target":"present","response":"present","rt":"12634.5","correct":true,"confidence":-1},{"trial_n":72,"span":8,"encoder":"31540916","distractor":"31540016","target":"present","response":"present","rt":"4796.6999999881","correct":true,"confidence":-1},{"trial_n":73,"span":9,"encoder":"920664076","distractor":"920164076","target":"absent","response":"absent","rt":"6588","correct":true,"confidence":-1},{"trial_n":74,"span":9,"encoder":"738235106","distractor":"768235106","target":"absent","response":"present","rt":"30707.800000012","correct":false,"confidence":-1},{"trial_n":75,"span":8,"encoder":"20041713","distractor":"20041813","target":"present","response":"present","rt":"2203.099999994","correct":true,"confidence":-1},{"trial_n":76,"span":8,"encoder":"84248456","distractor":"84248156","target":"absent","response":"absent","rt":"3679.900000006","correct":true,"confidence":-1},{"trial_n":77,"span":9,"encoder":"713169999","distractor":"713161999","target":"present","response":"present","rt":"2225.8000000119","correct":true,"confidence":-1},{"trial_n":78,"span":9,"encoder":"698022136","distractor":"198022136","target":"absent","response":"absent","rt":"3651.8999999762","correct":true,"confidence":-1},{"trial_n":79,"span":10,"encoder":"7717752472","distractor":"7777752472","target":"present","response":"present","rt":"2050.5","correct":true,"confidence":-1},{"trial_n":80,"span":10,"encoder":"5332755177","distractor":"5332655177","target":"present","response":"present","rt":"4336.5","correct":true,"confidence":-1},{"trial_n":81,"span":11,"encoder":"17498559861","distractor":"17498559761","target":"absent","response":"absent","rt":"3666.6000000238","correct":true,"confidence":-1},{"trial_n":82,"span":11,"encoder":"10815151942","distractor":"10825151942","target":"absent","response":"present","rt":"3316.900000006","correct":false,"confidence":-1},{"trial_n":83,"span":10,"encoder":"7147916383","distractor":"7157916383","target":"absent","response":"absent","rt":"3697.900000006","correct":true,"confidence":-1},{"trial_n":84,"span":10,"encoder":"5061482309","distractor":"5061882309","target":"absent","response":"absent","rt":"2844.5","correct":true,"confidence":-1},{"trial_n":85,"span":11,"encoder":"46804825878","distractor":"46204825878","target":"present","response":"present","rt":"5606.3000000119","correct":true,"confidence":-1},{"trial_n":86,"span":11,"encoder":"30976000631","distractor":"30976000831","target":"absent","response":"present","rt":"4861.2000000179","correct":false,"confidence":-1},{"trial_n":87,"span":10,"encoder":"8666996264","distractor":"8566996264","target":"absent","response":"absent","rt":"3870.5","correct":true,"confidence":-1},{"trial_n":88,"span":10,"encoder":"4718232452","distractor":"4778232452","target":"absent","response":"absent","rt":"6036.3000000119","correct":true,"confidence":-1},{"trial_n":89,"span":11,"encoder":"20689070388","distractor":"20689070385","target":"present","response":"present","rt":"1690.2000000179","correct":true,"confidence":-1},{"trial_n":90,"span":11,"encoder":"78445460891","distractor":"78445460896","target":"present","response":"present","rt":"4364","correct":true,"confidence":-1},{"trial_n":91,"span":12,"encoder":"714907237617","distractor":"716907237617","target":"absent","response":"absent","rt":"6151.400000006","correct":true,"confidence":5},{"trial_n":92,"span":12,"encoder":"493242257043","distractor":"793242257043","target":"present","response":"present","rt":"9560.8000000119","correct":true,"confidence":5},{"trial_n":93,"span":13,"encoder":"0592997855370","distractor":"0592997855320","target":"present","response":"present","rt":"7823.5","correct":true,"confidence":5},{"trial_n":94,"span":13,"encoder":"4759672542611","distractor":"4859672542611","target":"present","response":"present","rt":"3872.900000006","correct":true,"confidence":5},{"trial_n":95,"span":14,"encoder":"75625141134565","distractor":"75625141434565","target":"absent","response":"absent","rt":"17789.300000012","correct":true,"confidence":4},{"trial_n":96,"span":14,"encoder":"48925597819950","distractor":"58925597819950","target":"absent","response":"absent","rt":"3093.900000006","correct":true,"confidence":5},{"trial_n":97,"span":15,"encoder":"136826769921681","distractor":"136826769921981","target":"present","response":"present","rt":"3928.900000006","correct":true,"confidence":5},{"trial_n":98,"span":15,"encoder":"112107259839283","distractor":"112107289839283","target":"absent","response":"absent","rt":"6009.8999999762","correct":true,"confidence":4},{"trial_n":99,"span":16,"encoder":"7114516323609227","distractor":"7114516323689227","target":"absent","response":"absent","rt":"5493.2000000179","correct":true,"confidence":4},{"trial_n":100,"span":16,"encoder":"2320592436879651","distractor":"2320592436279651","target":"present","response":"absent","rt":"8607.400000006","correct":false,"confidence":4},{"trial_n":101,"span":15,"encoder":"094711810364290","distractor":"094711810364690","target":"present","response":"present","rt":"4380","correct":true,"confidence":5},{"trial_n":102,"span":15,"encoder":"600269593248966","distractor":"600269593278966","target":"present","response":"present","rt":"4438.7000000179","correct":true,"confidence":4},{"trial_n":103,"span":16,"encoder":"6937509906350957","distractor":"6937509906750957","target":"present","response":"present","rt":"6605.3999999762","correct":true,"confidence":4},{"trial_n":104,"span":16,"encoder":"0728038156187815","distractor":"0728038156189815","target":"absent","response":"absent","rt":"4234.1999999881","correct":true,"confidence":5},{"trial_n":105,"span":17,"encoder":"66307652492585076","distractor":"66307652492185076","target":"present","response":"present","rt":"6140","correct":true,"confidence":4},{"trial_n":106,"span":17,"encoder":"96941724788648860","distractor":"96941224788648860","target":"present","response":"absent","rt":"11194.5","correct":false,"confidence":3},{"trial_n":107,"span":16,"encoder":"6000590184668585","distractor":"6000590184968585","target":"absent","response":"absent","rt":"8454.8000000119","correct":true,"confidence":3},{"trial_n":108,"span":16,"encoder":"0742805176790591","distractor":"0722805176790591","target":"absent","response":"absent","rt":"6323.8000000119","correct":true,"confidence":3},{"trial_n":109,"span":17,"encoder":"48638886399904463","distractor":"48638886339904463","target":"present","response":"present","rt":"12027.599999994","correct":true,"confidence":3},{"trial_n":110,"span":17,"encoder":"35642084173034631","distractor":"36642084173034631","target":"absent","response":"absent","rt":"8087.2000000179","correct":true,"confidence":3},{"trial_n":111,"span":18,"encoder":"798287085930542046","distractor":"708287085930542046","target":"present","response":"present","rt":"4398.400000006","correct":true,"confidence":4},{"trial_n":112,"span":18,"encoder":"726786428556593411","distractor":"726786428556593414","target":"absent","response":"absent","rt":"2131","correct":true,"confidence":5},{"trial_n":113,"span":19,"encoder":"8823679427177478935","distractor":"8823679427177478925","target":"present","response":"present","rt":"1922.3000000119","correct":true,"confidence":5},{"trial_n":114,"span":19,"encoder":"8881033138411598640","distractor":"8881039138411598640","target":"absent","response":"present","rt":"8002.5","correct":false,"confidence":3},{"trial_n":115,"span":18,"encoder":"706100299548136419","distractor":"706100299548186419","target":"present","response":"present","rt":"14986","correct":true,"confidence":3},{"trial_n":116,"span":18,"encoder":"827379187048670256","distractor":"827379187048670255","target":"present","response":"present","rt":"2106.5","correct":true,"confidence":5},{"trial_n":117,"span":19,"encoder":"6268381357870798187","distractor":"6268381357870798184","target":"present","response":"present","rt":"1960.400000006","correct":true,"confidence":5},{"trial_n":118,"span":19,"encoder":"2891539897887330172","distractor":"2891539847887330172","target":"absent","response":"absent","rt":"11097.200000018","correct":true,"confidence":3},{"trial_n":119,"span":20,"encoder":"13067745635674989728","distractor":"13097745635674989728","target":"absent","response":"absent","rt":"5696.900000006","correct":true,"confidence":3},{"trial_n":120,"span":20,"encoder":"57522670901610117847","distractor":"57522870901610117847","target":"absent","response":"absent","rt":"9789.8000000119","correct":true,"confidence":3},{"trial_n":121,"span":21,"encoder":"791827550023217965350","distractor":"791827550823217965350","target":"present","response":"absent","rt":"8731.6000000238","correct":false,"confidence":3},{"trial_n":122,"span":20,"encoder":"01647210416126167007","distractor":"00647210416126167007","target":"present","response":"present","rt":"3409.2999999821","correct":true,"confidence":5},{"trial_n":123,"span":20,"encoder":"42756936255985355453","distractor":"72756936255985355453","target":"absent","response":"absent","rt":"5144.5","correct":true,"confidence":4},{"trial_n":124,"span":21,"encoder":"525158560695814848799","distractor":"525158560695114848799","target":"absent","response":"absent","rt":"6626.8000000119","correct":true,"confidence":3},{"trial_n":125,"span":21,"encoder":"194763979742943390385","distractor":"494763979742943390385","target":"absent","response":"absent","rt":"7698.6999999881","correct":true,"confidence":3},{"trial_n":126,"span":22,"encoder":"3837089178237044721443","distractor":"3837089174237044721443","target":"present","response":"present","rt":"21708.599999994","correct":true,"confidence":3},{"trial_n":127,"span":22,"encoder":"5964815957037332962901","distractor":"5964815947037332962901","target":"present","response":"present","rt":"8369.6000000238","correct":true,"confidence":2},{"trial_n":128,"span":23,"encoder":"37104702848798583036472","distractor":"37104702848798583036412","target":"absent","response":"absent","rt":"2016","correct":true,"confidence":4},{"trial_n":129,"span":23,"encoder":"38196999190651286656623","distractor":"38196999090651286656623","target":"present","response":"present","rt":"14642.199999988","correct":true,"confidence":2},{"trial_n":130,"span":24,"encoder":"189137167358295301515885","distractor":"189137167398295301515885","target":"absent","response":"absent","rt":"19387","correct":true,"confidence":2},{"trial_n":131,"span":24,"encoder":"888672491616307057982836","distractor":"888672491676307057982836","target":"present","response":"absent","rt":"15124.699999988","correct":false,"confidence":3},{"trial_n":132,"span":23,"encoder":"63491610918735153834439","distractor":"63791610918735153834439","target":"present","response":"present","rt":"18957.799999982","correct":true,"confidence":3},{"trial_n":133,"span":23,"encoder":"99292942411626121985452","distractor":"99292942411626121385452","target":"absent","response":"absent","rt":"10277.800000012","correct":true,"confidence":3},{"trial_n":134,"span":24,"encoder":"882104215965497842999451","distractor":"882104215965497842999457","target":"absent","response":"absent","rt":"2419.3000000119","correct":true,"confidence":5},{"trial_n":135,"span":24,"encoder":"475489906220424534979853","distractor":"475489906220424554979853","target":"present","response":"present","rt":"9643.8000000119","correct":true,"confidence":3},{"trial_n":136,"span":25,"encoder":"2169054180344913979003799","distractor":"8169054180344913979003799","target":"absent","response":"absent","rt":"4407.2000000179","correct":true,"confidence":3},{"trial_n":137,"span":25,"encoder":"8965863947369008132513558","distractor":"8965863967369008132513558","target":"absent","response":"absent","rt":"19722.900000006","correct":true,"confidence":2},{"trial_n":138,"span":26,"encoder":"94189734740881304200049391","distractor":"94189734740881704200049391","target":"present","response":"absent","rt":"10989","correct":false,"confidence":2},{"trial_n":139,"span":25,"encoder":"5822142190881489666763179","distractor":"5825142190881489666763179","target":"present","response":"absent","rt":"6801.5","correct":false,"confidence":2},{"trial_n":140,"span":24,"encoder":"976952101801657541433266","distractor":"676952101801657541433266","target":"present","response":"present","rt":"4910.5","correct":true,"confidence":3}]