[{"trial_n":1,"min":25,"max":230,"target":"present","response":"absent","rt":10507.100000024,"correct":false,"confidence":-1},{"trial_n":2,"min":25,"max":230,"target":"present","response":"present","rt":2069.6000000238,"correct":true,"confidence":-1},{"trial_n":3,"min":25,"max":230,"target":"absent","response":"absent","rt":2600.1000000238,"correct":true,"confidence":-1},{"trial_n":4,"min":41,"max":214,"target":"absent","response":"absent","rt":1934.7999999523,"correct":true,"confidence":-1},{"trial_n":5,"min":41,"max":214,"target":"present","response":"present","rt":3321.2999999523,"correct":true,"confidence":-1},{"trial_n":6,"min":57,"max":198,"target":"present","response":"absent","rt":1191.4000000954,"correct":false,"confidence":-1},{"trial_n":7,"min":41,"max":214,"target":"absent","response":"absent","rt":964.20000004768,"correct":true,"confidence":-1},{"trial_n":8,"min":41,"max":214,"target":"present","response":"present","rt":911.19999992847,"correct":true,"confidence":-1},{"trial_n":9,"min":57,"max":198,"target":"absent","response":"absent","rt":1278,"correct":true,"confidence":-1},{"trial_n":10,"min":57,"max":198,"target":"absent","response":"absent","rt":520.69999992847,"correct":true,"confidence":-1},{"trial_n":11,"min":65,"max":190,"target":"absent","response":"absent","rt":488.5,"correct":true,"confidence":-1},{"trial_n":12,"min":65,"max":190,"target":"present","response":"present","rt":876.30000007153,"correct":true,"confidence":-1},{"trial_n":13,"min":73,"max":182,"target":"absent","response":"absent","rt":667.69999992847,"correct":true,"confidence":-1},{"trial_n":14,"min":73,"max":182,"target":"present","response":"present","rt":692.70000004768,"correct":true,"confidence":-1},{"trial_n":15,"min":81,"max":174,"target":"present","response":"absent","rt":640.69999992847,"correct":false,"confidence":-1},{"trial_n":16,"min":73,"max":182,"target":"absent","response":"absent","rt":699.79999995232,"correct":true,"confidence":-1},{"trial_n":17,"min":73,"max":182,"target":"present","response":"present","rt":1001.2999999523,"correct":true,"confidence":-1},{"trial_n":18,"min":81,"max":174,"target":"absent","response":"absent","rt":841.70000004768,"correct":true,"confidence":-1},{"trial_n":19,"min":81,"max":174,"target":"present","response":"present","rt":1038.2000000477,"correct":true,"confidence":-1},{"trial_n":20,"min":89,"max":166,"target":"present","response":"present","rt":899.20000004768,"correct":true,"confidence":-1},{"trial_n":21,"min":89,"max":166,"target":"absent","response":"absent","rt":1786.7999999523,"correct":true,"confidence":3},{"trial_n":22,"min":93,"max":162,"target":"present","response":"absent","rt":1519.5,"correct":false,"confidence":3},{"trial_n":23,"min":89,"max":166,"target":"absent","response":"absent","rt":1058.5999999046,"correct":true,"confidence":5},{"trial_n":24,"min":89,"max":166,"target":"present","response":"present","rt":3207.6999999285,"correct":true,"confidence":3},{"trial_n":25,"min":93,"max":162,"target":"absent","response":"absent","rt":1087.3999999762,"correct":true,"confidence":3},{"trial_n":26,"min":93,"max":162,"target":"absent","response":"absent","rt":917.20000004768,"correct":true,"confidence":5},{"trial_n":27,"min":97,"max":158,"target":"present","response":"present","rt":2272.2999999523,"correct":true,"confidence":3},{"trial_n":28,"min":97,"max":158,"target":"present","response":"present","rt":2151.7000000477,"correct":true,"confidence":4},{"trial_n":29,"min":101,"max":154,"target":"present","response":"absent","rt":1158.6000000238,"correct":false,"confidence":5},{"trial_n":30,"min":97,"max":158,"target":"absent","response":"absent","rt":1428.6999999285,"correct":true,"confidence":2},{"trial_n":31,"min":97,"max":158,"target":"absent","response":"absent","rt":1833.7999999523,"correct":true,"confidence":4},{"trial_n":32,"min":99,"max":156,"target":"absent","response":"absent","rt":2320.8999999762,"correct":true,"confidence":5},{"trial_n":33,"min":99,"max":156,"target":"present","response":"absent","rt":1014.5,"correct":false,"confidence":3},{"trial_n":34,"min":97,"max":158,"target":"absent","response":"present","rt":1136.8999999762,"correct":false,"confidence":2},{"trial_n":35,"min":95,"max":160,"target":"present","response":"present","rt":1307.2000000477,"correct":true,"confidence":2},{"trial_n":36,"min":95,"max":160,"target":"present","response":"absent","rt":1978.3999999762,"correct":false,"confidence":3},{"trial_n":37,"min":93,"max":162,"target":"present","response":"present","rt":1698.2000000477,"correct":true,"confidence":2},{"trial_n":38,"min":93,"max":162,"target":"present","response":"absent","rt":1247.3999999762,"correct":false,"confidence":4},{"trial_n":39,"min":91,"max":164,"target":"present","response":"absent","rt":1879.7999999523,"correct":false,"confidence":5},{"trial_n":40,"min":89,"max":166,"target":"absent","response":"present","rt":1021.3999999762,"correct":false,"confidence":3},{"trial_n":41,"min":88,"max":167,"target":"present","response":"absent","rt":1276,"correct":false,"confidence":5},{"trial_n":42,"min":87,"max":168,"target":"absent","response":"absent","rt":830.29999995232,"correct":true,"confidence":5},{"trial_n":43,"min":87,"max":168,"target":"absent","response":"absent","rt":711.20000004768,"correct":true,"confidence":5},{"trial_n":44,"min":88,"max":167,"target":"present","response":"present","rt":1026.2999999523,"correct":true,"confidence":4},{"trial_n":45,"min":88,"max":167,"target":"absent","response":"absent","rt":1153.3999999762,"correct":true,"confidence":3},{"trial_n":46,"min":89,"max":166,"target":"present","response":"present","rt":1082.1000000238,"correct":true,"confidence":5},{"trial_n":47,"min":89,"max":166,"target":"absent","response":"present","rt":1073.7000000477,"correct":false,"confidence":5},{"trial_n":48,"min":88,"max":167,"target":"present","response":"present","rt":733.10000002384,"correct":true,"confidence":5},{"trial_n":49,"min":88,"max":167,"target":"absent","response":"absent","rt":907.80000007153,"correct":true,"confidence":2},{"trial_n":50,"min":89,"max":166,"target":"absent","response":"present","rt":847.39999997616,"correct":false,"confidence":4},{"trial_n":51,"min":88,"max":167,"target":"present","response":"absent","rt":1240.2999999523,"correct":false,"confidence":2},{"trial_n":52,"min":87,"max":168,"target":"absent","response":"present","rt":1317.8999999762,"correct":false,"confidence":3},{"trial_n":53,"min":86,"max":169,"target":"present","response":"present","rt":1332.8999999762,"correct":true,"confidence":5},{"trial_n":54,"min":86,"max":169,"target":"present","response":"present","rt":1392.3000000715,"correct":true,"confidence":4},{"trial_n":55,"min":87,"max":168,"target":"present","response":"absent","rt":1252.7999999523,"correct":false,"confidence":2},{"trial_n":56,"min":86,"max":169,"target":"absent","response":"present","rt":1276,"correct":false,"confidence":3},{"trial_n":57,"min":85,"max":170,"target":"present","response":"present","rt":780.89999997616,"correct":true,"confidence":4},{"trial_n":58,"min":85,"max":170,"target":"absent","response":"absent","rt":2811.8999999762,"correct":true,"confidence":2},{"trial_n":59,"min":86,"max":169,"target":"present","response":"present","rt":1099.2999999523,"correct":true,"confidence":4},{"trial_n":60,"min":86,"max":169,"target":"absent","response":"absent","rt":843.89999997616,"correct":true,"confidence":4},{"trial_n":61,"min":87,"max":168,"target":"absent","response":"absent","rt":1129.8999999762,"correct":true,"confidence":4},{"trial_n":62,"min":87,"max":168,"target":"absent","response":"absent","rt":1201.9000000954,"correct":true,"confidence":5},{"trial_n":63,"min":88,"max":167,"target":"present","response":"absent","rt":1496.1999999285,"correct":false,"confidence":4},{"trial_n":64,"min":87,"max":168,"target":"present","response":"present","rt":797.69999992847,"correct":true,"confidence":4},{"trial_n":65,"min":87,"max":168,"target":"present","response":"present","rt":1422.6999999285,"correct":true,"confidence":4},{"trial_n":66,"min":88,"max":167,"target":"present","response":"absent","rt":706.59999990463,"correct":false,"confidence":4},{"trial_n":67,"min":87,"max":168,"target":"absent","response":"absent","rt":884.70000004768,"correct":true,"confidence":5},{"trial_n":68,"min":87,"max":168,"target":"absent","response":"absent","rt":1042,"correct":true,"confidence":3},{"trial_n":69,"min":88,"max":167,"target":"absent","response":"absent","rt":909.40000009537,"correct":true,"confidence":5},{"trial_n":70,"min":88,"max":167,"target":"absent","response":"absent","rt":726.5,"correct":true,"confidence":5},{"trial_n":71,"min":41,"max":214,"target":"present","response":"present","rt":12611,"correct":true,"confidence":-1},{"trial_n":72,"min":41,"max":214,"target":"present","response":"present","rt":726.79999995232,"correct":true,"confidence":-1},{"trial_n":73,"min":57,"max":198,"target":"absent","response":"absent","rt":753.20000004768,"correct":true,"confidence":-1},{"trial_n":74,"min":57,"max":198,"target":"absent","response":"absent","rt":552.29999995232,"correct":true,"confidence":-1},{"trial_n":75,"min":73,"max":182,"target":"present","response":"present","rt":494.20000004768,"correct":true,"confidence":-1},{"trial_n":76,"min":73,"max":182,"target":"absent","response":"absent","rt":3534.1000000238,"correct":true,"confidence":-1},{"trial_n":77,"min":89,"max":166,"target":"present","response":"present","rt":671,"correct":true,"confidence":-1},{"trial_n":78,"min":89,"max":166,"target":"present","response":"present","rt":785.39999997616,"correct":true,"confidence":-1},{"trial_n":79,"min":105,"max":150,"target":"present","response":"absent","rt":1300.3999999762,"correct":false,"confidence":-1},{"trial_n":80,"min":89,"max":166,"target":"present","response":"present","rt":818.79999995232,"correct":true,"confidence":-1},{"trial_n":81,"min":89,"max":166,"target":"absent","response":"present","rt":740,"correct":false,"confidence":-1},{"trial_n":82,"min":81,"max":174,"target":"present","response":"present","rt":2220.2999999523,"correct":true,"confidence":-1},{"trial_n":83,"min":81,"max":174,"target":"present","response":"present","rt":368.5,"correct":true,"confidence":-1},{"trial_n":84,"min":89,"max":166,"target":"absent","response":"absent","rt":822.69999992847,"correct":true,"confidence":-1},{"trial_n":85,"min":89,"max":166,"target":"absent","response":"absent","rt":1038.5,"correct":true,"confidence":-1},{"trial_n":86,"min":97,"max":158,"target":"absent","response":"absent","rt":678.10000002384,"correct":true,"confidence":-1},{"trial_n":87,"min":97,"max":158,"target":"present","response":"absent","rt":411.29999995232,"correct":false,"confidence":-1},{"trial_n":88,"min":89,"max":166,"target":"present","response":"present","rt":860.39999997616,"correct":true,"confidence":-1},{"trial_n":89,"min":89,"max":166,"target":"absent","response":"present","rt":713.19999992847,"correct":false,"confidence":-1},{"trial_n":90,"min":81,"max":174,"target":"absent","response":"absent","rt":886.89999997616,"correct":true,"confidence":-1},{"trial_n":91,"min":81,"max":174,"target":"present","response":"present","rt":635.60000002384,"correct":true,"confidence":5},{"trial_n":92,"min":85,"max":170,"target":"present","response":"present","rt":850.70000004768,"correct":true,"confidence":5},{"trial_n":93,"min":85,"max":170,"target":"present","response":"present","rt":518.60000002384,"correct":true,"confidence":5},{"trial_n":94,"min":89,"max":166,"target":"present","response":"present","rt":1018.3000000715,"correct":true,"confidence":5},{"trial_n":95,"min":89,"max":166,"target":"present","response":"absent","rt":893.39999997616,"correct":false,"confidence":2},{"trial_n":96,"min":85,"max":170,"target":"absent","response":"present","rt":938.39999997616,"correct":false,"confidence":2},{"trial_n":97,"min":81,"max":174,"target":"absent","response":"absent","rt":1040.2000000477,"correct":true,"confidence":4},{"trial_n":98,"min":81,"max":174,"target":"present","response":"present","rt":1072.2999999523,"correct":true,"confidence":5},{"trial_n":99,"min":85,"max":170,"target":"absent","response":"absent","rt":3394.8000000715,"correct":true,"confidence":3},{"trial_n":100,"min":85,"max":170,"target":"absent","response":"absent","rt":1921.9000000954,"correct":true,"confidence":3},{"trial_n":101,"min":87,"max":168,"target":"absent","response":"present","rt":1025.3999999762,"correct":false,"confidence":3},{"trial_n":102,"min":85,"max":170,"target":"absent","response":"absent","rt":1123.2000000477,"correct":true,"confidence":3},{"trial_n":103,"min":85,"max":170,"target":"present","response":"present","rt":844.60000002384,"correct":true,"confidence":5},{"trial_n":104,"min":87,"max":168,"target":"present","response":"present","rt":1660.6000000238,"correct":true,"confidence":4},{"trial_n":105,"min":87,"max":168,"target":"absent","response":"absent","rt":1382.6000000238,"correct":true,"confidence":4},{"trial_n":106,"min":89,"max":166,"target":"present","response":"present","rt":732.5,"correct":true,"confidence":3},{"trial_n":107,"min":89,"max":166,"target":"present","response":"absent","rt":832.30000007153,"correct":false,"confidence":4},{"trial_n":108,"min":87,"max":168,"target":"absent","response":"present","rt":1049.8999999762,"correct":false,"confidence":3},{"trial_n":109,"min":85,"max":170,"target":"absent","response":"present","rt":687.89999997616,"correct":false,"confidence":2},{"trial_n":110,"min":83,"max":172,"target":"absent","response":"present","rt":1011.3999999762,"correct":false,"confidence":1},{"trial_n":111,"min":82,"max":173,"target":"absent","response":"absent","rt":1089.8999999762,"correct":true,"confidence":3},{"trial_n":112,"min":82,"max":173,"target":"present","response":"present","rt":1328.5,"correct":true,"confidence":5},{"trial_n":113,"min":83,"max":172,"target":"absent","response":"absent","rt":2749.2999999523,"correct":true,"confidence":2},{"trial_n":114,"min":83,"max":172,"target":"present","response":"present","rt":749.80000007153,"correct":true,"confidence":5},{"trial_n":115,"min":84,"max":171,"target":"absent","response":"present","rt":881.40000009537,"correct":false,"confidence":1},{"trial_n":116,"min":83,"max":172,"target":"present","response":"present","rt":1067.2000000477,"correct":true,"confidence":5},{"trial_n":117,"min":83,"max":172,"target":"absent","response":"present","rt":2174.7000000477,"correct":false,"confidence":1},{"trial_n":118,"min":82,"max":173,"target":"absent","response":"present","rt":762.19999992847,"correct":false,"confidence":1},{"trial_n":119,"min":81,"max":174,"target":"present","response":"present","rt":1074.7000000477,"correct":true,"confidence":4},{"trial_n":120,"min":81,"max":174,"target":"absent","response":"absent","rt":3816.1999999285,"correct":true,"confidence":4},{"trial_n":121,"min":82,"max":173,"target":"present","response":"present","rt":2249,"correct":true,"confidence":3},{"trial_n":122,"min":82,"max":173,"target":"present","response":"present","rt":960.89999997616,"correct":true,"confidence":5},{"trial_n":123,"min":83,"max":172,"target":"absent","response":"absent","rt":875.20000004768,"correct":true,"confidence":1},{"trial_n":124,"min":83,"max":172,"target":"absent","response":"present","rt":1214.8999999762,"correct":false,"confidence":1},{"trial_n":125,"min":82,"max":173,"target":"absent","response":"absent","rt":812.80000007153,"correct":true,"confidence":1},{"trial_n":126,"min":82,"max":173,"target":"present","response":"present","rt":969.70000004768,"correct":true,"confidence":4},{"trial_n":127,"min":83,"max":172,"target":"present","response":"present","rt":1753.7999999523,"correct":true,"confidence":4},{"trial_n":128,"min":83,"max":172,"target":"present","response":"present","rt":824.10000002384,"correct":true,"confidence":3},{"trial_n":129,"min":84,"max":171,"target":"present","response":"present","rt":1719.3999999762,"correct":true,"confidence":3},{"trial_n":130,"min":84,"max":171,"target":"present","response":"present","rt":1008,"correct":true,"confidence":4},{"trial_n":131,"min":85,"max":170,"target":"present","response":"present","rt":1238.5,"correct":true,"confidence":3},{"trial_n":132,"min":85,"max":170,"target":"absent","response":"absent","rt":866.29999995232,"correct":true,"confidence":1},{"trial_n":133,"min":86,"max":169,"target":"present","response":"present","rt":1096.5,"correct":true,"confidence":3},{"trial_n":134,"min":86,"max":169,"target":"absent","response":"present","rt":1283.5,"correct":false,"confidence":3},{"trial_n":135,"min":85,"max":170,"target":"absent","response":"absent","rt":1677.6000000238,"correct":true,"confidence":1},{"trial_n":136,"min":85,"max":170,"target":"absent","response":"present","rt":1268.3999999762,"correct":false,"confidence":2},{"trial_n":137,"min":84,"max":171,"target":"absent","response":"absent","rt":1927.3999999762,"correct":true,"confidence":2},{"trial_n":138,"min":84,"max":171,"target":"present","response":"absent","rt":1395.2999999523,"correct":false,"confidence":1},{"trial_n":139,"min":83,"max":172,"target":"present","response":"present","rt":742.5,"correct":true,"confidence":3},{"trial_n":140,"min":83,"max":172,"target":"absent","response":"absent","rt":1614.2000000477,"correct":true,"confidence":3}]