[{"trial_n":1,"n_dots":4.25,"target":"left","response":"left","rt":1168.0000000002,"correct":true,"confidence":-1},{"trial_n":2,"n_dots":4.25,"target":"right","response":"left","rt":654,"correct":false,"confidence":-1},{"trial_n":3,"n_dots":4.65,"target":"left","response":"left","rt":182,"correct":true,"confidence":-1},{"trial_n":4,"n_dots":4.65,"target":"right","response":"right","rt":127,"correct":true,"confidence":-1},{"trial_n":5,"n_dots":4.25,"target":"left","response":"left","rt":746,"correct":true,"confidence":-1},{"trial_n":6,"n_dots":4.25,"target":"right","response":"right","rt":509,"correct":true,"confidence":-1},{"trial_n":7,"n_dots":3.85,"target":"left","response":"left","rt":289,"correct":true,"confidence":-1},{"trial_n":8,"n_dots":3.85,"target":"left","response":"right","rt":143,"correct":false,"confidence":-1},{"trial_n":9,"n_dots":4.05,"target":"right","response":"left","rt":94.000000000233,"correct":false,"confidence":-1},{"trial_n":10,"n_dots":4.25,"target":"left","response":"left","rt":482,"correct":true,"confidence":-1},{"trial_n":11,"n_dots":4.25,"target":"left","response":"left","rt":759,"correct":true,"confidence":-1},{"trial_n":12,"n_dots":4.05,"target":"left","response":"left","rt":670,"correct":true,"confidence":-1},{"trial_n":13,"n_dots":4.05,"target":"right","response":"right","rt":230,"correct":true,"confidence":-1},{"trial_n":14,"n_dots":3.95,"target":"right","response":"right","rt":295,"correct":true,"confidence":-1},{"trial_n":15,"n_dots":3.95,"target":"right","response":"left","rt":7111,"correct":false,"confidence":-1},{"trial_n":16,"n_dots":4.05,"target":"left","response":"left","rt":329,"correct":true,"confidence":-1},{"trial_n":17,"n_dots":4.05,"target":"left","response":"right","rt":94,"correct":false,"confidence":-1},{"trial_n":18,"n_dots":4.15,"target":"right","response":"right","rt":120,"correct":true,"confidence":-1},{"trial_n":19,"n_dots":4.15,"target":"left","response":"left","rt":459,"correct":true,"confidence":-1},{"trial_n":20,"n_dots":4.05,"target":"left","response":"right","rt":1158,"correct":false,"confidence":-1},{"trial_n":21,"n_dots":4.15,"target":"left","response":"left","rt":725,"correct":true,"confidence":4},{"trial_n":22,"n_dots":4.15,"target":"left","response":"left","rt":352.99999999977,"correct":true,"confidence":4},{"trial_n":23,"n_dots":4.05,"target":"right","response":"right","rt":1619,"correct":true,"confidence":4},{"trial_n":24,"n_dots":4.05,"target":"right","response":"right","rt":825,"correct":true,"confidence":4},{"trial_n":25,"n_dots":3.95,"target":"right","response":"right","rt":330,"correct":true,"confidence":4},{"trial_n":26,"n_dots":3.95,"target":"right","response":"left","rt":531,"correct":false,"confidence":3},{"trial_n":27,"n_dots":4.05,"target":"right","response":"right","rt":127,"correct":true,"confidence":3},{"trial_n":28,"n_dots":4.05,"target":"right","response":"left","rt":362,"correct":false,"confidence":4},{"trial_n":29,"n_dots":4.15,"target":"left","response":"left","rt":191,"correct":true,"confidence":4},{"trial_n":30,"n_dots":4.15,"target":"left","response":"left","rt":331.00000000023,"correct":true,"confidence":5},{"trial_n":31,"n_dots":4.05,"target":"left","response":"left","rt":249,"correct":true,"confidence":5},{"trial_n":32,"n_dots":4.05,"target":"left","response":"left","rt":1004.0000000002,"correct":true,"confidence":1},{"trial_n":33,"n_dots":3.95,"target":"left","response":"left","rt":1188,"correct":true,"confidence":4},{"trial_n":34,"n_dots":3.95,"target":"right","response":"left","rt":500,"correct":false,"confidence":2},{"trial_n":35,"n_dots":4.05,"target":"left","response":"left","rt":321,"correct":true,"confidence":4},{"trial_n":36,"n_dots":4.05,"target":"left","response":"left","rt":113,"correct":true,"confidence":5},{"trial_n":37,"n_dots":3.95,"target":"left","response":"left","rt":888,"correct":true,"confidence":4},{"trial_n":38,"n_dots":3.95,"target":"left","response":"left","rt":71,"correct":true,"confidence":4},{"trial_n":39,"n_dots":3.85,"target":"right","response":"right","rt":598,"correct":true,"confidence":3},{"trial_n":40,"n_dots":3.85,"target":"left","response":"left","rt":134,"correct":true,"confidence":5},{"trial_n":41,"n_dots":3.75,"target":"left","response":"left","rt":150,"correct":true,"confidence":4},{"trial_n":42,"n_dots":3.75,"target":"right","response":"right","rt":598,"correct":true,"confidence":4},{"trial_n":43,"n_dots":3.65,"target":"left","response":"left","rt":548,"correct":true,"confidence":3},{"trial_n":44,"n_dots":3.65,"target":"right","response":"right","rt":622,"correct":true,"confidence":4},{"trial_n":45,"n_dots":3.55,"target":"left","response":"left","rt":745.00000000023,"correct":true,"confidence":3},{"trial_n":46,"n_dots":3.55,"target":"left","response":"right","rt":772,"correct":false,"confidence":4},{"trial_n":47,"n_dots":3.65,"target":"right","response":"right","rt":461,"correct":true,"confidence":4},{"trial_n":48,"n_dots":3.65,"target":"left","response":"left","rt":314,"correct":true,"confidence":4},{"trial_n":49,"n_dots":3.55,"target":"right","response":"right","rt":396.99999999977,"correct":true,"confidence":4},{"trial_n":50,"n_dots":3.55,"target":"right","response":"right","rt":397,"correct":true,"confidence":4},{"trial_n":51,"n_dots":3.45,"target":"right","response":"left","rt":736,"correct":false,"confidence":2},{"trial_n":52,"n_dots":3.55,"target":"right","response":"right","rt":95,"correct":true,"confidence":3},{"trial_n":53,"n_dots":3.55,"target":"right","response":"right","rt":80,"correct":true,"confidence":4},{"trial_n":54,"n_dots":3.45,"target":"right","response":"right","rt":135,"correct":true,"confidence":5},{"trial_n":55,"n_dots":3.45,"target":"right","response":"right","rt":301,"correct":true,"confidence":4},{"trial_n":56,"n_dots":3.35,"target":"left","response":"right","rt":1092.9999999998,"correct":false,"confidence":2},{"trial_n":57,"n_dots":3.45,"target":"right","response":"right","rt":330,"correct":true,"confidence":5},{"trial_n":58,"n_dots":3.45,"target":"left","response":"left","rt":265.99999999977,"correct":true,"confidence":4},{"trial_n":59,"n_dots":3.35,"target":"left","response":"left","rt":137,"correct":true,"confidence":4},{"trial_n":60,"n_dots":3.35,"target":"right","response":"right","rt":211,"correct":true,"confidence":4},{"trial_n":61,"n_dots":3.25,"target":"left","response":"left","rt":272,"correct":true,"confidence":4},{"trial_n":62,"n_dots":3.25,"target":"right","response":"right","rt":745,"correct":true,"confidence":4},{"trial_n":63,"n_dots":3.15,"target":"left","response":"left","rt":193.99999999977,"correct":true,"confidence":4},{"trial_n":64,"n_dots":3.15,"target":"left","response":"left","rt":673,"correct":true,"confidence":3},{"trial_n":65,"n_dots":3.05,"target":"right","response":"right","rt":138,"correct":true,"confidence":4},{"trial_n":66,"n_dots":3.05,"target":"right","response":"left","rt":166.99999999977,"correct":false,"confidence":2},{"trial_n":67,"n_dots":3.15,"target":"left","response":"right","rt":115,"correct":false,"confidence":3},{"trial_n":68,"n_dots":3.25,"target":"left","response":"left","rt":153,"correct":true,"confidence":4},{"trial_n":69,"n_dots":3.25,"target":"right","response":"left","rt":404,"correct":false,"confidence":4},{"trial_n":70,"n_dots":3.35,"target":"right","response":"left","rt":918,"correct":false,"confidence":4},{"trial_n":71,"n_dots":3.45,"target":"left","response":"right","rt":365,"correct":false,"confidence":3},{"trial_n":72,"n_dots":3.55,"target":"right","response":"left","rt":261,"correct":false,"confidence":4},{"trial_n":73,"n_dots":3.65,"target":"right","response":"left","rt":341,"correct":false,"confidence":4},{"trial_n":74,"n_dots":3.75,"target":"left","response":"left","rt":300,"correct":true,"confidence":3},{"trial_n":75,"n_dots":3.75,"target":"right","response":"right","rt":105,"correct":true,"confidence":5},{"trial_n":76,"n_dots":3.65,"target":"left","response":"left","rt":372.00000000023,"correct":true,"confidence":4},{"trial_n":77,"n_dots":3.65,"target":"left","response":"left","rt":373,"correct":true,"confidence":4},{"trial_n":78,"n_dots":3.55,"target":"right","response":"right","rt":73,"correct":true,"confidence":3},{"trial_n":79,"n_dots":3.55,"target":"left","response":"left","rt":399,"correct":true,"confidence":4},{"trial_n":80,"n_dots":3.45,"target":"left","response":"right","rt":634,"correct":false,"confidence":3},{"trial_n":81,"n_dots":3.55,"target":"right","response":"left","rt":444.99999999977,"correct":false,"confidence":3},{"trial_n":82,"n_dots":3.65,"target":"right","response":"left","rt":226,"correct":false,"confidence":4},{"trial_n":83,"n_dots":3.75,"target":"left","response":"right","rt":148,"correct":false,"confidence":2},{"trial_n":84,"n_dots":3.85,"target":"right","response":"right","rt":586,"correct":true,"confidence":3},{"trial_n":85,"n_dots":3.85,"target":"right","response":"right","rt":244,"correct":true,"confidence":4},{"trial_n":86,"n_dots":3.75,"target":"right","response":"right","rt":512,"correct":true,"confidence":4},{"trial_n":87,"n_dots":3.75,"target":"right","response":"left","rt":535.00000000023,"correct":false,"confidence":4},{"trial_n":88,"n_dots":3.85,"target":"left","response":"right","rt":1233.0000000002,"correct":false,"confidence":4},{"trial_n":89,"n_dots":3.95,"target":"right","response":"left","rt":456,"correct":false,"confidence":2},{"trial_n":90,"n_dots":4.05,"target":"left","response":"left","rt":464,"correct":true,"confidence":4},{"trial_n":91,"n_dots":4.05,"target":"left","response":"left","rt":349,"correct":true,"confidence":4},{"trial_n":92,"n_dots":3.95,"target":"left","response":"left","rt":949,"correct":true,"confidence":4},{"trial_n":93,"n_dots":3.95,"target":"left","response":"left","rt":974,"correct":true,"confidence":3},{"trial_n":94,"n_dots":3.85,"target":"right","response":"right","rt":211.00000000023,"correct":true,"confidence":4},{"trial_n":95,"n_dots":3.85,"target":"left","response":"left","rt":181,"correct":true,"confidence":3},{"trial_n":96,"n_dots":3.75,"target":"right","response":"right","rt":689.00000000023,"correct":true,"confidence":1},{"trial_n":97,"n_dots":3.75,"target":"right","response":"right","rt":205,"correct":true,"confidence":4},{"trial_n":98,"n_dots":3.65,"target":"right","response":"left","rt":234,"correct":false,"confidence":2},{"trial_n":99,"n_dots":3.75,"target":"left","response":"left","rt":838,"correct":true,"confidence":4},{"trial_n":100,"n_dots":3.75,"target":"left","response":"right","rt":254,"correct":false,"confidence":2},{"trial_n":101,"n_dots":3.85,"target":"left","response":"left","rt":289,"correct":true,"confidence":4},{"trial_n":102,"n_dots":3.85,"target":"left","response":"left","rt":389,"correct":true,"confidence":4},{"trial_n":103,"n_dots":3.75,"target":"right","response":"right","rt":218.99999999977,"correct":true,"confidence":3},{"trial_n":104,"n_dots":3.75,"target":"right","response":"right","rt":162,"correct":true,"confidence":4},{"trial_n":105,"n_dots":3.65,"target":"left","response":"left","rt":220.00000000023,"correct":true,"confidence":4},{"trial_n":106,"n_dots":3.65,"target":"left","response":"left","rt":71.999999999767,"correct":true,"confidence":4},{"trial_n":107,"n_dots":3.55,"target":"right","response":"right","rt":131,"correct":true,"confidence":4},{"trial_n":108,"n_dots":3.55,"target":"left","response":"left","rt":243,"correct":true,"confidence":4},{"trial_n":109,"n_dots":3.45,"target":"right","response":"right","rt":48,"correct":true,"confidence":3},{"trial_n":110,"n_dots":3.45,"target":"right","response":"left","rt":350,"correct":false,"confidence":2},{"trial_n":111,"n_dots":3.55,"target":"right","response":"right","rt":67,"correct":true,"confidence":3},{"trial_n":112,"n_dots":3.55,"target":"left","response":"left","rt":172.00000000023,"correct":true,"confidence":3},{"trial_n":113,"n_dots":3.45,"target":"right","response":"right","rt":260,"correct":true,"confidence":3},{"trial_n":114,"n_dots":3.45,"target":"right","response":"left","rt":542.00000000023,"correct":false,"confidence":2},{"trial_n":115,"n_dots":3.55,"target":"right","response":"right","rt":552,"correct":true,"confidence":3},{"trial_n":116,"n_dots":3.55,"target":"right","response":"left","rt":82.999999999767,"correct":false,"confidence":4},{"trial_n":117,"n_dots":3.65,"target":"right","response":"right","rt":593.99999999977,"correct":true,"confidence":4},{"trial_n":118,"n_dots":3.65,"target":"left","response":"left","rt":147,"correct":true,"confidence":4},{"trial_n":119,"n_dots":3.55,"target":"left","response":"right","rt":366,"correct":false,"confidence":2},{"trial_n":120,"n_dots":3.65,"target":"right","response":"right","rt":122,"correct":true,"confidence":3}]