[{"trial_n":1,"n_dots":4.25,"target":"right","response":"left","rt":6373.1000000238,"correct":false,"confidence":-1},{"trial_n":2,"n_dots":4.25,"target":"right","response":"right","rt":849.80000001192,"correct":true,"confidence":-1},{"trial_n":3,"n_dots":4.25,"target":"left","response":"left","rt":849.59999996424,"correct":true,"confidence":-1},{"trial_n":4,"n_dots":3.85,"target":"right","response":"right","rt":520.09999996424,"correct":true,"confidence":-1},{"trial_n":5,"n_dots":3.85,"target":"right","response":"right","rt":467.70000004768,"correct":true,"confidence":-1},{"trial_n":6,"n_dots":3.45,"target":"left","response":"left","rt":665,"correct":true,"confidence":-1},{"trial_n":7,"n_dots":3.45,"target":"right","response":"right","rt":1826,"correct":true,"confidence":-1},{"trial_n":8,"n_dots":3.25,"target":"right","response":"right","rt":1479.6999999881,"correct":true,"confidence":-1},{"trial_n":9,"n_dots":3.25,"target":"right","response":"right","rt":443.10000002384,"correct":true,"confidence":-1},{"trial_n":10,"n_dots":3.05,"target":"left","response":"left","rt":733.60000002384,"correct":true,"confidence":-1},{"trial_n":11,"n_dots":3.05,"target":"left","response":"left","rt":608.60000002384,"correct":true,"confidence":-1},{"trial_n":12,"n_dots":2.85,"target":"right","response":"right","rt":697.39999997616,"correct":true,"confidence":-1},{"trial_n":13,"n_dots":2.85,"target":"left","response":"right","rt":477,"correct":false,"confidence":-1},{"trial_n":14,"n_dots":2.95,"target":"right","response":"right","rt":523.39999997616,"correct":true,"confidence":-1},{"trial_n":15,"n_dots":2.95,"target":"left","response":"right","rt":985.30000001192,"correct":false,"confidence":-1},{"trial_n":16,"n_dots":3.05,"target":"right","response":"left","rt":732.80000001192,"correct":false,"confidence":-1},{"trial_n":17,"n_dots":3.15,"target":"left","response":"left","rt":695.19999998808,"correct":true,"confidence":-1},{"trial_n":18,"n_dots":3.15,"target":"right","response":"right","rt":600,"correct":true,"confidence":-1},{"trial_n":19,"n_dots":3.05,"target":"right","response":"left","rt":512.09999996424,"correct":false,"confidence":-1},{"trial_n":20,"n_dots":3.15,"target":"left","response":"left","rt":641,"correct":true,"confidence":-1},{"trial_n":21,"n_dots":3.15,"target":"right","response":"right","rt":700.30000001192,"correct":true,"confidence":3},{"trial_n":22,"n_dots":3.05,"target":"right","response":"right","rt":809.40000003576,"correct":true,"confidence":3},{"trial_n":23,"n_dots":3.05,"target":"right","response":"right","rt":643.80000001192,"correct":true,"confidence":3},{"trial_n":24,"n_dots":2.95,"target":"left","response":"left","rt":1113.1999999881,"correct":true,"confidence":2},{"trial_n":25,"n_dots":2.95,"target":"left","response":"left","rt":584.39999997616,"correct":true,"confidence":2},{"trial_n":26,"n_dots":2.85,"target":"left","response":"right","rt":749.69999998808,"correct":false,"confidence":2},{"trial_n":27,"n_dots":2.95,"target":"left","response":"left","rt":826.10000002384,"correct":true,"confidence":3},{"trial_n":28,"n_dots":2.95,"target":"right","response":"right","rt":618,"correct":true,"confidence":4},{"trial_n":29,"n_dots":2.85,"target":"left","response":"left","rt":1554.3000000119,"correct":true,"confidence":1},{"trial_n":30,"n_dots":2.85,"target":"right","response":"right","rt":1592.3000000119,"correct":true,"confidence":2},{"trial_n":31,"n_dots":2.75,"target":"left","response":"left","rt":1201.1999999881,"correct":true,"confidence":1},{"trial_n":32,"n_dots":2.75,"target":"right","response":"right","rt":1714.6000000238,"correct":true,"confidence":2},{"trial_n":33,"n_dots":2.65,"target":"left","response":"right","rt":805.69999998808,"correct":false,"confidence":2},{"trial_n":34,"n_dots":2.75,"target":"left","response":"left","rt":797.79999995232,"correct":true,"confidence":3},{"trial_n":35,"n_dots":2.75,"target":"left","response":"left","rt":645.19999998808,"correct":true,"confidence":3},{"trial_n":36,"n_dots":2.65,"target":"right","response":"left","rt":881.90000003576,"correct":false,"confidence":4},{"trial_n":37,"n_dots":2.75,"target":"right","response":"right","rt":489.20000004768,"correct":true,"confidence":4},{"trial_n":38,"n_dots":2.75,"target":"right","response":"left","rt":853.89999997616,"correct":false,"confidence":3},{"trial_n":39,"n_dots":2.85,"target":"right","response":"left","rt":777.20000004768,"correct":false,"confidence":2},{"trial_n":40,"n_dots":2.95,"target":"left","response":"left","rt":810.90000003576,"correct":true,"confidence":3},{"trial_n":41,"n_dots":2.95,"target":"right","response":"right","rt":617.80000001192,"correct":true,"confidence":3},{"trial_n":42,"n_dots":2.85,"target":"left","response":"left","rt":593,"correct":true,"confidence":3},{"trial_n":43,"n_dots":2.85,"target":"right","response":"right","rt":654.19999998808,"correct":true,"confidence":2},{"trial_n":44,"n_dots":2.75,"target":"right","response":"right","rt":2186.1999999881,"correct":true,"confidence":3},{"trial_n":45,"n_dots":2.75,"target":"left","response":"left","rt":602.69999998808,"correct":true,"confidence":2},{"trial_n":46,"n_dots":2.65,"target":"right","response":"left","rt":844.10000002384,"correct":false,"confidence":3},{"trial_n":47,"n_dots":2.75,"target":"left","response":"left","rt":448.89999997616,"correct":true,"confidence":4},{"trial_n":48,"n_dots":2.75,"target":"right","response":"left","rt":663.5,"correct":false,"confidence":4},{"trial_n":49,"n_dots":2.85,"target":"left","response":"left","rt":719.19999998808,"correct":true,"confidence":3},{"trial_n":50,"n_dots":2.85,"target":"right","response":"left","rt":824.30000001192,"correct":false,"confidence":3},{"trial_n":51,"n_dots":2.95,"target":"right","response":"left","rt":1502.3999999762,"correct":false,"confidence":3},{"trial_n":52,"n_dots":3.05,"target":"left","response":"left","rt":564,"correct":true,"confidence":3},{"trial_n":53,"n_dots":3.05,"target":"right","response":"left","rt":1404.3999999762,"correct":false,"confidence":2},{"trial_n":54,"n_dots":3.15,"target":"right","response":"right","rt":990.69999998808,"correct":true,"confidence":2},{"trial_n":55,"n_dots":3.15,"target":"left","response":"left","rt":2776.5,"correct":true,"confidence":2},{"trial_n":56,"n_dots":3.05,"target":"right","response":"right","rt":1466.1000000238,"correct":true,"confidence":1},{"trial_n":57,"n_dots":3.05,"target":"right","response":"right","rt":1560.6999999881,"correct":true,"confidence":1},{"trial_n":58,"n_dots":2.95,"target":"left","response":"left","rt":1810.6999999881,"correct":true,"confidence":1},{"trial_n":59,"n_dots":2.95,"target":"left","response":"right","rt":1074.9000000358,"correct":false,"confidence":3},{"trial_n":60,"n_dots":3.05,"target":"right","response":"right","rt":2307.3000000119,"correct":true,"confidence":2},{"trial_n":61,"n_dots":3.05,"target":"right","response":"left","rt":693.69999998808,"correct":false,"confidence":3},{"trial_n":62,"n_dots":3.15,"target":"left","response":"left","rt":630.69999998808,"correct":true,"confidence":3},{"trial_n":63,"n_dots":3.15,"target":"left","response":"left","rt":681.5,"correct":true,"confidence":5},{"trial_n":64,"n_dots":3.05,"target":"right","response":"left","rt":1035.6000000238,"correct":false,"confidence":1},{"trial_n":65,"n_dots":3.15,"target":"left","response":"left","rt":1739.1000000238,"correct":true,"confidence":2},{"trial_n":66,"n_dots":3.15,"target":"left","response":"right","rt":1059.9000000358,"correct":false,"confidence":3},{"trial_n":67,"n_dots":3.25,"target":"left","response":"left","rt":2416.5,"correct":true,"confidence":2},{"trial_n":68,"n_dots":3.25,"target":"left","response":"left","rt":1003,"correct":true,"confidence":3},{"trial_n":69,"n_dots":3.15,"target":"left","response":"right","rt":883.59999996424,"correct":false,"confidence":2},{"trial_n":70,"n_dots":3.25,"target":"left","response":"left","rt":1661.5,"correct":true,"confidence":1},{"trial_n":71,"n_dots":3.25,"target":"left","response":"left","rt":719.30000001192,"correct":true,"confidence":4},{"trial_n":72,"n_dots":3.15,"target":"right","response":"left","rt":1195.8999999762,"correct":false,"confidence":3},{"trial_n":73,"n_dots":3.25,"target":"left","response":"left","rt":822.30000001192,"correct":true,"confidence":4},{"trial_n":74,"n_dots":3.25,"target":"right","response":"right","rt":605.39999997616,"correct":true,"confidence":4},{"trial_n":75,"n_dots":3.15,"target":"right","response":"right","rt":662.19999998808,"correct":true,"confidence":4},{"trial_n":76,"n_dots":3.15,"target":"left","response":"left","rt":1243.0999999642,"correct":true,"confidence":1},{"trial_n":77,"n_dots":3.05,"target":"left","response":"left","rt":1140.3999999762,"correct":true,"confidence":2},{"trial_n":78,"n_dots":3.05,"target":"left","response":"left","rt":540.19999998808,"correct":true,"confidence":5},{"trial_n":79,"n_dots":2.95,"target":"right","response":"right","rt":932.30000001192,"correct":true,"confidence":3},{"trial_n":80,"n_dots":2.95,"target":"right","response":"left","rt":628.79999995232,"correct":false,"confidence":3},{"trial_n":81,"n_dots":3.05,"target":"right","response":"left","rt":1206.7999999523,"correct":false,"confidence":3},{"trial_n":82,"n_dots":3.15,"target":"right","response":"left","rt":579.69999998808,"correct":false,"confidence":3},{"trial_n":83,"n_dots":3.25,"target":"left","response":"left","rt":595.20000004768,"correct":true,"confidence":4},{"trial_n":84,"n_dots":3.25,"target":"left","response":"left","rt":566.89999997616,"correct":true,"confidence":4},{"trial_n":85,"n_dots":3.15,"target":"right","response":"left","rt":650.19999998808,"correct":false,"confidence":4},{"trial_n":86,"n_dots":3.25,"target":"left","response":"left","rt":647.09999996424,"correct":true,"confidence":3},{"trial_n":87,"n_dots":3.25,"target":"left","response":"left","rt":1440.6999999881,"correct":true,"confidence":4},{"trial_n":88,"n_dots":3.15,"target":"left","response":"left","rt":529.79999995232,"correct":true,"confidence":4},{"trial_n":89,"n_dots":3.15,"target":"right","response":"right","rt":558.90000003576,"correct":true,"confidence":5},{"trial_n":90,"n_dots":3.05,"target":"right","response":"right","rt":535.69999998808,"correct":true,"confidence":5},{"trial_n":91,"n_dots":3.05,"target":"left","response":"left","rt":520.59999996424,"correct":true,"confidence":4},{"trial_n":92,"n_dots":2.95,"target":"left","response":"left","rt":479.5,"correct":true,"confidence":5},{"trial_n":93,"n_dots":2.95,"target":"left","response":"left","rt":583.30000001192,"correct":true,"confidence":4},{"trial_n":94,"n_dots":2.85,"target":"left","response":"left","rt":681.10000002384,"correct":true,"confidence":5},{"trial_n":95,"n_dots":2.85,"target":"left","response":"left","rt":761.30000001192,"correct":true,"confidence":2},{"trial_n":96,"n_dots":2.75,"target":"left","response":"left","rt":536.59999996424,"correct":true,"confidence":2},{"trial_n":97,"n_dots":2.75,"target":"right","response":"right","rt":1566.9000000358,"correct":true,"confidence":2},{"trial_n":98,"n_dots":2.65,"target":"left","response":"right","rt":622.60000002384,"correct":false,"confidence":4},{"trial_n":99,"n_dots":2.75,"target":"left","response":"left","rt":677.19999998808,"correct":true,"confidence":4},{"trial_n":100,"n_dots":2.75,"target":"left","response":"left","rt":596.80000001192,"correct":true,"confidence":3},{"trial_n":101,"n_dots":2.65,"target":"right","response":"right","rt":1108.8000000119,"correct":true,"confidence":3},{"trial_n":102,"n_dots":2.65,"target":"right","response":"left","rt":574.29999995232,"correct":false,"confidence":3},{"trial_n":103,"n_dots":2.75,"target":"left","response":"right","rt":609.60000002384,"correct":false,"confidence":2},{"trial_n":104,"n_dots":2.85,"target":"right","response":"right","rt":1275.2999999523,"correct":true,"confidence":3},{"trial_n":105,"n_dots":2.85,"target":"right","response":"right","rt":491.19999998808,"correct":true,"confidence":3},{"trial_n":106,"n_dots":2.75,"target":"right","response":"right","rt":499.89999997616,"correct":true,"confidence":3},{"trial_n":107,"n_dots":2.75,"target":"left","response":"right","rt":558.59999996424,"correct":false,"confidence":4},{"trial_n":108,"n_dots":2.85,"target":"left","response":"right","rt":2158.1999999881,"correct":false,"confidence":4},{"trial_n":109,"n_dots":2.95,"target":"left","response":"right","rt":1018,"correct":false,"confidence":4},{"trial_n":110,"n_dots":3.05,"target":"right","response":"right","rt":797.89999997616,"correct":true,"confidence":3},{"trial_n":111,"n_dots":3.05,"target":"right","response":"left","rt":1363.8000000119,"correct":false,"confidence":1},{"trial_n":112,"n_dots":3.15,"target":"right","response":"right","rt":1712.6999999881,"correct":true,"confidence":2},{"trial_n":113,"n_dots":3.15,"target":"left","response":"right","rt":948.80000001192,"correct":false,"confidence":2},{"trial_n":114,"n_dots":3.25,"target":"right","response":"right","rt":776,"correct":true,"confidence":3},{"trial_n":115,"n_dots":3.25,"target":"right","response":"right","rt":856.30000001192,"correct":true,"confidence":3},{"trial_n":116,"n_dots":3.15,"target":"left","response":"left","rt":841.30000001192,"correct":true,"confidence":2},{"trial_n":117,"n_dots":3.15,"target":"left","response":"left","rt":757.70000004768,"correct":true,"confidence":1},{"trial_n":118,"n_dots":3.05,"target":"right","response":"left","rt":1611.5,"correct":false,"confidence":1},{"trial_n":119,"n_dots":3.15,"target":"right","response":"right","rt":853.30000001192,"correct":true,"confidence":3},{"trial_n":120,"n_dots":3.15,"target":"right","response":"right","rt":790,"correct":true,"confidence":3}]