[{"trial_n":1,"n_dots":4.25,"target":"left","response":"left","rt":2013.400000006,"correct":true,"confidence":-1},{"trial_n":2,"n_dots":4.25,"target":"right","response":"right","rt":593.39999997616,"correct":true,"confidence":-1},{"trial_n":3,"n_dots":3.85,"target":"left","response":"left","rt":422.70000001788,"correct":true,"confidence":-1},{"trial_n":4,"n_dots":3.85,"target":"right","response":"right","rt":495.89999997616,"correct":true,"confidence":-1},{"trial_n":5,"n_dots":3.45,"target":"left","response":"left","rt":187.5,"correct":true,"confidence":-1},{"trial_n":6,"n_dots":3.45,"target":"left","response":"right","rt":1794.8999999762,"correct":false,"confidence":-1},{"trial_n":7,"n_dots":3.85,"target":"right","response":"right","rt":3.3000000119209,"correct":true,"confidence":-1},{"trial_n":8,"n_dots":3.85,"target":"right","response":"right","rt":873.70000001788,"correct":true,"confidence":-1},{"trial_n":9,"n_dots":3.65,"target":"left","response":"left","rt":531.5,"correct":true,"confidence":-1},{"trial_n":10,"n_dots":3.65,"target":"right","response":"right","rt":528.60000002384,"correct":true,"confidence":-1},{"trial_n":11,"n_dots":3.45,"target":"left","response":"left","rt":1005.6999999881,"correct":true,"confidence":-1},{"trial_n":12,"n_dots":3.45,"target":"right","response":"right","rt":21,"correct":true,"confidence":-1},{"trial_n":13,"n_dots":3.35,"target":"right","response":"right","rt":76.59999999404,"correct":true,"confidence":-1},{"trial_n":14,"n_dots":3.35,"target":"right","response":"right","rt":197.69999998808,"correct":true,"confidence":-1},{"trial_n":15,"n_dots":3.25,"target":"right","response":"right","rt":946,"correct":true,"confidence":-1},{"trial_n":16,"n_dots":3.25,"target":"right","response":"right","rt":876.69999998808,"correct":true,"confidence":-1},{"trial_n":17,"n_dots":3.15,"target":"right","response":"right","rt":44.700000017881,"correct":true,"confidence":-1},{"trial_n":18,"n_dots":3.15,"target":"left","response":"right","rt":49.699999988079,"correct":false,"confidence":-1},{"trial_n":19,"n_dots":3.25,"target":"right","response":"right","rt":23.5,"correct":true,"confidence":-1},{"trial_n":20,"n_dots":3.25,"target":"right","response":"right","rt":26,"correct":true,"confidence":-1},{"trial_n":21,"n_dots":3.15,"target":"left","response":"right","rt":1261.900000006,"correct":false,"confidence":4},{"trial_n":22,"n_dots":3.25,"target":"right","response":"right","rt":116.70000001788,"correct":true,"confidence":5},{"trial_n":23,"n_dots":3.25,"target":"left","response":"right","rt":801.40000000596,"correct":false,"confidence":4},{"trial_n":24,"n_dots":3.35,"target":"left","response":"right","rt":567.40000000596,"correct":false,"confidence":4},{"trial_n":25,"n_dots":3.45,"target":"left","response":"right","rt":537.59999999404,"correct":false,"confidence":4},{"trial_n":26,"n_dots":3.55,"target":"left","response":"right","rt":320.5,"correct":false,"confidence":3},{"trial_n":27,"n_dots":3.65,"target":"left","response":"right","rt":203.90000000596,"correct":false,"confidence":3},{"trial_n":28,"n_dots":3.75,"target":"right","response":"right","rt":627.09999999404,"correct":true,"confidence":4},{"trial_n":29,"n_dots":3.75,"target":"right","response":"right","rt":397.80000001192,"correct":true,"confidence":5},{"trial_n":30,"n_dots":3.65,"target":"left","response":"right","rt":631.59999999404,"correct":false,"confidence":3},{"trial_n":31,"n_dots":3.75,"target":"right","response":"right","rt":473.59999999404,"correct":true,"confidence":4},{"trial_n":32,"n_dots":3.75,"target":"left","response":"left","rt":608.09999999404,"correct":true,"confidence":3},{"trial_n":33,"n_dots":3.65,"target":"right","response":"right","rt":148.70000001788,"correct":true,"confidence":4},{"trial_n":34,"n_dots":3.65,"target":"left","response":"left","rt":839.40000000596,"correct":true,"confidence":3},{"trial_n":35,"n_dots":3.55,"target":"left","response":"right","rt":34.90000000596,"correct":false,"confidence":3},{"trial_n":36,"n_dots":3.65,"target":"left","response":"left","rt":370.69999998808,"correct":true,"confidence":3},{"trial_n":37,"n_dots":3.65,"target":"left","response":"left","rt":597.09999999404,"correct":true,"confidence":3},{"trial_n":38,"n_dots":3.55,"target":"right","response":"right","rt":329.69999998808,"correct":true,"confidence":4},{"trial_n":39,"n_dots":3.55,"target":"right","response":"right","rt":48.40000000596,"correct":true,"confidence":4},{"trial_n":40,"n_dots":3.45,"target":"right","response":"right","rt":178.40000000596,"correct":true,"confidence":4},{"trial_n":41,"n_dots":3.45,"target":"left","response":"right","rt":58.09999999404,"correct":false,"confidence":4},{"trial_n":42,"n_dots":3.55,"target":"right","response":"right","rt":400.29999998212,"correct":true,"confidence":4},{"trial_n":43,"n_dots":3.55,"target":"left","response":"left","rt":798.59999999404,"correct":true,"confidence":3},{"trial_n":44,"n_dots":3.45,"target":"right","response":"left","rt":1056,"correct":false,"confidence":3},{"trial_n":45,"n_dots":3.55,"target":"right","response":"right","rt":268.20000001788,"correct":true,"confidence":4},{"trial_n":46,"n_dots":3.55,"target":"left","response":"left","rt":616.29999998212,"correct":true,"confidence":3},{"trial_n":47,"n_dots":3.45,"target":"right","response":"right","rt":378.5,"correct":true,"confidence":3},{"trial_n":48,"n_dots":3.45,"target":"left","response":"right","rt":1213.2999999821,"correct":false,"confidence":2},{"trial_n":49,"n_dots":3.55,"target":"right","response":"right","rt":145.90000000596,"correct":true,"confidence":3},{"trial_n":50,"n_dots":3.55,"target":"right","response":"right","rt":517.5,"correct":true,"confidence":4},{"trial_n":51,"n_dots":3.45,"target":"left","response":"left","rt":253.20000001788,"correct":true,"confidence":3},{"trial_n":52,"n_dots":3.45,"target":"left","response":"left","rt":441.40000000596,"correct":true,"confidence":3},{"trial_n":53,"n_dots":3.35,"target":"right","response":"right","rt":428,"correct":true,"confidence":3},{"trial_n":54,"n_dots":3.35,"target":"left","response":"right","rt":736.39999997616,"correct":false,"confidence":3},{"trial_n":55,"n_dots":3.45,"target":"right","response":"right","rt":610.29999998212,"correct":true,"confidence":4},{"trial_n":56,"n_dots":3.45,"target":"right","response":"right","rt":550.90000000596,"correct":true,"confidence":3},{"trial_n":57,"n_dots":3.35,"target":"right","response":"right","rt":406.89999997616,"correct":true,"confidence":3},{"trial_n":58,"n_dots":3.35,"target":"left","response":"left","rt":481.40000000596,"correct":true,"confidence":2},{"trial_n":59,"n_dots":3.25,"target":"left","response":"right","rt":636.70000001788,"correct":false,"confidence":2},{"trial_n":60,"n_dots":3.35,"target":"right","response":"right","rt":634.40000000596,"correct":true,"confidence":3},{"trial_n":61,"n_dots":3.35,"target":"left","response":"left","rt":234.70000001788,"correct":true,"confidence":4},{"trial_n":62,"n_dots":3.25,"target":"right","response":"right","rt":618.5,"correct":true,"confidence":3},{"trial_n":63,"n_dots":3.25,"target":"right","response":"left","rt":63.59999999404,"correct":false,"confidence":3},{"trial_n":64,"n_dots":3.35,"target":"right","response":"right","rt":39.5,"correct":true,"confidence":4},{"trial_n":65,"n_dots":3.35,"target":"left","response":"left","rt":580.09999999404,"correct":true,"confidence":3},{"trial_n":66,"n_dots":3.25,"target":"left","response":"left","rt":676.90000000596,"correct":true,"confidence":3},{"trial_n":67,"n_dots":3.25,"target":"left","response":"left","rt":655.5,"correct":true,"confidence":3},{"trial_n":68,"n_dots":3.15,"target":"left","response":"left","rt":549.19999998808,"correct":true,"confidence":3},{"trial_n":69,"n_dots":3.15,"target":"left","response":"left","rt":785,"correct":true,"confidence":3},{"trial_n":70,"n_dots":3.05,"target":"left","response":"left","rt":559.59999999404,"correct":true,"confidence":3},{"trial_n":71,"n_dots":3.05,"target":"right","response":"right","rt":123.09999999404,"correct":true,"confidence":3},{"trial_n":72,"n_dots":2.95,"target":"left","response":"left","rt":401.30000001192,"correct":true,"confidence":3},{"trial_n":73,"n_dots":2.95,"target":"left","response":"right","rt":850.90000000596,"correct":false,"confidence":2},{"trial_n":74,"n_dots":3.05,"target":"right","response":"right","rt":923.19999998808,"correct":true,"confidence":1},{"trial_n":75,"n_dots":3.05,"target":"left","response":"left","rt":700.19999998808,"correct":true,"confidence":2},{"trial_n":76,"n_dots":2.95,"target":"right","response":"right","rt":592.09999999404,"correct":true,"confidence":2},{"trial_n":77,"n_dots":2.95,"target":"left","response":"left","rt":188.5,"correct":true,"confidence":3},{"trial_n":78,"n_dots":2.85,"target":"right","response":"right","rt":180,"correct":true,"confidence":4},{"trial_n":79,"n_dots":2.85,"target":"left","response":"left","rt":406.90000000596,"correct":true,"confidence":4},{"trial_n":80,"n_dots":2.75,"target":"left","response":"right","rt":334.80000001192,"correct":false,"confidence":4},{"trial_n":81,"n_dots":2.85,"target":"left","response":"left","rt":2593.1000000238,"correct":true,"confidence":1},{"trial_n":82,"n_dots":2.85,"target":"left","response":"left","rt":864.59999999404,"correct":true,"confidence":3},{"trial_n":83,"n_dots":2.75,"target":"left","response":"left","rt":364.59999999404,"correct":true,"confidence":3},{"trial_n":84,"n_dots":2.75,"target":"left","response":"left","rt":319.69999998808,"correct":true,"confidence":3},{"trial_n":85,"n_dots":2.65,"target":"right","response":"right","rt":227.59999999404,"correct":true,"confidence":3},{"trial_n":86,"n_dots":2.65,"target":"right","response":"right","rt":529.59999999404,"correct":true,"confidence":2},{"trial_n":87,"n_dots":2.55,"target":"right","response":"right","rt":333.5,"correct":true,"confidence":3},{"trial_n":88,"n_dots":2.55,"target":"right","response":"right","rt":393.09999999404,"correct":true,"confidence":3},{"trial_n":89,"n_dots":2.45,"target":"right","response":"right","rt":167.5,"correct":true,"confidence":3},{"trial_n":90,"n_dots":2.45,"target":"right","response":"left","rt":531.5,"correct":false,"confidence":3},{"trial_n":91,"n_dots":2.55,"target":"left","response":"left","rt":485.70000001788,"correct":true,"confidence":2},{"trial_n":92,"n_dots":2.55,"target":"left","response":"right","rt":856.70000001788,"correct":false,"confidence":2},{"trial_n":93,"n_dots":2.65,"target":"right","response":"right","rt":452.80000001192,"correct":true,"confidence":1},{"trial_n":94,"n_dots":2.65,"target":"right","response":"right","rt":377.80000001192,"correct":true,"confidence":2},{"trial_n":95,"n_dots":2.55,"target":"right","response":"left","rt":439.40000000596,"correct":false,"confidence":2},{"trial_n":96,"n_dots":2.65,"target":"left","response":"left","rt":316.5,"correct":true,"confidence":3},{"trial_n":97,"n_dots":2.65,"target":"right","response":"right","rt":624.09999999404,"correct":true,"confidence":3},{"trial_n":98,"n_dots":2.55,"target":"left","response":"left","rt":295,"correct":true,"confidence":2},{"trial_n":99,"n_dots":2.55,"target":"right","response":"right","rt":430.80000001192,"correct":true,"confidence":3},{"trial_n":100,"n_dots":2.45,"target":"right","response":"left","rt":272.20000001788,"correct":false,"confidence":3},{"trial_n":101,"n_dots":2.55,"target":"left","response":"left","rt":167.80000001192,"correct":true,"confidence":4},{"trial_n":102,"n_dots":2.55,"target":"left","response":"left","rt":261.60000002384,"correct":true,"confidence":4},{"trial_n":103,"n_dots":2.45,"target":"left","response":"left","rt":397.90000000596,"correct":true,"confidence":4},{"trial_n":104,"n_dots":2.45,"target":"right","response":"right","rt":126.79999998212,"correct":true,"confidence":4},{"trial_n":105,"n_dots":2.35,"target":"right","response":"left","rt":599.30000001192,"correct":false,"confidence":3},{"trial_n":106,"n_dots":2.45,"target":"left","response":"left","rt":288.09999999404,"correct":true,"confidence":4},{"trial_n":107,"n_dots":2.45,"target":"left","response":"left","rt":636.89999997616,"correct":true,"confidence":3},{"trial_n":108,"n_dots":2.35,"target":"right","response":"right","rt":545.20000001788,"correct":true,"confidence":3},{"trial_n":109,"n_dots":2.35,"target":"right","response":"right","rt":478.09999999404,"correct":true,"confidence":2},{"trial_n":110,"n_dots":2.25,"target":"left","response":"right","rt":614.59999999404,"correct":false,"confidence":2},{"trial_n":111,"n_dots":2.35,"target":"left","response":"left","rt":223.89999997616,"correct":true,"confidence":3},{"trial_n":112,"n_dots":2.35,"target":"right","response":"right","rt":398.29999998212,"correct":true,"confidence":3},{"trial_n":113,"n_dots":2.25,"target":"right","response":"left","rt":442.59999999404,"correct":false,"confidence":3},{"trial_n":114,"n_dots":2.35,"target":"left","response":"right","rt":644.5,"correct":false,"confidence":3},{"trial_n":115,"n_dots":2.45,"target":"right","response":"right","rt":776.19999998808,"correct":true,"confidence":2},{"trial_n":116,"n_dots":2.45,"target":"left","response":"left","rt":172.09999999404,"correct":true,"confidence":3},{"trial_n":117,"n_dots":2.35,"target":"right","response":"left","rt":197.89999997616,"correct":false,"confidence":3},{"trial_n":118,"n_dots":2.45,"target":"left","response":"left","rt":162.29999998212,"correct":true,"confidence":3},{"trial_n":119,"n_dots":2.45,"target":"right","response":"left","rt":36.59999999404,"correct":false,"confidence":3},{"trial_n":120,"n_dots":2.55,"target":"left","response":"left","rt":92,"correct":true,"confidence":4}]