[{"trial_n":1,"span":8,"encoder":"91847182","distractor":"94847182","target":"present","response":"present","rt":"4629.5","correct":true,"confidence":-1},{"trial_n":2,"span":8,"encoder":"45340817","distractor":"45340814","target":"present","response":"absent","rt":"3001.1999999285","correct":false,"confidence":-1},{"trial_n":3,"span":6,"encoder":"794311","distractor":"784311","target":"absent","response":"absent","rt":"2752.3000000715","correct":true,"confidence":-1},{"trial_n":4,"span":6,"encoder":"813250","distractor":"913250","target":"absent","response":"absent","rt":"1568.7000000477","correct":true,"confidence":-1},{"trial_n":5,"span":8,"encoder":"44394562","distractor":"44394560","target":"present","response":"present","rt":"2959.7999999523","correct":true,"confidence":-1},{"trial_n":6,"span":8,"encoder":"07830501","distractor":"07810501","target":"present","response":"present","rt":"3502.5","correct":true,"confidence":-1},{"trial_n":7,"span":10,"encoder":"6523620899","distractor":"6623620899","target":"present","response":"present","rt":"4592.3999999762","correct":true,"confidence":-1},{"trial_n":8,"span":10,"encoder":"0726219747","distractor":"0426219747","target":"absent","response":"present","rt":"645.20000004768","correct":false,"confidence":-1},{"trial_n":9,"span":8,"encoder":"17651739","distractor":"10651739","target":"absent","response":"absent","rt":"2455.2000000477","correct":true,"confidence":-1},{"trial_n":10,"span":8,"encoder":"09912718","distractor":"09919718","target":"absent","response":"present","rt":"3533.8999999762","correct":false,"confidence":-1},{"trial_n":11,"span":6,"encoder":"708356","distractor":"708456","target":"present","response":"absent","rt":"1990.8999999762","correct":false,"confidence":-1},{"trial_n":12,"span":5,"encoder":"91765","distractor":"91769","target":"present","response":"present","rt":"1358.5","correct":true,"confidence":-1},{"trial_n":13,"span":5,"encoder":"52034","distractor":"52031","target":"absent","response":"absent","rt":"2780.7999999523","correct":true,"confidence":-1},{"trial_n":14,"span":6,"encoder":"343308","distractor":"943308","target":"absent","response":"absent","rt":"1387.6000000238","correct":true,"confidence":-1},{"trial_n":15,"span":6,"encoder":"736725","distractor":"836725","target":"absent","response":"absent","rt":"972.59999990463","correct":true,"confidence":-1},{"trial_n":16,"span":7,"encoder":"4093758","distractor":"4093756","target":"present","response":"absent","rt":"890.29999995232","correct":false,"confidence":-1},{"trial_n":17,"span":6,"encoder":"914273","distractor":"914271","target":"absent","response":"absent","rt":"2593.1999999285","correct":true,"confidence":-1},{"trial_n":18,"span":6,"encoder":"219959","distractor":"289959","target":"present","response":"present","rt":"2752.8999999762","correct":true,"confidence":-1},{"trial_n":19,"span":7,"encoder":"2177192","distractor":"3177192","target":"absent","response":"absent","rt":"4281.3999999762","correct":true,"confidence":-1},{"trial_n":20,"span":7,"encoder":"3097652","distractor":"3097651","target":"absent","response":"absent","rt":"2581.3999999762","correct":true,"confidence":-1},{"trial_n":21,"span":8,"encoder":"65781476","distractor":"65781474","target":"present","response":"absent","rt":"2436.3999999762","correct":false,"confidence":2},{"trial_n":22,"span":7,"encoder":"9282007","distractor":"9682007","target":"absent","response":"present","rt":"523.20000004768","correct":false,"confidence":2},{"trial_n":23,"span":6,"encoder":"668638","distractor":"668636","target":"present","response":"present","rt":"2070.6000000238","correct":true,"confidence":2},{"trial_n":24,"span":6,"encoder":"693112","distractor":"493112","target":"present","response":"absent","rt":"1623.1000000238","correct":false,"confidence":2},{"trial_n":25,"span":5,"encoder":"76229","distractor":"76220","target":"present","response":"absent","rt":"1028.6999999285","correct":false,"confidence":1},{"trial_n":26,"span":4,"encoder":"6886","distractor":"6486","target":"absent","response":"present","rt":"2924.4000000954","correct":false,"confidence":3},{"trial_n":27,"span":3,"encoder":"064","distractor":"264","target":"absent","response":"present","rt":"1787.2000000477","correct":false,"confidence":3},{"trial_n":28,"span":2,"encoder":"44","distractor":"47","target":"present","response":"present","rt":"2692.2999999523","correct":true,"confidence":4},{"trial_n":29,"span":2,"encoder":"26","distractor":"86","target":"present","response":"present","rt":"2802.6999999285","correct":true,"confidence":4},{"trial_n":30,"span":3,"encoder":"160","distractor":"180","target":"present","response":"present","rt":"1284","correct":true,"confidence":5},{"trial_n":31,"span":3,"encoder":"246","distractor":"296","target":"absent","response":"absent","rt":"2243.7999999523","correct":true,"confidence":5},{"trial_n":32,"span":4,"encoder":"2622","distractor":"2422","target":"present","response":"present","rt":"4257.1000000238","correct":true,"confidence":4},{"trial_n":33,"span":4,"encoder":"0639","distractor":"7639","target":"absent","response":"present","rt":"4184.1000000238","correct":false,"confidence":4},{"trial_n":34,"span":3,"encoder":"211","distractor":"811","target":"absent","response":"absent","rt":"1855.8999999762","correct":true,"confidence":5},{"trial_n":35,"span":3,"encoder":"008","distractor":"058","target":"present","response":"present","rt":"1070.5999999046","correct":true,"confidence":5},{"trial_n":36,"span":4,"encoder":"9644","distractor":"9634","target":"present","response":"present","rt":"1165.3000000715","correct":true,"confidence":5},{"trial_n":37,"span":4,"encoder":"9339","distractor":"9939","target":"present","response":"absent","rt":"3004.7999999523","correct":false,"confidence":5},{"trial_n":38,"span":3,"encoder":"035","distractor":"055","target":"present","response":"present","rt":"1005.1000000238","correct":true,"confidence":3},{"trial_n":39,"span":3,"encoder":"698","distractor":"668","target":"present","response":"present","rt":"1402.4000000954","correct":true,"confidence":5},{"trial_n":40,"span":4,"encoder":"6950","distractor":"6850","target":"absent","response":"absent","rt":"1315.7999999523","correct":true,"confidence":4},{"trial_n":41,"span":4,"encoder":"3088","distractor":"3098","target":"absent","response":"present","rt":"1366.7000000477","correct":false,"confidence":1},{"trial_n":42,"span":3,"encoder":"271","distractor":"071","target":"present","response":"present","rt":"1023.9000000954","correct":true,"confidence":4},{"trial_n":43,"span":3,"encoder":"034","distractor":"037","target":"absent","response":"absent","rt":"1563.7000000477","correct":true,"confidence":4},{"trial_n":44,"span":4,"encoder":"5763","distractor":"5773","target":"absent","response":"absent","rt":"1379.1000000238","correct":true,"confidence":4},{"trial_n":45,"span":4,"encoder":"8757","distractor":"8759","target":"absent","response":"absent","rt":"1219.6000000238","correct":true,"confidence":4},{"trial_n":46,"span":5,"encoder":"48872","distractor":"48572","target":"present","response":"absent","rt":"2363.5","correct":false,"confidence":4},{"trial_n":47,"span":4,"encoder":"8362","distractor":"8962","target":"absent","response":"absent","rt":"1487.8999999762","correct":true,"confidence":4},{"trial_n":48,"span":4,"encoder":"6500","distractor":"6509","target":"absent","response":"absent","rt":"1682.0999999046","correct":true,"confidence":3},{"trial_n":49,"span":5,"encoder":"90417","distractor":"90412","target":"absent","response":"absent","rt":"1791.8000000715","correct":true,"confidence":4},{"trial_n":50,"span":5,"encoder":"89435","distractor":"89235","target":"absent","response":"absent","rt":"786.60000002384","correct":true,"confidence":3},{"trial_n":51,"span":6,"encoder":"015702","distractor":"095702","target":"present","response":"absent","rt":"1245.2000000477","correct":false,"confidence":3},{"trial_n":52,"span":5,"encoder":"42839","distractor":"42849","target":"present","response":"absent","rt":"1395.2000000477","correct":false,"confidence":3},{"trial_n":53,"span":4,"encoder":"9360","distractor":"9060","target":"present","response":"present","rt":"3399.6000000238","correct":true,"confidence":4},{"trial_n":54,"span":4,"encoder":"5505","distractor":"5105","target":"present","response":"present","rt":"2205","correct":true,"confidence":5},{"trial_n":55,"span":5,"encoder":"23322","distractor":"24322","target":"present","response":"absent","rt":"4431.5","correct":false,"confidence":4},{"trial_n":56,"span":4,"encoder":"0625","distractor":"0425","target":"absent","response":"absent","rt":"1832.8000000715","correct":true,"confidence":4},{"trial_n":57,"span":4,"encoder":"0361","distractor":"0366","target":"present","response":"present","rt":"1071.2000000477","correct":true,"confidence":5},{"trial_n":58,"span":5,"encoder":"79824","distractor":"79823","target":"present","response":"present","rt":"1854.2000000477","correct":true,"confidence":5},{"trial_n":59,"span":5,"encoder":"26206","distractor":"26106","target":"absent","response":"absent","rt":"1351.3999999762","correct":true,"confidence":5},{"trial_n":60,"span":6,"encoder":"837446","distractor":"737446","target":"present","response":"absent","rt":"2573.2000000477","correct":false,"confidence":5},{"trial_n":61,"span":5,"encoder":"96026","distractor":"96023","target":"present","response":"present","rt":"1297","correct":true,"confidence":4},{"trial_n":62,"span":5,"encoder":"76908","distractor":"86908","target":"absent","response":"absent","rt":"1702","correct":true,"confidence":4},{"trial_n":63,"span":6,"encoder":"220931","distractor":"220961","target":"present","response":"present","rt":"2039.7000000477","correct":true,"confidence":5},{"trial_n":64,"span":6,"encoder":"853546","distractor":"873546","target":"absent","response":"absent","rt":"1558.7999999523","correct":true,"confidence":4},{"trial_n":65,"span":7,"encoder":"7456149","distractor":"7256149","target":"absent","response":"absent","rt":"1424","correct":true,"confidence":5},{"trial_n":66,"span":7,"encoder":"8790330","distractor":"8490330","target":"present","response":"present","rt":"1298.5","correct":true,"confidence":4},{"trial_n":67,"span":8,"encoder":"86561082","distractor":"86561089","target":"absent","response":"absent","rt":"691.89999997616","correct":true,"confidence":4},{"trial_n":68,"span":8,"encoder":"48589490","distractor":"48389490","target":"present","response":"present","rt":"2229.3999999762","correct":true,"confidence":4},{"trial_n":69,"span":9,"encoder":"731772554","distractor":"731778554","target":"absent","response":"absent","rt":"2620.5999999046","correct":true,"confidence":4},{"trial_n":70,"span":9,"encoder":"784338513","distractor":"784338543","target":"absent","response":"present","rt":"851.79999995232","correct":false,"confidence":3},{"trial_n":71,"span":8,"encoder":"29726395","distractor":"29726495","target":"present","response":"present","rt":"5678.7000000477","correct":true,"confidence":-1},{"trial_n":72,"span":8,"encoder":"16451500","distractor":"17451500","target":"present","response":"present","rt":"1395.7999999523","correct":true,"confidence":-1},{"trial_n":73,"span":9,"encoder":"601247951","distractor":"601747951","target":"absent","response":"present","rt":"1051.7000000477","correct":false,"confidence":-1},{"trial_n":74,"span":8,"encoder":"86337388","distractor":"86637388","target":"absent","response":"absent","rt":"739638.70000005","correct":true,"confidence":-1},{"trial_n":75,"span":8,"encoder":"31538666","distractor":"31531666","target":"present","response":"present","rt":"6531.8999999762","correct":true,"confidence":-1},{"trial_n":76,"span":9,"encoder":"905852600","distractor":"505852600","target":"absent","response":"present","rt":"73886","correct":false,"confidence":-1},{"trial_n":77,"span":8,"encoder":"23984798","distractor":"23184798","target":"present","response":"present","rt":"360291.69999993","correct":true,"confidence":-1},{"trial_n":78,"span":8,"encoder":"65973053","distractor":"75973053","target":"absent","response":"present","rt":"6558.3000000715","correct":false,"confidence":-1},{"trial_n":79,"span":7,"encoder":"9193053","distractor":"9190053","target":"absent","response":"absent","rt":"1458.2999999523","correct":true,"confidence":-1},{"trial_n":80,"span":7,"encoder":"9419152","distractor":"9489152","target":"present","response":"present","rt":"1500.3000000715","correct":true,"confidence":-1},{"trial_n":81,"span":8,"encoder":"93201525","distractor":"93281525","target":"present","response":"absent","rt":"4931.1000000238","correct":false,"confidence":-1},{"trial_n":82,"span":7,"encoder":"0210643","distractor":"0210644","target":"absent","response":"present","rt":"23338.200000048","correct":false,"confidence":-1},{"trial_n":83,"span":6,"encoder":"369972","distractor":"369872","target":"absent","response":"absent","rt":"1247.7000000477","correct":true,"confidence":-1},{"trial_n":84,"span":6,"encoder":"080910","distractor":"280910","target":"present","response":"absent","rt":"1224.7999999523","correct":false,"confidence":-1},{"trial_n":85,"span":5,"encoder":"00834","distractor":"05834","target":"absent","response":"present","rt":"543381.20000005","correct":false,"confidence":-1},{"trial_n":86,"span":4,"encoder":"4605","distractor":"4405","target":"absent","response":"present","rt":"5400.1000000238","correct":false,"confidence":-1},{"trial_n":87,"span":3,"encoder":"511","distractor":"611","target":"absent","response":"present","rt":"214152.89999998","correct":false,"confidence":-1},{"trial_n":88,"span":2,"encoder":"04","distractor":"74","target":"absent","response":"present","rt":"1465.8999999762","correct":false,"confidence":-1},{"trial_n":89,"span":2,"encoder":"56","distractor":"76","target":"present","response":"present","rt":"1301","correct":true,"confidence":-1},{"trial_n":90,"span":2,"encoder":"75","distractor":"95","target":"present","response":"present","rt":"1274.2000000477","correct":true,"confidence":-1},{"trial_n":91,"span":3,"encoder":"955","distractor":"555","target":"absent","response":"absent","rt":"908.80000007153","correct":true,"confidence":3},{"trial_n":92,"span":3,"encoder":"288","distractor":"268","target":"absent","response":"absent","rt":"5761.2000000477","correct":true,"confidence":3},{"trial_n":93,"span":4,"encoder":"8740","distractor":"8747","target":"present","response":"absent","rt":"505.39999997616","correct":false,"confidence":4},{"trial_n":94,"span":3,"encoder":"878","distractor":"818","target":"present","response":"absent","rt":"810.30000007153","correct":false,"confidence":1},{"trial_n":95,"span":2,"encoder":"34","distractor":"36","target":"present","response":"absent","rt":"543.80000007153","correct":false,"confidence":3},{"trial_n":96,"span":2,"encoder":"43","distractor":"49","target":"absent","response":"absent","rt":"1090.6000000238","correct":true,"confidence":3},{"trial_n":97,"span":2,"encoder":"62","distractor":"68","target":"present","response":"absent","rt":"402.30000007153","correct":false,"confidence":1},{"trial_n":98,"span":2,"encoder":"54","distractor":"51","target":"absent","response":"absent","rt":"315.60000002384","correct":true,"confidence":3},{"trial_n":99,"span":2,"encoder":"12","distractor":"10","target":"present","response":"present","rt":"823.60000002384","correct":true,"confidence":3},{"trial_n":100,"span":3,"encoder":"856","distractor":"826","target":"absent","response":"absent","rt":"1053.7999999523","correct":true,"confidence":3},{"trial_n":101,"span":3,"encoder":"682","distractor":"683","target":"absent","response":"absent","rt":"569.70000004768","correct":true,"confidence":4},{"trial_n":102,"span":4,"encoder":"9195","distractor":"3195","target":"absent","response":"absent","rt":"1044.3999999762","correct":true,"confidence":4},{"trial_n":103,"span":4,"encoder":"4960","distractor":"4965","target":"present","response":"present","rt":"1453.6000000238","correct":true,"confidence":4},{"trial_n":104,"span":5,"encoder":"84879","distractor":"84179","target":"absent","response":"present","rt":"478.39999997616","correct":false,"confidence":1},{"trial_n":105,"span":4,"encoder":"8214","distractor":"8264","target":"present","response":"present","rt":"345.79999995232","correct":true,"confidence":1},{"trial_n":106,"span":4,"encoder":"6954","distractor":"9954","target":"present","response":"present","rt":"2499.6000000238","correct":true,"confidence":3},{"trial_n":107,"span":5,"encoder":"60179","distractor":"60679","target":"present","response":"present","rt":"2550.6000000238","correct":true,"confidence":4},{"trial_n":108,"span":5,"encoder":"01292","distractor":"01262","target":"absent","response":"absent","rt":"3007","correct":true,"confidence":4},{"trial_n":109,"span":6,"encoder":"558466","distractor":"558462","target":"present","response":"present","rt":"2040.6999999285","correct":true,"confidence":4},{"trial_n":110,"span":6,"encoder":"215860","distractor":"215862","target":"absent","response":"present","rt":"2102.9000000954","correct":false,"confidence":4},{"trial_n":111,"span":5,"encoder":"76853","distractor":"76863","target":"present","response":"present","rt":"411.10000002384","correct":true,"confidence":4},{"trial_n":112,"span":5,"encoder":"78251","distractor":"74251","target":"present","response":"present","rt":"319.60000002384","correct":true,"confidence":3},{"trial_n":113,"span":6,"encoder":"971755","distractor":"771755","target":"present","response":"absent","rt":"169.60000002384","correct":false,"confidence":3},{"trial_n":114,"span":5,"encoder":"26163","distractor":"36163","target":"present","response":"absent","rt":"343.30000007153","correct":false,"confidence":3},{"trial_n":115,"span":4,"encoder":"3981","distractor":"0981","target":"absent","response":"absent","rt":"308.70000004768","correct":true,"confidence":3},{"trial_n":116,"span":4,"encoder":"2585","distractor":"2587","target":"present","response":"absent","rt":"400","correct":false,"confidence":3},{"trial_n":117,"span":3,"encoder":"639","distractor":"634","target":"absent","response":"present","rt":"402","correct":false,"confidence":4},{"trial_n":118,"span":2,"encoder":"57","distractor":"47","target":"absent","response":"present","rt":"542.29999995232","correct":false,"confidence":3},{"trial_n":119,"span":2,"encoder":"63","distractor":"03","target":"absent","response":"absent","rt":"876","correct":true,"confidence":4},{"trial_n":120,"span":2,"encoder":"71","distractor":"78","target":"present","response":"present","rt":"1723.3999999762","correct":true,"confidence":4},{"trial_n":121,"span":3,"encoder":"732","distractor":"132","target":"present","response":"present","rt":"910.29999995232","correct":true,"confidence":4},{"trial_n":122,"span":3,"encoder":"939","distractor":"909","target":"absent","response":"absent","rt":"1141.8999999762","correct":true,"confidence":4},{"trial_n":123,"span":4,"encoder":"9808","distractor":"2808","target":"absent","response":"absent","rt":"786.19999992847","correct":true,"confidence":5},{"trial_n":124,"span":4,"encoder":"2968","distractor":"2998","target":"present","response":"present","rt":"1404.7999999523","correct":true,"confidence":5},{"trial_n":125,"span":5,"encoder":"45479","distractor":"45779","target":"present","response":"present","rt":"1731.5","correct":true,"confidence":5},{"trial_n":126,"span":5,"encoder":"81427","distractor":"81627","target":"absent","response":"absent","rt":"1437.1999999285","correct":true,"confidence":5},{"trial_n":127,"span":6,"encoder":"048841","distractor":"008841","target":"absent","response":"absent","rt":"5053","correct":true,"confidence":5},{"trial_n":128,"span":6,"encoder":"463882","distractor":"463862","target":"present","response":"present","rt":"3976.1000000238","correct":true,"confidence":5},{"trial_n":129,"span":7,"encoder":"1591461","distractor":"1591861","target":"present","response":"present","rt":"1228.6999999285","correct":true,"confidence":5},{"trial_n":130,"span":7,"encoder":"7174714","distractor":"7174414","target":"absent","response":"present","rt":"188.80000007153","correct":false,"confidence":4},{"trial_n":131,"span":6,"encoder":"062193","distractor":"062190","target":"present","response":"present","rt":"1146.3000000715","correct":true,"confidence":4},{"trial_n":132,"span":6,"encoder":"429057","distractor":"469057","target":"present","response":"absent","rt":"688.80000007153","correct":false,"confidence":4},{"trial_n":133,"span":5,"encoder":"52768","distractor":"52765","target":"absent","response":"present","rt":"334.10000002384","correct":false,"confidence":3},{"trial_n":134,"span":4,"encoder":"6050","distractor":"6250","target":"present","response":"present","rt":"1240","correct":true,"confidence":4},{"trial_n":135,"span":4,"encoder":"6148","distractor":"9148","target":"present","response":"present","rt":"1613.2999999523","correct":true,"confidence":5},{"trial_n":136,"span":5,"encoder":"50489","distractor":"50486","target":"absent","response":"present","rt":"287.70000004768","correct":false,"confidence":4},{"trial_n":137,"span":4,"encoder":"7313","distractor":"7353","target":"absent","response":"present","rt":"372.80000007153","correct":false,"confidence":3},{"trial_n":138,"span":3,"encoder":"526","distractor":"726","target":"present","response":"absent","rt":"369.29999995232","correct":false,"confidence":3},{"trial_n":139,"span":2,"encoder":"38","distractor":"36","target":"present","response":"present","rt":"2140.6999999285","correct":true,"confidence":4},{"trial_n":140,"span":2,"encoder":"88","distractor":"85","target":"absent","response":"absent","rt":"1006.1000000238","correct":true,"confidence":5}]