[{"trial_n":1,"n_dots":4.25,"target":"right","response":"right","rt":3006,"correct":true,"confidence":-1},{"trial_n":2,"n_dots":4.25,"target":"right","response":"right","rt":531.5,"correct":true,"confidence":-1},{"trial_n":3,"n_dots":3.85,"target":"right","response":"left","rt":825.10000002384,"correct":false,"confidence":-1},{"trial_n":4,"n_dots":4.25,"target":"right","response":"right","rt":652.29999995232,"correct":true,"confidence":-1},{"trial_n":5,"n_dots":4.25,"target":"right","response":"left","rt":916.40000009537,"correct":false,"confidence":-1},{"trial_n":6,"n_dots":4.65,"target":"right","response":"right","rt":177.20000004768,"correct":true,"confidence":-1},{"trial_n":7,"n_dots":4.65,"target":"left","response":"left","rt":294.39999997616,"correct":true,"confidence":-1},{"trial_n":8,"n_dots":4.45,"target":"left","response":"left","rt":135.39999997616,"correct":true,"confidence":-1},{"trial_n":9,"n_dots":4.45,"target":"right","response":"right","rt":168.79999995232,"correct":true,"confidence":-1},{"trial_n":10,"n_dots":4.25,"target":"right","response":"right","rt":561.60000002384,"correct":true,"confidence":-1},{"trial_n":11,"n_dots":4.25,"target":"right","response":"right","rt":130,"correct":true,"confidence":-1},{"trial_n":12,"n_dots":4.05,"target":"left","response":"left","rt":181.19999992847,"correct":true,"confidence":-1},{"trial_n":13,"n_dots":4.05,"target":"left","response":"left","rt":10.799999952316,"correct":true,"confidence":-1},{"trial_n":14,"n_dots":3.95,"target":"left","response":"left","rt":344.29999995232,"correct":true,"confidence":-1},{"trial_n":15,"n_dots":3.95,"target":"left","response":"left","rt":720.79999995232,"correct":true,"confidence":-1},{"trial_n":16,"n_dots":3.85,"target":"right","response":"right","rt":1079,"correct":true,"confidence":-1},{"trial_n":17,"n_dots":3.85,"target":"left","response":"left","rt":244.5,"correct":true,"confidence":-1},{"trial_n":18,"n_dots":3.75,"target":"left","response":"left","rt":378.80000007153,"correct":true,"confidence":-1},{"trial_n":19,"n_dots":3.75,"target":"right","response":"left","rt":660.89999997616,"correct":false,"confidence":-1},{"trial_n":20,"n_dots":3.85,"target":"left","response":"left","rt":474.39999997616,"correct":true,"confidence":-1},{"trial_n":21,"n_dots":3.85,"target":"left","response":"left","rt":352.20000004768,"correct":true,"confidence":3},{"trial_n":22,"n_dots":3.75,"target":"left","response":"left","rt":243.60000002384,"correct":true,"confidence":4},{"trial_n":23,"n_dots":3.75,"target":"left","response":"left","rt":491.5,"correct":true,"confidence":5},{"trial_n":24,"n_dots":3.65,"target":"right","response":"left","rt":552.70000004768,"correct":false,"confidence":3},{"trial_n":25,"n_dots":3.75,"target":"left","response":"left","rt":882.79999995232,"correct":true,"confidence":5},{"trial_n":26,"n_dots":3.75,"target":"right","response":"right","rt":471.59999990463,"correct":true,"confidence":4},{"trial_n":27,"n_dots":3.65,"target":"right","response":"right","rt":94.600000023842,"correct":true,"confidence":5},{"trial_n":28,"n_dots":3.65,"target":"right","response":"right","rt":270.39999997616,"correct":true,"confidence":5},{"trial_n":29,"n_dots":3.55,"target":"left","response":"left","rt":205.60000002384,"correct":true,"confidence":4},{"trial_n":30,"n_dots":3.55,"target":"right","response":"right","rt":381.79999995232,"correct":true,"confidence":5},{"trial_n":31,"n_dots":3.45,"target":"right","response":"right","rt":29.199999928474,"correct":true,"confidence":5},{"trial_n":32,"n_dots":3.45,"target":"left","response":"left","rt":366.30000007153,"correct":true,"confidence":5},{"trial_n":33,"n_dots":3.35,"target":"right","response":"left","rt":864.10000002384,"correct":false,"confidence":4},{"trial_n":34,"n_dots":3.45,"target":"left","response":"right","rt":749.90000009537,"correct":false,"confidence":4},{"trial_n":35,"n_dots":3.55,"target":"right","response":"right","rt":394.39999997616,"correct":true,"confidence":5},{"trial_n":36,"n_dots":3.55,"target":"left","response":"left","rt":435.89999997616,"correct":true,"confidence":5},{"trial_n":37,"n_dots":3.45,"target":"left","response":"left","rt":452.60000002384,"correct":true,"confidence":1},{"trial_n":38,"n_dots":3.45,"target":"right","response":"left","rt":630.30000007153,"correct":false,"confidence":3},{"trial_n":39,"n_dots":3.55,"target":"right","response":"right","rt":233,"correct":true,"confidence":4},{"trial_n":40,"n_dots":3.55,"target":"right","response":"right","rt":541.39999997616,"correct":true,"confidence":3},{"trial_n":41,"n_dots":3.45,"target":"right","response":"right","rt":515.89999997616,"correct":true,"confidence":3},{"trial_n":42,"n_dots":3.45,"target":"right","response":"right","rt":149.10000002384,"correct":true,"confidence":4},{"trial_n":43,"n_dots":3.35,"target":"right","response":"right","rt":613.10000002384,"correct":true,"confidence":4},{"trial_n":44,"n_dots":3.35,"target":"right","response":"right","rt":678.60000002384,"correct":true,"confidence":3},{"trial_n":45,"n_dots":3.25,"target":"left","response":"right","rt":410.20000004768,"correct":false,"confidence":3},{"trial_n":46,"n_dots":3.35,"target":"left","response":"right","rt":509.39999997616,"correct":false,"confidence":3},{"trial_n":47,"n_dots":3.45,"target":"right","response":"right","rt":650.70000004768,"correct":true,"confidence":3},{"trial_n":48,"n_dots":3.45,"target":"right","response":"right","rt":535.60000002384,"correct":true,"confidence":3},{"trial_n":49,"n_dots":3.35,"target":"left","response":"left","rt":503,"correct":true,"confidence":4},{"trial_n":50,"n_dots":3.35,"target":"left","response":"right","rt":402.19999992847,"correct":false,"confidence":4},{"trial_n":51,"n_dots":3.45,"target":"right","response":"right","rt":329.79999995232,"correct":true,"confidence":4},{"trial_n":52,"n_dots":3.45,"target":"right","response":"right","rt":344.20000004768,"correct":true,"confidence":5},{"trial_n":53,"n_dots":3.35,"target":"left","response":"right","rt":516.60000002384,"correct":false,"confidence":3},{"trial_n":54,"n_dots":3.45,"target":"left","response":"left","rt":1140.7999999523,"correct":true,"confidence":4},{"trial_n":55,"n_dots":3.45,"target":"right","response":"right","rt":271.5,"correct":true,"confidence":3},{"trial_n":56,"n_dots":3.35,"target":"right","response":"right","rt":697,"correct":true,"confidence":4},{"trial_n":57,"n_dots":3.35,"target":"left","response":"right","rt":388.29999995232,"correct":false,"confidence":3},{"trial_n":58,"n_dots":3.45,"target":"right","response":"right","rt":609.70000004768,"correct":true,"confidence":4},{"trial_n":59,"n_dots":3.45,"target":"right","response":"left","rt":333.79999995232,"correct":false,"confidence":4},{"trial_n":60,"n_dots":3.55,"target":"right","response":"right","rt":200.10000002384,"correct":true,"confidence":4},{"trial_n":61,"n_dots":3.55,"target":"right","response":"right","rt":132.69999992847,"correct":true,"confidence":4},{"trial_n":62,"n_dots":3.45,"target":"left","response":"left","rt":110,"correct":true,"confidence":4},{"trial_n":63,"n_dots":3.45,"target":"right","response":"right","rt":113.10000002384,"correct":true,"confidence":4},{"trial_n":64,"n_dots":3.35,"target":"left","response":"left","rt":266.5,"correct":true,"confidence":5},{"trial_n":65,"n_dots":3.35,"target":"left","response":"right","rt":193.80000007153,"correct":false,"confidence":4},{"trial_n":66,"n_dots":3.45,"target":"right","response":"right","rt":714.29999995232,"correct":true,"confidence":4},{"trial_n":67,"n_dots":3.45,"target":"left","response":"left","rt":463.69999992847,"correct":true,"confidence":5},{"trial_n":68,"n_dots":3.35,"target":"left","response":"left","rt":0,"correct":true,"confidence":5},{"trial_n":69,"n_dots":3.35,"target":"right","response":"right","rt":-1.2999999523163,"correct":true,"confidence":5},{"trial_n":70,"n_dots":3.25,"target":"left","response":"left","rt":733,"correct":true,"confidence":5},{"trial_n":71,"n_dots":3.25,"target":"left","response":"right","rt":62.399999976158,"correct":false,"confidence":3},{"trial_n":72,"n_dots":3.35,"target":"right","response":"right","rt":5.6000000238419,"correct":true,"confidence":5},{"trial_n":73,"n_dots":3.35,"target":"left","response":"left","rt":68.5,"correct":true,"confidence":5},{"trial_n":74,"n_dots":3.25,"target":"left","response":"left","rt":228.89999997616,"correct":true,"confidence":5},{"trial_n":75,"n_dots":3.25,"target":"right","response":"right","rt":94.5,"correct":true,"confidence":4},{"trial_n":76,"n_dots":3.15,"target":"right","response":"right","rt":917.20000004768,"correct":true,"confidence":3},{"trial_n":77,"n_dots":3.15,"target":"left","response":"left","rt":515.19999992847,"correct":true,"confidence":5},{"trial_n":78,"n_dots":3.05,"target":"right","response":"left","rt":435.60000002384,"correct":false,"confidence":5},{"trial_n":79,"n_dots":3.15,"target":"left","response":"left","rt":416.09999990463,"correct":true,"confidence":4},{"trial_n":80,"n_dots":3.15,"target":"right","response":"right","rt":535.20000004768,"correct":true,"confidence":4},{"trial_n":81,"n_dots":3.05,"target":"left","response":"left","rt":367.20000004768,"correct":true,"confidence":4},{"trial_n":82,"n_dots":3.05,"target":"left","response":"left","rt":736.29999995232,"correct":true,"confidence":4},{"trial_n":83,"n_dots":2.95,"target":"right","response":"right","rt":178.09999990463,"correct":true,"confidence":4},{"trial_n":84,"n_dots":2.95,"target":"left","response":"right","rt":737.70000004768,"correct":false,"confidence":3},{"trial_n":85,"n_dots":3.05,"target":"right","response":"right","rt":389.69999992847,"correct":true,"confidence":4},{"trial_n":86,"n_dots":3.05,"target":"left","response":"left","rt":357.19999992847,"correct":true,"confidence":4},{"trial_n":87,"n_dots":2.95,"target":"right","response":"right","rt":422,"correct":true,"confidence":3},{"trial_n":88,"n_dots":2.95,"target":"left","response":"right","rt":65.600000023842,"correct":false,"confidence":3},{"trial_n":89,"n_dots":3.05,"target":"left","response":"right","rt":-0.79999995231628,"correct":false,"confidence":3},{"trial_n":90,"n_dots":3.15,"target":"left","response":"left","rt":527.39999997616,"correct":true,"confidence":3},{"trial_n":91,"n_dots":3.15,"target":"left","response":"left","rt":647.60000002384,"correct":true,"confidence":4},{"trial_n":92,"n_dots":3.05,"target":"right","response":"right","rt":781,"correct":true,"confidence":3},{"trial_n":93,"n_dots":3.05,"target":"right","response":"right","rt":132.59999990463,"correct":true,"confidence":3},{"trial_n":94,"n_dots":2.95,"target":"left","response":"left","rt":185.5,"correct":true,"confidence":3},{"trial_n":95,"n_dots":2.95,"target":"left","response":"left","rt":554.29999995232,"correct":true,"confidence":4},{"trial_n":96,"n_dots":2.85,"target":"left","response":"left","rt":144.79999995232,"correct":true,"confidence":3},{"trial_n":97,"n_dots":2.85,"target":"left","response":"left","rt":863.79999995232,"correct":true,"confidence":3},{"trial_n":98,"n_dots":2.75,"target":"right","response":"left","rt":177.10000002384,"correct":false,"confidence":3},{"trial_n":99,"n_dots":2.85,"target":"left","response":"left","rt":153.80000007153,"correct":true,"confidence":3},{"trial_n":100,"n_dots":2.85,"target":"right","response":"left","rt":1059.7999999523,"correct":false,"confidence":3},{"trial_n":101,"n_dots":2.95,"target":"right","response":"left","rt":563,"correct":false,"confidence":3},{"trial_n":102,"n_dots":3.05,"target":"right","response":"right","rt":401.80000007153,"correct":true,"confidence":4},{"trial_n":103,"n_dots":3.05,"target":"left","response":"left","rt":188.70000004768,"correct":true,"confidence":4},{"trial_n":104,"n_dots":2.95,"target":"left","response":"left","rt":404.5,"correct":true,"confidence":3},{"trial_n":105,"n_dots":2.95,"target":"left","response":"left","rt":381.80000007153,"correct":true,"confidence":4},{"trial_n":106,"n_dots":2.85,"target":"left","response":"left","rt":236.5,"correct":true,"confidence":3},{"trial_n":107,"n_dots":2.85,"target":"left","response":"left","rt":790.5,"correct":true,"confidence":4},{"trial_n":108,"n_dots":2.75,"target":"right","response":"left","rt":372.79999995232,"correct":false,"confidence":4},{"trial_n":109,"n_dots":2.85,"target":"right","response":"left","rt":575.60000002384,"correct":false,"confidence":3},{"trial_n":110,"n_dots":2.95,"target":"left","response":"left","rt":445.60000002384,"correct":true,"confidence":5},{"trial_n":111,"n_dots":2.95,"target":"left","response":"left","rt":513.10000002384,"correct":true,"confidence":3},{"trial_n":112,"n_dots":2.85,"target":"right","response":"left","rt":764.30000007153,"correct":false,"confidence":3},{"trial_n":113,"n_dots":2.95,"target":"right","response":"left","rt":558.10000002384,"correct":false,"confidence":3},{"trial_n":114,"n_dots":3.05,"target":"left","response":"left","rt":488.20000004768,"correct":true,"confidence":3},{"trial_n":115,"n_dots":3.05,"target":"right","response":"right","rt":433.89999997616,"correct":true,"confidence":4},{"trial_n":116,"n_dots":2.95,"target":"left","response":"left","rt":435,"correct":true,"confidence":5},{"trial_n":117,"n_dots":2.95,"target":"left","response":"left","rt":98.099999904633,"correct":true,"confidence":3},{"trial_n":118,"n_dots":2.85,"target":"left","response":"left","rt":507.20000004768,"correct":true,"confidence":3},{"trial_n":119,"n_dots":2.85,"target":"right","response":"right","rt":533.89999997616,"correct":true,"confidence":4},{"trial_n":120,"n_dots":2.75,"target":"right","response":"left","rt":537,"correct":false,"confidence":4}]