[{"trial_n":1,"min":25,"max":230,"target":"present","response":"present","rt":1981.8999999985,"correct":true,"confidence":-1},{"trial_n":2,"min":25,"max":230,"target":"present","response":"present","rt":948,"correct":true,"confidence":-1},{"trial_n":3,"min":41,"max":214,"target":"absent","response":"absent","rt":1354.3999999985,"correct":true,"confidence":-1},{"trial_n":4,"min":41,"max":214,"target":"absent","response":"absent","rt":1260,"correct":true,"confidence":-1},{"trial_n":5,"min":57,"max":198,"target":"present","response":"present","rt":885.10000000149,"correct":true,"confidence":-1},{"trial_n":6,"min":57,"max":198,"target":"present","response":"present","rt":983.39999999851,"correct":true,"confidence":-1},{"trial_n":7,"min":73,"max":182,"target":"absent","response":"absent","rt":1074.6000000015,"correct":true,"confidence":-1},{"trial_n":8,"min":73,"max":182,"target":"absent","response":"absent","rt":485.69999999553,"correct":true,"confidence":-1},{"trial_n":9,"min":89,"max":166,"target":"absent","response":"absent","rt":418.59999999404,"correct":true,"confidence":-1},{"trial_n":10,"min":89,"max":166,"target":"absent","response":"absent","rt":460.80000000447,"correct":true,"confidence":-1},{"trial_n":11,"min":97,"max":158,"target":"present","response":"absent","rt":831.29999999702,"correct":false,"confidence":-1},{"trial_n":12,"min":89,"max":166,"target":"absent","response":"absent","rt":1488.3999999985,"correct":true,"confidence":-1},{"trial_n":13,"min":89,"max":166,"target":"absent","response":"absent","rt":548.70000000298,"correct":true,"confidence":-1},{"trial_n":14,"min":97,"max":158,"target":"absent","response":"absent","rt":539.79999999702,"correct":true,"confidence":-1},{"trial_n":15,"min":97,"max":158,"target":"present","response":"absent","rt":520.30000000447,"correct":false,"confidence":-1},{"trial_n":16,"min":89,"max":166,"target":"present","response":"absent","rt":790.89999999851,"correct":false,"confidence":-1},{"trial_n":17,"min":81,"max":174,"target":"absent","response":"absent","rt":1140.200000003,"correct":true,"confidence":-1},{"trial_n":18,"min":81,"max":174,"target":"present","response":"present","rt":868.89999999851,"correct":true,"confidence":-1},{"trial_n":19,"min":89,"max":166,"target":"absent","response":"absent","rt":586.20000000298,"correct":true,"confidence":-1},{"trial_n":20,"min":89,"max":166,"target":"absent","response":"absent","rt":783.5,"correct":true,"confidence":-1},{"trial_n":21,"min":93,"max":162,"target":"absent","response":"present","rt":1842.3999999985,"correct":false,"confidence":2},{"trial_n":22,"min":89,"max":166,"target":"present","response":"present","rt":1078.3000000045,"correct":true,"confidence":3},{"trial_n":23,"min":89,"max":166,"target":"absent","response":"absent","rt":1171.299999997,"correct":true,"confidence":1},{"trial_n":24,"min":93,"max":162,"target":"present","response":"absent","rt":2234.400000006,"correct":false,"confidence":2},{"trial_n":25,"min":89,"max":166,"target":"present","response":"present","rt":1056.6999999955,"correct":true,"confidence":3},{"trial_n":26,"min":89,"max":166,"target":"present","response":"present","rt":1080.6000000015,"correct":true,"confidence":3},{"trial_n":27,"min":93,"max":162,"target":"present","response":"absent","rt":1043.5,"correct":false,"confidence":3},{"trial_n":28,"min":89,"max":166,"target":"present","response":"absent","rt":1655.8000000045,"correct":false,"confidence":3},{"trial_n":29,"min":85,"max":170,"target":"present","response":"absent","rt":1373.3999999985,"correct":false,"confidence":2},{"trial_n":30,"min":81,"max":174,"target":"present","response":"present","rt":1909.3999999985,"correct":true,"confidence":2},{"trial_n":31,"min":81,"max":174,"target":"absent","response":"absent","rt":1205.3999999985,"correct":true,"confidence":3},{"trial_n":32,"min":83,"max":172,"target":"present","response":"present","rt":1173.1999999955,"correct":true,"confidence":3},{"trial_n":33,"min":83,"max":172,"target":"absent","response":"absent","rt":987.90000000596,"correct":true,"confidence":3},{"trial_n":34,"min":85,"max":170,"target":"present","response":"absent","rt":1204.5,"correct":false,"confidence":2},{"trial_n":35,"min":83,"max":172,"target":"present","response":"present","rt":1031,"correct":true,"confidence":3},{"trial_n":36,"min":83,"max":172,"target":"present","response":"present","rt":946.89999999851,"correct":true,"confidence":4},{"trial_n":37,"min":85,"max":170,"target":"present","response":"present","rt":1264.6000000015,"correct":true,"confidence":2},{"trial_n":38,"min":85,"max":170,"target":"absent","response":"absent","rt":887.80000000447,"correct":true,"confidence":4},{"trial_n":39,"min":87,"max":168,"target":"present","response":"absent","rt":909.39999999851,"correct":false,"confidence":4},{"trial_n":40,"min":85,"max":170,"target":"present","response":"present","rt":1141.700000003,"correct":true,"confidence":3},{"trial_n":41,"min":85,"max":170,"target":"absent","response":"absent","rt":2440.700000003,"correct":true,"confidence":3},{"trial_n":42,"min":86,"max":169,"target":"present","response":"absent","rt":1087.5,"correct":false,"confidence":3},{"trial_n":43,"min":85,"max":170,"target":"absent","response":"absent","rt":744.5,"correct":true,"confidence":3},{"trial_n":44,"min":85,"max":170,"target":"absent","response":"absent","rt":924.40000000596,"correct":true,"confidence":3},{"trial_n":45,"min":86,"max":169,"target":"present","response":"present","rt":2321.8000000045,"correct":true,"confidence":2},{"trial_n":46,"min":86,"max":169,"target":"present","response":"present","rt":999.60000000149,"correct":true,"confidence":3},{"trial_n":47,"min":87,"max":168,"target":"absent","response":"absent","rt":1325.799999997,"correct":true,"confidence":3},{"trial_n":48,"min":87,"max":168,"target":"absent","response":"absent","rt":949.89999999851,"correct":true,"confidence":3},{"trial_n":49,"min":88,"max":167,"target":"absent","response":"absent","rt":914.89999999851,"correct":true,"confidence":2},{"trial_n":50,"min":88,"max":167,"target":"absent","response":"absent","rt":1159.1999999955,"correct":true,"confidence":3},{"trial_n":51,"min":89,"max":166,"target":"absent","response":"present","rt":1170.6000000015,"correct":false,"confidence":2},{"trial_n":52,"min":88,"max":167,"target":"present","response":"absent","rt":1137.1999999955,"correct":false,"confidence":3},{"trial_n":53,"min":87,"max":168,"target":"absent","response":"absent","rt":1121.599999994,"correct":true,"confidence":3},{"trial_n":54,"min":87,"max":168,"target":"absent","response":"absent","rt":1299.200000003,"correct":true,"confidence":2},{"trial_n":55,"min":88,"max":167,"target":"absent","response":"absent","rt":1498.1000000015,"correct":true,"confidence":2},{"trial_n":56,"min":88,"max":167,"target":"present","response":"absent","rt":3687,"correct":false,"confidence":1},{"trial_n":57,"min":87,"max":168,"target":"present","response":"present","rt":1312.3999999985,"correct":true,"confidence":2},{"trial_n":58,"min":87,"max":168,"target":"absent","response":"absent","rt":1084.6000000015,"correct":true,"confidence":2},{"trial_n":59,"min":88,"max":167,"target":"present","response":"present","rt":961.59999999404,"correct":true,"confidence":2},{"trial_n":60,"min":88,"max":167,"target":"present","response":"absent","rt":2342.299999997,"correct":false,"confidence":1},{"trial_n":61,"min":87,"max":168,"target":"present","response":"present","rt":1162.5,"correct":true,"confidence":4},{"trial_n":62,"min":87,"max":168,"target":"absent","response":"absent","rt":2695.5,"correct":true,"confidence":1},{"trial_n":63,"min":88,"max":167,"target":"present","response":"present","rt":840.59999999404,"correct":true,"confidence":3},{"trial_n":64,"min":88,"max":167,"target":"absent","response":"present","rt":1256.3000000045,"correct":false,"confidence":2},{"trial_n":65,"min":87,"max":168,"target":"present","response":"present","rt":1152,"correct":true,"confidence":2},{"trial_n":66,"min":87,"max":168,"target":"present","response":"absent","rt":2270.6999999955,"correct":false,"confidence":2},{"trial_n":67,"min":86,"max":169,"target":"absent","response":"absent","rt":1127.799999997,"correct":true,"confidence":2},{"trial_n":68,"min":86,"max":169,"target":"absent","response":"absent","rt":1185.8000000045,"correct":true,"confidence":2},{"trial_n":69,"min":87,"max":168,"target":"present","response":"present","rt":970.10000000149,"correct":true,"confidence":4},{"trial_n":70,"min":87,"max":168,"target":"absent","response":"present","rt":1069.1000000015,"correct":false,"confidence":3},{"trial_n":71,"min":41,"max":214,"target":"present","response":"present","rt":1890.799999997,"correct":true,"confidence":-1},{"trial_n":72,"min":41,"max":214,"target":"present","response":"present","rt":84.5,"correct":true,"confidence":-1},{"trial_n":73,"min":57,"max":198,"target":"absent","response":"absent","rt":170,"correct":true,"confidence":-1},{"trial_n":74,"min":57,"max":198,"target":"absent","response":"absent","rt":253.5,"correct":true,"confidence":-1},{"trial_n":75,"min":73,"max":182,"target":"present","response":"present","rt":35.39999999851,"correct":true,"confidence":-1},{"trial_n":76,"min":73,"max":182,"target":"absent","response":"absent","rt":386,"correct":true,"confidence":-1},{"trial_n":77,"min":89,"max":166,"target":"absent","response":"present","rt":1123.299999997,"correct":false,"confidence":-1},{"trial_n":78,"min":73,"max":182,"target":"absent","response":"absent","rt":709.59999999404,"correct":true,"confidence":-1},{"trial_n":79,"min":73,"max":182,"target":"present","response":"absent","rt":1793.6000000015,"correct":false,"confidence":-1},{"trial_n":80,"min":57,"max":198,"target":"present","response":"present","rt":332.30000000447,"correct":true,"confidence":-1},{"trial_n":81,"min":57,"max":198,"target":"present","response":"present","rt":143.10000000149,"correct":true,"confidence":-1},{"trial_n":82,"min":65,"max":190,"target":"absent","response":"absent","rt":254.79999999702,"correct":true,"confidence":-1},{"trial_n":83,"min":65,"max":190,"target":"absent","response":"present","rt":322.19999999553,"correct":false,"confidence":-1},{"trial_n":84,"min":57,"max":198,"target":"absent","response":"absent","rt":214.39999999851,"correct":true,"confidence":-1},{"trial_n":85,"min":57,"max":198,"target":"present","response":"present","rt":87.5,"correct":true,"confidence":-1},{"trial_n":86,"min":65,"max":190,"target":"absent","response":"absent","rt":416.79999999702,"correct":true,"confidence":-1},{"trial_n":87,"min":65,"max":190,"target":"present","response":"present","rt":887.10000000149,"correct":true,"confidence":-1},{"trial_n":88,"min":73,"max":182,"target":"absent","response":"absent","rt":823.90000000596,"correct":true,"confidence":-1},{"trial_n":89,"min":73,"max":182,"target":"absent","response":"absent","rt":285.20000000298,"correct":true,"confidence":-1},{"trial_n":90,"min":81,"max":174,"target":"absent","response":"present","rt":729.30000000447,"correct":false,"confidence":-1},{"trial_n":91,"min":77,"max":178,"target":"present","response":"present","rt":1259.799999997,"correct":true,"confidence":5},{"trial_n":92,"min":77,"max":178,"target":"absent","response":"absent","rt":1151.299999997,"correct":true,"confidence":3},{"trial_n":93,"min":81,"max":174,"target":"present","response":"present","rt":1037.200000003,"correct":true,"confidence":3},{"trial_n":94,"min":81,"max":174,"target":"present","response":"present","rt":833.19999999553,"correct":true,"confidence":3},{"trial_n":95,"min":85,"max":170,"target":"present","response":"present","rt":1114.8999999985,"correct":true,"confidence":4},{"trial_n":96,"min":85,"max":170,"target":"absent","response":"present","rt":1119.3999999985,"correct":false,"confidence":2},{"trial_n":97,"min":81,"max":174,"target":"present","response":"present","rt":688.10000000149,"correct":true,"confidence":3},{"trial_n":98,"min":81,"max":174,"target":"present","response":"present","rt":700,"correct":true,"confidence":2},{"trial_n":99,"min":85,"max":170,"target":"absent","response":"present","rt":1898,"correct":false,"confidence":1},{"trial_n":100,"min":81,"max":174,"target":"absent","response":"present","rt":899.89999999851,"correct":false,"confidence":1},{"trial_n":101,"min":79,"max":176,"target":"absent","response":"absent","rt":1671.6000000015,"correct":true,"confidence":1},{"trial_n":102,"min":79,"max":176,"target":"absent","response":"present","rt":814.39999999851,"correct":false,"confidence":1},{"trial_n":103,"min":77,"max":178,"target":"absent","response":"absent","rt":951.60000000149,"correct":true,"confidence":2},{"trial_n":104,"min":77,"max":178,"target":"absent","response":"absent","rt":896.60000000149,"correct":true,"confidence":3},{"trial_n":105,"min":79,"max":176,"target":"absent","response":"absent","rt":896.59999999404,"correct":true,"confidence":3},{"trial_n":106,"min":79,"max":176,"target":"present","response":"present","rt":702.5,"correct":true,"confidence":4},{"trial_n":107,"min":81,"max":174,"target":"present","response":"present","rt":695.90000000596,"correct":true,"confidence":4},{"trial_n":108,"min":81,"max":174,"target":"absent","response":"absent","rt":794.29999999702,"correct":true,"confidence":3},{"trial_n":109,"min":83,"max":172,"target":"absent","response":"absent","rt":1002.5,"correct":true,"confidence":2},{"trial_n":110,"min":83,"max":172,"target":"absent","response":"absent","rt":877,"correct":true,"confidence":2},{"trial_n":111,"min":84,"max":171,"target":"present","response":"present","rt":781.70000000298,"correct":true,"confidence":2},{"trial_n":112,"min":84,"max":171,"target":"absent","response":"absent","rt":755.89999999851,"correct":true,"confidence":2},{"trial_n":113,"min":85,"max":170,"target":"present","response":"present","rt":891.39999999851,"correct":true,"confidence":3},{"trial_n":114,"min":85,"max":170,"target":"present","response":"present","rt":703.30000000447,"correct":true,"confidence":4},{"trial_n":115,"min":86,"max":169,"target":"present","response":"present","rt":808.30000000447,"correct":true,"confidence":3},{"trial_n":116,"min":86,"max":169,"target":"absent","response":"present","rt":680,"correct":false,"confidence":2},{"trial_n":117,"min":85,"max":170,"target":"absent","response":"absent","rt":1148.3999999985,"correct":true,"confidence":3},{"trial_n":118,"min":85,"max":170,"target":"present","response":"present","rt":603.29999999702,"correct":true,"confidence":5},{"trial_n":119,"min":86,"max":169,"target":"present","response":"present","rt":740.5,"correct":true,"confidence":5},{"trial_n":120,"min":86,"max":169,"target":"present","response":"present","rt":1191.6000000015,"correct":true,"confidence":2},{"trial_n":121,"min":87,"max":168,"target":"present","response":"present","rt":1440.299999997,"correct":true,"confidence":2},{"trial_n":122,"min":87,"max":168,"target":"absent","response":"absent","rt":1368.3000000045,"correct":true,"confidence":1},{"trial_n":123,"min":88,"max":167,"target":"absent","response":"present","rt":1063.1000000015,"correct":false,"confidence":3},{"trial_n":124,"min":87,"max":168,"target":"present","response":"present","rt":771.5,"correct":true,"confidence":3},{"trial_n":125,"min":87,"max":168,"target":"present","response":"present","rt":645.59999999404,"correct":true,"confidence":3},{"trial_n":126,"min":88,"max":167,"target":"absent","response":"absent","rt":1695.8999999985,"correct":true,"confidence":2},{"trial_n":127,"min":88,"max":167,"target":"absent","response":"absent","rt":1552.700000003,"correct":true,"confidence":2},{"trial_n":128,"min":89,"max":166,"target":"present","response":"present","rt":879.20000000298,"correct":true,"confidence":2},{"trial_n":129,"min":89,"max":166,"target":"absent","response":"absent","rt":1017.700000003,"correct":true,"confidence":2},{"trial_n":130,"min":90,"max":165,"target":"present","response":"present","rt":839.79999999702,"correct":true,"confidence":3},{"trial_n":131,"min":90,"max":165,"target":"absent","response":"present","rt":1444.799999997,"correct":false,"confidence":1},{"trial_n":132,"min":89,"max":166,"target":"present","response":"present","rt":533.5,"correct":true,"confidence":4},{"trial_n":133,"min":89,"max":166,"target":"absent","response":"present","rt":2200.6999999955,"correct":false,"confidence":1},{"trial_n":134,"min":88,"max":167,"target":"present","response":"present","rt":818.59999999404,"correct":true,"confidence":3},{"trial_n":135,"min":88,"max":167,"target":"present","response":"present","rt":830,"correct":true,"confidence":2},{"trial_n":136,"min":89,"max":166,"target":"present","response":"present","rt":471.89999999851,"correct":true,"confidence":3},{"trial_n":137,"min":89,"max":166,"target":"present","response":"present","rt":740.20000000298,"correct":true,"confidence":3},{"trial_n":138,"min":90,"max":165,"target":"present","response":"present","rt":688.90000000596,"correct":true,"confidence":3},{"trial_n":139,"min":90,"max":165,"target":"present","response":"present","rt":367.69999999553,"correct":true,"confidence":4},{"trial_n":140,"min":91,"max":164,"target":"present","response":"present","rt":454.69999999553,"correct":true,"confidence":4}]