[{"trial_n":1,"min":25,"max":230,"target":"present","response":"absent","rt":5788,"correct":false,"confidence":-1},{"trial_n":2,"min":25,"max":230,"target":"present","response":"present","rt":1432,"correct":true,"confidence":-1},{"trial_n":3,"min":25,"max":230,"target":"absent","response":"absent","rt":847.00000000001,"correct":true,"confidence":-1},{"trial_n":4,"min":41,"max":214,"target":"absent","response":"absent","rt":1176,"correct":true,"confidence":-1},{"trial_n":5,"min":41,"max":214,"target":"present","response":"present","rt":712,"correct":true,"confidence":-1},{"trial_n":6,"min":57,"max":198,"target":"present","response":"present","rt":808,"correct":true,"confidence":-1},{"trial_n":7,"min":57,"max":198,"target":"absent","response":"absent","rt":741.99999999999,"correct":true,"confidence":-1},{"trial_n":8,"min":73,"max":182,"target":"present","response":"present","rt":750,"correct":true,"confidence":-1},{"trial_n":9,"min":73,"max":182,"target":"absent","response":"absent","rt":679,"correct":true,"confidence":-1},{"trial_n":10,"min":89,"max":166,"target":"absent","response":"absent","rt":431,"correct":true,"confidence":-1},{"trial_n":11,"min":89,"max":166,"target":"present","response":"absent","rt":234,"correct":false,"confidence":-1},{"trial_n":12,"min":81,"max":174,"target":"present","response":"absent","rt":928,"correct":false,"confidence":-1},{"trial_n":13,"min":73,"max":182,"target":"present","response":"present","rt":714,"correct":true,"confidence":-1},{"trial_n":14,"min":73,"max":182,"target":"present","response":"present","rt":751.99999999999,"correct":true,"confidence":-1},{"trial_n":15,"min":81,"max":174,"target":"present","response":"present","rt":833,"correct":true,"confidence":-1},{"trial_n":16,"min":81,"max":174,"target":"present","response":"present","rt":766,"correct":true,"confidence":-1},{"trial_n":17,"min":89,"max":166,"target":"absent","response":"absent","rt":714,"correct":true,"confidence":-1},{"trial_n":18,"min":89,"max":166,"target":"absent","response":"absent","rt":685,"correct":true,"confidence":-1},{"trial_n":19,"min":97,"max":158,"target":"present","response":"absent","rt":841,"correct":false,"confidence":-1},{"trial_n":20,"min":89,"max":166,"target":"present","response":"absent","rt":705,"correct":false,"confidence":-1},{"trial_n":21,"min":85,"max":170,"target":"present","response":"present","rt":736.00000000001,"correct":true,"confidence":3},{"trial_n":22,"min":85,"max":170,"target":"present","response":"present","rt":2302,"correct":true,"confidence":2},{"trial_n":23,"min":89,"max":166,"target":"present","response":"absent","rt":1777,"correct":false,"confidence":2},{"trial_n":24,"min":85,"max":170,"target":"absent","response":"absent","rt":1683,"correct":true,"confidence":2},{"trial_n":25,"min":85,"max":170,"target":"absent","response":"absent","rt":1501,"correct":true,"confidence":2},{"trial_n":26,"min":89,"max":166,"target":"absent","response":"present","rt":1148,"correct":false,"confidence":2},{"trial_n":27,"min":85,"max":170,"target":"present","response":"present","rt":983,"correct":true,"confidence":3},{"trial_n":28,"min":85,"max":170,"target":"absent","response":"absent","rt":1287,"correct":true,"confidence":2},{"trial_n":29,"min":89,"max":166,"target":"absent","response":"absent","rt":452,"correct":true,"confidence":3},{"trial_n":30,"min":89,"max":166,"target":"absent","response":"present","rt":2000,"correct":false,"confidence":2},{"trial_n":31,"min":87,"max":168,"target":"absent","response":"absent","rt":1205,"correct":true,"confidence":2},{"trial_n":32,"min":87,"max":168,"target":"absent","response":"present","rt":683.99999999997,"correct":false,"confidence":3},{"trial_n":33,"min":85,"max":170,"target":"present","response":"present","rt":348,"correct":true,"confidence":4},{"trial_n":34,"min":85,"max":170,"target":"absent","response":"absent","rt":590,"correct":true,"confidence":2},{"trial_n":35,"min":87,"max":168,"target":"present","response":"present","rt":831,"correct":true,"confidence":5},{"trial_n":36,"min":87,"max":168,"target":"absent","response":"absent","rt":402,"correct":true,"confidence":2},{"trial_n":37,"min":89,"max":166,"target":"present","response":"absent","rt":1975,"correct":false,"confidence":1},{"trial_n":38,"min":87,"max":168,"target":"absent","response":"absent","rt":539.99999999997,"correct":true,"confidence":1},{"trial_n":39,"min":87,"max":168,"target":"present","response":"absent","rt":500,"correct":false,"confidence":1},{"trial_n":40,"min":85,"max":170,"target":"absent","response":"present","rt":1497,"correct":false,"confidence":1},{"trial_n":41,"min":84,"max":171,"target":"present","response":"present","rt":1125,"correct":true,"confidence":4},{"trial_n":42,"min":84,"max":171,"target":"absent","response":"present","rt":646,"correct":false,"confidence":3},{"trial_n":43,"min":83,"max":172,"target":"present","response":"present","rt":305,"correct":true,"confidence":5},{"trial_n":44,"min":83,"max":172,"target":"present","response":"present","rt":286,"correct":true,"confidence":5},{"trial_n":45,"min":84,"max":171,"target":"absent","response":"present","rt":954,"correct":false,"confidence":3},{"trial_n":46,"min":83,"max":172,"target":"absent","response":"absent","rt":1701,"correct":true,"confidence":2},{"trial_n":47,"min":83,"max":172,"target":"absent","response":"absent","rt":571,"correct":true,"confidence":2},{"trial_n":48,"min":84,"max":171,"target":"present","response":"present","rt":1847,"correct":true,"confidence":2},{"trial_n":49,"min":84,"max":171,"target":"present","response":"present","rt":639.00000000003,"correct":true,"confidence":3},{"trial_n":50,"min":85,"max":170,"target":"present","response":"present","rt":525,"correct":true,"confidence":3},{"trial_n":51,"min":85,"max":170,"target":"present","response":"absent","rt":888,"correct":false,"confidence":2},{"trial_n":52,"min":84,"max":171,"target":"present","response":"absent","rt":929.99999999997,"correct":false,"confidence":1},{"trial_n":53,"min":83,"max":172,"target":"absent","response":"present","rt":541,"correct":false,"confidence":3},{"trial_n":54,"min":82,"max":173,"target":"present","response":"present","rt":275.00000000003,"correct":true,"confidence":4},{"trial_n":55,"min":82,"max":173,"target":"present","response":"present","rt":266,"correct":true,"confidence":5},{"trial_n":56,"min":83,"max":172,"target":"present","response":"present","rt":295,"correct":true,"confidence":4},{"trial_n":57,"min":83,"max":172,"target":"absent","response":"absent","rt":1013,"correct":true,"confidence":2},{"trial_n":58,"min":84,"max":171,"target":"absent","response":"absent","rt":642.00000000003,"correct":true,"confidence":3},{"trial_n":59,"min":84,"max":171,"target":"absent","response":"absent","rt":775,"correct":true,"confidence":2},{"trial_n":60,"min":85,"max":170,"target":"present","response":"present","rt":325,"correct":true,"confidence":4},{"trial_n":61,"min":85,"max":170,"target":"absent","response":"present","rt":1794,"correct":false,"confidence":2},{"trial_n":62,"min":84,"max":171,"target":"absent","response":"absent","rt":1116.9999999999,"correct":true,"confidence":2},{"trial_n":63,"min":84,"max":171,"target":"absent","response":"absent","rt":483,"correct":true,"confidence":1},{"trial_n":64,"min":85,"max":170,"target":"absent","response":"absent","rt":500,"correct":true,"confidence":2},{"trial_n":65,"min":85,"max":170,"target":"present","response":"present","rt":1056,"correct":true,"confidence":2},{"trial_n":66,"min":86,"max":169,"target":"absent","response":"absent","rt":635,"correct":true,"confidence":2},{"trial_n":67,"min":86,"max":169,"target":"present","response":"absent","rt":522,"correct":false,"confidence":3},{"trial_n":68,"min":85,"max":170,"target":"absent","response":"absent","rt":838.00000000006,"correct":true,"confidence":2},{"trial_n":69,"min":85,"max":170,"target":"present","response":"present","rt":788.99999999994,"correct":true,"confidence":2},{"trial_n":70,"min":86,"max":169,"target":"absent","response":"absent","rt":662.00000000006,"correct":true,"confidence":2},{"trial_n":71,"min":41,"max":214,"target":"present","response":"absent","rt":6073,"correct":false,"confidence":-1},{"trial_n":72,"min":41,"max":214,"target":"present","response":"present","rt":1120.9999999999,"correct":true,"confidence":-1},{"trial_n":73,"min":41,"max":214,"target":"absent","response":"absent","rt":2163,"correct":true,"confidence":-1},{"trial_n":74,"min":57,"max":198,"target":"absent","response":"absent","rt":761,"correct":true,"confidence":-1},{"trial_n":75,"min":57,"max":198,"target":"present","response":"present","rt":813.99999999994,"correct":true,"confidence":-1},{"trial_n":76,"min":73,"max":182,"target":"absent","response":"absent","rt":618,"correct":true,"confidence":-1},{"trial_n":77,"min":73,"max":182,"target":"present","response":"present","rt":1434,"correct":true,"confidence":-1},{"trial_n":78,"min":89,"max":166,"target":"present","response":"present","rt":651.99999999994,"correct":true,"confidence":-1},{"trial_n":79,"min":89,"max":166,"target":"absent","response":"present","rt":1015.9999999999,"correct":false,"confidence":-1},{"trial_n":80,"min":73,"max":182,"target":"absent","response":"absent","rt":1497,"correct":true,"confidence":-1},{"trial_n":81,"min":73,"max":182,"target":"present","response":"present","rt":1077,"correct":true,"confidence":-1},{"trial_n":82,"min":81,"max":174,"target":"present","response":"present","rt":522,"correct":true,"confidence":-1},{"trial_n":83,"min":81,"max":174,"target":"absent","response":"absent","rt":2243,"correct":true,"confidence":-1},{"trial_n":84,"min":89,"max":166,"target":"absent","response":"present","rt":1124,"correct":false,"confidence":-1},{"trial_n":85,"min":81,"max":174,"target":"present","response":"present","rt":1150,"correct":true,"confidence":-1},{"trial_n":86,"min":81,"max":174,"target":"present","response":"present","rt":501,"correct":true,"confidence":-1},{"trial_n":87,"min":89,"max":166,"target":"present","response":"absent","rt":730,"correct":false,"confidence":-1},{"trial_n":88,"min":81,"max":174,"target":"present","response":"present","rt":254,"correct":true,"confidence":-1},{"trial_n":89,"min":81,"max":174,"target":"present","response":"present","rt":303,"correct":true,"confidence":-1},{"trial_n":90,"min":89,"max":166,"target":"present","response":"present","rt":252,"correct":true,"confidence":-1},{"trial_n":91,"min":89,"max":166,"target":"present","response":"present","rt":1289,"correct":true,"confidence":2},{"trial_n":92,"min":93,"max":162,"target":"absent","response":"present","rt":834,"correct":false,"confidence":2},{"trial_n":93,"min":89,"max":166,"target":"present","response":"absent","rt":1130,"correct":false,"confidence":1},{"trial_n":94,"min":85,"max":170,"target":"present","response":"present","rt":680,"correct":true,"confidence":2},{"trial_n":95,"min":85,"max":170,"target":"absent","response":"absent","rt":606,"correct":true,"confidence":3},{"trial_n":96,"min":89,"max":166,"target":"absent","response":"absent","rt":680,"correct":true,"confidence":3},{"trial_n":97,"min":89,"max":166,"target":"absent","response":"absent","rt":480.00000000006,"correct":true,"confidence":3},{"trial_n":98,"min":93,"max":162,"target":"absent","response":"present","rt":2829.9999999999,"correct":false,"confidence":2},{"trial_n":99,"min":89,"max":166,"target":"present","response":"absent","rt":296,"correct":false,"confidence":4},{"trial_n":100,"min":85,"max":170,"target":"absent","response":"absent","rt":894,"correct":true,"confidence":3},{"trial_n":101,"min":85,"max":170,"target":"absent","response":"absent","rt":1668.0000000001,"correct":true,"confidence":4},{"trial_n":102,"min":87,"max":168,"target":"present","response":"present","rt":858,"correct":true,"confidence":3},{"trial_n":103,"min":87,"max":168,"target":"absent","response":"present","rt":820.00000000006,"correct":false,"confidence":2},{"trial_n":104,"min":85,"max":170,"target":"absent","response":"present","rt":556.99999999994,"correct":false,"confidence":3},{"trial_n":105,"min":83,"max":172,"target":"present","response":"absent","rt":1207,"correct":false,"confidence":3},{"trial_n":106,"min":81,"max":174,"target":"present","response":"present","rt":731,"correct":true,"confidence":3},{"trial_n":107,"min":81,"max":174,"target":"present","response":"present","rt":301,"correct":true,"confidence":3},{"trial_n":108,"min":83,"max":172,"target":"present","response":"present","rt":335,"correct":true,"confidence":3},{"trial_n":109,"min":83,"max":172,"target":"present","response":"present","rt":375,"correct":true,"confidence":3},{"trial_n":110,"min":85,"max":170,"target":"absent","response":"absent","rt":1037,"correct":true,"confidence":2},{"trial_n":111,"min":85,"max":170,"target":"present","response":"present","rt":238,"correct":true,"confidence":4},{"trial_n":112,"min":86,"max":169,"target":"present","response":"present","rt":273.00000000006,"correct":true,"confidence":4},{"trial_n":113,"min":86,"max":169,"target":"present","response":"present","rt":431,"correct":true,"confidence":4},{"trial_n":114,"min":87,"max":168,"target":"present","response":"present","rt":995,"correct":true,"confidence":2},{"trial_n":115,"min":87,"max":168,"target":"present","response":"present","rt":270,"correct":true,"confidence":3},{"trial_n":116,"min":88,"max":167,"target":"absent","response":"absent","rt":420.99999999994,"correct":true,"confidence":4},{"trial_n":117,"min":88,"max":167,"target":"absent","response":"absent","rt":1501,"correct":true,"confidence":3},{"trial_n":118,"min":89,"max":166,"target":"present","response":"present","rt":2460,"correct":true,"confidence":1},{"trial_n":119,"min":89,"max":166,"target":"absent","response":"absent","rt":639,"correct":true,"confidence":1},{"trial_n":120,"min":90,"max":165,"target":"present","response":"present","rt":546.00000000006,"correct":true,"confidence":1},{"trial_n":121,"min":90,"max":165,"target":"absent","response":"absent","rt":839,"correct":true,"confidence":2},{"trial_n":122,"min":91,"max":164,"target":"absent","response":"absent","rt":480,"correct":true,"confidence":3},{"trial_n":123,"min":91,"max":164,"target":"absent","response":"absent","rt":553,"correct":true,"confidence":2},{"trial_n":124,"min":92,"max":163,"target":"absent","response":"present","rt":811.99999999994,"correct":false,"confidence":1},{"trial_n":125,"min":91,"max":164,"target":"present","response":"absent","rt":586,"correct":false,"confidence":1},{"trial_n":126,"min":90,"max":165,"target":"absent","response":"absent","rt":722.00000000006,"correct":true,"confidence":1},{"trial_n":127,"min":90,"max":165,"target":"absent","response":"present","rt":668,"correct":false,"confidence":1},{"trial_n":128,"min":89,"max":166,"target":"absent","response":"absent","rt":680,"correct":true,"confidence":1},{"trial_n":129,"min":89,"max":166,"target":"present","response":"present","rt":378,"correct":true,"confidence":3},{"trial_n":130,"min":90,"max":165,"target":"absent","response":"present","rt":629,"correct":false,"confidence":2},{"trial_n":131,"min":89,"max":166,"target":"absent","response":"absent","rt":873,"correct":true,"confidence":2},{"trial_n":132,"min":89,"max":166,"target":"absent","response":"present","rt":517,"correct":false,"confidence":1},{"trial_n":133,"min":88,"max":167,"target":"absent","response":"present","rt":1864,"correct":false,"confidence":1},{"trial_n":134,"min":87,"max":168,"target":"absent","response":"absent","rt":538,"correct":true,"confidence":2},{"trial_n":135,"min":87,"max":168,"target":"absent","response":"absent","rt":528.99999999988,"correct":true,"confidence":3},{"trial_n":136,"min":88,"max":167,"target":"present","response":"present","rt":303,"correct":true,"confidence":3},{"trial_n":137,"min":88,"max":167,"target":"present","response":"present","rt":240,"correct":true,"confidence":3},{"trial_n":138,"min":89,"max":166,"target":"absent","response":"present","rt":569,"correct":false,"confidence":2},{"trial_n":139,"min":88,"max":167,"target":"present","response":"present","rt":301,"correct":true,"confidence":2},{"trial_n":140,"min":88,"max":167,"target":"present","response":"present","rt":285,"correct":true,"confidence":3}]