[{"trial_n":1,"n_dots":4.25,"target":"right","response":"right","rt":8582,"correct":true,"confidence":-1},{"trial_n":2,"n_dots":4.25,"target":"right","response":"left","rt":1823,"correct":false,"confidence":-1},{"trial_n":3,"n_dots":4.65,"target":"left","response":"right","rt":2329,"correct":false,"confidence":-1},{"trial_n":4,"n_dots":5.05,"target":"left","response":"left","rt":1093,"correct":true,"confidence":-1},{"trial_n":5,"n_dots":5.05,"target":"right","response":"right","rt":645,"correct":true,"confidence":-1},{"trial_n":6,"n_dots":4.65,"target":"left","response":"left","rt":636,"correct":true,"confidence":-1},{"trial_n":7,"n_dots":4.65,"target":"right","response":"right","rt":766,"correct":true,"confidence":-1},{"trial_n":8,"n_dots":4.45,"target":"left","response":"left","rt":359,"correct":true,"confidence":-1},{"trial_n":9,"n_dots":4.45,"target":"left","response":"left","rt":597,"correct":true,"confidence":-1},{"trial_n":10,"n_dots":4.25,"target":"right","response":"right","rt":678,"correct":true,"confidence":-1},{"trial_n":11,"n_dots":4.25,"target":"right","response":"right","rt":620,"correct":true,"confidence":-1},{"trial_n":12,"n_dots":4.05,"target":"right","response":"left","rt":403,"correct":false,"confidence":-1},{"trial_n":13,"n_dots":4.15,"target":"right","response":"right","rt":263,"correct":true,"confidence":-1},{"trial_n":14,"n_dots":4.15,"target":"left","response":"left","rt":289,"correct":true,"confidence":-1},{"trial_n":15,"n_dots":4.05,"target":"left","response":"left","rt":401,"correct":true,"confidence":-1},{"trial_n":16,"n_dots":4.05,"target":"left","response":"left","rt":461,"correct":true,"confidence":-1},{"trial_n":17,"n_dots":3.95,"target":"left","response":"right","rt":369,"correct":false,"confidence":-1},{"trial_n":18,"n_dots":4.05,"target":"left","response":"left","rt":478,"correct":true,"confidence":-1},{"trial_n":19,"n_dots":4.05,"target":"right","response":"left","rt":577,"correct":false,"confidence":-1},{"trial_n":20,"n_dots":4.15,"target":"right","response":"right","rt":532,"correct":true,"confidence":-1},{"trial_n":21,"n_dots":4.15,"target":"right","response":"right","rt":502,"correct":true,"confidence":3},{"trial_n":22,"n_dots":4.05,"target":"left","response":"left","rt":720,"correct":true,"confidence":3},{"trial_n":23,"n_dots":4.05,"target":"right","response":"right","rt":734,"correct":true,"confidence":2},{"trial_n":24,"n_dots":3.95,"target":"left","response":"left","rt":1045,"correct":true,"confidence":4},{"trial_n":25,"n_dots":3.95,"target":"right","response":"right","rt":1631,"correct":true,"confidence":3},{"trial_n":26,"n_dots":3.85,"target":"right","response":"right","rt":1214,"correct":true,"confidence":3},{"trial_n":27,"n_dots":3.85,"target":"left","response":"left","rt":754,"correct":true,"confidence":4},{"trial_n":28,"n_dots":3.75,"target":"left","response":"left","rt":835,"correct":true,"confidence":3},{"trial_n":29,"n_dots":3.75,"target":"left","response":"left","rt":809,"correct":true,"confidence":3},{"trial_n":30,"n_dots":3.65,"target":"right","response":"right","rt":1437,"correct":true,"confidence":4},{"trial_n":31,"n_dots":3.65,"target":"right","response":"right","rt":857,"correct":true,"confidence":3},{"trial_n":32,"n_dots":3.55,"target":"left","response":"left","rt":484,"correct":true,"confidence":3},{"trial_n":33,"n_dots":3.55,"target":"right","response":"right","rt":659,"correct":true,"confidence":4},{"trial_n":34,"n_dots":3.45,"target":"left","response":"left","rt":472,"correct":true,"confidence":4},{"trial_n":35,"n_dots":3.45,"target":"left","response":"left","rt":1413,"correct":true,"confidence":3},{"trial_n":36,"n_dots":3.35,"target":"left","response":"left","rt":435,"correct":true,"confidence":3},{"trial_n":37,"n_dots":3.35,"target":"left","response":"left","rt":1493,"correct":true,"confidence":3},{"trial_n":38,"n_dots":3.25,"target":"right","response":"right","rt":920,"correct":true,"confidence":2},{"trial_n":39,"n_dots":3.25,"target":"right","response":"right","rt":575,"correct":true,"confidence":2},{"trial_n":40,"n_dots":3.15,"target":"left","response":"left","rt":485,"correct":true,"confidence":2},{"trial_n":41,"n_dots":3.15,"target":"right","response":"right","rt":513,"correct":true,"confidence":3},{"trial_n":42,"n_dots":3.05,"target":"left","response":"right","rt":570,"correct":false,"confidence":2},{"trial_n":43,"n_dots":3.15,"target":"left","response":"right","rt":489,"correct":false,"confidence":2},{"trial_n":44,"n_dots":3.25,"target":"right","response":"right","rt":426,"correct":true,"confidence":4},{"trial_n":45,"n_dots":3.25,"target":"right","response":"right","rt":2068,"correct":true,"confidence":3},{"trial_n":46,"n_dots":3.15,"target":"right","response":"right","rt":1030,"correct":true,"confidence":2},{"trial_n":47,"n_dots":3.15,"target":"right","response":"right","rt":631,"correct":true,"confidence":5},{"trial_n":48,"n_dots":3.05,"target":"left","response":"left","rt":1484,"correct":true,"confidence":3},{"trial_n":49,"n_dots":3.05,"target":"right","response":"right","rt":722,"correct":true,"confidence":3},{"trial_n":50,"n_dots":2.95,"target":"left","response":"left","rt":519,"correct":true,"confidence":3},{"trial_n":51,"n_dots":2.95,"target":"left","response":"left","rt":418,"correct":true,"confidence":3},{"trial_n":52,"n_dots":2.85,"target":"left","response":"left","rt":1157,"correct":true,"confidence":3},{"trial_n":53,"n_dots":2.85,"target":"right","response":"left","rt":447,"correct":false,"confidence":3},{"trial_n":54,"n_dots":2.95,"target":"right","response":"right","rt":482,"correct":true,"confidence":4},{"trial_n":55,"n_dots":2.95,"target":"left","response":"right","rt":1044,"correct":false,"confidence":4},{"trial_n":56,"n_dots":3.05,"target":"left","response":"right","rt":1249,"correct":false,"confidence":3},{"trial_n":57,"n_dots":3.15,"target":"left","response":"left","rt":450,"correct":true,"confidence":3},{"trial_n":58,"n_dots":3.15,"target":"right","response":"right","rt":672,"correct":true,"confidence":3},{"trial_n":59,"n_dots":3.05,"target":"left","response":"left","rt":944,"correct":true,"confidence":2},{"trial_n":60,"n_dots":3.05,"target":"right","response":"right","rt":654,"correct":true,"confidence":3},{"trial_n":61,"n_dots":2.95,"target":"left","response":"right","rt":821,"correct":false,"confidence":2},{"trial_n":62,"n_dots":3.05,"target":"left","response":"left","rt":773,"correct":true,"confidence":2},{"trial_n":63,"n_dots":3.05,"target":"left","response":"left","rt":539,"correct":true,"confidence":4},{"trial_n":64,"n_dots":2.95,"target":"right","response":"right","rt":496,"correct":true,"confidence":3},{"trial_n":65,"n_dots":2.95,"target":"right","response":"right","rt":472,"correct":true,"confidence":4},{"trial_n":66,"n_dots":2.85,"target":"left","response":"right","rt":599,"correct":false,"confidence":3},{"trial_n":67,"n_dots":2.95,"target":"left","response":"right","rt":478,"correct":false,"confidence":3},{"trial_n":68,"n_dots":3.05,"target":"left","response":"left","rt":552,"correct":true,"confidence":3},{"trial_n":69,"n_dots":3.05,"target":"right","response":"right","rt":486,"correct":true,"confidence":4},{"trial_n":70,"n_dots":2.95,"target":"left","response":"left","rt":494,"correct":true,"confidence":3},{"trial_n":71,"n_dots":2.95,"target":"right","response":"right","rt":689,"correct":true,"confidence":4},{"trial_n":72,"n_dots":2.85,"target":"left","response":"right","rt":1145,"correct":false,"confidence":3},{"trial_n":73,"n_dots":2.95,"target":"right","response":"right","rt":569,"correct":true,"confidence":4},{"trial_n":74,"n_dots":2.95,"target":"left","response":"right","rt":566,"correct":false,"confidence":3},{"trial_n":75,"n_dots":3.05,"target":"right","response":"left","rt":962,"correct":false,"confidence":3},{"trial_n":76,"n_dots":3.15,"target":"right","response":"right","rt":617,"correct":true,"confidence":4},{"trial_n":77,"n_dots":3.15,"target":"right","response":"right","rt":638,"correct":true,"confidence":3},{"trial_n":78,"n_dots":3.05,"target":"left","response":"right","rt":863,"correct":false,"confidence":3},{"trial_n":79,"n_dots":3.15,"target":"right","response":"right","rt":729,"correct":true,"confidence":3},{"trial_n":80,"n_dots":3.15,"target":"right","response":"right","rt":815,"correct":true,"confidence":2},{"trial_n":81,"n_dots":3.05,"target":"left","response":"right","rt":976,"correct":false,"confidence":2},{"trial_n":82,"n_dots":3.15,"target":"left","response":"left","rt":444,"correct":true,"confidence":2},{"trial_n":83,"n_dots":3.15,"target":"left","response":"left","rt":793,"correct":true,"confidence":3},{"trial_n":84,"n_dots":3.05,"target":"right","response":"right","rt":587,"correct":true,"confidence":3},{"trial_n":85,"n_dots":3.05,"target":"right","response":"right","rt":777,"correct":true,"confidence":3},{"trial_n":86,"n_dots":2.95,"target":"right","response":"left","rt":663,"correct":false,"confidence":2},{"trial_n":87,"n_dots":3.05,"target":"left","response":"right","rt":844,"correct":false,"confidence":3},{"trial_n":88,"n_dots":3.15,"target":"right","response":"left","rt":434,"correct":false,"confidence":2},{"trial_n":89,"n_dots":3.25,"target":"left","response":"right","rt":443,"correct":false,"confidence":1},{"trial_n":90,"n_dots":3.35,"target":"left","response":"left","rt":477,"correct":true,"confidence":4},{"trial_n":91,"n_dots":3.35,"target":"right","response":"right","rt":522,"correct":true,"confidence":3},{"trial_n":92,"n_dots":3.25,"target":"right","response":"right","rt":432,"correct":true,"confidence":3},{"trial_n":93,"n_dots":3.25,"target":"right","response":"right","rt":297,"correct":true,"confidence":3},{"trial_n":94,"n_dots":3.15,"target":"right","response":"right","rt":314,"correct":true,"confidence":3},{"trial_n":95,"n_dots":3.15,"target":"left","response":"left","rt":565,"correct":true,"confidence":3},{"trial_n":96,"n_dots":3.05,"target":"left","response":"right","rt":676,"correct":false,"confidence":2},{"trial_n":97,"n_dots":3.15,"target":"right","response":"left","rt":501,"correct":false,"confidence":2},{"trial_n":98,"n_dots":3.25,"target":"left","response":"left","rt":441,"correct":true,"confidence":3},{"trial_n":99,"n_dots":3.25,"target":"left","response":"left","rt":442,"correct":true,"confidence":2},{"trial_n":100,"n_dots":3.15,"target":"left","response":"left","rt":379,"correct":true,"confidence":2},{"trial_n":101,"n_dots":3.15,"target":"left","response":"right","rt":402,"correct":false,"confidence":3},{"trial_n":102,"n_dots":3.25,"target":"right","response":"left","rt":956,"correct":false,"confidence":3},{"trial_n":103,"n_dots":3.35,"target":"right","response":"right","rt":566,"correct":true,"confidence":4},{"trial_n":104,"n_dots":3.35,"target":"left","response":"left","rt":573,"correct":true,"confidence":3},{"trial_n":105,"n_dots":3.25,"target":"right","response":"left","rt":1736,"correct":false,"confidence":3},{"trial_n":106,"n_dots":3.35,"target":"left","response":"right","rt":1084,"correct":false,"confidence":3},{"trial_n":107,"n_dots":3.45,"target":"left","response":"left","rt":1076,"correct":true,"confidence":3},{"trial_n":108,"n_dots":3.45,"target":"left","response":"left","rt":306,"correct":true,"confidence":3},{"trial_n":109,"n_dots":3.35,"target":"right","response":"left","rt":459,"correct":false,"confidence":3},{"trial_n":110,"n_dots":3.45,"target":"right","response":"right","rt":341,"correct":true,"confidence":4},{"trial_n":111,"n_dots":3.45,"target":"right","response":"right","rt":747,"correct":true,"confidence":4},{"trial_n":112,"n_dots":3.35,"target":"right","response":"right","rt":497,"correct":true,"confidence":5},{"trial_n":113,"n_dots":3.35,"target":"left","response":"left","rt":535,"correct":true,"confidence":4},{"trial_n":114,"n_dots":3.25,"target":"right","response":"right","rt":472,"correct":true,"confidence":5},{"trial_n":115,"n_dots":3.25,"target":"left","response":"right","rt":556,"correct":false,"confidence":5},{"trial_n":116,"n_dots":3.35,"target":"right","response":"left","rt":1528,"correct":false,"confidence":4},{"trial_n":117,"n_dots":3.45,"target":"left","response":"left","rt":459,"correct":true,"confidence":4},{"trial_n":118,"n_dots":3.45,"target":"right","response":"right","rt":632,"correct":true,"confidence":5},{"trial_n":119,"n_dots":3.35,"target":"right","response":"right","rt":574,"correct":true,"confidence":4},{"trial_n":120,"n_dots":3.35,"target":"right","response":"right","rt":539,"correct":true,"confidence":5}]