[{"trial_n":1,"span":8,"encoder":"32268891","distractor":"32267891","target":"present","response":"present","rt":"3872.8000000045","correct":true,"confidence":-1},{"trial_n":2,"span":8,"encoder":"37815363","distractor":"37815763","target":"present","response":"present","rt":"3177.799999997","correct":true,"confidence":-1},{"trial_n":3,"span":10,"encoder":"0902390254","distractor":"0902690254","target":"absent","response":"absent","rt":"2634.8999999985","correct":true,"confidence":-1},{"trial_n":4,"span":10,"encoder":"6307703074","distractor":"6307603074","target":"absent","response":"absent","rt":"1704.3999999985","correct":true,"confidence":-1},{"trial_n":5,"span":12,"encoder":"933227491666","distractor":"933827491666","target":"present","response":"present","rt":"2727.299999997","correct":true,"confidence":-1},{"trial_n":6,"span":12,"encoder":"251207240709","distractor":"251207240739","target":"present","response":"present","rt":"2576.1999999955","correct":true,"confidence":-1},{"trial_n":7,"span":14,"encoder":"86597399727249","distractor":"86597999727249","target":"present","response":"present","rt":"3596.900000006","correct":true,"confidence":-1},{"trial_n":8,"span":14,"encoder":"79959161602255","distractor":"79950161602255","target":"absent","response":"present","rt":"2390.6999999955","correct":false,"confidence":-1},{"trial_n":9,"span":12,"encoder":"652051854034","distractor":"652051852034","target":"absent","response":"absent","rt":"2200.1000000015","correct":true,"confidence":-1},{"trial_n":10,"span":12,"encoder":"269725666766","distractor":"669725666766","target":"present","response":"present","rt":"3124","correct":true,"confidence":-1},{"trial_n":11,"span":14,"encoder":"50775807054638","distractor":"50775807054630","target":"absent","response":"present","rt":"2693.8999999985","correct":false,"confidence":-1},{"trial_n":12,"span":13,"encoder":"8338701476132","distractor":"8338701479132","target":"present","response":"present","rt":"1183.6999999955","correct":true,"confidence":-1},{"trial_n":13,"span":13,"encoder":"8955551933423","distractor":"8955551933023","target":"present","response":"present","rt":"2663.700000003","correct":true,"confidence":-1},{"trial_n":14,"span":14,"encoder":"44242038514634","distractor":"44342038514634","target":"absent","response":"present","rt":"1954","correct":false,"confidence":-1},{"trial_n":15,"span":13,"encoder":"7288854531141","distractor":"7287854531141","target":"present","response":"present","rt":"1165.200000003","correct":true,"confidence":-1},{"trial_n":16,"span":13,"encoder":"3385748167209","distractor":"3385748167809","target":"present","response":"absent","rt":"2547.200000003","correct":false,"confidence":-1},{"trial_n":17,"span":12,"encoder":"033720694036","distractor":"039720694036","target":"present","response":"present","rt":"3238.5","correct":true,"confidence":-1},{"trial_n":18,"span":12,"encoder":"246238428608","distractor":"246234428608","target":"absent","response":"present","rt":"2401.299999997","correct":false,"confidence":-1},{"trial_n":19,"span":11,"encoder":"32864371011","distractor":"32464371011","target":"absent","response":"present","rt":"1908.200000003","correct":false,"confidence":-1},{"trial_n":20,"span":10,"encoder":"2701495404","distractor":"3701495404","target":"present","response":"present","rt":"2385.3999999985","correct":true,"confidence":-1},{"trial_n":21,"span":10,"encoder":"6940445110","distractor":"6940455110","target":"absent","response":"present","rt":"2433.400000006","correct":false,"confidence":4},{"trial_n":22,"span":9,"encoder":"549054262","distractor":"549054268","target":"present","response":"present","rt":"2687.700000003","correct":true,"confidence":4},{"trial_n":23,"span":9,"encoder":"132026363","distractor":"112026363","target":"absent","response":"absent","rt":"2430","correct":true,"confidence":3},{"trial_n":24,"span":10,"encoder":"6923533416","distractor":"6923563416","target":"present","response":"absent","rt":"3327.700000003","correct":false,"confidence":3},{"trial_n":25,"span":9,"encoder":"180890908","distractor":"188890908","target":"absent","response":"absent","rt":"4606.700000003","correct":true,"confidence":3},{"trial_n":26,"span":9,"encoder":"516033138","distractor":"516033178","target":"absent","response":"present","rt":"6380.8999999985","correct":false,"confidence":2},{"trial_n":27,"span":8,"encoder":"02465768","distractor":"02465765","target":"present","response":"present","rt":"3670.1000000015","correct":true,"confidence":3},{"trial_n":28,"span":8,"encoder":"59676738","distractor":"50676738","target":"present","response":"present","rt":"3534","correct":true,"confidence":2},{"trial_n":29,"span":9,"encoder":"910341283","distractor":"910341284","target":"present","response":"present","rt":"4781.099999994","correct":true,"confidence":3},{"trial_n":30,"span":9,"encoder":"604038445","distractor":"604038545","target":"present","response":"present","rt":"2755.900000006","correct":true,"confidence":4},{"trial_n":31,"span":10,"encoder":"7693127518","distractor":"7693107518","target":"present","response":"present","rt":"3672.799999997","correct":true,"confidence":3},{"trial_n":32,"span":10,"encoder":"9991847835","distractor":"9991847235","target":"absent","response":"absent","rt":"4566.900000006","correct":true,"confidence":2},{"trial_n":33,"span":11,"encoder":"93744737173","distractor":"93764737173","target":"present","response":"present","rt":"3419","correct":true,"confidence":3},{"trial_n":34,"span":11,"encoder":"27249263797","distractor":"27349263797","target":"present","response":"present","rt":"5663.5","correct":true,"confidence":3},{"trial_n":35,"span":12,"encoder":"918493348378","distractor":"918493348878","target":"absent","response":"absent","rt":"4243.8999999985","correct":true,"confidence":3},{"trial_n":36,"span":12,"encoder":"362897646759","distractor":"562897646759","target":"present","response":"absent","rt":"7102.6999999955","correct":false,"confidence":2},{"trial_n":37,"span":11,"encoder":"72538332283","distractor":"52538332283","target":"absent","response":"present","rt":"11382.300000004","correct":false,"confidence":2},{"trial_n":38,"span":10,"encoder":"9373699265","distractor":"9375699265","target":"present","response":"present","rt":"3734.299999997","correct":true,"confidence":3},{"trial_n":39,"span":10,"encoder":"5774381912","distractor":"5777381912","target":"absent","response":"absent","rt":"5112.8999999985","correct":true,"confidence":3},{"trial_n":40,"span":11,"encoder":"57259176655","distractor":"57259178655","target":"present","response":"present","rt":"3553.6000000015","correct":true,"confidence":3},{"trial_n":41,"span":11,"encoder":"62399658793","distractor":"62399652793","target":"present","response":"present","rt":"3372.6999999955","correct":true,"confidence":2},{"trial_n":42,"span":12,"encoder":"569134652619","distractor":"569134652919","target":"present","response":"present","rt":"4228.3999999985","correct":true,"confidence":3},{"trial_n":43,"span":12,"encoder":"942654466240","distractor":"942654466246","target":"absent","response":"present","rt":"4371.1000000015","correct":false,"confidence":3},{"trial_n":44,"span":11,"encoder":"06479579236","distractor":"06479549236","target":"present","response":"present","rt":"4929.1000000015","correct":true,"confidence":3},{"trial_n":45,"span":11,"encoder":"13855414332","distractor":"83855414332","target":"absent","response":"present","rt":"5302.5","correct":false,"confidence":3},{"trial_n":46,"span":10,"encoder":"3917726373","distractor":"3517726373","target":"absent","response":"absent","rt":"10056.600000001","correct":true,"confidence":2},{"trial_n":47,"span":10,"encoder":"3231041702","distractor":"3231041792","target":"absent","response":"absent","rt":"3591.700000003","correct":true,"confidence":3},{"trial_n":48,"span":11,"encoder":"27167710740","distractor":"27167710790","target":"present","response":"present","rt":"4987","correct":true,"confidence":2},{"trial_n":49,"span":11,"encoder":"48607771720","distractor":"48607791720","target":"absent","response":"absent","rt":"7365.8000000045","correct":true,"confidence":2},{"trial_n":50,"span":12,"encoder":"898819988829","distractor":"898811988829","target":"present","response":"present","rt":"2625.799999997","correct":true,"confidence":3},{"trial_n":51,"span":12,"encoder":"861096262007","distractor":"861096962007","target":"absent","response":"present","rt":"4875.3000000045","correct":false,"confidence":3},{"trial_n":52,"span":11,"encoder":"59366519701","distractor":"59368519701","target":"absent","response":"present","rt":"3839.799999997","correct":false,"confidence":2},{"trial_n":53,"span":10,"encoder":"3930650653","distractor":"3930654653","target":"absent","response":"absent","rt":"5736.1000000015","correct":true,"confidence":2},{"trial_n":54,"span":10,"encoder":"4110977731","distractor":"4110877731","target":"present","response":"present","rt":"6420.099999994","correct":true,"confidence":3},{"trial_n":55,"span":11,"encoder":"80169581382","distractor":"80169586382","target":"present","response":"present","rt":"3731.1999999955","correct":true,"confidence":4},{"trial_n":56,"span":11,"encoder":"45983008247","distractor":"45983008267","target":"present","response":"present","rt":"4310.3999999985","correct":true,"confidence":3},{"trial_n":57,"span":12,"encoder":"033385669861","distractor":"033385369861","target":"absent","response":"present","rt":"7196.6000000015","correct":false,"confidence":2},{"trial_n":58,"span":11,"encoder":"47097681666","distractor":"47897681666","target":"present","response":"present","rt":"3004.700000003","correct":true,"confidence":3},{"trial_n":59,"span":11,"encoder":"67784131759","distractor":"67784130759","target":"absent","response":"absent","rt":"5375.200000003","correct":true,"confidence":1},{"trial_n":60,"span":12,"encoder":"058821954647","distractor":"058821954641","target":"absent","response":"present","rt":"5752.8000000045","correct":false,"confidence":2},{"trial_n":61,"span":11,"encoder":"58786327699","distractor":"58786327899","target":"present","response":"present","rt":"3892","correct":true,"confidence":2},{"trial_n":62,"span":11,"encoder":"33494823693","distractor":"43494823693","target":"absent","response":"present","rt":"5102.5","correct":false,"confidence":2},{"trial_n":63,"span":10,"encoder":"7279834836","distractor":"7279834831","target":"absent","response":"absent","rt":"5675.1000000015","correct":true,"confidence":2},{"trial_n":64,"span":10,"encoder":"3522261540","distractor":"3522211540","target":"absent","response":"present","rt":"4855.299999997","correct":false,"confidence":2},{"trial_n":65,"span":9,"encoder":"782549801","distractor":"782589801","target":"absent","response":"absent","rt":"7124.5","correct":true,"confidence":1},{"trial_n":66,"span":9,"encoder":"154610039","distractor":"164610039","target":"absent","response":"present","rt":"3340.799999997","correct":false,"confidence":2},{"trial_n":67,"span":8,"encoder":"53807677","distractor":"83807677","target":"present","response":"present","rt":"3308.6000000015","correct":true,"confidence":4},{"trial_n":68,"span":8,"encoder":"48608392","distractor":"38608392","target":"absent","response":"absent","rt":"5119.799999997","correct":true,"confidence":4},{"trial_n":69,"span":9,"encoder":"102165478","distractor":"122165478","target":"present","response":"present","rt":"6521.700000003","correct":true,"confidence":2},{"trial_n":70,"span":9,"encoder":"732641302","distractor":"732641202","target":"absent","response":"absent","rt":"6777.6000000015","correct":true,"confidence":2},{"trial_n":71,"span":8,"encoder":"17754263","distractor":"17784263","target":"present","response":"present","rt":"4257.5","correct":true,"confidence":-1},{"trial_n":72,"span":8,"encoder":"16669956","distractor":"16659956","target":"present","response":"present","rt":"4947.8999999985","correct":true,"confidence":-1},{"trial_n":73,"span":9,"encoder":"394728059","distractor":"394720059","target":"absent","response":"absent","rt":"2837.700000003","correct":true,"confidence":-1},{"trial_n":74,"span":9,"encoder":"069738359","distractor":"069718359","target":"absent","response":"absent","rt":"3002.200000003","correct":true,"confidence":-1},{"trial_n":75,"span":10,"encoder":"0940265789","distractor":"0940265787","target":"present","response":"present","rt":"7061.400000006","correct":true,"confidence":-1},{"trial_n":76,"span":10,"encoder":"3720340505","distractor":"3720300505","target":"absent","response":"absent","rt":"3059","correct":true,"confidence":-1},{"trial_n":77,"span":11,"encoder":"09924199666","distractor":"39924199666","target":"present","response":"present","rt":"4965","correct":true,"confidence":-1},{"trial_n":78,"span":11,"encoder":"64657635140","distractor":"04657635140","target":"absent","response":"absent","rt":"2663.1999999955","correct":true,"confidence":-1},{"trial_n":79,"span":12,"encoder":"450358085433","distractor":"450358088433","target":"present","response":"present","rt":"4290","correct":true,"confidence":-1},{"trial_n":80,"span":12,"encoder":"030863544494","distractor":"030863534494","target":"present","response":"present","rt":"2958.3000000045","correct":true,"confidence":-1},{"trial_n":81,"span":13,"encoder":"7918108048329","distractor":"5918108048329","target":"present","response":"present","rt":"6063.1999999955","correct":true,"confidence":-1},{"trial_n":82,"span":13,"encoder":"1001832260575","distractor":"1001832260875","target":"present","response":"absent","rt":"12519.5","correct":false,"confidence":-1},{"trial_n":83,"span":12,"encoder":"808975761842","distractor":"808975781842","target":"absent","response":"absent","rt":"8049.6000000015","correct":true,"confidence":-1},{"trial_n":84,"span":12,"encoder":"655029517352","distractor":"655029557352","target":"absent","response":"present","rt":"9843.8999999985","correct":false,"confidence":-1},{"trial_n":85,"span":11,"encoder":"12319763600","distractor":"14319763600","target":"absent","response":"absent","rt":"1591.799999997","correct":true,"confidence":-1},{"trial_n":86,"span":11,"encoder":"32039774534","distractor":"62039774534","target":"absent","response":"absent","rt":"6077.5","correct":true,"confidence":-1},{"trial_n":87,"span":12,"encoder":"063045316283","distractor":"063075316283","target":"absent","response":"absent","rt":"2911.6000000015","correct":true,"confidence":-1},{"trial_n":88,"span":12,"encoder":"508882562600","distractor":"508882562400","target":"present","response":"present","rt":"4012.5","correct":true,"confidence":-1},{"trial_n":89,"span":13,"encoder":"5219508950716","distractor":"5219508850716","target":"present","response":"present","rt":"6091.1000000015","correct":true,"confidence":-1},{"trial_n":90,"span":13,"encoder":"8903744393684","distractor":"8903744393624","target":"absent","response":"absent","rt":"3897.3000000045","correct":true,"confidence":-1},{"trial_n":91,"span":14,"encoder":"24114568602562","distractor":"24114668602562","target":"present","response":"present","rt":"7770.3000000045","correct":true,"confidence":4},{"trial_n":92,"span":14,"encoder":"76638638747405","distractor":"76638648747405","target":"absent","response":"present","rt":"14043.599999994","correct":false,"confidence":3},{"trial_n":93,"span":13,"encoder":"0316300081821","distractor":"3316300081821","target":"present","response":"present","rt":"9322.6000000015","correct":true,"confidence":4},{"trial_n":94,"span":13,"encoder":"9507529533240","distractor":"9507521533240","target":"absent","response":"absent","rt":"8165.5","correct":true,"confidence":3},{"trial_n":95,"span":14,"encoder":"39172586375482","distractor":"39172589375482","target":"present","response":"present","rt":"5683.3999999985","correct":true,"confidence":4},{"trial_n":96,"span":14,"encoder":"06653569703575","distractor":"06653569709575","target":"present","response":"present","rt":"4261.5","correct":true,"confidence":5},{"trial_n":97,"span":15,"encoder":"196615968275403","distractor":"196615968275423","target":"present","response":"present","rt":"11030.899999999","correct":true,"confidence":3},{"trial_n":98,"span":15,"encoder":"147288764040586","distractor":"147268764040586","target":"absent","response":"present","rt":"8263.1000000015","correct":false,"confidence":2},{"trial_n":99,"span":14,"encoder":"36614156146005","distractor":"36614156746005","target":"present","response":"present","rt":"5868.3000000045","correct":true,"confidence":3},{"trial_n":100,"span":14,"encoder":"12184379613127","distractor":"12180379613127","target":"present","response":"present","rt":"10458.799999997","correct":true,"confidence":2},{"trial_n":101,"span":15,"encoder":"747358705264202","distractor":"746358705264202","target":"present","response":"present","rt":"9737.3999999985","correct":true,"confidence":2},{"trial_n":102,"span":15,"encoder":"231185361838210","distractor":"231185361868210","target":"present","response":"present","rt":"6672.1000000015","correct":true,"confidence":4},{"trial_n":103,"span":16,"encoder":"7483851853338352","distractor":"7480851853338352","target":"present","response":"present","rt":"9393.3999999985","correct":true,"confidence":2},{"trial_n":104,"span":16,"encoder":"7356531057448219","distractor":"7356531057447219","target":"absent","response":"absent","rt":"7476.700000003","correct":true,"confidence":3},{"trial_n":105,"span":17,"encoder":"86075585464926299","distractor":"86075585464922299","target":"present","response":"present","rt":"13780.600000001","correct":true,"confidence":2},{"trial_n":106,"span":17,"encoder":"07028996010283219","distractor":"07028996010283279","target":"absent","response":"absent","rt":"5288.3999999985","correct":true,"confidence":3},{"trial_n":107,"span":18,"encoder":"130279527350991307","distractor":"130279527350991306","target":"present","response":"present","rt":"3816.6000000015","correct":true,"confidence":5},{"trial_n":108,"span":18,"encoder":"336879405234041450","distractor":"136879405234041450","target":"absent","response":"absent","rt":"12537.399999999","correct":true,"confidence":2},{"trial_n":109,"span":19,"encoder":"6954615190530971639","distractor":"6954625190530971639","target":"absent","response":"absent","rt":"16011.600000001","correct":true,"confidence":2},{"trial_n":110,"span":19,"encoder":"8508648109100557001","distractor":"8608648109100557001","target":"absent","response":"absent","rt":"5994.299999997","correct":true,"confidence":3},{"trial_n":111,"span":20,"encoder":"08048590847854291216","distractor":"08048590847874291216","target":"absent","response":"absent","rt":"6025.299999997","correct":true,"confidence":4},{"trial_n":112,"span":20,"encoder":"36321159898432010154","distractor":"36321159898442010154","target":"present","response":"absent","rt":"15127.600000001","correct":false,"confidence":2},{"trial_n":113,"span":19,"encoder":"6876018680390630797","distractor":"6876018685390630797","target":"present","response":"present","rt":"9428","correct":true,"confidence":2},{"trial_n":114,"span":19,"encoder":"2873182782873084083","distractor":"2873182782873084383","target":"absent","response":"absent","rt":"14917.799999997","correct":true,"confidence":2},{"trial_n":115,"span":20,"encoder":"37051417387183430292","distractor":"37051417387183430222","target":"absent","response":"absent","rt":"6201.1999999955","correct":true,"confidence":3},{"trial_n":116,"span":20,"encoder":"34104021155353309897","distractor":"34104021155353009897","target":"present","response":"present","rt":"11489.899999999","correct":true,"confidence":2},{"trial_n":117,"span":21,"encoder":"308836458706778493386","distractor":"308836458706778493380","target":"present","response":"present","rt":"5554.700000003","correct":true,"confidence":2},{"trial_n":118,"span":21,"encoder":"348422076747518505825","distractor":"348442076747518505825","target":"absent","response":"absent","rt":"16203.5","correct":true,"confidence":2},{"trial_n":119,"span":22,"encoder":"1722235101195747216743","distractor":"1722235101195747216703","target":"absent","response":"absent","rt":"3855.1000000015","correct":true,"confidence":3},{"trial_n":120,"span":22,"encoder":"3366835644791114821765","distractor":"3366835654791114821765","target":"absent","response":"present","rt":"15900.899999999","correct":false,"confidence":2},{"trial_n":121,"span":21,"encoder":"922834210905718536027","distractor":"922834210905718576027","target":"present","response":"present","rt":"3487.1999999955","correct":true,"confidence":5},{"trial_n":122,"span":21,"encoder":"940590052167994978858","distractor":"940590012167994978858","target":"present","response":"absent","rt":"20733.700000003","correct":false,"confidence":2},{"trial_n":123,"span":20,"encoder":"06948590995813030290","distractor":"06948570995813030290","target":"absent","response":"present","rt":"10091.300000004","correct":false,"confidence":3},{"trial_n":124,"span":19,"encoder":"3030317015081778446","distractor":"3030317015085778446","target":"absent","response":"absent","rt":"9412.3000000045","correct":true,"confidence":2},{"trial_n":125,"span":19,"encoder":"8241795746334487536","distractor":"8241795746339487536","target":"absent","response":"present","rt":"22660.199999996","correct":false,"confidence":1},{"trial_n":126,"span":18,"encoder":"295398694558941290","distractor":"295398694558942290","target":"absent","response":"absent","rt":"2577.6000000015","correct":true,"confidence":5},{"trial_n":127,"span":18,"encoder":"710058053886216712","distractor":"770058053886216712","target":"absent","response":"absent","rt":"5851.6999999955","correct":true,"confidence":2},{"trial_n":128,"span":19,"encoder":"1289504261350205270","distractor":"1289504261350205220","target":"absent","response":"absent","rt":"4119.8000000045","correct":true,"confidence":4},{"trial_n":129,"span":19,"encoder":"0317830466842430897","distractor":"0317830566842430897","target":"absent","response":"present","rt":"12606.699999996","correct":false,"confidence":1},{"trial_n":130,"span":18,"encoder":"844593527808444906","distractor":"834593527808444906","target":"present","response":"absent","rt":"17022.700000003","correct":false,"confidence":2},{"trial_n":131,"span":17,"encoder":"50949971863481481","distractor":"50949971863481482","target":"present","response":"absent","rt":"9164.5","correct":false,"confidence":2},{"trial_n":132,"span":16,"encoder":"6595202694919709","distractor":"6895202694919709","target":"absent","response":"present","rt":"5080.299999997","correct":false,"confidence":4},{"trial_n":133,"span":15,"encoder":"800689173957269","distractor":"808689173957269","target":"present","response":"present","rt":"4564.8999999985","correct":true,"confidence":3},{"trial_n":134,"span":15,"encoder":"669579864233810","distractor":"669579864233880","target":"absent","response":"absent","rt":"4922","correct":true,"confidence":4},{"trial_n":135,"span":16,"encoder":"2531536705661701","distractor":"2535536705661701","target":"present","response":"present","rt":"4564.1999999955","correct":true,"confidence":3},{"trial_n":136,"span":16,"encoder":"8702545519913330","distractor":"8702545519913339","target":"present","response":"present","rt":"3275.8999999985","correct":true,"confidence":4},{"trial_n":137,"span":17,"encoder":"29599699099075097","distractor":"29549699099075097","target":"present","response":"present","rt":"6137.1999999955","correct":true,"confidence":1},{"trial_n":138,"span":17,"encoder":"45075715757090039","distractor":"45075715752090039","target":"absent","response":"absent","rt":"7969","correct":true,"confidence":3},{"trial_n":139,"span":18,"encoder":"577890069746820558","distractor":"577890069746220558","target":"present","response":"absent","rt":"11683.299999997","correct":false,"confidence":2},{"trial_n":140,"span":17,"encoder":"73067891402837376","distractor":"73067891482837376","target":"present","response":"present","rt":"9753.6000000015","correct":true,"confidence":1}]