[{"trial_n":1,"span":8,"encoder":"53144455","distractor":"53144755","target":"present","response":"absent","rt":"20681","correct":false,"confidence":-1},{"trial_n":2,"span":6,"encoder":"785712","distractor":"784712","target":"present","response":"present","rt":"2408","correct":true,"confidence":-1},{"trial_n":3,"span":6,"encoder":"991179","distractor":"991175","target":"absent","response":"present","rt":"1267","correct":false,"confidence":-1},{"trial_n":4,"span":4,"encoder":"5152","distractor":"5352","target":"absent","response":"absent","rt":"2875","correct":true,"confidence":-1},{"trial_n":5,"span":4,"encoder":"0162","distractor":"7162","target":"present","response":"absent","rt":"1248","correct":false,"confidence":-1},{"trial_n":6,"span":2,"encoder":"28","distractor":"25","target":"absent","response":"absent","rt":"1198","correct":true,"confidence":-1},{"trial_n":7,"span":2,"encoder":"07","distractor":"87","target":"absent","response":"absent","rt":"1130","correct":true,"confidence":-1},{"trial_n":8,"span":4,"encoder":"4630","distractor":"4600","target":"absent","response":"absent","rt":"1680","correct":true,"confidence":-1},{"trial_n":9,"span":4,"encoder":"4367","distractor":"4360","target":"absent","response":"present","rt":"1368","correct":false,"confidence":-1},{"trial_n":10,"span":2,"encoder":"71","distractor":"21","target":"absent","response":"absent","rt":"765","correct":true,"confidence":-1},{"trial_n":11,"span":2,"encoder":"48","distractor":"46","target":"present","response":"present","rt":"784","correct":true,"confidence":-1},{"trial_n":12,"span":3,"encoder":"958","distractor":"955","target":"present","response":"present","rt":"777","correct":true,"confidence":-1},{"trial_n":13,"span":3,"encoder":"886","distractor":"786","target":"present","response":"present","rt":"656","correct":true,"confidence":-1},{"trial_n":14,"span":4,"encoder":"1070","distractor":"3070","target":"present","response":"present","rt":"1499","correct":true,"confidence":-1},{"trial_n":15,"span":4,"encoder":"7986","distractor":"7976","target":"present","response":"absent","rt":"1848","correct":false,"confidence":-1},{"trial_n":16,"span":3,"encoder":"483","distractor":"480","target":"present","response":"present","rt":"749","correct":true,"confidence":-1},{"trial_n":17,"span":3,"encoder":"741","distractor":"241","target":"present","response":"present","rt":"597","correct":true,"confidence":-1},{"trial_n":18,"span":4,"encoder":"0984","distractor":"0924","target":"absent","response":"absent","rt":"1507","correct":true,"confidence":-1},{"trial_n":19,"span":4,"encoder":"6339","distractor":"6333","target":"present","response":"present","rt":"974","correct":true,"confidence":-1},{"trial_n":20,"span":5,"encoder":"44771","distractor":"44761","target":"present","response":"present","rt":"797","correct":true,"confidence":-1},{"trial_n":21,"span":5,"encoder":"69816","distractor":"69216","target":"absent","response":"absent","rt":"1559","correct":true,"confidence":3},{"trial_n":22,"span":6,"encoder":"359920","distractor":"353920","target":"absent","response":"absent","rt":"4690","correct":true,"confidence":3},{"trial_n":23,"span":6,"encoder":"833132","distractor":"833134","target":"present","response":"present","rt":"2159","correct":true,"confidence":4},{"trial_n":24,"span":7,"encoder":"4536068","distractor":"4536868","target":"present","response":"present","rt":"3913","correct":true,"confidence":2},{"trial_n":25,"span":7,"encoder":"3975959","distractor":"3965959","target":"absent","response":"absent","rt":"4769","correct":true,"confidence":2},{"trial_n":26,"span":8,"encoder":"80599356","distractor":"80399356","target":"absent","response":"absent","rt":"5101","correct":true,"confidence":3},{"trial_n":27,"span":8,"encoder":"01163520","distractor":"01173520","target":"present","response":"present","rt":"3147","correct":true,"confidence":3},{"trial_n":28,"span":9,"encoder":"339157086","distractor":"333157086","target":"present","response":"absent","rt":"5467","correct":false,"confidence":3},{"trial_n":29,"span":8,"encoder":"82014228","distractor":"82014226","target":"present","response":"absent","rt":"4378","correct":false,"confidence":2},{"trial_n":30,"span":7,"encoder":"9634624","distractor":"9631624","target":"absent","response":"present","rt":"2452","correct":false,"confidence":3},{"trial_n":31,"span":6,"encoder":"856091","distractor":"856097","target":"absent","response":"absent","rt":"3308","correct":true,"confidence":3},{"trial_n":32,"span":6,"encoder":"771189","distractor":"771188","target":"absent","response":"absent","rt":"2693","correct":true,"confidence":3},{"trial_n":33,"span":7,"encoder":"9914928","distractor":"9914948","target":"present","response":"present","rt":"6393","correct":true,"confidence":3},{"trial_n":34,"span":7,"encoder":"1643410","distractor":"1643210","target":"present","response":"absent","rt":"4116","correct":false,"confidence":2},{"trial_n":35,"span":6,"encoder":"227888","distractor":"227889","target":"present","response":"present","rt":"5786","correct":true,"confidence":2},{"trial_n":36,"span":6,"encoder":"655831","distractor":"655631","target":"present","response":"present","rt":"2046","correct":true,"confidence":3},{"trial_n":37,"span":7,"encoder":"9331268","distractor":"4331268","target":"present","response":"present","rt":"2575","correct":true,"confidence":2},{"trial_n":38,"span":7,"encoder":"2592433","distractor":"2592463","target":"present","response":"present","rt":"2784","correct":true,"confidence":3},{"trial_n":39,"span":8,"encoder":"94868667","distractor":"94858667","target":"present","response":"present","rt":"2786","correct":true,"confidence":3},{"trial_n":40,"span":8,"encoder":"27732787","distractor":"27742787","target":"absent","response":"present","rt":"2666","correct":false,"confidence":2},{"trial_n":41,"span":7,"encoder":"5083718","distractor":"5083719","target":"present","response":"present","rt":"6305","correct":true,"confidence":1},{"trial_n":42,"span":7,"encoder":"7025911","distractor":"7024911","target":"absent","response":"present","rt":"2547","correct":false,"confidence":3},{"trial_n":43,"span":6,"encoder":"981228","distractor":"981258","target":"absent","response":"absent","rt":"3867","correct":true,"confidence":2},{"trial_n":44,"span":6,"encoder":"867694","distractor":"869694","target":"absent","response":"present","rt":"2072","correct":false,"confidence":4},{"trial_n":45,"span":5,"encoder":"56397","distractor":"55397","target":"present","response":"present","rt":"3401","correct":true,"confidence":2},{"trial_n":46,"span":5,"encoder":"69251","distractor":"66251","target":"absent","response":"present","rt":"6157","correct":false,"confidence":2},{"trial_n":47,"span":4,"encoder":"8651","distractor":"9651","target":"absent","response":"absent","rt":"7469","correct":true,"confidence":4},{"trial_n":48,"span":4,"encoder":"6120","distractor":"0120","target":"absent","response":"absent","rt":"2394","correct":true,"confidence":2},{"trial_n":49,"span":5,"encoder":"55068","distractor":"35068","target":"absent","response":"absent","rt":"1725","correct":true,"confidence":4},{"trial_n":50,"span":5,"encoder":"34073","distractor":"34071","target":"present","response":"present","rt":"2817","correct":true,"confidence":5},{"trial_n":51,"span":6,"encoder":"908845","distractor":"904845","target":"absent","response":"absent","rt":"2550","correct":true,"confidence":3},{"trial_n":52,"span":6,"encoder":"991173","distractor":"991373","target":"present","response":"present","rt":"2225","correct":true,"confidence":4},{"trial_n":53,"span":7,"encoder":"7400406","distractor":"7450406","target":"absent","response":"absent","rt":"3375","correct":true,"confidence":3},{"trial_n":54,"span":7,"encoder":"3843531","distractor":"7843531","target":"absent","response":"absent","rt":"1988","correct":true,"confidence":3},{"trial_n":55,"span":8,"encoder":"99865997","distractor":"99865995","target":"absent","response":"absent","rt":"6609","correct":true,"confidence":2},{"trial_n":56,"span":8,"encoder":"97114580","distractor":"97114280","target":"absent","response":"absent","rt":"3585","correct":true,"confidence":2},{"trial_n":57,"span":9,"encoder":"624260602","distractor":"624266602","target":"present","response":"present","rt":"2189","correct":true,"confidence":4},{"trial_n":58,"span":9,"encoder":"857072905","distractor":"858072905","target":"present","response":"present","rt":"3576","correct":true,"confidence":3},{"trial_n":59,"span":10,"encoder":"5350894945","distractor":"5350894995","target":"present","response":"present","rt":"4983","correct":true,"confidence":2},{"trial_n":60,"span":10,"encoder":"7480851056","distractor":"7482851056","target":"absent","response":"absent","rt":"2875","correct":true,"confidence":2},{"trial_n":61,"span":11,"encoder":"52782181281","distractor":"52882181281","target":"present","response":"present","rt":"4064","correct":true,"confidence":4},{"trial_n":62,"span":11,"encoder":"77854574583","distractor":"77850574583","target":"present","response":"absent","rt":"6499","correct":false,"confidence":1},{"trial_n":63,"span":10,"encoder":"7808583754","distractor":"7808583750","target":"absent","response":"absent","rt":"3921","correct":true,"confidence":2},{"trial_n":64,"span":10,"encoder":"9823634799","distractor":"9323634799","target":"absent","response":"absent","rt":"2941","correct":true,"confidence":2},{"trial_n":65,"span":11,"encoder":"16941139670","distractor":"16341139670","target":"present","response":"present","rt":"5709","correct":true,"confidence":3},{"trial_n":66,"span":11,"encoder":"06357527685","distractor":"06351527685","target":"present","response":"absent","rt":"4634","correct":false,"confidence":3},{"trial_n":67,"span":10,"encoder":"1489603251","distractor":"1489607251","target":"absent","response":"absent","rt":"2636","correct":true,"confidence":2},{"trial_n":68,"span":10,"encoder":"4176197228","distractor":"4177197228","target":"absent","response":"present","rt":"3837","correct":false,"confidence":3},{"trial_n":69,"span":9,"encoder":"364679906","distractor":"364679996","target":"absent","response":"absent","rt":"3737","correct":true,"confidence":2},{"trial_n":70,"span":9,"encoder":"896994228","distractor":"896998228","target":"present","response":"present","rt":"2349","correct":true,"confidence":4},{"trial_n":71,"span":8,"encoder":"35879160","distractor":"35879150","target":"present","response":"present","rt":"10450","correct":true,"confidence":-1},{"trial_n":72,"span":8,"encoder":"40566418","distractor":"40565418","target":"present","response":"present","rt":"1728","correct":true,"confidence":-1},{"trial_n":73,"span":9,"encoder":"391280589","distractor":"392280589","target":"absent","response":"absent","rt":"2966","correct":true,"confidence":-1},{"trial_n":74,"span":9,"encoder":"006401365","distractor":"006401364","target":"absent","response":"absent","rt":"7474","correct":true,"confidence":-1},{"trial_n":75,"span":10,"encoder":"6128940637","distractor":"6828940637","target":"present","response":"absent","rt":"7207","correct":false,"confidence":-1},{"trial_n":76,"span":9,"encoder":"740982501","distractor":"747982501","target":"present","response":"present","rt":"1592","correct":true,"confidence":-1},{"trial_n":77,"span":9,"encoder":"637443644","distractor":"637443694","target":"absent","response":"absent","rt":"3357","correct":true,"confidence":-1},{"trial_n":78,"span":10,"encoder":"8252161688","distractor":"9252161688","target":"absent","response":"absent","rt":"1586","correct":true,"confidence":-1},{"trial_n":79,"span":10,"encoder":"4831014650","distractor":"4831814650","target":"present","response":"present","rt":"2744","correct":true,"confidence":-1},{"trial_n":80,"span":11,"encoder":"31530797630","distractor":"11530797630","target":"present","response":"absent","rt":"1797","correct":false,"confidence":-1},{"trial_n":81,"span":10,"encoder":"4332655451","distractor":"4332655456","target":"present","response":"present","rt":"4045","correct":true,"confidence":-1},{"trial_n":82,"span":10,"encoder":"5740523939","distractor":"9740523939","target":"present","response":"absent","rt":"5527","correct":false,"confidence":-1},{"trial_n":83,"span":9,"encoder":"349576987","distractor":"349579987","target":"present","response":"absent","rt":"1446","correct":false,"confidence":-1},{"trial_n":84,"span":8,"encoder":"34049259","distractor":"14049259","target":"present","response":"present","rt":"1140","correct":true,"confidence":-1},{"trial_n":85,"span":8,"encoder":"04105444","distractor":"04105443","target":"present","response":"present","rt":"2787","correct":true,"confidence":-1},{"trial_n":86,"span":9,"encoder":"911605687","distractor":"914605687","target":"absent","response":"absent","rt":"2233","correct":true,"confidence":-1},{"trial_n":87,"span":9,"encoder":"670714108","distractor":"670714508","target":"present","response":"present","rt":"2323","correct":true,"confidence":-1},{"trial_n":88,"span":10,"encoder":"6011807648","distractor":"6311807648","target":"absent","response":"present","rt":"1203","correct":false,"confidence":-1},{"trial_n":89,"span":9,"encoder":"228010941","distractor":"228011941","target":"absent","response":"absent","rt":"2369","correct":true,"confidence":-1},{"trial_n":90,"span":9,"encoder":"605950708","distractor":"605950718","target":"absent","response":"present","rt":"1202","correct":false,"confidence":-1},{"trial_n":91,"span":8,"encoder":"65435049","distractor":"65435849","target":"absent","response":"present","rt":"4265","correct":false,"confidence":2},{"trial_n":92,"span":7,"encoder":"7960398","distractor":"7960368","target":"absent","response":"absent","rt":"3385","correct":true,"confidence":2},{"trial_n":93,"span":7,"encoder":"6493596","distractor":"0493596","target":"absent","response":"absent","rt":"9737","correct":true,"confidence":3},{"trial_n":94,"span":8,"encoder":"83406596","distractor":"83416596","target":"present","response":"present","rt":"3484","correct":true,"confidence":4},{"trial_n":95,"span":8,"encoder":"33461665","distractor":"33451665","target":"absent","response":"absent","rt":"4548","correct":true,"confidence":3},{"trial_n":96,"span":9,"encoder":"435191667","distractor":"485191667","target":"absent","response":"absent","rt":"5142","correct":true,"confidence":2},{"trial_n":97,"span":9,"encoder":"810635298","distractor":"810635288","target":"absent","response":"absent","rt":"2625","correct":true,"confidence":2},{"trial_n":98,"span":10,"encoder":"8205139786","distractor":"8205239786","target":"absent","response":"present","rt":"5499","correct":false,"confidence":2},{"trial_n":99,"span":9,"encoder":"485990264","distractor":"485790264","target":"absent","response":"absent","rt":"7938","correct":true,"confidence":3},{"trial_n":100,"span":9,"encoder":"810519015","distractor":"810119015","target":"absent","response":"absent","rt":"2669","correct":true,"confidence":1},{"trial_n":101,"span":10,"encoder":"9548538794","distractor":"9548548794","target":"present","response":"absent","rt":"4485","correct":false,"confidence":1},{"trial_n":102,"span":9,"encoder":"293406632","distractor":"283406632","target":"present","response":"absent","rt":"6710","correct":false,"confidence":2},{"trial_n":103,"span":8,"encoder":"01063169","distractor":"01063469","target":"present","response":"present","rt":"3459","correct":true,"confidence":2},{"trial_n":104,"span":8,"encoder":"44328293","distractor":"44328299","target":"present","response":"absent","rt":"3910","correct":false,"confidence":2},{"trial_n":105,"span":7,"encoder":"2059676","distractor":"2659676","target":"present","response":"present","rt":"9194","correct":true,"confidence":2},{"trial_n":106,"span":7,"encoder":"5627114","distractor":"5625114","target":"present","response":"absent","rt":"3644","correct":false,"confidence":2},{"trial_n":107,"span":6,"encoder":"075155","distractor":"075055","target":"absent","response":"present","rt":"6810","correct":false,"confidence":2},{"trial_n":108,"span":5,"encoder":"97383","distractor":"97983","target":"present","response":"present","rt":"5599","correct":true,"confidence":3},{"trial_n":109,"span":5,"encoder":"80604","distractor":"00604","target":"absent","response":"absent","rt":"4204","correct":true,"confidence":3},{"trial_n":110,"span":6,"encoder":"678821","distractor":"178821","target":"present","response":"present","rt":"2518","correct":true,"confidence":5},{"trial_n":111,"span":6,"encoder":"686215","distractor":"666215","target":"present","response":"present","rt":"5276","correct":true,"confidence":4},{"trial_n":112,"span":7,"encoder":"0670124","distractor":"0670024","target":"absent","response":"absent","rt":"2241","correct":true,"confidence":3},{"trial_n":113,"span":7,"encoder":"4222882","distractor":"4822882","target":"absent","response":"absent","rt":"2026","correct":true,"confidence":4},{"trial_n":114,"span":8,"encoder":"32108850","distractor":"32102850","target":"present","response":"present","rt":"2201","correct":true,"confidence":3},{"trial_n":115,"span":8,"encoder":"56795882","distractor":"56395882","target":"present","response":"absent","rt":"2452","correct":false,"confidence":3},{"trial_n":116,"span":7,"encoder":"6759835","distractor":"6759832","target":"absent","response":"absent","rt":"3831","correct":true,"confidence":3},{"trial_n":117,"span":7,"encoder":"6808262","distractor":"6808268","target":"present","response":"present","rt":"2696","correct":true,"confidence":5},{"trial_n":118,"span":8,"encoder":"69410520","distractor":"69110520","target":"absent","response":"absent","rt":"4615","correct":true,"confidence":3},{"trial_n":119,"span":8,"encoder":"52692174","distractor":"57692174","target":"present","response":"absent","rt":"4058","correct":false,"confidence":3},{"trial_n":120,"span":7,"encoder":"3500971","distractor":"3502971","target":"absent","response":"absent","rt":"3032","correct":true,"confidence":5},{"trial_n":121,"span":7,"encoder":"3080799","distractor":"3080792","target":"present","response":"present","rt":"1658","correct":true,"confidence":5},{"trial_n":122,"span":8,"encoder":"35828768","distractor":"35728768","target":"present","response":"absent","rt":"4196","correct":false,"confidence":2},{"trial_n":123,"span":7,"encoder":"8364434","distractor":"8364444","target":"present","response":"present","rt":"2287","correct":true,"confidence":4},{"trial_n":124,"span":7,"encoder":"5879173","distractor":"4879173","target":"absent","response":"present","rt":"4728","correct":false,"confidence":4},{"trial_n":125,"span":6,"encoder":"405201","distractor":"305201","target":"absent","response":"absent","rt":"7494","correct":true,"confidence":3},{"trial_n":126,"span":6,"encoder":"749019","distractor":"789019","target":"absent","response":"absent","rt":"2248","correct":true,"confidence":4},{"trial_n":127,"span":7,"encoder":"2306140","distractor":"2376140","target":"absent","response":"present","rt":"3564","correct":false,"confidence":3},{"trial_n":128,"span":6,"encoder":"446027","distractor":"445027","target":"absent","response":"absent","rt":"5225","correct":true,"confidence":3},{"trial_n":129,"span":6,"encoder":"903236","distractor":"905236","target":"absent","response":"absent","rt":"3199","correct":true,"confidence":4},{"trial_n":130,"span":7,"encoder":"4708007","distractor":"4708006","target":"present","response":"absent","rt":"5051","correct":false,"confidence":3},{"trial_n":131,"span":6,"encoder":"461996","distractor":"461976","target":"present","response":"present","rt":"2338","correct":true,"confidence":3},{"trial_n":132,"span":6,"encoder":"487246","distractor":"587246","target":"absent","response":"absent","rt":"2162","correct":true,"confidence":5},{"trial_n":133,"span":7,"encoder":"0059197","distractor":"0959197","target":"present","response":"present","rt":"1938","correct":true,"confidence":5},{"trial_n":134,"span":7,"encoder":"5610321","distractor":"5690321","target":"absent","response":"absent","rt":"3770","correct":true,"confidence":4},{"trial_n":135,"span":8,"encoder":"79778819","distractor":"79777819","target":"present","response":"present","rt":"3886","correct":true,"confidence":4},{"trial_n":136,"span":8,"encoder":"42517097","distractor":"45517097","target":"present","response":"present","rt":"5018","correct":true,"confidence":4},{"trial_n":137,"span":9,"encoder":"862509766","distractor":"860509766","target":"present","response":"absent","rt":"2854","correct":false,"confidence":3},{"trial_n":138,"span":8,"encoder":"82107908","distractor":"82107902","target":"absent","response":"present","rt":"3103","correct":false,"confidence":3},{"trial_n":139,"span":7,"encoder":"9645468","distractor":"9645498","target":"present","response":"absent","rt":"3059","correct":false,"confidence":3},{"trial_n":140,"span":6,"encoder":"119104","distractor":"139104","target":"absent","response":"present","rt":"4510","correct":false,"confidence":3}]