[{"trial_n":1,"min":25,"max":230,"target":"present","response":"present","rt":12466,"correct":true,"confidence":-1},{"trial_n":2,"min":25,"max":230,"target":"present","response":"present","rt":5192,"correct":true,"confidence":-1},{"trial_n":3,"min":41,"max":214,"target":"absent","response":"absent","rt":1466,"correct":true,"confidence":-1},{"trial_n":4,"min":41,"max":214,"target":"absent","response":"present","rt":3965,"correct":false,"confidence":-1},{"trial_n":5,"min":25,"max":230,"target":"present","response":"present","rt":1484,"correct":true,"confidence":-1},{"trial_n":6,"min":25,"max":230,"target":"present","response":"present","rt":1083,"correct":true,"confidence":-1},{"trial_n":7,"min":41,"max":214,"target":"present","response":"present","rt":813,"correct":true,"confidence":-1},{"trial_n":8,"min":41,"max":214,"target":"absent","response":"absent","rt":549,"correct":true,"confidence":-1},{"trial_n":9,"min":57,"max":198,"target":"present","response":"present","rt":462,"correct":true,"confidence":-1},{"trial_n":10,"min":57,"max":198,"target":"present","response":"present","rt":358,"correct":true,"confidence":-1},{"trial_n":11,"min":65,"max":190,"target":"absent","response":"absent","rt":394,"correct":true,"confidence":-1},{"trial_n":12,"min":65,"max":190,"target":"absent","response":"absent","rt":416,"correct":true,"confidence":-1},{"trial_n":13,"min":73,"max":182,"target":"absent","response":"absent","rt":170,"correct":true,"confidence":-1},{"trial_n":14,"min":73,"max":182,"target":"absent","response":"absent","rt":172,"correct":true,"confidence":-1},{"trial_n":15,"min":81,"max":174,"target":"absent","response":"absent","rt":187,"correct":true,"confidence":-1},{"trial_n":16,"min":81,"max":174,"target":"present","response":"absent","rt":25,"correct":false,"confidence":-1},{"trial_n":17,"min":73,"max":182,"target":"present","response":"absent","rt":440,"correct":false,"confidence":-1},{"trial_n":18,"min":65,"max":190,"target":"absent","response":"absent","rt":413,"correct":true,"confidence":-1},{"trial_n":19,"min":65,"max":190,"target":"absent","response":"absent","rt":308,"correct":true,"confidence":-1},{"trial_n":20,"min":73,"max":182,"target":"present","response":"present","rt":446,"correct":true,"confidence":-1},{"trial_n":21,"min":73,"max":182,"target":"absent","response":"present","rt":2524,"correct":false,"confidence":2},{"trial_n":22,"min":69,"max":186,"target":"present","response":"present","rt":807,"correct":true,"confidence":4},{"trial_n":23,"min":69,"max":186,"target":"present","response":"present","rt":520,"correct":true,"confidence":4},{"trial_n":24,"min":73,"max":182,"target":"present","response":"present","rt":1708,"correct":true,"confidence":4},{"trial_n":25,"min":73,"max":182,"target":"present","response":"present","rt":1143,"correct":true,"confidence":3},{"trial_n":26,"min":77,"max":178,"target":"absent","response":"present","rt":1429,"correct":false,"confidence":3},{"trial_n":27,"min":73,"max":182,"target":"absent","response":"absent","rt":1023,"correct":true,"confidence":3},{"trial_n":28,"min":73,"max":182,"target":"absent","response":"absent","rt":992,"correct":true,"confidence":3},{"trial_n":29,"min":77,"max":178,"target":"present","response":"present","rt":1074,"correct":true,"confidence":4},{"trial_n":30,"min":77,"max":178,"target":"absent","response":"present","rt":3018,"correct":false,"confidence":3},{"trial_n":31,"min":75,"max":180,"target":"present","response":"present","rt":948,"correct":true,"confidence":4},{"trial_n":32,"min":75,"max":180,"target":"present","response":"present","rt":639,"correct":true,"confidence":4},{"trial_n":33,"min":77,"max":178,"target":"present","response":"present","rt":1011,"correct":true,"confidence":4},{"trial_n":34,"min":77,"max":178,"target":"present","response":"present","rt":931,"correct":true,"confidence":4},{"trial_n":35,"min":79,"max":176,"target":"present","response":"present","rt":1568,"correct":true,"confidence":4},{"trial_n":36,"min":79,"max":176,"target":"absent","response":"present","rt":1424,"correct":false,"confidence":3},{"trial_n":37,"min":77,"max":178,"target":"absent","response":"present","rt":992,"correct":false,"confidence":3},{"trial_n":38,"min":75,"max":180,"target":"absent","response":"present","rt":1795,"correct":false,"confidence":3},{"trial_n":39,"min":73,"max":182,"target":"absent","response":"absent","rt":1044,"correct":true,"confidence":3},{"trial_n":40,"min":73,"max":182,"target":"absent","response":"present","rt":896,"correct":false,"confidence":2},{"trial_n":41,"min":72,"max":183,"target":"present","response":"present","rt":871,"correct":true,"confidence":3},{"trial_n":42,"min":72,"max":183,"target":"present","response":"present","rt":546,"correct":true,"confidence":3},{"trial_n":43,"min":73,"max":182,"target":"absent","response":"absent","rt":908,"correct":true,"confidence":3},{"trial_n":44,"min":73,"max":182,"target":"absent","response":"absent","rt":1827,"correct":true,"confidence":4},{"trial_n":45,"min":74,"max":181,"target":"absent","response":"present","rt":1880,"correct":false,"confidence":3},{"trial_n":46,"min":73,"max":182,"target":"absent","response":"absent","rt":1554,"correct":true,"confidence":4},{"trial_n":47,"min":73,"max":182,"target":"present","response":"present","rt":797,"correct":true,"confidence":4},{"trial_n":48,"min":74,"max":181,"target":"present","response":"present","rt":727,"correct":true,"confidence":4},{"trial_n":49,"min":74,"max":181,"target":"present","response":"present","rt":793,"correct":true,"confidence":4},{"trial_n":50,"min":75,"max":180,"target":"present","response":"present","rt":840,"correct":true,"confidence":4},{"trial_n":51,"min":75,"max":180,"target":"present","response":"present","rt":896,"correct":true,"confidence":4},{"trial_n":52,"min":76,"max":179,"target":"absent","response":"absent","rt":2058,"correct":true,"confidence":3},{"trial_n":53,"min":76,"max":179,"target":"absent","response":"absent","rt":1109,"correct":true,"confidence":3},{"trial_n":54,"min":77,"max":178,"target":"absent","response":"absent","rt":710,"correct":true,"confidence":3},{"trial_n":55,"min":77,"max":178,"target":"absent","response":"absent","rt":1324,"correct":true,"confidence":3},{"trial_n":56,"min":78,"max":177,"target":"absent","response":"absent","rt":1493,"correct":true,"confidence":2},{"trial_n":57,"min":78,"max":177,"target":"absent","response":"present","rt":2178,"correct":false,"confidence":2},{"trial_n":58,"min":77,"max":178,"target":"present","response":"present","rt":978,"correct":true,"confidence":4},{"trial_n":59,"min":77,"max":178,"target":"absent","response":"present","rt":2122,"correct":false,"confidence":3},{"trial_n":60,"min":76,"max":179,"target":"absent","response":"present","rt":1904,"correct":false,"confidence":3},{"trial_n":61,"min":75,"max":180,"target":"present","response":"present","rt":550,"correct":true,"confidence":4},{"trial_n":62,"min":75,"max":180,"target":"present","response":"present","rt":2005,"correct":true,"confidence":4},{"trial_n":63,"min":76,"max":179,"target":"present","response":"present","rt":802,"correct":true,"confidence":4},{"trial_n":64,"min":76,"max":179,"target":"present","response":"present","rt":1085,"correct":true,"confidence":4},{"trial_n":65,"min":77,"max":178,"target":"absent","response":"present","rt":2208,"correct":false,"confidence":2},{"trial_n":66,"min":76,"max":179,"target":"present","response":"present","rt":668,"correct":true,"confidence":3},{"trial_n":67,"min":76,"max":179,"target":"present","response":"present","rt":870,"correct":true,"confidence":3},{"trial_n":68,"min":77,"max":178,"target":"absent","response":"present","rt":1711,"correct":false,"confidence":3},{"trial_n":69,"min":76,"max":179,"target":"present","response":"present","rt":1196,"correct":true,"confidence":3},{"trial_n":70,"min":76,"max":179,"target":"present","response":"present","rt":588,"correct":true,"confidence":3},{"trial_n":71,"min":41,"max":214,"target":"present","response":"present","rt":4485,"correct":true,"confidence":-1},{"trial_n":72,"min":41,"max":214,"target":"present","response":"present","rt":1848,"correct":true,"confidence":-1},{"trial_n":73,"min":57,"max":198,"target":"absent","response":"absent","rt":1119,"correct":true,"confidence":-1},{"trial_n":74,"min":57,"max":198,"target":"absent","response":"absent","rt":751,"correct":true,"confidence":-1},{"trial_n":75,"min":73,"max":182,"target":"present","response":"absent","rt":301,"correct":false,"confidence":-1},{"trial_n":76,"min":57,"max":198,"target":"absent","response":"absent","rt":429,"correct":true,"confidence":-1},{"trial_n":77,"min":57,"max":198,"target":"absent","response":"absent","rt":460,"correct":true,"confidence":-1},{"trial_n":78,"min":73,"max":182,"target":"present","response":"present","rt":577,"correct":true,"confidence":-1},{"trial_n":79,"min":73,"max":182,"target":"absent","response":"absent","rt":1209,"correct":true,"confidence":-1},{"trial_n":80,"min":89,"max":166,"target":"present","response":"absent","rt":1472,"correct":false,"confidence":-1},{"trial_n":81,"min":81,"max":174,"target":"absent","response":"present","rt":692,"correct":false,"confidence":-1},{"trial_n":82,"min":73,"max":182,"target":"absent","response":"absent","rt":880,"correct":true,"confidence":-1},{"trial_n":83,"min":73,"max":182,"target":"absent","response":"absent","rt":926,"correct":true,"confidence":-1},{"trial_n":84,"min":81,"max":174,"target":"present","response":"present","rt":553,"correct":true,"confidence":-1},{"trial_n":85,"min":81,"max":174,"target":"present","response":"present","rt":429,"correct":true,"confidence":-1},{"trial_n":86,"min":89,"max":166,"target":"present","response":"present","rt":538,"correct":true,"confidence":-1},{"trial_n":87,"min":89,"max":166,"target":"present","response":"absent","rt":866,"correct":false,"confidence":-1},{"trial_n":88,"min":81,"max":174,"target":"present","response":"present","rt":512,"correct":true,"confidence":-1},{"trial_n":89,"min":81,"max":174,"target":"absent","response":"absent","rt":795,"correct":true,"confidence":-1},{"trial_n":90,"min":89,"max":166,"target":"absent","response":"absent","rt":615,"correct":true,"confidence":-1},{"trial_n":91,"min":89,"max":166,"target":"absent","response":"present","rt":1211,"correct":false,"confidence":2},{"trial_n":92,"min":85,"max":170,"target":"absent","response":"absent","rt":1105,"correct":true,"confidence":4},{"trial_n":93,"min":85,"max":170,"target":"absent","response":"present","rt":1623,"correct":false,"confidence":3},{"trial_n":94,"min":81,"max":174,"target":"absent","response":"absent","rt":1349,"correct":true,"confidence":2},{"trial_n":95,"min":81,"max":174,"target":"present","response":"present","rt":496,"correct":true,"confidence":4},{"trial_n":96,"min":85,"max":170,"target":"present","response":"present","rt":844,"correct":true,"confidence":5},{"trial_n":97,"min":85,"max":170,"target":"present","response":"present","rt":614,"correct":true,"confidence":4},{"trial_n":98,"min":89,"max":166,"target":"absent","response":"absent","rt":2371,"correct":true,"confidence":3},{"trial_n":99,"min":89,"max":166,"target":"absent","response":"absent","rt":1905,"correct":true,"confidence":2},{"trial_n":100,"min":93,"max":162,"target":"present","response":"present","rt":978,"correct":true,"confidence":2},{"trial_n":101,"min":93,"max":162,"target":"absent","response":"present","rt":647,"correct":false,"confidence":3},{"trial_n":102,"min":91,"max":164,"target":"present","response":"absent","rt":822,"correct":false,"confidence":3},{"trial_n":103,"min":89,"max":166,"target":"present","response":"present","rt":477,"correct":true,"confidence":4},{"trial_n":104,"min":89,"max":166,"target":"absent","response":"absent","rt":744,"correct":true,"confidence":3},{"trial_n":105,"min":91,"max":164,"target":"present","response":"present","rt":559,"correct":true,"confidence":3},{"trial_n":106,"min":91,"max":164,"target":"present","response":"absent","rt":638,"correct":false,"confidence":2},{"trial_n":107,"min":89,"max":166,"target":"present","response":"present","rt":500,"correct":true,"confidence":4},{"trial_n":108,"min":89,"max":166,"target":"absent","response":"absent","rt":880,"correct":true,"confidence":3},{"trial_n":109,"min":91,"max":164,"target":"present","response":"absent","rt":1002,"correct":false,"confidence":3},{"trial_n":110,"min":89,"max":166,"target":"absent","response":"present","rt":1605,"correct":false,"confidence":3},{"trial_n":111,"min":88,"max":167,"target":"present","response":"absent","rt":711,"correct":false,"confidence":3},{"trial_n":112,"min":87,"max":168,"target":"present","response":"present","rt":559,"correct":true,"confidence":2},{"trial_n":113,"min":87,"max":168,"target":"absent","response":"absent","rt":1136,"correct":true,"confidence":2},{"trial_n":114,"min":88,"max":167,"target":"absent","response":"absent","rt":818,"correct":true,"confidence":4},{"trial_n":115,"min":88,"max":167,"target":"present","response":"present","rt":1915,"correct":true,"confidence":1},{"trial_n":116,"min":89,"max":166,"target":"absent","response":"present","rt":1505,"correct":false,"confidence":3},{"trial_n":117,"min":88,"max":167,"target":"absent","response":"absent","rt":947,"correct":true,"confidence":3},{"trial_n":118,"min":88,"max":167,"target":"absent","response":"absent","rt":823,"correct":true,"confidence":4},{"trial_n":119,"min":89,"max":166,"target":"present","response":"present","rt":417,"correct":true,"confidence":4},{"trial_n":120,"min":89,"max":166,"target":"absent","response":"absent","rt":1021,"correct":true,"confidence":1},{"trial_n":121,"min":90,"max":165,"target":"present","response":"present","rt":303,"correct":true,"confidence":4},{"trial_n":122,"min":90,"max":165,"target":"absent","response":"absent","rt":776,"correct":true,"confidence":3},{"trial_n":123,"min":91,"max":164,"target":"absent","response":"absent","rt":1002,"correct":true,"confidence":4},{"trial_n":124,"min":91,"max":164,"target":"absent","response":"present","rt":573,"correct":false,"confidence":2},{"trial_n":125,"min":90,"max":165,"target":"present","response":"present","rt":1176,"correct":true,"confidence":3},{"trial_n":126,"min":90,"max":165,"target":"absent","response":"absent","rt":1010,"correct":true,"confidence":3},{"trial_n":127,"min":91,"max":164,"target":"present","response":"present","rt":469,"correct":true,"confidence":3},{"trial_n":128,"min":91,"max":164,"target":"present","response":"present","rt":543,"correct":true,"confidence":3},{"trial_n":129,"min":92,"max":163,"target":"absent","response":"present","rt":1107,"correct":false,"confidence":3},{"trial_n":130,"min":91,"max":164,"target":"absent","response":"absent","rt":673,"correct":true,"confidence":3},{"trial_n":131,"min":91,"max":164,"target":"absent","response":"present","rt":895,"correct":false,"confidence":3},{"trial_n":132,"min":90,"max":165,"target":"present","response":"present","rt":801,"correct":true,"confidence":4},{"trial_n":133,"min":90,"max":165,"target":"present","response":"present","rt":468,"correct":true,"confidence":4},{"trial_n":134,"min":91,"max":164,"target":"present","response":"present","rt":447,"correct":true,"confidence":4},{"trial_n":135,"min":91,"max":164,"target":"present","response":"absent","rt":705,"correct":false,"confidence":3},{"trial_n":136,"min":90,"max":165,"target":"present","response":"present","rt":506,"correct":true,"confidence":2},{"trial_n":137,"min":90,"max":165,"target":"present","response":"present","rt":693,"correct":true,"confidence":4},{"trial_n":138,"min":91,"max":164,"target":"present","response":"present","rt":763,"correct":true,"confidence":4},{"trial_n":139,"min":91,"max":164,"target":"absent","response":"present","rt":933,"correct":false,"confidence":1},{"trial_n":140,"min":90,"max":165,"target":"present","response":"present","rt":908,"correct":true,"confidence":3}]