[{"trial_n":1,"n_dots":4.25,"target":"right","response":"right","rt":1144.1999999881,"correct":true,"confidence":-1},{"trial_n":2,"n_dots":4.25,"target":"right","response":"left","rt":2976.0999999642,"correct":false,"confidence":-1},{"trial_n":3,"n_dots":4.65,"target":"right","response":"right","rt":539.60000002384,"correct":true,"confidence":-1},{"trial_n":4,"n_dots":4.65,"target":"right","response":"right","rt":487.80000001192,"correct":true,"confidence":-1},{"trial_n":5,"n_dots":4.25,"target":"left","response":"left","rt":569,"correct":true,"confidence":-1},{"trial_n":6,"n_dots":4.25,"target":"left","response":"left","rt":427.79999995232,"correct":true,"confidence":-1},{"trial_n":7,"n_dots":3.85,"target":"left","response":"left","rt":548.5,"correct":true,"confidence":-1},{"trial_n":8,"n_dots":3.85,"target":"left","response":"left","rt":512.5,"correct":true,"confidence":-1},{"trial_n":9,"n_dots":3.65,"target":"left","response":"left","rt":821.39999997616,"correct":true,"confidence":-1},{"trial_n":10,"n_dots":3.65,"target":"left","response":"left","rt":506.5,"correct":true,"confidence":-1},{"trial_n":11,"n_dots":3.45,"target":"right","response":"right","rt":423.80000001192,"correct":true,"confidence":-1},{"trial_n":12,"n_dots":3.45,"target":"right","response":"left","rt":465.5,"correct":false,"confidence":-1},{"trial_n":13,"n_dots":3.55,"target":"left","response":"left","rt":878.80000001192,"correct":true,"confidence":-1},{"trial_n":14,"n_dots":3.55,"target":"left","response":"left","rt":14373.699999988,"correct":true,"confidence":-1},{"trial_n":15,"n_dots":3.45,"target":"right","response":"right","rt":366.39999997616,"correct":true,"confidence":-1},{"trial_n":16,"n_dots":3.45,"target":"right","response":"left","rt":377.40000003576,"correct":false,"confidence":-1},{"trial_n":17,"n_dots":3.55,"target":"left","response":"left","rt":501.30000001192,"correct":true,"confidence":-1},{"trial_n":18,"n_dots":3.55,"target":"left","response":"left","rt":369.09999996424,"correct":true,"confidence":-1},{"trial_n":19,"n_dots":3.45,"target":"right","response":"left","rt":368.69999998808,"correct":false,"confidence":-1},{"trial_n":20,"n_dots":3.55,"target":"left","response":"right","rt":506,"correct":false,"confidence":-1},{"trial_n":21,"n_dots":3.65,"target":"left","response":"left","rt":405.5,"correct":true,"confidence":4},{"trial_n":22,"n_dots":3.65,"target":"left","response":"left","rt":491.19999998808,"correct":true,"confidence":4},{"trial_n":23,"n_dots":3.55,"target":"right","response":"right","rt":555,"correct":true,"confidence":3},{"trial_n":24,"n_dots":3.55,"target":"right","response":"left","rt":594.19999998808,"correct":false,"confidence":3},{"trial_n":25,"n_dots":3.65,"target":"right","response":"right","rt":622.89999997616,"correct":true,"confidence":3},{"trial_n":26,"n_dots":3.65,"target":"right","response":"right","rt":806,"correct":true,"confidence":3},{"trial_n":27,"n_dots":3.55,"target":"left","response":"left","rt":532.5,"correct":true,"confidence":4},{"trial_n":28,"n_dots":3.55,"target":"left","response":"left","rt":531.5,"correct":true,"confidence":3},{"trial_n":29,"n_dots":3.45,"target":"right","response":"left","rt":2222.6000000238,"correct":false,"confidence":3},{"trial_n":30,"n_dots":3.55,"target":"left","response":"left","rt":406.69999998808,"correct":true,"confidence":3},{"trial_n":31,"n_dots":3.55,"target":"left","response":"left","rt":383.5,"correct":true,"confidence":4},{"trial_n":32,"n_dots":3.45,"target":"right","response":"left","rt":444.09999996424,"correct":false,"confidence":4},{"trial_n":33,"n_dots":3.55,"target":"right","response":"right","rt":660.10000002384,"correct":true,"confidence":3},{"trial_n":34,"n_dots":3.55,"target":"right","response":"left","rt":687.39999997616,"correct":false,"confidence":4},{"trial_n":35,"n_dots":3.65,"target":"right","response":"right","rt":732.59999996424,"correct":true,"confidence":3},{"trial_n":36,"n_dots":3.65,"target":"right","response":"right","rt":387.69999998808,"correct":true,"confidence":3},{"trial_n":37,"n_dots":3.55,"target":"right","response":"right","rt":605.69999998808,"correct":true,"confidence":4},{"trial_n":38,"n_dots":3.55,"target":"left","response":"left","rt":1572.0999999642,"correct":true,"confidence":3},{"trial_n":39,"n_dots":3.45,"target":"right","response":"left","rt":461.80000001192,"correct":false,"confidence":3},{"trial_n":40,"n_dots":3.55,"target":"right","response":"left","rt":595.70000004768,"correct":false,"confidence":3},{"trial_n":41,"n_dots":3.65,"target":"right","response":"right","rt":362.59999996424,"correct":true,"confidence":4},{"trial_n":42,"n_dots":3.65,"target":"left","response":"left","rt":382.89999997616,"correct":true,"confidence":4},{"trial_n":43,"n_dots":3.55,"target":"left","response":"right","rt":799.60000002384,"correct":false,"confidence":3},{"trial_n":44,"n_dots":3.65,"target":"left","response":"right","rt":531.30000001192,"correct":false,"confidence":3},{"trial_n":45,"n_dots":3.75,"target":"right","response":"right","rt":474.40000003576,"correct":true,"confidence":5},{"trial_n":46,"n_dots":3.75,"target":"left","response":"left","rt":440.39999997616,"correct":true,"confidence":5},{"trial_n":47,"n_dots":3.65,"target":"right","response":"right","rt":527.09999996424,"correct":true,"confidence":4},{"trial_n":48,"n_dots":3.65,"target":"right","response":"right","rt":784.60000002384,"correct":true,"confidence":3},{"trial_n":49,"n_dots":3.55,"target":"left","response":"left","rt":406,"correct":true,"confidence":5},{"trial_n":50,"n_dots":3.55,"target":"right","response":"left","rt":502,"correct":false,"confidence":5},{"trial_n":51,"n_dots":3.65,"target":"left","response":"left","rt":405.90000003576,"correct":true,"confidence":4},{"trial_n":52,"n_dots":3.65,"target":"right","response":"right","rt":433.60000002384,"correct":true,"confidence":5},{"trial_n":53,"n_dots":3.55,"target":"left","response":"left","rt":401.19999998808,"correct":true,"confidence":5},{"trial_n":54,"n_dots":3.55,"target":"left","response":"left","rt":487.59999996424,"correct":true,"confidence":5},{"trial_n":55,"n_dots":3.45,"target":"right","response":"right","rt":574.30000001192,"correct":true,"confidence":4},{"trial_n":56,"n_dots":3.45,"target":"right","response":"left","rt":528.80000001192,"correct":false,"confidence":4},{"trial_n":57,"n_dots":3.55,"target":"right","response":"left","rt":525.39999997616,"correct":false,"confidence":4},{"trial_n":58,"n_dots":3.65,"target":"left","response":"left","rt":380.79999995232,"correct":true,"confidence":5},{"trial_n":59,"n_dots":3.65,"target":"left","response":"left","rt":345.90000003576,"correct":true,"confidence":5},{"trial_n":60,"n_dots":3.55,"target":"right","response":"right","rt":412.89999997616,"correct":true,"confidence":3},{"trial_n":61,"n_dots":3.55,"target":"right","response":"right","rt":607,"correct":true,"confidence":3},{"trial_n":62,"n_dots":3.45,"target":"right","response":"right","rt":400.59999996424,"correct":true,"confidence":2},{"trial_n":63,"n_dots":3.45,"target":"left","response":"left","rt":347.69999998808,"correct":true,"confidence":4},{"trial_n":64,"n_dots":3.35,"target":"left","response":"left","rt":353.09999996424,"correct":true,"confidence":4},{"trial_n":65,"n_dots":3.35,"target":"left","response":"left","rt":1198.5,"correct":true,"confidence":2},{"trial_n":66,"n_dots":3.25,"target":"left","response":"left","rt":602.10000002384,"correct":true,"confidence":4},{"trial_n":67,"n_dots":3.25,"target":"left","response":"left","rt":620.5,"correct":true,"confidence":5},{"trial_n":68,"n_dots":3.15,"target":"right","response":"right","rt":607.59999996424,"correct":true,"confidence":2},{"trial_n":69,"n_dots":3.15,"target":"left","response":"left","rt":600.70000004768,"correct":true,"confidence":4},{"trial_n":70,"n_dots":3.05,"target":"right","response":"right","rt":526,"correct":true,"confidence":3},{"trial_n":71,"n_dots":3.05,"target":"right","response":"left","rt":1100.4000000358,"correct":false,"confidence":2},{"trial_n":72,"n_dots":3.15,"target":"left","response":"right","rt":1500.6000000238,"correct":false,"confidence":4},{"trial_n":73,"n_dots":3.25,"target":"left","response":"left","rt":450.5,"correct":true,"confidence":5},{"trial_n":74,"n_dots":3.25,"target":"right","response":"left","rt":1205.1000000238,"correct":false,"confidence":3},{"trial_n":75,"n_dots":3.35,"target":"right","response":"right","rt":453.39999997616,"correct":true,"confidence":2},{"trial_n":76,"n_dots":3.35,"target":"right","response":"right","rt":375.80000001192,"correct":true,"confidence":3},{"trial_n":77,"n_dots":3.25,"target":"left","response":"left","rt":350.39999997616,"correct":true,"confidence":5},{"trial_n":78,"n_dots":3.25,"target":"right","response":"right","rt":688.5,"correct":true,"confidence":4},{"trial_n":79,"n_dots":3.15,"target":"left","response":"left","rt":367.60000002384,"correct":true,"confidence":5},{"trial_n":80,"n_dots":3.15,"target":"left","response":"left","rt":206.60000002384,"correct":true,"confidence":5},{"trial_n":81,"n_dots":3.05,"target":"left","response":"right","rt":1136.1999999881,"correct":false,"confidence":3},{"trial_n":82,"n_dots":3.15,"target":"left","response":"left","rt":118.19999998808,"correct":true,"confidence":4},{"trial_n":83,"n_dots":3.15,"target":"left","response":"left","rt":871.5,"correct":true,"confidence":4},{"trial_n":84,"n_dots":3.05,"target":"right","response":"right","rt":350.30000001192,"correct":true,"confidence":5},{"trial_n":85,"n_dots":3.05,"target":"right","response":"right","rt":556.80000001192,"correct":true,"confidence":3},{"trial_n":86,"n_dots":2.95,"target":"left","response":"left","rt":336.29999995232,"correct":true,"confidence":5},{"trial_n":87,"n_dots":2.95,"target":"left","response":"left","rt":663.5,"correct":true,"confidence":3},{"trial_n":88,"n_dots":2.85,"target":"right","response":"right","rt":316.5,"correct":true,"confidence":2},{"trial_n":89,"n_dots":2.85,"target":"right","response":"right","rt":193.80000001192,"correct":true,"confidence":3},{"trial_n":90,"n_dots":2.75,"target":"right","response":"right","rt":8,"correct":true,"confidence":5},{"trial_n":91,"n_dots":2.75,"target":"right","response":"right","rt":359.90000003576,"correct":true,"confidence":4},{"trial_n":92,"n_dots":2.65,"target":"right","response":"right","rt":382.80000001192,"correct":true,"confidence":4},{"trial_n":93,"n_dots":2.65,"target":"right","response":"right","rt":530.39999997616,"correct":true,"confidence":3},{"trial_n":94,"n_dots":2.55,"target":"left","response":"left","rt":423.59999996424,"correct":true,"confidence":4},{"trial_n":95,"n_dots":2.55,"target":"left","response":"left","rt":515.90000003576,"correct":true,"confidence":2},{"trial_n":96,"n_dots":2.45,"target":"right","response":"left","rt":835.89999997616,"correct":false,"confidence":2},{"trial_n":97,"n_dots":2.55,"target":"left","response":"left","rt":501,"correct":true,"confidence":3},{"trial_n":98,"n_dots":2.55,"target":"left","response":"left","rt":410.80000001192,"correct":true,"confidence":3},{"trial_n":99,"n_dots":2.45,"target":"left","response":"left","rt":456.89999997616,"correct":true,"confidence":4},{"trial_n":100,"n_dots":2.45,"target":"right","response":"right","rt":215.80000001192,"correct":true,"confidence":4},{"trial_n":101,"n_dots":2.35,"target":"right","response":"right","rt":813.5,"correct":true,"confidence":2},{"trial_n":102,"n_dots":2.35,"target":"right","response":"right","rt":197.20000004768,"correct":true,"confidence":2},{"trial_n":103,"n_dots":2.25,"target":"left","response":"left","rt":267.79999995232,"correct":true,"confidence":4},{"trial_n":104,"n_dots":2.25,"target":"left","response":"left","rt":220.29999995232,"correct":true,"confidence":4},{"trial_n":105,"n_dots":2.15,"target":"left","response":"left","rt":386,"correct":true,"confidence":3},{"trial_n":106,"n_dots":2.15,"target":"right","response":"left","rt":282.19999998808,"correct":false,"confidence":4},{"trial_n":107,"n_dots":2.25,"target":"left","response":"right","rt":3452.3000000119,"correct":false,"confidence":2},{"trial_n":108,"n_dots":2.35,"target":"left","response":"left","rt":170,"correct":true,"confidence":4},{"trial_n":109,"n_dots":2.35,"target":"right","response":"left","rt":263.5,"correct":false,"confidence":5},{"trial_n":110,"n_dots":2.45,"target":"right","response":"right","rt":469.80000001192,"correct":true,"confidence":4},{"trial_n":111,"n_dots":2.45,"target":"left","response":"left","rt":190.89999997616,"correct":true,"confidence":5},{"trial_n":112,"n_dots":2.35,"target":"right","response":"left","rt":202.79999995232,"correct":false,"confidence":5},{"trial_n":113,"n_dots":2.45,"target":"left","response":"left","rt":219.10000002384,"correct":true,"confidence":5},{"trial_n":114,"n_dots":2.45,"target":"left","response":"left","rt":136.09999996424,"correct":true,"confidence":5},{"trial_n":115,"n_dots":2.35,"target":"right","response":"right","rt":491.80000001192,"correct":true,"confidence":2},{"trial_n":116,"n_dots":2.35,"target":"right","response":"left","rt":221.30000001192,"correct":false,"confidence":5},{"trial_n":117,"n_dots":2.45,"target":"left","response":"left","rt":303.60000002384,"correct":true,"confidence":5},{"trial_n":118,"n_dots":2.45,"target":"left","response":"left","rt":61.300000011921,"correct":true,"confidence":3},{"trial_n":119,"n_dots":2.35,"target":"left","response":"left","rt":366.89999997616,"correct":true,"confidence":3},{"trial_n":120,"n_dots":2.35,"target":"right","response":"right","rt":539.09999996424,"correct":true,"confidence":2}]