[{"trial_n":1,"n_dots":4.25,"target":"right","response":"left","rt":6347,"correct":false,"confidence":-1},{"trial_n":2,"n_dots":4.25,"target":"left","response":"left","rt":752,"correct":true,"confidence":-1},{"trial_n":3,"n_dots":4.25,"target":"left","response":"left","rt":800,"correct":true,"confidence":-1},{"trial_n":4,"n_dots":3.85,"target":"right","response":"right","rt":345.99999999999,"correct":true,"confidence":-1},{"trial_n":5,"n_dots":3.85,"target":"right","response":"left","rt":983,"correct":false,"confidence":-1},{"trial_n":6,"n_dots":4.25,"target":"left","response":"right","rt":1003,"correct":false,"confidence":-1},{"trial_n":7,"n_dots":4.65,"target":"right","response":"right","rt":215.99999999999,"correct":true,"confidence":-1},{"trial_n":8,"n_dots":4.65,"target":"left","response":"left","rt":644,"correct":true,"confidence":-1},{"trial_n":9,"n_dots":4.45,"target":"left","response":"left","rt":617,"correct":true,"confidence":-1},{"trial_n":10,"n_dots":4.45,"target":"left","response":"left","rt":322.00000000001,"correct":true,"confidence":-1},{"trial_n":11,"n_dots":4.25,"target":"left","response":"left","rt":399,"correct":true,"confidence":-1},{"trial_n":12,"n_dots":4.25,"target":"left","response":"right","rt":178,"correct":false,"confidence":-1},{"trial_n":13,"n_dots":4.35,"target":"right","response":"right","rt":338,"correct":true,"confidence":-1},{"trial_n":14,"n_dots":4.35,"target":"right","response":"right","rt":103,"correct":true,"confidence":-1},{"trial_n":15,"n_dots":4.25,"target":"left","response":"left","rt":538,"correct":true,"confidence":-1},{"trial_n":16,"n_dots":4.25,"target":"left","response":"left","rt":515.99999999999,"correct":true,"confidence":-1},{"trial_n":17,"n_dots":4.15,"target":"right","response":"right","rt":287,"correct":true,"confidence":-1},{"trial_n":18,"n_dots":4.15,"target":"left","response":"left","rt":1062,"correct":true,"confidence":-1},{"trial_n":19,"n_dots":4.05,"target":"left","response":"right","rt":1037,"correct":false,"confidence":-1},{"trial_n":20,"n_dots":4.15,"target":"right","response":"right","rt":223,"correct":true,"confidence":-1},{"trial_n":21,"n_dots":4.15,"target":"left","response":"left","rt":536,"correct":true,"confidence":3},{"trial_n":22,"n_dots":4.05,"target":"left","response":"right","rt":1581,"correct":false,"confidence":2},{"trial_n":23,"n_dots":4.15,"target":"right","response":"right","rt":354,"correct":true,"confidence":3},{"trial_n":24,"n_dots":4.15,"target":"right","response":"right","rt":270,"correct":true,"confidence":4},{"trial_n":25,"n_dots":4.05,"target":"left","response":"right","rt":2319,"correct":false,"confidence":2},{"trial_n":26,"n_dots":4.15,"target":"right","response":"right","rt":115,"correct":true,"confidence":3},{"trial_n":27,"n_dots":4.15,"target":"right","response":"right","rt":630,"correct":true,"confidence":3},{"trial_n":28,"n_dots":4.05,"target":"right","response":"right","rt":308,"correct":true,"confidence":4},{"trial_n":29,"n_dots":4.05,"target":"right","response":"right","rt":403,"correct":true,"confidence":3},{"trial_n":30,"n_dots":3.95,"target":"right","response":"right","rt":24,"correct":true,"confidence":3},{"trial_n":31,"n_dots":3.95,"target":"left","response":"left","rt":1116,"correct":true,"confidence":2},{"trial_n":32,"n_dots":3.85,"target":"left","response":"left","rt":311,"correct":true,"confidence":2},{"trial_n":33,"n_dots":3.85,"target":"right","response":"right","rt":100,"correct":true,"confidence":3},{"trial_n":34,"n_dots":3.75,"target":"right","response":"right","rt":734,"correct":true,"confidence":1},{"trial_n":35,"n_dots":3.75,"target":"right","response":"right","rt":578,"correct":true,"confidence":2},{"trial_n":36,"n_dots":3.65,"target":"left","response":"left","rt":385,"correct":true,"confidence":2},{"trial_n":37,"n_dots":3.65,"target":"right","response":"right","rt":238,"correct":true,"confidence":2},{"trial_n":38,"n_dots":3.55,"target":"right","response":"right","rt":759,"correct":true,"confidence":2},{"trial_n":39,"n_dots":3.55,"target":"right","response":"right","rt":379,"correct":true,"confidence":3},{"trial_n":40,"n_dots":3.45,"target":"left","response":"left","rt":705.99999999997,"correct":true,"confidence":2},{"trial_n":41,"n_dots":3.45,"target":"right","response":"right","rt":307.00000000003,"correct":true,"confidence":3},{"trial_n":42,"n_dots":3.35,"target":"right","response":"left","rt":426.99999999997,"correct":false,"confidence":2},{"trial_n":43,"n_dots":3.45,"target":"left","response":"left","rt":173,"correct":true,"confidence":2},{"trial_n":44,"n_dots":3.45,"target":"left","response":"left","rt":353,"correct":true,"confidence":3},{"trial_n":45,"n_dots":3.35,"target":"right","response":"left","rt":1071,"correct":false,"confidence":2},{"trial_n":46,"n_dots":3.45,"target":"right","response":"right","rt":462,"correct":true,"confidence":3},{"trial_n":47,"n_dots":3.45,"target":"right","response":"left","rt":838,"correct":false,"confidence":2},{"trial_n":48,"n_dots":3.55,"target":"right","response":"right","rt":20,"correct":true,"confidence":3},{"trial_n":49,"n_dots":3.55,"target":"left","response":"left","rt":539,"correct":true,"confidence":2},{"trial_n":50,"n_dots":3.45,"target":"right","response":"right","rt":169,"correct":true,"confidence":2},{"trial_n":51,"n_dots":3.45,"target":"left","response":"left","rt":2056,"correct":true,"confidence":2},{"trial_n":52,"n_dots":3.35,"target":"left","response":"left","rt":581.00000000006,"correct":true,"confidence":3},{"trial_n":53,"n_dots":3.35,"target":"right","response":"right","rt":626,"correct":true,"confidence":2},{"trial_n":54,"n_dots":3.25,"target":"left","response":"right","rt":755,"correct":false,"confidence":2},{"trial_n":55,"n_dots":3.35,"target":"left","response":"left","rt":321,"correct":true,"confidence":2},{"trial_n":56,"n_dots":3.35,"target":"right","response":"right","rt":1138,"correct":true,"confidence":2},{"trial_n":57,"n_dots":3.25,"target":"left","response":"right","rt":286,"correct":false,"confidence":2},{"trial_n":58,"n_dots":3.35,"target":"left","response":"left","rt":466,"correct":true,"confidence":2},{"trial_n":59,"n_dots":3.35,"target":"left","response":"left","rt":572,"correct":true,"confidence":2},{"trial_n":60,"n_dots":3.25,"target":"right","response":"right","rt":285,"correct":true,"confidence":2},{"trial_n":61,"n_dots":3.25,"target":"left","response":"left","rt":585,"correct":true,"confidence":2},{"trial_n":62,"n_dots":3.15,"target":"right","response":"right","rt":356,"correct":true,"confidence":2},{"trial_n":63,"n_dots":3.15,"target":"left","response":"left","rt":45,"correct":true,"confidence":2},{"trial_n":64,"n_dots":3.05,"target":"right","response":"left","rt":245,"correct":false,"confidence":3},{"trial_n":65,"n_dots":3.15,"target":"right","response":"right","rt":243,"correct":true,"confidence":2},{"trial_n":66,"n_dots":3.15,"target":"left","response":"left","rt":146.00000000006,"correct":true,"confidence":2},{"trial_n":67,"n_dots":3.05,"target":"left","response":"right","rt":634.00000000006,"correct":false,"confidence":2},{"trial_n":68,"n_dots":3.15,"target":"right","response":"left","rt":130.00000000006,"correct":false,"confidence":3},{"trial_n":69,"n_dots":3.25,"target":"left","response":"left","rt":194.00000000006,"correct":true,"confidence":3},{"trial_n":70,"n_dots":3.25,"target":"right","response":"right","rt":206,"correct":true,"confidence":2},{"trial_n":71,"n_dots":3.15,"target":"right","response":"right","rt":502,"correct":true,"confidence":3},{"trial_n":72,"n_dots":3.15,"target":"left","response":"left","rt":106,"correct":true,"confidence":1},{"trial_n":73,"n_dots":3.05,"target":"right","response":"right","rt":474,"correct":true,"confidence":2},{"trial_n":74,"n_dots":3.05,"target":"left","response":"left","rt":539,"correct":true,"confidence":2},{"trial_n":75,"n_dots":2.95,"target":"left","response":"left","rt":342.00000000006,"correct":true,"confidence":1},{"trial_n":76,"n_dots":2.95,"target":"left","response":"right","rt":515,"correct":false,"confidence":3},{"trial_n":77,"n_dots":3.05,"target":"right","response":"left","rt":649,"correct":false,"confidence":2},{"trial_n":78,"n_dots":3.15,"target":"right","response":"right","rt":400.99999999994,"correct":true,"confidence":4},{"trial_n":79,"n_dots":3.15,"target":"left","response":"left","rt":429.99999999994,"correct":true,"confidence":3},{"trial_n":80,"n_dots":3.05,"target":"right","response":"right","rt":435,"correct":true,"confidence":2},{"trial_n":81,"n_dots":3.05,"target":"right","response":"left","rt":1227,"correct":false,"confidence":1},{"trial_n":82,"n_dots":3.15,"target":"right","response":"left","rt":794.99999999994,"correct":false,"confidence":2},{"trial_n":83,"n_dots":3.25,"target":"right","response":"left","rt":1051,"correct":false,"confidence":2},{"trial_n":84,"n_dots":3.35,"target":"left","response":"left","rt":441,"correct":true,"confidence":3},{"trial_n":85,"n_dots":3.35,"target":"right","response":"right","rt":258,"correct":true,"confidence":2},{"trial_n":86,"n_dots":3.25,"target":"left","response":"left","rt":717,"correct":true,"confidence":2},{"trial_n":87,"n_dots":3.25,"target":"right","response":"right","rt":1047,"correct":true,"confidence":2},{"trial_n":88,"n_dots":3.15,"target":"right","response":"right","rt":452,"correct":true,"confidence":2},{"trial_n":89,"n_dots":3.15,"target":"left","response":"left","rt":111,"correct":true,"confidence":3},{"trial_n":90,"n_dots":3.05,"target":"right","response":"left","rt":741.00000000012,"correct":false,"confidence":3},{"trial_n":91,"n_dots":3.15,"target":"left","response":"left","rt":310.00000000006,"correct":true,"confidence":2},{"trial_n":92,"n_dots":3.15,"target":"right","response":"right","rt":499,"correct":true,"confidence":1},{"trial_n":93,"n_dots":3.05,"target":"left","response":"left","rt":481,"correct":true,"confidence":3},{"trial_n":94,"n_dots":3.05,"target":"left","response":"left","rt":202,"correct":true,"confidence":3},{"trial_n":95,"n_dots":2.95,"target":"right","response":"right","rt":525,"correct":true,"confidence":2},{"trial_n":96,"n_dots":2.95,"target":"left","response":"left","rt":179,"correct":true,"confidence":2},{"trial_n":97,"n_dots":2.85,"target":"right","response":"right","rt":200,"correct":true,"confidence":2},{"trial_n":98,"n_dots":2.85,"target":"left","response":"left","rt":1655,"correct":true,"confidence":1},{"trial_n":99,"n_dots":2.75,"target":"left","response":"left","rt":886.00000000012,"correct":true,"confidence":2},{"trial_n":100,"n_dots":2.75,"target":"left","response":"right","rt":218,"correct":false,"confidence":2},{"trial_n":101,"n_dots":2.85,"target":"left","response":"left","rt":1967,"correct":true,"confidence":2},{"trial_n":102,"n_dots":2.85,"target":"left","response":"left","rt":577,"correct":true,"confidence":3},{"trial_n":103,"n_dots":2.75,"target":"left","response":"left","rt":469.00000000012,"correct":true,"confidence":2},{"trial_n":104,"n_dots":2.75,"target":"right","response":"right","rt":591,"correct":true,"confidence":2},{"trial_n":105,"n_dots":2.65,"target":"right","response":"right","rt":1298,"correct":true,"confidence":3},{"trial_n":106,"n_dots":2.65,"target":"right","response":"left","rt":3351,"correct":false,"confidence":1},{"trial_n":107,"n_dots":2.75,"target":"right","response":"right","rt":301,"correct":true,"confidence":2},{"trial_n":108,"n_dots":2.75,"target":"left","response":"right","rt":720,"correct":false,"confidence":2},{"trial_n":109,"n_dots":2.85,"target":"left","response":"left","rt":1173,"correct":true,"confidence":2},{"trial_n":110,"n_dots":2.85,"target":"left","response":"left","rt":1031,"correct":true,"confidence":3},{"trial_n":111,"n_dots":2.75,"target":"left","response":"right","rt":794.99999999988,"correct":false,"confidence":2},{"trial_n":112,"n_dots":2.85,"target":"left","response":"right","rt":1086,"correct":false,"confidence":2},{"trial_n":113,"n_dots":2.95,"target":"right","response":"right","rt":337,"correct":true,"confidence":3},{"trial_n":114,"n_dots":2.95,"target":"right","response":"right","rt":163,"correct":true,"confidence":3},{"trial_n":115,"n_dots":2.85,"target":"left","response":"left","rt":1540,"correct":true,"confidence":1},{"trial_n":116,"n_dots":2.85,"target":"right","response":"right","rt":782.99999999988,"correct":true,"confidence":2},{"trial_n":117,"n_dots":2.75,"target":"left","response":"left","rt":1367,"correct":true,"confidence":1},{"trial_n":118,"n_dots":2.75,"target":"right","response":"right","rt":611,"correct":true,"confidence":2},{"trial_n":119,"n_dots":2.65,"target":"right","response":"left","rt":1506,"correct":false,"confidence":1},{"trial_n":120,"n_dots":2.75,"target":"left","response":"right","rt":808,"correct":false,"confidence":2}]