[{"trial_n":1,"span":8,"encoder":"73871624","distractor":"73881624","target":"present","response":"present","rt":"2996","correct":true,"confidence":-1},{"trial_n":2,"span":8,"encoder":"59225819","distractor":"49225819","target":"present","response":"present","rt":"2246","correct":true,"confidence":-1},{"trial_n":3,"span":10,"encoder":"7638343957","distractor":"7638340957","target":"absent","response":"absent","rt":"4083","correct":true,"confidence":-1},{"trial_n":4,"span":10,"encoder":"5653574356","distractor":"5153574356","target":"absent","response":"absent","rt":"2009","correct":true,"confidence":-1},{"trial_n":5,"span":12,"encoder":"957409405914","distractor":"957409405912","target":"present","response":"present","rt":"3697","correct":true,"confidence":-1},{"trial_n":6,"span":12,"encoder":"316352891121","distractor":"316357891121","target":"present","response":"absent","rt":"2842","correct":false,"confidence":-1},{"trial_n":7,"span":10,"encoder":"1822146872","distractor":"1822196872","target":"present","response":"absent","rt":"2038","correct":false,"confidence":-1},{"trial_n":8,"span":8,"encoder":"53924774","distractor":"03924774","target":"present","response":"absent","rt":"2654","correct":false,"confidence":-1},{"trial_n":9,"span":6,"encoder":"380183","distractor":"380189","target":"absent","response":"present","rt":"1125","correct":false,"confidence":-1},{"trial_n":10,"span":4,"encoder":"1379","distractor":"1779","target":"absent","response":"present","rt":"1486","correct":false,"confidence":-1},{"trial_n":11,"span":2,"encoder":"56","distractor":"96","target":"present","response":"present","rt":"1202","correct":true,"confidence":-1},{"trial_n":12,"span":2,"encoder":"17","distractor":"13","target":"absent","response":"absent","rt":"1348","correct":true,"confidence":-1},{"trial_n":13,"span":3,"encoder":"606","distractor":"676","target":"absent","response":"absent","rt":"1232","correct":true,"confidence":-1},{"trial_n":14,"span":3,"encoder":"610","distractor":"210","target":"absent","response":"absent","rt":"871","correct":true,"confidence":-1},{"trial_n":15,"span":4,"encoder":"2999","distractor":"2399","target":"present","response":"absent","rt":"2168","correct":false,"confidence":-1},{"trial_n":16,"span":3,"encoder":"531","distractor":"536","target":"present","response":"present","rt":"1762","correct":true,"confidence":-1},{"trial_n":17,"span":3,"encoder":"102","distractor":"101","target":"present","response":"present","rt":"748","correct":true,"confidence":-1},{"trial_n":18,"span":4,"encoder":"5156","distractor":"5956","target":"present","response":"present","rt":"727","correct":true,"confidence":-1},{"trial_n":19,"span":4,"encoder":"6022","distractor":"6922","target":"absent","response":"present","rt":"1387","correct":false,"confidence":-1},{"trial_n":20,"span":3,"encoder":"678","distractor":"078","target":"present","response":"present","rt":"786.99999999999","correct":true,"confidence":-1},{"trial_n":21,"span":3,"encoder":"850","distractor":"800","target":"present","response":"present","rt":"1249","correct":true,"confidence":4},{"trial_n":22,"span":4,"encoder":"8271","distractor":"1271","target":"absent","response":"absent","rt":"1535","correct":true,"confidence":4},{"trial_n":23,"span":4,"encoder":"2070","distractor":"2077","target":"present","response":"present","rt":"1747","correct":true,"confidence":5},{"trial_n":24,"span":5,"encoder":"79352","distractor":"79351","target":"present","response":"present","rt":"2116","correct":true,"confidence":4},{"trial_n":25,"span":5,"encoder":"45158","distractor":"45358","target":"absent","response":"absent","rt":"1333","correct":true,"confidence":3},{"trial_n":26,"span":6,"encoder":"773091","distractor":"573091","target":"present","response":"present","rt":"1930","correct":true,"confidence":3},{"trial_n":27,"span":6,"encoder":"143643","distractor":"113643","target":"absent","response":"absent","rt":"3680","correct":true,"confidence":3},{"trial_n":28,"span":7,"encoder":"9601467","distractor":"9601457","target":"absent","response":"present","rt":"4061","correct":false,"confidence":2},{"trial_n":29,"span":6,"encoder":"243703","distractor":"244703","target":"present","response":"present","rt":"3321","correct":true,"confidence":4},{"trial_n":30,"span":6,"encoder":"949290","distractor":"969290","target":"absent","response":"absent","rt":"1396","correct":true,"confidence":5},{"trial_n":31,"span":7,"encoder":"5553861","distractor":"5553811","target":"present","response":"present","rt":"3132","correct":true,"confidence":3},{"trial_n":32,"span":7,"encoder":"2612728","distractor":"6612728","target":"absent","response":"absent","rt":"1500","correct":true,"confidence":4},{"trial_n":33,"span":8,"encoder":"47347596","distractor":"47397596","target":"present","response":"present","rt":"2828","correct":true,"confidence":3},{"trial_n":34,"span":8,"encoder":"83950241","distractor":"83990241","target":"absent","response":"absent","rt":"3119","correct":true,"confidence":3},{"trial_n":35,"span":9,"encoder":"567541498","distractor":"587541498","target":"present","response":"present","rt":"2555","correct":true,"confidence":4},{"trial_n":36,"span":9,"encoder":"579226724","distractor":"579266724","target":"absent","response":"absent","rt":"2814","correct":true,"confidence":3},{"trial_n":37,"span":10,"encoder":"4294798355","distractor":"4294798351","target":"present","response":"present","rt":"6572","correct":true,"confidence":3},{"trial_n":38,"span":10,"encoder":"0548792976","distractor":"0548792979","target":"present","response":"present","rt":"2905.9999999999","correct":true,"confidence":3},{"trial_n":39,"span":11,"encoder":"71768009082","distractor":"71768009182","target":"absent","response":"absent","rt":"3169","correct":true,"confidence":3},{"trial_n":40,"span":11,"encoder":"93816340244","distractor":"96816340244","target":"absent","response":"absent","rt":"2222","correct":true,"confidence":3},{"trial_n":41,"span":12,"encoder":"508107982448","distractor":"508108982448","target":"absent","response":"present","rt":"5396","correct":false,"confidence":2},{"trial_n":42,"span":11,"encoder":"83644208159","distractor":"83644202159","target":"absent","response":"present","rt":"2254","correct":false,"confidence":3},{"trial_n":43,"span":10,"encoder":"4383779500","distractor":"4383579500","target":"absent","response":"present","rt":"4107.9999999999","correct":false,"confidence":2},{"trial_n":44,"span":9,"encoder":"057624799","distractor":"057624999","target":"present","response":"present","rt":"4688","correct":true,"confidence":1},{"trial_n":45,"span":9,"encoder":"694089799","distractor":"694089199","target":"absent","response":"absent","rt":"2366","correct":true,"confidence":2},{"trial_n":46,"span":10,"encoder":"8858937108","distractor":"8858967108","target":"present","response":"absent","rt":"3158","correct":false,"confidence":1},{"trial_n":47,"span":9,"encoder":"023992399","distractor":"023952399","target":"present","response":"present","rt":"1755","correct":true,"confidence":3},{"trial_n":48,"span":9,"encoder":"662168030","distractor":"662188030","target":"absent","response":"present","rt":"1947.9999999999","correct":false,"confidence":2},{"trial_n":49,"span":8,"encoder":"26890251","distractor":"26893251","target":"present","response":"present","rt":"2010","correct":true,"confidence":3},{"trial_n":50,"span":8,"encoder":"34689758","distractor":"34609758","target":"absent","response":"present","rt":"5407.0000000001","correct":false,"confidence":2},{"trial_n":51,"span":7,"encoder":"3254509","distractor":"3254579","target":"present","response":"present","rt":"1248","correct":true,"confidence":3},{"trial_n":52,"span":7,"encoder":"4441836","distractor":"4441839","target":"absent","response":"absent","rt":"2118","correct":true,"confidence":3},{"trial_n":53,"span":8,"encoder":"64864255","distractor":"64464255","target":"absent","response":"absent","rt":"2623","correct":true,"confidence":3},{"trial_n":54,"span":8,"encoder":"69097231","distractor":"69397231","target":"present","response":"present","rt":"2449","correct":true,"confidence":4},{"trial_n":55,"span":9,"encoder":"347240141","distractor":"347240161","target":"absent","response":"absent","rt":"3423","correct":true,"confidence":3},{"trial_n":56,"span":9,"encoder":"701439224","distractor":"701436224","target":"absent","response":"absent","rt":"3696","correct":true,"confidence":3},{"trial_n":57,"span":10,"encoder":"0772080795","distractor":"0772070795","target":"present","response":"absent","rt":"2798","correct":false,"confidence":2},{"trial_n":58,"span":9,"encoder":"062168983","distractor":"062168583","target":"absent","response":"absent","rt":"3844.9999999999","correct":true,"confidence":3},{"trial_n":59,"span":9,"encoder":"050703372","distractor":"051703372","target":"present","response":"present","rt":"3051.9999999999","correct":true,"confidence":2},{"trial_n":60,"span":10,"encoder":"6997413372","distractor":"6597413372","target":"absent","response":"absent","rt":"5699","correct":true,"confidence":1},{"trial_n":61,"span":10,"encoder":"6458640603","distractor":"6458680603","target":"absent","response":"absent","rt":"8600","correct":true,"confidence":2},{"trial_n":62,"span":11,"encoder":"54080117582","distractor":"53080117582","target":"present","response":"present","rt":"2677","correct":true,"confidence":3},{"trial_n":63,"span":11,"encoder":"09515869873","distractor":"04515869873","target":"present","response":"present","rt":"2434","correct":true,"confidence":2},{"trial_n":64,"span":12,"encoder":"540349922017","distractor":"540399922017","target":"absent","response":"present","rt":"4196","correct":false,"confidence":2},{"trial_n":65,"span":11,"encoder":"62880691980","distractor":"62887691980","target":"present","response":"present","rt":"1924","correct":true,"confidence":2},{"trial_n":66,"span":11,"encoder":"86058560036","distractor":"86058960036","target":"absent","response":"present","rt":"1871","correct":false,"confidence":2},{"trial_n":67,"span":10,"encoder":"2593654389","distractor":"2593654359","target":"present","response":"absent","rt":"2310","correct":false,"confidence":1},{"trial_n":68,"span":9,"encoder":"278469893","distractor":"278460893","target":"present","response":"present","rt":"1071","correct":true,"confidence":2},{"trial_n":69,"span":9,"encoder":"820345492","distractor":"420345492","target":"absent","response":"present","rt":"3041","correct":false,"confidence":2},{"trial_n":70,"span":8,"encoder":"82531237","distractor":"82531337","target":"present","response":"absent","rt":"1213","correct":false,"confidence":2},{"trial_n":71,"span":8,"encoder":"11097046","distractor":"11087046","target":"present","response":"absent","rt":"2182.0000000001","correct":false,"confidence":-1},{"trial_n":72,"span":7,"encoder":"0536835","distractor":"0546835","target":"present","response":"present","rt":"907.99999999988","correct":true,"confidence":-1},{"trial_n":73,"span":7,"encoder":"2922325","distractor":"2992325","target":"absent","response":"absent","rt":"1905","correct":true,"confidence":-1},{"trial_n":74,"span":8,"encoder":"97529640","distractor":"97599640","target":"absent","response":"absent","rt":"1990","correct":true,"confidence":-1},{"trial_n":75,"span":8,"encoder":"60459784","distractor":"10459784","target":"present","response":"present","rt":"2478","correct":true,"confidence":-1},{"trial_n":76,"span":9,"encoder":"862957611","distractor":"862457611","target":"absent","response":"absent","rt":"4609","correct":true,"confidence":-1},{"trial_n":77,"span":9,"encoder":"606735842","distractor":"686735842","target":"present","response":"present","rt":"4740.9999999999","correct":true,"confidence":-1},{"trial_n":78,"span":10,"encoder":"8164233672","distractor":"8164233662","target":"absent","response":"absent","rt":"9867","correct":true,"confidence":-1},{"trial_n":79,"span":10,"encoder":"0949757191","distractor":"0349757191","target":"present","response":"present","rt":"3795","correct":true,"confidence":-1},{"trial_n":80,"span":11,"encoder":"40974143745","distractor":"40977143745","target":"absent","response":"absent","rt":"4818","correct":true,"confidence":-1},{"trial_n":81,"span":11,"encoder":"09866796250","distractor":"09866796253","target":"present","response":"absent","rt":"4591","correct":false,"confidence":-1},{"trial_n":82,"span":10,"encoder":"6162412363","distractor":"6162712363","target":"present","response":"absent","rt":"1712","correct":false,"confidence":-1},{"trial_n":83,"span":9,"encoder":"790685277","distractor":"790686277","target":"absent","response":"absent","rt":"1860","correct":true,"confidence":-1},{"trial_n":84,"span":9,"encoder":"670975028","distractor":"670975328","target":"present","response":"present","rt":"2135","correct":true,"confidence":-1},{"trial_n":85,"span":10,"encoder":"7083065882","distractor":"7083365882","target":"absent","response":"present","rt":"3913","correct":false,"confidence":-1},{"trial_n":86,"span":9,"encoder":"550144853","distractor":"570144853","target":"absent","response":"present","rt":"3685","correct":false,"confidence":-1},{"trial_n":87,"span":8,"encoder":"61205848","distractor":"61205948","target":"present","response":"present","rt":"2179","correct":true,"confidence":-1},{"trial_n":88,"span":8,"encoder":"79538155","distractor":"79538150","target":"absent","response":"absent","rt":"3535.9999999999","correct":true,"confidence":-1},{"trial_n":89,"span":9,"encoder":"352388518","distractor":"312388518","target":"absent","response":"absent","rt":"2582","correct":true,"confidence":-1},{"trial_n":90,"span":9,"encoder":"537070994","distractor":"137070994","target":"present","response":"present","rt":"2727.0000000001","correct":true,"confidence":-1},{"trial_n":91,"span":10,"encoder":"8922040198","distractor":"2922040198","target":"absent","response":"absent","rt":"8335.0000000001","correct":true,"confidence":4},{"trial_n":92,"span":10,"encoder":"0825176355","distractor":"3825176355","target":"present","response":"present","rt":"5644","correct":true,"confidence":3},{"trial_n":93,"span":11,"encoder":"47011052991","distractor":"47011059991","target":"present","response":"present","rt":"3325.9999999998","correct":true,"confidence":5},{"trial_n":94,"span":11,"encoder":"22005757578","distractor":"02005757578","target":"absent","response":"absent","rt":"4629","correct":true,"confidence":4},{"trial_n":95,"span":12,"encoder":"435387658590","distractor":"435387668590","target":"present","response":"present","rt":"7096","correct":true,"confidence":3},{"trial_n":96,"span":12,"encoder":"954709631493","distractor":"955709631493","target":"present","response":"present","rt":"4042","correct":true,"confidence":2},{"trial_n":97,"span":13,"encoder":"1644656709207","distractor":"1644656709257","target":"absent","response":"absent","rt":"13355","correct":true,"confidence":2},{"trial_n":98,"span":13,"encoder":"1215416735759","distractor":"1295416735759","target":"present","response":"present","rt":"3551","correct":true,"confidence":3},{"trial_n":99,"span":14,"encoder":"75285923608223","distractor":"78285923608223","target":"absent","response":"absent","rt":"2470","correct":true,"confidence":4},{"trial_n":100,"span":14,"encoder":"57107302301208","distractor":"57107342301208","target":"absent","response":"absent","rt":"7060","correct":true,"confidence":2},{"trial_n":101,"span":15,"encoder":"271070803508430","distractor":"271070806508430","target":"present","response":"present","rt":"6565","correct":true,"confidence":3},{"trial_n":102,"span":15,"encoder":"085714644004173","distractor":"085714624004173","target":"present","response":"present","rt":"7277","correct":true,"confidence":2},{"trial_n":103,"span":16,"encoder":"7613878779023388","distractor":"7313878779023388","target":"present","response":"present","rt":"4387","correct":true,"confidence":2},{"trial_n":104,"span":16,"encoder":"0221870019274762","distractor":"0221370019274762","target":"absent","response":"absent","rt":"4422","correct":true,"confidence":1},{"trial_n":105,"span":17,"encoder":"24885168934547644","distractor":"24885668934547644","target":"present","response":"absent","rt":"20213","correct":false,"confidence":2},{"trial_n":106,"span":16,"encoder":"3451228479113159","distractor":"3451228479183159","target":"absent","response":"absent","rt":"9687","correct":true,"confidence":3},{"trial_n":107,"span":16,"encoder":"8289568691310773","distractor":"8289568601310773","target":"present","response":"present","rt":"18564","correct":true,"confidence":1},{"trial_n":108,"span":17,"encoder":"58846316624828043","distractor":"58846316624828073","target":"absent","response":"absent","rt":"10724","correct":true,"confidence":2},{"trial_n":109,"span":17,"encoder":"12233798177177655","distractor":"12233798177177055","target":"absent","response":"absent","rt":"6715","correct":true,"confidence":2},{"trial_n":110,"span":18,"encoder":"269365364446145186","distractor":"269363364446145186","target":"absent","response":"present","rt":"3632","correct":false,"confidence":1},{"trial_n":111,"span":17,"encoder":"66396732685195112","distractor":"66396732685195192","target":"absent","response":"absent","rt":"4939.9999999998","correct":true,"confidence":2},{"trial_n":112,"span":17,"encoder":"81988094311748560","distractor":"88988094311748560","target":"absent","response":"present","rt":"3464","correct":false,"confidence":1},{"trial_n":113,"span":16,"encoder":"1508760071313336","distractor":"1508760071363336","target":"absent","response":"present","rt":"7739.0000000002","correct":false,"confidence":2},{"trial_n":114,"span":15,"encoder":"762474059733939","distractor":"762494059733939","target":"present","response":"present","rt":"8228.9999999998","correct":true,"confidence":2},{"trial_n":115,"span":15,"encoder":"046753866798074","distractor":"046763866798074","target":"present","response":"present","rt":"10006","correct":true,"confidence":3},{"trial_n":116,"span":16,"encoder":"3559482353438029","distractor":"3559682353438029","target":"present","response":"present","rt":"10790","correct":true,"confidence":2},{"trial_n":117,"span":16,"encoder":"8100206642161507","distractor":"8140206642161507","target":"present","response":"present","rt":"2687","correct":true,"confidence":1},{"trial_n":118,"span":17,"encoder":"98790366655790007","distractor":"98794366655790007","target":"present","response":"absent","rt":"4767.0000000002","correct":false,"confidence":1},{"trial_n":119,"span":16,"encoder":"6048439704199540","distractor":"6048439704199580","target":"absent","response":"absent","rt":"5107.0000000002","correct":true,"confidence":1},{"trial_n":120,"span":16,"encoder":"3138185366502257","distractor":"3138185366582257","target":"absent","response":"present","rt":"8973.0000000002","correct":false,"confidence":2},{"trial_n":121,"span":15,"encoder":"304972374976821","distractor":"304972374276821","target":"absent","response":"absent","rt":"6870","correct":true,"confidence":1},{"trial_n":122,"span":15,"encoder":"014388128407534","distractor":"014588128407534","target":"absent","response":"absent","rt":"3020","correct":true,"confidence":1},{"trial_n":123,"span":16,"encoder":"3697788754429835","distractor":"3297788754429835","target":"absent","response":"present","rt":"3984","correct":false,"confidence":1},{"trial_n":124,"span":15,"encoder":"470745873154109","distractor":"470745878154109","target":"absent","response":"absent","rt":"2197.9999999998","correct":true,"confidence":1},{"trial_n":125,"span":15,"encoder":"934905192339010","distractor":"934905197339010","target":"present","response":"absent","rt":"1524","correct":false,"confidence":1},{"trial_n":126,"span":14,"encoder":"77815459980070","distractor":"57815459980070","target":"present","response":"present","rt":"3461","correct":true,"confidence":1},{"trial_n":127,"span":14,"encoder":"86660997074994","distractor":"86660997070994","target":"absent","response":"present","rt":"4699","correct":false,"confidence":1},{"trial_n":128,"span":13,"encoder":"5958672706592","distractor":"5988672706592","target":"absent","response":"absent","rt":"6199.9999999998","correct":true,"confidence":1},{"trial_n":129,"span":13,"encoder":"9335924901234","distractor":"9395924901234","target":"present","response":"absent","rt":"10216","correct":false,"confidence":1},{"trial_n":130,"span":12,"encoder":"976198924604","distractor":"976198824604","target":"present","response":"present","rt":"2051","correct":true,"confidence":1},{"trial_n":131,"span":12,"encoder":"313728928144","distractor":"113728928144","target":"present","response":"present","rt":"3358.9999999998","correct":true,"confidence":5},{"trial_n":132,"span":13,"encoder":"2494682669958","distractor":"2494382669958","target":"present","response":"present","rt":"4403.0000000002","correct":true,"confidence":2},{"trial_n":133,"span":13,"encoder":"8025935779891","distractor":"8025935779871","target":"present","response":"absent","rt":"8151","correct":false,"confidence":1},{"trial_n":134,"span":12,"encoder":"370405630838","distractor":"370405690838","target":"present","response":"present","rt":"2493","correct":true,"confidence":1},{"trial_n":135,"span":12,"encoder":"513205602789","distractor":"543205602789","target":"absent","response":"absent","rt":"6992","correct":true,"confidence":1},{"trial_n":136,"span":13,"encoder":"5157971966913","distractor":"5157971966914","target":"absent","response":"absent","rt":"10128","correct":true,"confidence":2},{"trial_n":137,"span":13,"encoder":"9140127263327","distractor":"9140127263927","target":"present","response":"present","rt":"10344","correct":true,"confidence":3},{"trial_n":138,"span":14,"encoder":"77010606419678","distractor":"77010606919678","target":"present","response":"present","rt":"5918.0000000002","correct":true,"confidence":2},{"trial_n":139,"span":14,"encoder":"48543055898467","distractor":"48543055898437","target":"absent","response":"absent","rt":"3648","correct":true,"confidence":5},{"trial_n":140,"span":15,"encoder":"832993536116582","distractor":"832993436116582","target":"present","response":"present","rt":"9904.9999999998","correct":true,"confidence":2}]