[{"trial_n":1,"n_dots":4.25,"target":"left","response":"left","rt":6066.8999999985,"correct":true,"confidence":-1},{"trial_n":2,"n_dots":4.25,"target":"left","response":"left","rt":730.70000000298,"correct":true,"confidence":-1},{"trial_n":3,"n_dots":3.85,"target":"left","response":"left","rt":767,"correct":true,"confidence":-1},{"trial_n":4,"n_dots":3.85,"target":"left","response":"left","rt":592.20000000298,"correct":true,"confidence":-1},{"trial_n":5,"n_dots":3.45,"target":"right","response":"right","rt":474.5,"correct":true,"confidence":-1},{"trial_n":6,"n_dots":3.45,"target":"right","response":"right","rt":330.80000000447,"correct":true,"confidence":-1},{"trial_n":7,"n_dots":3.05,"target":"right","response":"right","rt":376.79999999702,"correct":true,"confidence":-1},{"trial_n":8,"n_dots":3.05,"target":"left","response":"left","rt":445,"correct":true,"confidence":-1},{"trial_n":9,"n_dots":2.85,"target":"right","response":"right","rt":346.19999999553,"correct":true,"confidence":-1},{"trial_n":10,"n_dots":2.85,"target":"right","response":"right","rt":354.79999999702,"correct":true,"confidence":-1},{"trial_n":11,"n_dots":2.65,"target":"left","response":"right","rt":629.60000000149,"correct":false,"confidence":-1},{"trial_n":12,"n_dots":2.85,"target":"left","response":"right","rt":349.60000000149,"correct":false,"confidence":-1},{"trial_n":13,"n_dots":2.95,"target":"right","response":"right","rt":573.09999999404,"correct":true,"confidence":-1},{"trial_n":14,"n_dots":2.95,"target":"right","response":"right","rt":391.69999999553,"correct":true,"confidence":-1},{"trial_n":15,"n_dots":2.85,"target":"left","response":"right","rt":561.10000000149,"correct":false,"confidence":-1},{"trial_n":16,"n_dots":2.95,"target":"right","response":"right","rt":344.69999999553,"correct":true,"confidence":-1},{"trial_n":17,"n_dots":2.95,"target":"left","response":"left","rt":501.5,"correct":true,"confidence":-1},{"trial_n":18,"n_dots":2.85,"target":"right","response":"right","rt":511.5,"correct":true,"confidence":-1},{"trial_n":19,"n_dots":2.85,"target":"right","response":"right","rt":363.90000000596,"correct":true,"confidence":-1},{"trial_n":20,"n_dots":2.75,"target":"right","response":"right","rt":570.60000000149,"correct":true,"confidence":-1},{"trial_n":21,"n_dots":2.75,"target":"left","response":"left","rt":345.40000000596,"correct":true,"confidence":2},{"trial_n":22,"n_dots":2.65,"target":"right","response":"right","rt":530.80000000447,"correct":true,"confidence":2},{"trial_n":23,"n_dots":2.65,"target":"right","response":"right","rt":354,"correct":true,"confidence":2},{"trial_n":24,"n_dots":2.55,"target":"left","response":"right","rt":586.20000000298,"correct":false,"confidence":3},{"trial_n":25,"n_dots":2.65,"target":"right","response":"right","rt":771.19999999553,"correct":true,"confidence":2},{"trial_n":26,"n_dots":2.65,"target":"right","response":"right","rt":383.69999999553,"correct":true,"confidence":2},{"trial_n":27,"n_dots":2.55,"target":"left","response":"right","rt":1766.6000000015,"correct":false,"confidence":3},{"trial_n":28,"n_dots":2.65,"target":"left","response":"right","rt":899.5,"correct":false,"confidence":2},{"trial_n":29,"n_dots":2.75,"target":"right","response":"right","rt":307.79999999702,"correct":true,"confidence":3},{"trial_n":30,"n_dots":2.75,"target":"left","response":"right","rt":457.20000000298,"correct":false,"confidence":3},{"trial_n":31,"n_dots":2.85,"target":"left","response":"right","rt":931.70000000298,"correct":false,"confidence":3},{"trial_n":32,"n_dots":2.95,"target":"right","response":"right","rt":536.79999999702,"correct":true,"confidence":2},{"trial_n":33,"n_dots":2.95,"target":"right","response":"right","rt":955.80000000447,"correct":true,"confidence":2},{"trial_n":34,"n_dots":2.85,"target":"left","response":"right","rt":918.90000000596,"correct":false,"confidence":2},{"trial_n":35,"n_dots":2.95,"target":"left","response":"left","rt":449.60000000149,"correct":true,"confidence":3},{"trial_n":36,"n_dots":2.95,"target":"right","response":"left","rt":1328,"correct":false,"confidence":1},{"trial_n":37,"n_dots":3.05,"target":"left","response":"right","rt":462.10000000149,"correct":false,"confidence":4},{"trial_n":38,"n_dots":3.15,"target":"right","response":"right","rt":417,"correct":true,"confidence":2},{"trial_n":39,"n_dots":3.15,"target":"right","response":"right","rt":314.5,"correct":true,"confidence":2},{"trial_n":40,"n_dots":3.05,"target":"right","response":"right","rt":194.5,"correct":true,"confidence":2},{"trial_n":41,"n_dots":3.05,"target":"left","response":"right","rt":185.70000000298,"correct":false,"confidence":2},{"trial_n":42,"n_dots":3.15,"target":"right","response":"right","rt":812.29999999702,"correct":true,"confidence":2},{"trial_n":43,"n_dots":3.15,"target":"right","response":"right","rt":878.09999999404,"correct":true,"confidence":2},{"trial_n":44,"n_dots":3.05,"target":"left","response":"right","rt":313.89999999851,"correct":false,"confidence":2},{"trial_n":45,"n_dots":3.15,"target":"right","response":"left","rt":857.39999999851,"correct":false,"confidence":2},{"trial_n":46,"n_dots":3.25,"target":"left","response":"left","rt":929.10000000149,"correct":true,"confidence":2},{"trial_n":47,"n_dots":3.25,"target":"left","response":"left","rt":743.39999999851,"correct":true,"confidence":2},{"trial_n":48,"n_dots":3.15,"target":"right","response":"right","rt":280.39999999851,"correct":true,"confidence":3},{"trial_n":49,"n_dots":3.15,"target":"right","response":"right","rt":507.79999999702,"correct":true,"confidence":3},{"trial_n":50,"n_dots":3.05,"target":"right","response":"right","rt":384.80000000447,"correct":true,"confidence":2},{"trial_n":51,"n_dots":3.05,"target":"left","response":"left","rt":551.39999999851,"correct":true,"confidence":3},{"trial_n":52,"n_dots":2.95,"target":"right","response":"right","rt":419.70000000298,"correct":true,"confidence":2},{"trial_n":53,"n_dots":2.95,"target":"right","response":"left","rt":799.60000000149,"correct":false,"confidence":2},{"trial_n":54,"n_dots":3.05,"target":"left","response":"left","rt":589.89999999851,"correct":true,"confidence":2},{"trial_n":55,"n_dots":3.05,"target":"right","response":"right","rt":373.29999999702,"correct":true,"confidence":2},{"trial_n":56,"n_dots":2.95,"target":"left","response":"left","rt":235.10000000149,"correct":true,"confidence":3},{"trial_n":57,"n_dots":2.95,"target":"right","response":"right","rt":296.5,"correct":true,"confidence":2},{"trial_n":58,"n_dots":2.85,"target":"left","response":"right","rt":319.70000000298,"correct":false,"confidence":3},{"trial_n":59,"n_dots":2.95,"target":"left","response":"right","rt":812.29999999702,"correct":false,"confidence":2},{"trial_n":60,"n_dots":3.05,"target":"right","response":"right","rt":328.30000000447,"correct":true,"confidence":3},{"trial_n":61,"n_dots":3.05,"target":"right","response":"right","rt":1194.900000006,"correct":true,"confidence":4},{"trial_n":62,"n_dots":2.95,"target":"left","response":"left","rt":356.90000000596,"correct":true,"confidence":3},{"trial_n":63,"n_dots":2.95,"target":"right","response":"right","rt":486.90000000596,"correct":true,"confidence":3},{"trial_n":64,"n_dots":2.85,"target":"left","response":"left","rt":344.30000000447,"correct":true,"confidence":3},{"trial_n":65,"n_dots":2.85,"target":"right","response":"right","rt":556.10000000149,"correct":true,"confidence":3},{"trial_n":66,"n_dots":2.75,"target":"left","response":"right","rt":364.40000000596,"correct":false,"confidence":3},{"trial_n":67,"n_dots":2.85,"target":"left","response":"right","rt":477.10000000149,"correct":false,"confidence":3},{"trial_n":68,"n_dots":2.95,"target":"left","response":"right","rt":476.5,"correct":false,"confidence":3},{"trial_n":69,"n_dots":3.05,"target":"right","response":"right","rt":1825.299999997,"correct":true,"confidence":2},{"trial_n":70,"n_dots":3.05,"target":"left","response":"right","rt":1042.700000003,"correct":false,"confidence":2},{"trial_n":71,"n_dots":3.15,"target":"right","response":"left","rt":351.39999999851,"correct":false,"confidence":4},{"trial_n":72,"n_dots":3.25,"target":"left","response":"left","rt":313.29999999702,"correct":true,"confidence":4},{"trial_n":73,"n_dots":3.25,"target":"right","response":"right","rt":185.89999999851,"correct":true,"confidence":4},{"trial_n":74,"n_dots":3.15,"target":"left","response":"left","rt":2,"correct":true,"confidence":4},{"trial_n":75,"n_dots":3.15,"target":"right","response":"left","rt":822.70000000298,"correct":false,"confidence":2},{"trial_n":76,"n_dots":3.25,"target":"right","response":"right","rt":384.5,"correct":true,"confidence":4},{"trial_n":77,"n_dots":3.25,"target":"left","response":"left","rt":1865.700000003,"correct":true,"confidence":1},{"trial_n":78,"n_dots":3.15,"target":"left","response":"left","rt":290.30000000447,"correct":true,"confidence":1},{"trial_n":79,"n_dots":3.15,"target":"right","response":"right","rt":414.60000000149,"correct":true,"confidence":3},{"trial_n":80,"n_dots":3.05,"target":"left","response":"left","rt":399.80000000447,"correct":true,"confidence":1},{"trial_n":81,"n_dots":3.05,"target":"left","response":"right","rt":416.39999999851,"correct":false,"confidence":2},{"trial_n":82,"n_dots":3.15,"target":"left","response":"right","rt":507.69999999553,"correct":false,"confidence":3},{"trial_n":83,"n_dots":3.25,"target":"left","response":"left","rt":336.89999999851,"correct":true,"confidence":3},{"trial_n":84,"n_dots":3.25,"target":"right","response":"right","rt":217.60000000149,"correct":true,"confidence":3},{"trial_n":85,"n_dots":3.15,"target":"left","response":"right","rt":356.29999999702,"correct":false,"confidence":2},{"trial_n":86,"n_dots":3.25,"target":"right","response":"right","rt":304.20000000298,"correct":true,"confidence":3},{"trial_n":87,"n_dots":3.25,"target":"left","response":"left","rt":210.19999999553,"correct":true,"confidence":3},{"trial_n":88,"n_dots":3.15,"target":"left","response":"right","rt":420.89999999851,"correct":false,"confidence":3},{"trial_n":89,"n_dots":3.25,"target":"left","response":"right","rt":470.69999999553,"correct":false,"confidence":3},{"trial_n":90,"n_dots":3.35,"target":"right","response":"right","rt":652.89999999851,"correct":true,"confidence":3},{"trial_n":91,"n_dots":3.35,"target":"left","response":"right","rt":391.89999999851,"correct":false,"confidence":3},{"trial_n":92,"n_dots":3.45,"target":"left","response":"right","rt":585.79999999702,"correct":false,"confidence":3},{"trial_n":93,"n_dots":3.55,"target":"right","response":"right","rt":415,"correct":true,"confidence":3},{"trial_n":94,"n_dots":3.55,"target":"left","response":"left","rt":402.20000000298,"correct":true,"confidence":3},{"trial_n":95,"n_dots":3.45,"target":"left","response":"left","rt":806.79999999702,"correct":true,"confidence":2},{"trial_n":96,"n_dots":3.45,"target":"right","response":"right","rt":405.60000000149,"correct":true,"confidence":4},{"trial_n":97,"n_dots":3.35,"target":"left","response":"left","rt":408.40000000596,"correct":true,"confidence":3},{"trial_n":98,"n_dots":3.35,"target":"left","response":"left","rt":768.10000000149,"correct":true,"confidence":2},{"trial_n":99,"n_dots":3.25,"target":"left","response":"left","rt":1793.400000006,"correct":true,"confidence":1},{"trial_n":100,"n_dots":3.25,"target":"left","response":"right","rt":391.39999999851,"correct":false,"confidence":2},{"trial_n":101,"n_dots":3.35,"target":"left","response":"right","rt":523.39999999851,"correct":false,"confidence":1},{"trial_n":102,"n_dots":3.45,"target":"right","response":"right","rt":14.79999999702,"correct":true,"confidence":4},{"trial_n":103,"n_dots":3.45,"target":"left","response":"left","rt":280.20000000298,"correct":true,"confidence":3},{"trial_n":104,"n_dots":3.35,"target":"right","response":"right","rt":361.80000000447,"correct":true,"confidence":3},{"trial_n":105,"n_dots":3.35,"target":"right","response":"right","rt":459.29999999702,"correct":true,"confidence":3},{"trial_n":106,"n_dots":3.25,"target":"left","response":"right","rt":485.60000000149,"correct":false,"confidence":2},{"trial_n":107,"n_dots":3.35,"target":"left","response":"left","rt":362.69999999553,"correct":true,"confidence":2},{"trial_n":108,"n_dots":3.35,"target":"right","response":"right","rt":395.30000000447,"correct":true,"confidence":3},{"trial_n":109,"n_dots":3.25,"target":"left","response":"left","rt":915.19999999553,"correct":true,"confidence":2},{"trial_n":110,"n_dots":3.25,"target":"left","response":"left","rt":839.70000000298,"correct":true,"confidence":2},{"trial_n":111,"n_dots":3.15,"target":"right","response":"right","rt":973.5,"correct":true,"confidence":3},{"trial_n":112,"n_dots":3.15,"target":"right","response":"right","rt":746.29999999702,"correct":true,"confidence":2},{"trial_n":113,"n_dots":3.05,"target":"right","response":"right","rt":396,"correct":true,"confidence":3},{"trial_n":114,"n_dots":3.05,"target":"right","response":"right","rt":745.70000000298,"correct":true,"confidence":3},{"trial_n":115,"n_dots":2.95,"target":"right","response":"right","rt":362.09999999404,"correct":true,"confidence":3},{"trial_n":116,"n_dots":2.95,"target":"right","response":"right","rt":359.10000000149,"correct":true,"confidence":4},{"trial_n":117,"n_dots":2.85,"target":"right","response":"right","rt":568.19999999553,"correct":true,"confidence":3},{"trial_n":118,"n_dots":2.85,"target":"left","response":"left","rt":400.60000000149,"correct":true,"confidence":3},{"trial_n":119,"n_dots":2.75,"target":"right","response":"left","rt":785,"correct":false,"confidence":3},{"trial_n":120,"n_dots":2.85,"target":"right","response":"right","rt":367.60000000149,"correct":true,"confidence":3}]