[{"trial_n":1,"n_dots":4.25,"target":"left","response":"left","rt":1435.1999999881,"correct":true,"confidence":-1},{"trial_n":2,"n_dots":4.25,"target":"right","response":"left","rt":1569.2000000477,"correct":false,"confidence":-1},{"trial_n":3,"n_dots":4.65,"target":"left","response":"left","rt":557.39999997616,"correct":true,"confidence":-1},{"trial_n":4,"n_dots":4.65,"target":"left","response":"left","rt":498.19999998808,"correct":true,"confidence":-1},{"trial_n":5,"n_dots":4.25,"target":"left","response":"right","rt":690.30000001192,"correct":false,"confidence":-1},{"trial_n":6,"n_dots":4.65,"target":"left","response":"left","rt":331.5,"correct":true,"confidence":-1},{"trial_n":7,"n_dots":4.65,"target":"right","response":"right","rt":524,"correct":true,"confidence":-1},{"trial_n":8,"n_dots":4.45,"target":"left","response":"left","rt":127.29999995232,"correct":true,"confidence":-1},{"trial_n":9,"n_dots":4.45,"target":"right","response":"right","rt":337.69999998808,"correct":true,"confidence":-1},{"trial_n":10,"n_dots":4.25,"target":"left","response":"left","rt":499.79999995232,"correct":true,"confidence":-1},{"trial_n":11,"n_dots":4.25,"target":"left","response":"left","rt":295.89999997616,"correct":true,"confidence":-1},{"trial_n":12,"n_dots":4.05,"target":"right","response":"right","rt":584.69999998808,"correct":true,"confidence":-1},{"trial_n":13,"n_dots":4.05,"target":"left","response":"left","rt":278.20000004768,"correct":true,"confidence":-1},{"trial_n":14,"n_dots":3.95,"target":"right","response":"right","rt":543.10000002384,"correct":true,"confidence":-1},{"trial_n":15,"n_dots":3.95,"target":"right","response":"right","rt":595.30000001192,"correct":true,"confidence":-1},{"trial_n":16,"n_dots":3.85,"target":"right","response":"right","rt":732.39999997616,"correct":true,"confidence":-1},{"trial_n":17,"n_dots":3.85,"target":"left","response":"left","rt":498.29999995232,"correct":true,"confidence":-1},{"trial_n":18,"n_dots":3.75,"target":"left","response":"left","rt":317,"correct":true,"confidence":-1},{"trial_n":19,"n_dots":3.75,"target":"left","response":"left","rt":366.80000001192,"correct":true,"confidence":-1},{"trial_n":20,"n_dots":3.65,"target":"left","response":"left","rt":406.5,"correct":true,"confidence":-1},{"trial_n":21,"n_dots":3.65,"target":"right","response":"left","rt":101,"correct":false,"confidence":3},{"trial_n":22,"n_dots":3.75,"target":"right","response":"right","rt":503,"correct":true,"confidence":3},{"trial_n":23,"n_dots":3.75,"target":"left","response":"left","rt":574.09999996424,"correct":true,"confidence":4},{"trial_n":24,"n_dots":3.65,"target":"right","response":"right","rt":719.70000004768,"correct":true,"confidence":2},{"trial_n":25,"n_dots":3.65,"target":"right","response":"right","rt":1044.0999999642,"correct":true,"confidence":2},{"trial_n":26,"n_dots":3.55,"target":"left","response":"left","rt":622.39999997616,"correct":true,"confidence":3},{"trial_n":27,"n_dots":3.55,"target":"left","response":"left","rt":619,"correct":true,"confidence":4},{"trial_n":28,"n_dots":3.45,"target":"right","response":"right","rt":712.89999997616,"correct":true,"confidence":2},{"trial_n":29,"n_dots":3.45,"target":"right","response":"right","rt":590.69999998808,"correct":true,"confidence":2},{"trial_n":30,"n_dots":3.35,"target":"left","response":"left","rt":802.69999998808,"correct":true,"confidence":1},{"trial_n":31,"n_dots":3.35,"target":"right","response":"right","rt":864.69999998808,"correct":true,"confidence":2},{"trial_n":32,"n_dots":3.25,"target":"right","response":"left","rt":705.69999998808,"correct":false,"confidence":1},{"trial_n":33,"n_dots":3.35,"target":"left","response":"left","rt":525.90000003576,"correct":true,"confidence":2},{"trial_n":34,"n_dots":3.35,"target":"right","response":"right","rt":565.10000002384,"correct":true,"confidence":3},{"trial_n":35,"n_dots":3.25,"target":"left","response":"left","rt":453.30000001192,"correct":true,"confidence":2},{"trial_n":36,"n_dots":3.25,"target":"right","response":"right","rt":3750.8000000119,"correct":true,"confidence":1},{"trial_n":37,"n_dots":3.15,"target":"left","response":"right","rt":950.90000003576,"correct":false,"confidence":2},{"trial_n":38,"n_dots":3.25,"target":"left","response":"left","rt":960.80000001192,"correct":true,"confidence":2},{"trial_n":39,"n_dots":3.25,"target":"left","response":"right","rt":803.60000002384,"correct":false,"confidence":1},{"trial_n":40,"n_dots":3.35,"target":"left","response":"left","rt":1068.6000000238,"correct":true,"confidence":2},{"trial_n":41,"n_dots":3.35,"target":"left","response":"left","rt":2227.1000000238,"correct":true,"confidence":1},{"trial_n":42,"n_dots":3.25,"target":"right","response":"right","rt":1150.1999999881,"correct":true,"confidence":1},{"trial_n":43,"n_dots":3.25,"target":"right","response":"right","rt":4381.5,"correct":true,"confidence":1},{"trial_n":44,"n_dots":3.15,"target":"left","response":"left","rt":633.10000002384,"correct":true,"confidence":3},{"trial_n":45,"n_dots":3.15,"target":"right","response":"left","rt":756.69999998808,"correct":false,"confidence":3},{"trial_n":46,"n_dots":3.25,"target":"left","response":"left","rt":882.10000002384,"correct":true,"confidence":3},{"trial_n":47,"n_dots":3.25,"target":"right","response":"right","rt":1197.0999999642,"correct":true,"confidence":2},{"trial_n":48,"n_dots":3.15,"target":"right","response":"left","rt":2265.2999999523,"correct":false,"confidence":1},{"trial_n":49,"n_dots":3.25,"target":"left","response":"right","rt":2320.5,"correct":false,"confidence":2},{"trial_n":50,"n_dots":3.35,"target":"right","response":"right","rt":1017.8999999762,"correct":true,"confidence":3},{"trial_n":51,"n_dots":3.35,"target":"right","response":"right","rt":866.79999995232,"correct":true,"confidence":3},{"trial_n":52,"n_dots":3.25,"target":"left","response":"right","rt":1064.5999999642,"correct":false,"confidence":2},{"trial_n":53,"n_dots":3.35,"target":"right","response":"left","rt":1206.3999999762,"correct":false,"confidence":2},{"trial_n":54,"n_dots":3.45,"target":"left","response":"left","rt":718.10000002384,"correct":true,"confidence":3},{"trial_n":55,"n_dots":3.45,"target":"left","response":"right","rt":878.69999998808,"correct":false,"confidence":3},{"trial_n":56,"n_dots":3.55,"target":"left","response":"left","rt":633,"correct":true,"confidence":3},{"trial_n":57,"n_dots":3.55,"target":"right","response":"right","rt":1043.6999999881,"correct":true,"confidence":2},{"trial_n":58,"n_dots":3.45,"target":"right","response":"right","rt":903.5,"correct":true,"confidence":3},{"trial_n":59,"n_dots":3.45,"target":"right","response":"right","rt":822.80000001192,"correct":true,"confidence":4},{"trial_n":60,"n_dots":3.35,"target":"right","response":"right","rt":693.59999996424,"correct":true,"confidence":3},{"trial_n":61,"n_dots":3.35,"target":"left","response":"right","rt":855.10000002384,"correct":false,"confidence":2},{"trial_n":62,"n_dots":3.45,"target":"left","response":"left","rt":929.30000001192,"correct":true,"confidence":2},{"trial_n":63,"n_dots":3.45,"target":"right","response":"right","rt":1190.5,"correct":true,"confidence":2},{"trial_n":64,"n_dots":3.35,"target":"left","response":"left","rt":713.19999998808,"correct":true,"confidence":3},{"trial_n":65,"n_dots":3.35,"target":"left","response":"left","rt":826,"correct":true,"confidence":3},{"trial_n":66,"n_dots":3.25,"target":"right","response":"right","rt":817.69999998808,"correct":true,"confidence":3},{"trial_n":67,"n_dots":3.25,"target":"left","response":"left","rt":668.09999996424,"correct":true,"confidence":3},{"trial_n":68,"n_dots":3.15,"target":"left","response":"left","rt":733.39999997616,"correct":true,"confidence":3},{"trial_n":69,"n_dots":3.15,"target":"left","response":"left","rt":922.30000001192,"correct":true,"confidence":2},{"trial_n":70,"n_dots":3.05,"target":"right","response":"right","rt":1060.8000000119,"correct":true,"confidence":1},{"trial_n":71,"n_dots":3.05,"target":"right","response":"right","rt":735.80000001192,"correct":true,"confidence":2},{"trial_n":72,"n_dots":2.95,"target":"left","response":"left","rt":1246.8999999762,"correct":true,"confidence":1},{"trial_n":73,"n_dots":2.95,"target":"left","response":"left","rt":817.60000002384,"correct":true,"confidence":2},{"trial_n":74,"n_dots":2.85,"target":"right","response":"right","rt":767.69999998808,"correct":true,"confidence":3},{"trial_n":75,"n_dots":2.85,"target":"right","response":"left","rt":868.09999996424,"correct":false,"confidence":2},{"trial_n":76,"n_dots":2.95,"target":"left","response":"left","rt":944.5,"correct":true,"confidence":3},{"trial_n":77,"n_dots":2.95,"target":"right","response":"right","rt":1736.6000000238,"correct":true,"confidence":2},{"trial_n":78,"n_dots":2.85,"target":"left","response":"left","rt":667.5,"correct":true,"confidence":3},{"trial_n":79,"n_dots":2.85,"target":"left","response":"left","rt":883.29999995232,"correct":true,"confidence":2},{"trial_n":80,"n_dots":2.75,"target":"left","response":"right","rt":2486.0999999642,"correct":false,"confidence":1},{"trial_n":81,"n_dots":2.85,"target":"right","response":"left","rt":933.30000001192,"correct":false,"confidence":3},{"trial_n":82,"n_dots":2.95,"target":"right","response":"left","rt":950.39999997616,"correct":false,"confidence":3},{"trial_n":83,"n_dots":3.05,"target":"right","response":"left","rt":771.19999998808,"correct":false,"confidence":2},{"trial_n":84,"n_dots":3.15,"target":"left","response":"left","rt":594.80000001192,"correct":true,"confidence":3},{"trial_n":85,"n_dots":3.15,"target":"left","response":"left","rt":2468.8000000119,"correct":true,"confidence":2},{"trial_n":86,"n_dots":3.05,"target":"right","response":"left","rt":1091.8000000119,"correct":false,"confidence":2},{"trial_n":87,"n_dots":3.15,"target":"right","response":"left","rt":864.60000002384,"correct":false,"confidence":3},{"trial_n":88,"n_dots":3.25,"target":"right","response":"left","rt":738.40000003576,"correct":false,"confidence":3},{"trial_n":89,"n_dots":3.35,"target":"left","response":"right","rt":1322.6000000238,"correct":false,"confidence":1},{"trial_n":90,"n_dots":3.45,"target":"left","response":"left","rt":599.69999998808,"correct":true,"confidence":3},{"trial_n":91,"n_dots":3.45,"target":"right","response":"right","rt":734.59999996424,"correct":true,"confidence":3},{"trial_n":92,"n_dots":3.35,"target":"left","response":"right","rt":904.5,"correct":false,"confidence":3},{"trial_n":93,"n_dots":3.45,"target":"right","response":"right","rt":713.19999998808,"correct":true,"confidence":1},{"trial_n":94,"n_dots":3.45,"target":"right","response":"right","rt":817.60000002384,"correct":true,"confidence":2},{"trial_n":95,"n_dots":3.35,"target":"left","response":"left","rt":517.19999998808,"correct":true,"confidence":1},{"trial_n":96,"n_dots":3.35,"target":"right","response":"right","rt":686.69999998808,"correct":true,"confidence":2},{"trial_n":97,"n_dots":3.25,"target":"left","response":"left","rt":543.90000003576,"correct":true,"confidence":2},{"trial_n":98,"n_dots":3.25,"target":"right","response":"right","rt":755.80000001192,"correct":true,"confidence":1},{"trial_n":99,"n_dots":3.15,"target":"left","response":"left","rt":571.60000002384,"correct":true,"confidence":3},{"trial_n":100,"n_dots":3.15,"target":"right","response":"right","rt":856.29999995232,"correct":true,"confidence":2},{"trial_n":101,"n_dots":3.05,"target":"left","response":"left","rt":468.59999996424,"correct":true,"confidence":3},{"trial_n":102,"n_dots":3.05,"target":"left","response":"left","rt":625.19999998808,"correct":true,"confidence":4},{"trial_n":103,"n_dots":2.95,"target":"right","response":"left","rt":1042.3000000119,"correct":false,"confidence":3},{"trial_n":104,"n_dots":3.05,"target":"left","response":"left","rt":625.69999998808,"correct":true,"confidence":2},{"trial_n":105,"n_dots":3.05,"target":"left","response":"left","rt":631.89999997616,"correct":true,"confidence":3},{"trial_n":106,"n_dots":2.95,"target":"left","response":"right","rt":3190.6999999881,"correct":false,"confidence":1},{"trial_n":107,"n_dots":3.05,"target":"right","response":"right","rt":1075.3999999762,"correct":true,"confidence":2},{"trial_n":108,"n_dots":3.05,"target":"right","response":"left","rt":717.30000001192,"correct":false,"confidence":3},{"trial_n":109,"n_dots":3.15,"target":"right","response":"right","rt":1464.6000000238,"correct":true,"confidence":2},{"trial_n":110,"n_dots":3.15,"target":"right","response":"left","rt":653,"correct":false,"confidence":2},{"trial_n":111,"n_dots":3.25,"target":"left","response":"left","rt":470.40000003576,"correct":true,"confidence":2},{"trial_n":112,"n_dots":3.25,"target":"left","response":"left","rt":265.79999995232,"correct":true,"confidence":2},{"trial_n":113,"n_dots":3.15,"target":"right","response":"right","rt":561.89999997616,"correct":true,"confidence":2},{"trial_n":114,"n_dots":3.15,"target":"right","response":"right","rt":1210,"correct":true,"confidence":2},{"trial_n":115,"n_dots":3.05,"target":"right","response":"right","rt":702.30000001192,"correct":true,"confidence":2},{"trial_n":116,"n_dots":3.05,"target":"right","response":"left","rt":225.69999998808,"correct":false,"confidence":1},{"trial_n":117,"n_dots":3.15,"target":"right","response":"right","rt":502.40000003576,"correct":true,"confidence":2},{"trial_n":118,"n_dots":3.15,"target":"right","response":"left","rt":527,"correct":false,"confidence":3},{"trial_n":119,"n_dots":3.25,"target":"left","response":"left","rt":418.09999996424,"correct":true,"confidence":4},{"trial_n":120,"n_dots":3.25,"target":"right","response":"right","rt":543.19999998808,"correct":true,"confidence":2}]