[{"trial_n":1,"span":8,"encoder":"80229660","distractor":"80229663","target":"present","response":"absent","rt":"5520.7999999523","correct":false,"confidence":-1},{"trial_n":2,"span":6,"encoder":"500893","distractor":"560893","target":"present","response":"present","rt":"1790.1999999881","correct":true,"confidence":-1},{"trial_n":3,"span":6,"encoder":"732088","distractor":"772088","target":"absent","response":"absent","rt":"2649.1000000238","correct":true,"confidence":-1},{"trial_n":4,"span":8,"encoder":"84311729","distractor":"84211729","target":"absent","response":"absent","rt":"2647.5999999642","correct":true,"confidence":-1},{"trial_n":5,"span":8,"encoder":"14482099","distractor":"14482799","target":"present","response":"present","rt":"2850.4000000358","correct":true,"confidence":-1},{"trial_n":6,"span":10,"encoder":"8808484621","distractor":"9808484621","target":"present","response":"absent","rt":"4703.7000000477","correct":false,"confidence":-1},{"trial_n":7,"span":8,"encoder":"01525781","distractor":"01525381","target":"present","response":"present","rt":"2538.9000000358","correct":true,"confidence":-1},{"trial_n":8,"span":8,"encoder":"68460899","distractor":"68460839","target":"present","response":"present","rt":"3082.3000000119","correct":true,"confidence":-1},{"trial_n":9,"span":10,"encoder":"0853697165","distractor":"0853693165","target":"absent","response":"absent","rt":"3122.1000000238","correct":true,"confidence":-1},{"trial_n":10,"span":10,"encoder":"2492794336","distractor":"2492793336","target":"present","response":"present","rt":"3430","correct":true,"confidence":-1},{"trial_n":11,"span":12,"encoder":"421886959579","distractor":"421886959879","target":"present","response":"present","rt":"3405.1000000238","correct":true,"confidence":-1},{"trial_n":12,"span":12,"encoder":"268270215051","distractor":"268270219051","target":"present","response":"present","rt":"1458.7000000477","correct":true,"confidence":-1},{"trial_n":13,"span":13,"encoder":"0218685905411","distractor":"0218685905410","target":"absent","response":"absent","rt":"1537.3999999762","correct":true,"confidence":-1},{"trial_n":14,"span":13,"encoder":"0416608447666","distractor":"3416608447666","target":"present","response":"absent","rt":"3500.9000000358","correct":false,"confidence":-1},{"trial_n":15,"span":12,"encoder":"829272733654","distractor":"829272733694","target":"absent","response":"present","rt":"3218.1999999881","correct":false,"confidence":-1},{"trial_n":16,"span":11,"encoder":"18107724328","distractor":"18407724328","target":"present","response":"present","rt":"2795.3000000119","correct":true,"confidence":-1},{"trial_n":17,"span":11,"encoder":"85328875492","distractor":"85328875490","target":"absent","response":"present","rt":"1150.1000000238","correct":false,"confidence":-1},{"trial_n":18,"span":10,"encoder":"1450136775","distractor":"1459136775","target":"absent","response":"present","rt":"1527.0999999642","correct":false,"confidence":-1},{"trial_n":19,"span":9,"encoder":"647377166","distractor":"647377466","target":"absent","response":"present","rt":"1958.1000000238","correct":false,"confidence":-1},{"trial_n":20,"span":8,"encoder":"95866227","distractor":"75866227","target":"present","response":"present","rt":"1267.3000000119","correct":true,"confidence":-1},{"trial_n":21,"span":8,"encoder":"61367628","distractor":"61337628","target":"absent","response":"absent","rt":"2286.1999999881","correct":true,"confidence":4},{"trial_n":22,"span":9,"encoder":"166032857","distractor":"166033857","target":"absent","response":"absent","rt":"2924","correct":true,"confidence":5},{"trial_n":23,"span":9,"encoder":"827866162","distractor":"827866762","target":"present","response":"present","rt":"5383.8999999762","correct":true,"confidence":2},{"trial_n":24,"span":10,"encoder":"5934837707","distractor":"5934837007","target":"absent","response":"absent","rt":"4105.8000000119","correct":true,"confidence":2},{"trial_n":25,"span":10,"encoder":"5582513732","distractor":"4582513732","target":"absent","response":"absent","rt":"5419","correct":true,"confidence":3},{"trial_n":26,"span":11,"encoder":"97871665847","distractor":"97671665847","target":"present","response":"present","rt":"1803.6999999881","correct":true,"confidence":4},{"trial_n":27,"span":11,"encoder":"29417558610","distractor":"29417658610","target":"absent","response":"absent","rt":"5317.6000000238","correct":true,"confidence":3},{"trial_n":28,"span":12,"encoder":"111904235739","distractor":"111907235739","target":"present","response":"present","rt":"3480.6000000238","correct":true,"confidence":3},{"trial_n":29,"span":12,"encoder":"041239400907","distractor":"041233400907","target":"absent","response":"absent","rt":"6124.1999999881","correct":true,"confidence":3},{"trial_n":30,"span":13,"encoder":"2894177790459","distractor":"2894177760459","target":"present","response":"present","rt":"2480","correct":true,"confidence":3},{"trial_n":31,"span":13,"encoder":"8039421560168","distractor":"8039421570168","target":"absent","response":"present","rt":"5502.1000000238","correct":false,"confidence":2},{"trial_n":32,"span":12,"encoder":"049413966674","distractor":"069413966674","target":"absent","response":"present","rt":"2874.1999999881","correct":false,"confidence":3},{"trial_n":33,"span":11,"encoder":"96914553455","distractor":"96924553455","target":"present","response":"present","rt":"6627.6999999881","correct":true,"confidence":3},{"trial_n":34,"span":11,"encoder":"06975323498","distractor":"06975323448","target":"absent","response":"absent","rt":"6952.8999999762","correct":true,"confidence":4},{"trial_n":35,"span":12,"encoder":"736260308956","distractor":"736260309956","target":"absent","response":"absent","rt":"2325.3999999762","correct":true,"confidence":5},{"trial_n":36,"span":12,"encoder":"836757636356","distractor":"886757636356","target":"absent","response":"absent","rt":"6777.9000000358","correct":true,"confidence":2},{"trial_n":37,"span":13,"encoder":"6362483353944","distractor":"7362483353944","target":"present","response":"present","rt":"5332.5999999642","correct":true,"confidence":3},{"trial_n":38,"span":13,"encoder":"0893367806635","distractor":"0893667806635","target":"absent","response":"absent","rt":"5307.7000000477","correct":true,"confidence":3},{"trial_n":39,"span":14,"encoder":"00802673944198","distractor":"60802673944198","target":"present","response":"present","rt":"2954.3000000119","correct":true,"confidence":4},{"trial_n":40,"span":14,"encoder":"22741616145777","distractor":"22731616145777","target":"present","response":"present","rt":"2477.5","correct":true,"confidence":1},{"trial_n":41,"span":15,"encoder":"478914188477695","distractor":"478914988477695","target":"absent","response":"absent","rt":"6217.3000000119","correct":true,"confidence":4},{"trial_n":42,"span":15,"encoder":"495129681888201","distractor":"495129681888501","target":"present","response":"present","rt":"8743.5","correct":true,"confidence":5},{"trial_n":43,"span":16,"encoder":"2617770299747895","distractor":"4617770299747895","target":"absent","response":"present","rt":"8009.1999999881","correct":false,"confidence":3},{"trial_n":44,"span":15,"encoder":"216746629727931","distractor":"216746629827931","target":"present","response":"absent","rt":"5995.1999999881","correct":false,"confidence":4},{"trial_n":45,"span":14,"encoder":"16011237835351","distractor":"06011237835351","target":"present","response":"absent","rt":"9573.5999999642","correct":false,"confidence":3},{"trial_n":46,"span":13,"encoder":"6111309488413","distractor":"6117309488413","target":"present","response":"absent","rt":"8036.5","correct":false,"confidence":3},{"trial_n":47,"span":12,"encoder":"393244582517","distractor":"393244542517","target":"absent","response":"present","rt":"2673.8999999762","correct":false,"confidence":3},{"trial_n":48,"span":11,"encoder":"47965401715","distractor":"47365401715","target":"absent","response":"present","rt":"3839.5999999642","correct":false,"confidence":4},{"trial_n":49,"span":10,"encoder":"2896776103","distractor":"2896976103","target":"present","response":"present","rt":"5423.8000000119","correct":true,"confidence":4},{"trial_n":50,"span":10,"encoder":"2479118607","distractor":"2439118607","target":"absent","response":"present","rt":"3357.1999999881","correct":false,"confidence":3},{"trial_n":51,"span":9,"encoder":"044256880","distractor":"094256880","target":"present","response":"present","rt":"2782.0999999642","correct":true,"confidence":4},{"trial_n":52,"span":9,"encoder":"248763569","distractor":"248733569","target":"present","response":"absent","rt":"6623.8000000119","correct":false,"confidence":3},{"trial_n":53,"span":8,"encoder":"36620456","distractor":"38620456","target":"present","response":"present","rt":"2587","correct":true,"confidence":4},{"trial_n":54,"span":8,"encoder":"86796532","distractor":"86796132","target":"present","response":"present","rt":"3407.5","correct":true,"confidence":5},{"trial_n":55,"span":9,"encoder":"842697278","distractor":"841697278","target":"absent","response":"absent","rt":"2620.5","correct":true,"confidence":4},{"trial_n":56,"span":9,"encoder":"075500709","distractor":"575500709","target":"present","response":"present","rt":"4533.0999999642","correct":true,"confidence":4},{"trial_n":57,"span":10,"encoder":"0024168238","distractor":"0024168738","target":"present","response":"absent","rt":"1978.8000000119","correct":false,"confidence":4},{"trial_n":58,"span":9,"encoder":"549744325","distractor":"546744325","target":"absent","response":"present","rt":"2884.2000000477","correct":false,"confidence":4},{"trial_n":59,"span":8,"encoder":"68730737","distractor":"68730736","target":"absent","response":"absent","rt":"7552.3999999762","correct":true,"confidence":3},{"trial_n":60,"span":8,"encoder":"65309611","distractor":"65303611","target":"absent","response":"present","rt":"5478.8000000119","correct":false,"confidence":2},{"trial_n":61,"span":7,"encoder":"9507186","distractor":"9507686","target":"absent","response":"absent","rt":"4642.1999999881","correct":true,"confidence":4},{"trial_n":62,"span":7,"encoder":"3494321","distractor":"4494321","target":"absent","response":"absent","rt":"2127.4000000358","correct":true,"confidence":4},{"trial_n":63,"span":8,"encoder":"92166304","distractor":"96166304","target":"present","response":"absent","rt":"3848.7999999523","correct":false,"confidence":3},{"trial_n":64,"span":7,"encoder":"7739830","distractor":"7779830","target":"absent","response":"absent","rt":"3333.5","correct":true,"confidence":3},{"trial_n":65,"span":7,"encoder":"5117149","distractor":"5117159","target":"absent","response":"absent","rt":"5176.6999999881","correct":true,"confidence":4},{"trial_n":66,"span":8,"encoder":"74752799","distractor":"74752793","target":"absent","response":"absent","rt":"1262.2999999523","correct":true,"confidence":5},{"trial_n":67,"span":8,"encoder":"32687786","distractor":"32687486","target":"present","response":"present","rt":"3162.4000000358","correct":true,"confidence":4},{"trial_n":68,"span":9,"encoder":"556968383","distractor":"556968783","target":"present","response":"present","rt":"4654.3999999762","correct":true,"confidence":3},{"trial_n":69,"span":9,"encoder":"991989260","distractor":"991989360","target":"present","response":"present","rt":"4307.8999999762","correct":true,"confidence":2},{"trial_n":70,"span":10,"encoder":"2358871319","distractor":"2358875319","target":"present","response":"present","rt":"2210","correct":true,"confidence":4},{"trial_n":71,"span":8,"encoder":"33930559","distractor":"33930459","target":"present","response":"present","rt":"3193.5","correct":true,"confidence":-1},{"trial_n":72,"span":8,"encoder":"04585778","distractor":"04585078","target":"present","response":"present","rt":"1772.7999999523","correct":true,"confidence":-1},{"trial_n":73,"span":9,"encoder":"028403597","distractor":"028408597","target":"absent","response":"absent","rt":"3540.8000000119","correct":true,"confidence":-1},{"trial_n":74,"span":9,"encoder":"515017162","distractor":"415017162","target":"absent","response":"absent","rt":"4300.6000000238","correct":true,"confidence":-1},{"trial_n":75,"span":10,"encoder":"6349371589","distractor":"6349370589","target":"present","response":"present","rt":"3467.3000000119","correct":true,"confidence":-1},{"trial_n":76,"span":10,"encoder":"7933200823","distractor":"7933200223","target":"absent","response":"absent","rt":"4431.1999999881","correct":true,"confidence":-1},{"trial_n":77,"span":11,"encoder":"09993376661","distractor":"09993376665","target":"absent","response":"absent","rt":"1718.1000000238","correct":true,"confidence":-1},{"trial_n":78,"span":11,"encoder":"92621712805","distractor":"92621712605","target":"present","response":"absent","rt":"4635","correct":false,"confidence":-1},{"trial_n":79,"span":10,"encoder":"4923555192","distractor":"4927555192","target":"present","response":"absent","rt":"4050.8000000119","correct":false,"confidence":-1},{"trial_n":80,"span":9,"encoder":"073457365","distractor":"073459365","target":"present","response":"present","rt":"5518.5","correct":true,"confidence":-1},{"trial_n":81,"span":9,"encoder":"347964077","distractor":"347964097","target":"present","response":"present","rt":"1612.4000000358","correct":true,"confidence":-1},{"trial_n":82,"span":10,"encoder":"2712026246","distractor":"7712026246","target":"present","response":"present","rt":"3774.0999999642","correct":true,"confidence":-1},{"trial_n":83,"span":10,"encoder":"9647657904","distractor":"9647657908","target":"present","response":"present","rt":"1447.8000000119","correct":true,"confidence":-1},{"trial_n":84,"span":11,"encoder":"19297389675","distractor":"19297389875","target":"present","response":"present","rt":"1850.0999999642","correct":true,"confidence":-1},{"trial_n":85,"span":11,"encoder":"51712102967","distractor":"51712402967","target":"present","response":"present","rt":"2902.6999999881","correct":true,"confidence":-1},{"trial_n":86,"span":12,"encoder":"155773169774","distractor":"155773469774","target":"absent","response":"present","rt":"6306.3999999762","correct":false,"confidence":-1},{"trial_n":87,"span":11,"encoder":"12490679591","distractor":"17490679591","target":"absent","response":"present","rt":"3725.3000000119","correct":false,"confidence":-1},{"trial_n":88,"span":10,"encoder":"2667292346","distractor":"2667692346","target":"absent","response":"absent","rt":"4264.8999999762","correct":true,"confidence":-1},{"trial_n":89,"span":10,"encoder":"1925637324","distractor":"1925637328","target":"present","response":"present","rt":"2481.6999999881","correct":true,"confidence":-1},{"trial_n":90,"span":11,"encoder":"00854217875","distractor":"00754217875","target":"absent","response":"present","rt":"2173.6000000238","correct":false,"confidence":-1},{"trial_n":91,"span":10,"encoder":"3229995657","distractor":"0229995657","target":"present","response":"present","rt":"3338.5","correct":true,"confidence":5},{"trial_n":92,"span":10,"encoder":"1306266485","distractor":"1306256485","target":"absent","response":"absent","rt":"2651.3000000119","correct":true,"confidence":5},{"trial_n":93,"span":11,"encoder":"58653785265","distractor":"58553785265","target":"absent","response":"absent","rt":"4572.6999999881","correct":true,"confidence":3},{"trial_n":94,"span":11,"encoder":"91233957695","distractor":"91933957695","target":"present","response":"present","rt":"5526.9000000358","correct":true,"confidence":3},{"trial_n":95,"span":12,"encoder":"620913281124","distractor":"620913281154","target":"present","response":"present","rt":"1802","correct":true,"confidence":5},{"trial_n":96,"span":12,"encoder":"920314501346","distractor":"920314501376","target":"present","response":"present","rt":"2388.3000000119","correct":true,"confidence":5},{"trial_n":97,"span":13,"encoder":"1202931406761","distractor":"1282931406761","target":"absent","response":"absent","rt":"9656.5","correct":true,"confidence":3},{"trial_n":98,"span":13,"encoder":"1923744494748","distractor":"1923744894748","target":"absent","response":"absent","rt":"7327","correct":true,"confidence":4},{"trial_n":99,"span":14,"encoder":"00355264491183","distractor":"02355264491183","target":"absent","response":"absent","rt":"9738.1999999881","correct":true,"confidence":2},{"trial_n":100,"span":14,"encoder":"48234188769469","distractor":"48234788769469","target":"present","response":"absent","rt":"11075.300000012","correct":false,"confidence":4},{"trial_n":101,"span":13,"encoder":"1005356805896","distractor":"1005356805846","target":"absent","response":"absent","rt":"2419.1000000238","correct":true,"confidence":5},{"trial_n":102,"span":13,"encoder":"1912670136047","distractor":"1912270136047","target":"present","response":"present","rt":"4172.8999999762","correct":true,"confidence":4},{"trial_n":103,"span":14,"encoder":"98151202092226","distractor":"98151202992226","target":"absent","response":"absent","rt":"2017","correct":true,"confidence":5},{"trial_n":104,"span":14,"encoder":"52811341760758","distractor":"59811341760758","target":"absent","response":"present","rt":"7840.3000000119","correct":false,"confidence":2},{"trial_n":105,"span":13,"encoder":"7471023731748","distractor":"7471023791748","target":"absent","response":"absent","rt":"10774.399999976","correct":true,"confidence":2},{"trial_n":106,"span":13,"encoder":"6680224374782","distractor":"6680224374182","target":"present","response":"present","rt":"4000.3999999762","correct":true,"confidence":3},{"trial_n":107,"span":14,"encoder":"87275765129475","distractor":"87271765129475","target":"present","response":"absent","rt":"16828.100000024","correct":false,"confidence":2},{"trial_n":108,"span":13,"encoder":"9409944410538","distractor":"9409944810538","target":"absent","response":"absent","rt":"4557.8000000119","correct":true,"confidence":5},{"trial_n":109,"span":13,"encoder":"6300602219301","distractor":"6300606219301","target":"present","response":"present","rt":"3617.6999999881","correct":true,"confidence":5},{"trial_n":110,"span":14,"encoder":"51305537520948","distractor":"51305537520940","target":"absent","response":"absent","rt":"2412.1999999881","correct":true,"confidence":5},{"trial_n":111,"span":14,"encoder":"91895224076441","distractor":"91895224876441","target":"present","response":"present","rt":"9634.3000000119","correct":true,"confidence":4},{"trial_n":112,"span":15,"encoder":"744870005060011","distractor":"744870055060011","target":"absent","response":"absent","rt":"2216.3999999762","correct":true,"confidence":4},{"trial_n":113,"span":15,"encoder":"602011325922260","distractor":"672011325922260","target":"absent","response":"present","rt":"7979.6000000238","correct":false,"confidence":1},{"trial_n":114,"span":14,"encoder":"97101785579767","distractor":"97101785579867","target":"absent","response":"absent","rt":"2189.3999999762","correct":true,"confidence":5},{"trial_n":115,"span":14,"encoder":"82905459766779","distractor":"82905459966779","target":"absent","response":"absent","rt":"5713.5999999642","correct":true,"confidence":3},{"trial_n":116,"span":15,"encoder":"725988466041897","distractor":"725488466041897","target":"present","response":"absent","rt":"12378.300000012","correct":false,"confidence":4},{"trial_n":117,"span":14,"encoder":"66818839480384","distractor":"66718839480384","target":"present","response":"absent","rt":"6879.2000000477","correct":false,"confidence":2},{"trial_n":118,"span":13,"encoder":"4896901039268","distractor":"0896901039268","target":"present","response":"present","rt":"4661.3000000119","correct":true,"confidence":3},{"trial_n":119,"span":13,"encoder":"0562562528010","distractor":"1562562528010","target":"present","response":"absent","rt":"6648.1000000238","correct":false,"confidence":2},{"trial_n":120,"span":12,"encoder":"392517479310","distractor":"392507479310","target":"absent","response":"absent","rt":"5543.6000000238","correct":true,"confidence":3},{"trial_n":121,"span":12,"encoder":"086490978639","distractor":"086490978839","target":"present","response":"present","rt":"2171.8999999762","correct":true,"confidence":5},{"trial_n":122,"span":13,"encoder":"5588742667412","distractor":"5588742667712","target":"absent","response":"absent","rt":"2811.2000000477","correct":true,"confidence":4},{"trial_n":123,"span":13,"encoder":"5141491332424","distractor":"6141491332424","target":"present","response":"absent","rt":"9786.1999999881","correct":false,"confidence":2},{"trial_n":124,"span":12,"encoder":"391179386948","distractor":"391179366948","target":"present","response":"present","rt":"7131.3999999762","correct":true,"confidence":3},{"trial_n":125,"span":12,"encoder":"985009278661","distractor":"985009276661","target":"absent","response":"absent","rt":"12663.800000012","correct":true,"confidence":3},{"trial_n":126,"span":13,"encoder":"2563570176075","distractor":"5563570176075","target":"absent","response":"absent","rt":"3821.8999999762","correct":true,"confidence":3},{"trial_n":127,"span":13,"encoder":"8166024287154","distractor":"8366024287154","target":"present","response":"present","rt":"6237.8999999762","correct":true,"confidence":1},{"trial_n":128,"span":14,"encoder":"35085158473503","distractor":"35088158473503","target":"present","response":"present","rt":"3983.8999999762","correct":true,"confidence":3},{"trial_n":129,"span":14,"encoder":"74375651047785","distractor":"74375657047785","target":"present","response":"present","rt":"8451.8000000119","correct":true,"confidence":1},{"trial_n":130,"span":15,"encoder":"030323329308369","distractor":"030323329308365","target":"absent","response":"absent","rt":"1670.3999999762","correct":true,"confidence":5},{"trial_n":131,"span":15,"encoder":"823540776899547","distractor":"824540776899547","target":"absent","response":"absent","rt":"5729.3000000119","correct":true,"confidence":2},{"trial_n":132,"span":16,"encoder":"0443123393386355","distractor":"0443123394386355","target":"absent","response":"absent","rt":"3845.5","correct":true,"confidence":3},{"trial_n":133,"span":16,"encoder":"9042285106942947","distractor":"9042985106942947","target":"absent","response":"present","rt":"4496.3999999762","correct":false,"confidence":2},{"trial_n":134,"span":15,"encoder":"497578992299420","distractor":"497578992239420","target":"absent","response":"absent","rt":"5836.8000000119","correct":true,"confidence":4},{"trial_n":135,"span":15,"encoder":"756504414617847","distractor":"756504414617887","target":"present","response":"present","rt":"1869.5","correct":true,"confidence":5},{"trial_n":136,"span":16,"encoder":"6718031854199469","distractor":"6718031854199869","target":"absent","response":"absent","rt":"3032.3999999762","correct":true,"confidence":3},{"trial_n":137,"span":16,"encoder":"3418040480402046","distractor":"3418040480405046","target":"present","response":"present","rt":"12125.699999988","correct":true,"confidence":1},{"trial_n":138,"span":17,"encoder":"72169769427904446","distractor":"70169769427904446","target":"present","response":"present","rt":"5353.3999999762","correct":true,"confidence":3},{"trial_n":139,"span":17,"encoder":"17565204057435300","distractor":"17565204058435300","target":"present","response":"present","rt":"4547.0999999642","correct":true,"confidence":3},{"trial_n":140,"span":18,"encoder":"275743851176392680","distractor":"275743871176392680","target":"absent","response":"absent","rt":"9796.6999999881","correct":true,"confidence":2}]