[{"trial_n":1,"min":25,"max":230,"target":"present","response":"absent","rt":6233.6999999881,"correct":false,"confidence":-1},{"trial_n":2,"min":25,"max":230,"target":"present","response":"present","rt":897.89999997616,"correct":true,"confidence":-1},{"trial_n":3,"min":25,"max":230,"target":"absent","response":"absent","rt":823.79999995232,"correct":true,"confidence":-1},{"trial_n":4,"min":41,"max":214,"target":"absent","response":"absent","rt":512.30000001192,"correct":true,"confidence":-1},{"trial_n":5,"min":41,"max":214,"target":"present","response":"present","rt":732.09999996424,"correct":true,"confidence":-1},{"trial_n":6,"min":57,"max":198,"target":"absent","response":"absent","rt":697.60000002384,"correct":true,"confidence":-1},{"trial_n":7,"min":57,"max":198,"target":"present","response":"absent","rt":575.30000001192,"correct":false,"confidence":-1},{"trial_n":8,"min":41,"max":214,"target":"absent","response":"absent","rt":545.60000002384,"correct":true,"confidence":-1},{"trial_n":9,"min":41,"max":214,"target":"present","response":"present","rt":618.80000001192,"correct":true,"confidence":-1},{"trial_n":10,"min":57,"max":198,"target":"present","response":"present","rt":457.39999997616,"correct":true,"confidence":-1},{"trial_n":11,"min":57,"max":198,"target":"present","response":"present","rt":514.30000001192,"correct":true,"confidence":-1},{"trial_n":12,"min":65,"max":190,"target":"absent","response":"absent","rt":795.90000003576,"correct":true,"confidence":-1},{"trial_n":13,"min":65,"max":190,"target":"present","response":"present","rt":676.10000002384,"correct":true,"confidence":-1},{"trial_n":14,"min":73,"max":182,"target":"absent","response":"absent","rt":691.10000002384,"correct":true,"confidence":-1},{"trial_n":15,"min":73,"max":182,"target":"absent","response":"absent","rt":1012.6999999881,"correct":true,"confidence":-1},{"trial_n":16,"min":81,"max":174,"target":"absent","response":"absent","rt":1037.3000000119,"correct":true,"confidence":-1},{"trial_n":17,"min":81,"max":174,"target":"absent","response":"absent","rt":504.5,"correct":true,"confidence":-1},{"trial_n":18,"min":89,"max":166,"target":"absent","response":"absent","rt":401.89999997616,"correct":true,"confidence":-1},{"trial_n":19,"min":89,"max":166,"target":"present","response":"present","rt":893.5,"correct":true,"confidence":-1},{"trial_n":20,"min":97,"max":158,"target":"absent","response":"absent","rt":472.5,"correct":true,"confidence":-1},{"trial_n":21,"min":97,"max":158,"target":"absent","response":"absent","rt":1266.1000000238,"correct":true,"confidence":2},{"trial_n":22,"min":101,"max":154,"target":"present","response":"absent","rt":686.59999996424,"correct":false,"confidence":4},{"trial_n":23,"min":97,"max":158,"target":"present","response":"present","rt":991.5,"correct":true,"confidence":3},{"trial_n":24,"min":97,"max":158,"target":"absent","response":"absent","rt":607.19999998808,"correct":true,"confidence":3},{"trial_n":25,"min":101,"max":154,"target":"absent","response":"present","rt":1035.8000000119,"correct":false,"confidence":2},{"trial_n":26,"min":97,"max":158,"target":"absent","response":"absent","rt":943.70000004768,"correct":true,"confidence":3},{"trial_n":27,"min":97,"max":158,"target":"present","response":"absent","rt":1090.6000000238,"correct":false,"confidence":3},{"trial_n":28,"min":93,"max":162,"target":"present","response":"absent","rt":672.69999998808,"correct":false,"confidence":4},{"trial_n":29,"min":89,"max":166,"target":"absent","response":"absent","rt":1558.6999999881,"correct":true,"confidence":3},{"trial_n":30,"min":89,"max":166,"target":"present","response":"present","rt":952.69999998808,"correct":true,"confidence":4},{"trial_n":31,"min":91,"max":164,"target":"absent","response":"absent","rt":1133.3000000119,"correct":true,"confidence":1},{"trial_n":32,"min":91,"max":164,"target":"present","response":"present","rt":1064.3999999762,"correct":true,"confidence":3},{"trial_n":33,"min":93,"max":162,"target":"absent","response":"absent","rt":1015.1999999881,"correct":true,"confidence":2},{"trial_n":34,"min":93,"max":162,"target":"present","response":"present","rt":1329.5999999642,"correct":true,"confidence":4},{"trial_n":35,"min":95,"max":160,"target":"present","response":"present","rt":2001.3000000119,"correct":true,"confidence":3},{"trial_n":36,"min":95,"max":160,"target":"present","response":"present","rt":2640.5,"correct":true,"confidence":4},{"trial_n":37,"min":97,"max":158,"target":"present","response":"absent","rt":1455,"correct":false,"confidence":2},{"trial_n":38,"min":95,"max":160,"target":"present","response":"absent","rt":1180.8999999762,"correct":false,"confidence":2},{"trial_n":39,"min":93,"max":162,"target":"present","response":"absent","rt":1144.8999999762,"correct":false,"confidence":4},{"trial_n":40,"min":91,"max":164,"target":"present","response":"present","rt":1010.1999999881,"correct":true,"confidence":2},{"trial_n":41,"min":91,"max":164,"target":"absent","response":"absent","rt":2437.6999999881,"correct":true,"confidence":3},{"trial_n":42,"min":92,"max":163,"target":"present","response":"present","rt":3529.9000000358,"correct":true,"confidence":3},{"trial_n":43,"min":92,"max":163,"target":"present","response":"absent","rt":692.79999995232,"correct":false,"confidence":3},{"trial_n":44,"min":91,"max":164,"target":"present","response":"present","rt":743.19999998808,"correct":true,"confidence":3},{"trial_n":45,"min":91,"max":164,"target":"present","response":"present","rt":825.39999997616,"correct":true,"confidence":5},{"trial_n":46,"min":92,"max":163,"target":"present","response":"absent","rt":1231.3000000119,"correct":false,"confidence":3},{"trial_n":47,"min":91,"max":164,"target":"present","response":"present","rt":758.89999997616,"correct":true,"confidence":5},{"trial_n":48,"min":91,"max":164,"target":"absent","response":"present","rt":1527.5,"correct":false,"confidence":3},{"trial_n":49,"min":90,"max":165,"target":"absent","response":"present","rt":2299.5,"correct":false,"confidence":3},{"trial_n":50,"min":89,"max":166,"target":"absent","response":"absent","rt":1158,"correct":true,"confidence":3},{"trial_n":51,"min":89,"max":166,"target":"absent","response":"present","rt":1402,"correct":false,"confidence":2},{"trial_n":52,"min":88,"max":167,"target":"present","response":"absent","rt":876.19999998808,"correct":false,"confidence":3},{"trial_n":53,"min":87,"max":168,"target":"present","response":"absent","rt":852.19999998808,"correct":false,"confidence":4},{"trial_n":54,"min":86,"max":169,"target":"present","response":"present","rt":763.59999996424,"correct":true,"confidence":4},{"trial_n":55,"min":86,"max":169,"target":"absent","response":"present","rt":789.40000003576,"correct":false,"confidence":2},{"trial_n":56,"min":85,"max":170,"target":"absent","response":"absent","rt":859.69999998808,"correct":true,"confidence":4},{"trial_n":57,"min":85,"max":170,"target":"absent","response":"absent","rt":839.5,"correct":true,"confidence":3},{"trial_n":58,"min":86,"max":169,"target":"present","response":"present","rt":921.10000002384,"correct":true,"confidence":2},{"trial_n":59,"min":86,"max":169,"target":"absent","response":"absent","rt":1215,"correct":true,"confidence":3},{"trial_n":60,"min":87,"max":168,"target":"absent","response":"absent","rt":1563.3000000119,"correct":true,"confidence":3},{"trial_n":61,"min":87,"max":168,"target":"present","response":"present","rt":932.69999998808,"correct":true,"confidence":3},{"trial_n":62,"min":88,"max":167,"target":"absent","response":"present","rt":1205.6000000238,"correct":false,"confidence":2},{"trial_n":63,"min":87,"max":168,"target":"present","response":"absent","rt":874.69999998808,"correct":false,"confidence":3},{"trial_n":64,"min":86,"max":169,"target":"present","response":"present","rt":1244.9000000358,"correct":true,"confidence":3},{"trial_n":65,"min":86,"max":169,"target":"absent","response":"absent","rt":852.59999996424,"correct":true,"confidence":4},{"trial_n":66,"min":87,"max":168,"target":"present","response":"absent","rt":1499.3000000119,"correct":false,"confidence":2},{"trial_n":67,"min":86,"max":169,"target":"absent","response":"absent","rt":1046.8000000119,"correct":true,"confidence":3},{"trial_n":68,"min":86,"max":169,"target":"absent","response":"absent","rt":923.5,"correct":true,"confidence":5},{"trial_n":69,"min":87,"max":168,"target":"absent","response":"absent","rt":757,"correct":true,"confidence":4},{"trial_n":70,"min":87,"max":168,"target":"absent","response":"absent","rt":1223,"correct":true,"confidence":3},{"trial_n":71,"min":41,"max":214,"target":"present","response":"present","rt":1341.3000000119,"correct":true,"confidence":-1},{"trial_n":72,"min":41,"max":214,"target":"present","response":"present","rt":774,"correct":true,"confidence":-1},{"trial_n":73,"min":57,"max":198,"target":"absent","response":"absent","rt":982.30000001192,"correct":true,"confidence":-1},{"trial_n":74,"min":57,"max":198,"target":"absent","response":"absent","rt":860.5,"correct":true,"confidence":-1},{"trial_n":75,"min":73,"max":182,"target":"present","response":"present","rt":345.80000001192,"correct":true,"confidence":-1},{"trial_n":76,"min":73,"max":182,"target":"present","response":"present","rt":511.19999998808,"correct":true,"confidence":-1},{"trial_n":77,"min":89,"max":166,"target":"present","response":"present","rt":309.5,"correct":true,"confidence":-1},{"trial_n":78,"min":89,"max":166,"target":"absent","response":"absent","rt":617,"correct":true,"confidence":-1},{"trial_n":79,"min":105,"max":150,"target":"present","response":"present","rt":531.89999997616,"correct":true,"confidence":-1},{"trial_n":80,"min":105,"max":150,"target":"present","response":"present","rt":514.30000001192,"correct":true,"confidence":-1},{"trial_n":81,"min":113,"max":142,"target":"absent","response":"present","rt":431.10000002384,"correct":false,"confidence":-1},{"trial_n":82,"min":105,"max":150,"target":"absent","response":"present","rt":390.30000001192,"correct":false,"confidence":-1},{"trial_n":83,"min":97,"max":158,"target":"absent","response":"absent","rt":359.89999997616,"correct":true,"confidence":-1},{"trial_n":84,"min":97,"max":158,"target":"present","response":"absent","rt":496.69999998808,"correct":false,"confidence":-1},{"trial_n":85,"min":89,"max":166,"target":"absent","response":"present","rt":264.40000003576,"correct":false,"confidence":-1},{"trial_n":86,"min":81,"max":174,"target":"present","response":"present","rt":489.39999997616,"correct":true,"confidence":-1},{"trial_n":87,"min":81,"max":174,"target":"present","response":"present","rt":141.09999996424,"correct":true,"confidence":-1},{"trial_n":88,"min":89,"max":166,"target":"present","response":"absent","rt":365.90000003576,"correct":false,"confidence":-1},{"trial_n":89,"min":81,"max":174,"target":"present","response":"present","rt":236.60000002384,"correct":true,"confidence":-1},{"trial_n":90,"min":81,"max":174,"target":"present","response":"present","rt":242,"correct":true,"confidence":-1},{"trial_n":91,"min":85,"max":170,"target":"absent","response":"present","rt":393.69999998808,"correct":false,"confidence":4},{"trial_n":92,"min":81,"max":174,"target":"present","response":"present","rt":580.80000001192,"correct":true,"confidence":3},{"trial_n":93,"min":81,"max":174,"target":"present","response":"present","rt":360,"correct":true,"confidence":4},{"trial_n":94,"min":85,"max":170,"target":"present","response":"present","rt":1401.8000000119,"correct":true,"confidence":1},{"trial_n":95,"min":85,"max":170,"target":"present","response":"present","rt":397.89999997616,"correct":true,"confidence":4},{"trial_n":96,"min":89,"max":166,"target":"absent","response":"absent","rt":961.5,"correct":true,"confidence":1},{"trial_n":97,"min":89,"max":166,"target":"absent","response":"absent","rt":841.60000002384,"correct":true,"confidence":1},{"trial_n":98,"min":93,"max":162,"target":"present","response":"present","rt":476,"correct":true,"confidence":1},{"trial_n":99,"min":93,"max":162,"target":"present","response":"absent","rt":1378.1000000238,"correct":false,"confidence":3},{"trial_n":100,"min":89,"max":166,"target":"present","response":"present","rt":349.10000002384,"correct":true,"confidence":3},{"trial_n":101,"min":89,"max":166,"target":"absent","response":"present","rt":893,"correct":false,"confidence":1},{"trial_n":102,"min":87,"max":168,"target":"absent","response":"absent","rt":702.39999997616,"correct":true,"confidence":2},{"trial_n":103,"min":87,"max":168,"target":"absent","response":"absent","rt":1611.3000000119,"correct":true,"confidence":2},{"trial_n":104,"min":89,"max":166,"target":"absent","response":"absent","rt":926,"correct":true,"confidence":3},{"trial_n":105,"min":89,"max":166,"target":"present","response":"present","rt":205.59999996424,"correct":true,"confidence":4},{"trial_n":106,"min":91,"max":164,"target":"present","response":"absent","rt":960.60000002384,"correct":false,"confidence":3},{"trial_n":107,"min":89,"max":166,"target":"present","response":"present","rt":412.30000001192,"correct":true,"confidence":3},{"trial_n":108,"min":89,"max":166,"target":"present","response":"present","rt":665.19999998808,"correct":true,"confidence":2},{"trial_n":109,"min":91,"max":164,"target":"present","response":"present","rt":500.80000001192,"correct":true,"confidence":1},{"trial_n":110,"min":91,"max":164,"target":"present","response":"present","rt":672.39999997616,"correct":true,"confidence":4},{"trial_n":111,"min":92,"max":163,"target":"absent","response":"present","rt":710,"correct":false,"confidence":3},{"trial_n":112,"min":91,"max":164,"target":"absent","response":"absent","rt":861.90000003576,"correct":true,"confidence":3},{"trial_n":113,"min":91,"max":164,"target":"absent","response":"present","rt":726.39999997616,"correct":false,"confidence":2},{"trial_n":114,"min":90,"max":165,"target":"absent","response":"present","rt":497.69999998808,"correct":false,"confidence":1},{"trial_n":115,"min":89,"max":166,"target":"present","response":"absent","rt":1437.1999999881,"correct":false,"confidence":1},{"trial_n":116,"min":88,"max":167,"target":"absent","response":"present","rt":762.40000003576,"correct":false,"confidence":3},{"trial_n":117,"min":87,"max":168,"target":"absent","response":"absent","rt":1629.9000000358,"correct":true,"confidence":2},{"trial_n":118,"min":87,"max":168,"target":"present","response":"present","rt":297.5,"correct":true,"confidence":1},{"trial_n":119,"min":88,"max":167,"target":"absent","response":"present","rt":518.69999998808,"correct":false,"confidence":1},{"trial_n":120,"min":87,"max":168,"target":"absent","response":"absent","rt":399.19999998808,"correct":true,"confidence":3},{"trial_n":121,"min":87,"max":168,"target":"present","response":"present","rt":230,"correct":true,"confidence":4},{"trial_n":122,"min":88,"max":167,"target":"present","response":"absent","rt":442,"correct":false,"confidence":1},{"trial_n":123,"min":87,"max":168,"target":"absent","response":"present","rt":533.89999997616,"correct":false,"confidence":3},{"trial_n":124,"min":86,"max":169,"target":"absent","response":"present","rt":1592.5,"correct":false,"confidence":3},{"trial_n":125,"min":85,"max":170,"target":"present","response":"present","rt":2056.1999999881,"correct":true,"confidence":3},{"trial_n":126,"min":85,"max":170,"target":"absent","response":"absent","rt":564.30000001192,"correct":true,"confidence":1},{"trial_n":127,"min":86,"max":169,"target":"present","response":"absent","rt":1009.1999999881,"correct":false,"confidence":2},{"trial_n":128,"min":85,"max":170,"target":"absent","response":"absent","rt":548.70000004768,"correct":true,"confidence":2},{"trial_n":129,"min":85,"max":170,"target":"absent","response":"absent","rt":1234.2999999523,"correct":true,"confidence":4},{"trial_n":130,"min":86,"max":169,"target":"absent","response":"absent","rt":1263.6999999881,"correct":true,"confidence":3},{"trial_n":131,"min":86,"max":169,"target":"present","response":"present","rt":225.80000001192,"correct":true,"confidence":3},{"trial_n":132,"min":87,"max":168,"target":"absent","response":"present","rt":1257.5999999642,"correct":false,"confidence":3},{"trial_n":133,"min":86,"max":169,"target":"present","response":"present","rt":183.60000002384,"correct":true,"confidence":4},{"trial_n":134,"min":86,"max":169,"target":"absent","response":"absent","rt":1399.5999999642,"correct":true,"confidence":3},{"trial_n":135,"min":87,"max":168,"target":"absent","response":"present","rt":683.19999998808,"correct":false,"confidence":2},{"trial_n":136,"min":86,"max":169,"target":"absent","response":"present","rt":904.19999998808,"correct":false,"confidence":1},{"trial_n":137,"min":85,"max":170,"target":"absent","response":"present","rt":383.80000001192,"correct":false,"confidence":1},{"trial_n":138,"min":84,"max":171,"target":"present","response":"absent","rt":487.60000002384,"correct":false,"confidence":1},{"trial_n":139,"min":83,"max":172,"target":"absent","response":"present","rt":917.39999997616,"correct":false,"confidence":1},{"trial_n":140,"min":82,"max":173,"target":"present","response":"present","rt":1166.7000000477,"correct":true,"confidence":1}]