[{"trial_n":1,"n_dots":4.25,"target":"left","response":"left","rt":3878.2999999821,"correct":true,"confidence":-1},{"trial_n":2,"n_dots":4.25,"target":"right","response":"left","rt":1000.2000000179,"correct":false,"confidence":-1},{"trial_n":3,"n_dots":4.65,"target":"right","response":"right","rt":1564.599999994,"correct":true,"confidence":-1},{"trial_n":4,"n_dots":4.65,"target":"left","response":"left","rt":545.70000001788,"correct":true,"confidence":-1},{"trial_n":5,"n_dots":4.25,"target":"right","response":"right","rt":554.29999998212,"correct":true,"confidence":-1},{"trial_n":6,"n_dots":4.25,"target":"right","response":"right","rt":676.20000001788,"correct":true,"confidence":-1},{"trial_n":7,"n_dots":3.85,"target":"right","response":"left","rt":608.20000001788,"correct":false,"confidence":-1},{"trial_n":8,"n_dots":4.05,"target":"right","response":"right","rt":697.5,"correct":true,"confidence":-1},{"trial_n":9,"n_dots":4.05,"target":"left","response":"left","rt":494.19999998808,"correct":true,"confidence":-1},{"trial_n":10,"n_dots":3.85,"target":"right","response":"right","rt":477.70000001788,"correct":true,"confidence":-1},{"trial_n":11,"n_dots":3.85,"target":"left","response":"left","rt":409.70000001788,"correct":true,"confidence":-1},{"trial_n":12,"n_dots":3.65,"target":"left","response":"left","rt":446.10000002384,"correct":true,"confidence":-1},{"trial_n":13,"n_dots":3.65,"target":"right","response":"right","rt":294.40000000596,"correct":true,"confidence":-1},{"trial_n":14,"n_dots":3.55,"target":"left","response":"left","rt":403.69999998808,"correct":true,"confidence":-1},{"trial_n":15,"n_dots":3.55,"target":"left","response":"left","rt":299.5,"correct":true,"confidence":-1},{"trial_n":16,"n_dots":3.45,"target":"right","response":"right","rt":723.19999998808,"correct":true,"confidence":-1},{"trial_n":17,"n_dots":3.45,"target":"right","response":"left","rt":367,"correct":false,"confidence":-1},{"trial_n":18,"n_dots":3.55,"target":"right","response":"right","rt":384.09999999404,"correct":true,"confidence":-1},{"trial_n":19,"n_dots":3.55,"target":"left","response":"left","rt":279.20000001788,"correct":true,"confidence":-1},{"trial_n":20,"n_dots":3.45,"target":"right","response":"right","rt":310.89999997616,"correct":true,"confidence":-1},{"trial_n":21,"n_dots":3.45,"target":"right","response":"left","rt":495.30000001192,"correct":false,"confidence":2},{"trial_n":22,"n_dots":3.55,"target":"right","response":"right","rt":1195.3000000119,"correct":true,"confidence":1},{"trial_n":23,"n_dots":3.55,"target":"left","response":"left","rt":392.60000002384,"correct":true,"confidence":3},{"trial_n":24,"n_dots":3.45,"target":"right","response":"left","rt":297.19999998808,"correct":false,"confidence":2},{"trial_n":25,"n_dots":3.55,"target":"right","response":"right","rt":1326.6000000238,"correct":true,"confidence":1},{"trial_n":26,"n_dots":3.55,"target":"right","response":"left","rt":428.89999997616,"correct":false,"confidence":2},{"trial_n":27,"n_dots":3.65,"target":"right","response":"left","rt":677.30000001192,"correct":false,"confidence":1},{"trial_n":28,"n_dots":3.75,"target":"left","response":"left","rt":349.20000001788,"correct":true,"confidence":3},{"trial_n":29,"n_dots":3.75,"target":"left","response":"left","rt":350.59999999404,"correct":true,"confidence":3},{"trial_n":30,"n_dots":3.65,"target":"right","response":"right","rt":307.30000001192,"correct":true,"confidence":3},{"trial_n":31,"n_dots":3.65,"target":"right","response":"left","rt":1963.5,"correct":false,"confidence":2},{"trial_n":32,"n_dots":3.75,"target":"left","response":"left","rt":362.80000001192,"correct":true,"confidence":2},{"trial_n":33,"n_dots":3.75,"target":"right","response":"right","rt":684.70000001788,"correct":true,"confidence":3},{"trial_n":34,"n_dots":3.65,"target":"left","response":"left","rt":226,"correct":true,"confidence":3},{"trial_n":35,"n_dots":3.65,"target":"left","response":"left","rt":233.40000000596,"correct":true,"confidence":3},{"trial_n":36,"n_dots":3.55,"target":"right","response":"left","rt":384,"correct":false,"confidence":2},{"trial_n":37,"n_dots":3.65,"target":"left","response":"left","rt":947.69999998808,"correct":true,"confidence":2},{"trial_n":38,"n_dots":3.65,"target":"left","response":"left","rt":235.40000000596,"correct":true,"confidence":3},{"trial_n":39,"n_dots":3.55,"target":"right","response":"left","rt":208.30000001192,"correct":false,"confidence":4},{"trial_n":40,"n_dots":3.65,"target":"right","response":"right","rt":1062.5,"correct":true,"confidence":2},{"trial_n":41,"n_dots":3.65,"target":"right","response":"right","rt":407.40000000596,"correct":true,"confidence":3},{"trial_n":42,"n_dots":3.55,"target":"right","response":"right","rt":757.5,"correct":true,"confidence":2},{"trial_n":43,"n_dots":3.55,"target":"right","response":"left","rt":2445.5,"correct":false,"confidence":1},{"trial_n":44,"n_dots":3.65,"target":"right","response":"left","rt":403.70000001788,"correct":false,"confidence":2},{"trial_n":45,"n_dots":3.75,"target":"right","response":"right","rt":1067.900000006,"correct":true,"confidence":1},{"trial_n":46,"n_dots":3.75,"target":"left","response":"left","rt":1432.400000006,"correct":true,"confidence":4},{"trial_n":47,"n_dots":3.65,"target":"left","response":"left","rt":2847.599999994,"correct":true,"confidence":3},{"trial_n":48,"n_dots":3.65,"target":"right","response":"right","rt":1260.400000006,"correct":true,"confidence":3},{"trial_n":49,"n_dots":3.55,"target":"right","response":"left","rt":3440.5,"correct":false,"confidence":1},{"trial_n":50,"n_dots":3.65,"target":"right","response":"right","rt":976.40000000596,"correct":true,"confidence":2},{"trial_n":51,"n_dots":3.65,"target":"right","response":"right","rt":587.19999998808,"correct":true,"confidence":3},{"trial_n":52,"n_dots":3.55,"target":"left","response":"left","rt":593.5,"correct":true,"confidence":3},{"trial_n":53,"n_dots":3.55,"target":"left","response":"left","rt":2430.2000000179,"correct":true,"confidence":3},{"trial_n":54,"n_dots":3.45,"target":"left","response":"left","rt":511.79999998212,"correct":true,"confidence":3},{"trial_n":55,"n_dots":3.45,"target":"left","response":"left","rt":1103.5,"correct":true,"confidence":3},{"trial_n":56,"n_dots":3.35,"target":"left","response":"left","rt":685.5,"correct":true,"confidence":3},{"trial_n":57,"n_dots":3.35,"target":"left","response":"left","rt":552,"correct":true,"confidence":3},{"trial_n":58,"n_dots":3.25,"target":"left","response":"left","rt":1378.7000000179,"correct":true,"confidence":3},{"trial_n":59,"n_dots":3.25,"target":"left","response":"left","rt":417.30000001192,"correct":true,"confidence":4},{"trial_n":60,"n_dots":3.15,"target":"left","response":"left","rt":2026.3000000119,"correct":true,"confidence":3},{"trial_n":61,"n_dots":3.15,"target":"left","response":"left","rt":1550.900000006,"correct":true,"confidence":3},{"trial_n":62,"n_dots":3.05,"target":"right","response":"right","rt":683,"correct":true,"confidence":2},{"trial_n":63,"n_dots":3.05,"target":"left","response":"left","rt":1047.599999994,"correct":true,"confidence":3},{"trial_n":64,"n_dots":2.95,"target":"right","response":"left","rt":341.59999999404,"correct":false,"confidence":3},{"trial_n":65,"n_dots":3.05,"target":"right","response":"right","rt":2332.6999999881,"correct":true,"confidence":3},{"trial_n":66,"n_dots":3.05,"target":"right","response":"left","rt":5317,"correct":false,"confidence":3},{"trial_n":67,"n_dots":3.15,"target":"left","response":"left","rt":2773.2999999821,"correct":true,"confidence":3},{"trial_n":68,"n_dots":3.15,"target":"left","response":"left","rt":318.70000001788,"correct":true,"confidence":3},{"trial_n":69,"n_dots":3.05,"target":"right","response":"left","rt":1304.2000000179,"correct":false,"confidence":1},{"trial_n":70,"n_dots":3.15,"target":"left","response":"left","rt":643,"correct":true,"confidence":2},{"trial_n":71,"n_dots":3.15,"target":"right","response":"right","rt":407.69999998808,"correct":true,"confidence":3},{"trial_n":72,"n_dots":3.05,"target":"left","response":"left","rt":1445.3000000119,"correct":true,"confidence":2},{"trial_n":73,"n_dots":3.05,"target":"left","response":"left","rt":377.20000001788,"correct":true,"confidence":3},{"trial_n":74,"n_dots":2.95,"target":"right","response":"left","rt":1011.7999999821,"correct":false,"confidence":1},{"trial_n":75,"n_dots":3.05,"target":"right","response":"right","rt":361.79999998212,"correct":true,"confidence":2},{"trial_n":76,"n_dots":3.05,"target":"right","response":"left","rt":644.90000000596,"correct":false,"confidence":2},{"trial_n":77,"n_dots":3.15,"target":"right","response":"left","rt":1440.7000000179,"correct":false,"confidence":2},{"trial_n":78,"n_dots":3.25,"target":"left","response":"left","rt":485.29999998212,"correct":true,"confidence":3},{"trial_n":79,"n_dots":3.25,"target":"right","response":"right","rt":363,"correct":true,"confidence":3},{"trial_n":80,"n_dots":3.15,"target":"right","response":"right","rt":1668.1999999881,"correct":true,"confidence":3},{"trial_n":81,"n_dots":3.15,"target":"right","response":"right","rt":604,"correct":true,"confidence":2},{"trial_n":82,"n_dots":3.05,"target":"right","response":"right","rt":633.5,"correct":true,"confidence":2},{"trial_n":83,"n_dots":3.05,"target":"left","response":"right","rt":576.69999998808,"correct":false,"confidence":2},{"trial_n":84,"n_dots":3.15,"target":"left","response":"left","rt":1203.400000006,"correct":true,"confidence":3},{"trial_n":85,"n_dots":3.15,"target":"right","response":"left","rt":426.5,"correct":false,"confidence":2},{"trial_n":86,"n_dots":3.25,"target":"right","response":"right","rt":766.90000000596,"correct":true,"confidence":1},{"trial_n":87,"n_dots":3.25,"target":"left","response":"left","rt":1362.900000006,"correct":true,"confidence":3},{"trial_n":88,"n_dots":3.15,"target":"left","response":"left","rt":569.5,"correct":true,"confidence":3},{"trial_n":89,"n_dots":3.15,"target":"right","response":"left","rt":1021.7999999821,"correct":false,"confidence":2},{"trial_n":90,"n_dots":3.25,"target":"left","response":"left","rt":700.59999999404,"correct":true,"confidence":3},{"trial_n":91,"n_dots":3.25,"target":"left","response":"right","rt":314,"correct":false,"confidence":2},{"trial_n":92,"n_dots":3.35,"target":"left","response":"left","rt":384.69999998808,"correct":true,"confidence":2},{"trial_n":93,"n_dots":3.35,"target":"left","response":"left","rt":330.90000000596,"correct":true,"confidence":2},{"trial_n":94,"n_dots":3.25,"target":"right","response":"right","rt":1167.400000006,"correct":true,"confidence":2},{"trial_n":95,"n_dots":3.25,"target":"left","response":"left","rt":392.60000002384,"correct":true,"confidence":2},{"trial_n":96,"n_dots":3.15,"target":"right","response":"right","rt":977.90000000596,"correct":true,"confidence":2},{"trial_n":97,"n_dots":3.15,"target":"left","response":"left","rt":1538.5,"correct":true,"confidence":2},{"trial_n":98,"n_dots":3.05,"target":"right","response":"left","rt":397.80000001192,"correct":false,"confidence":2},{"trial_n":99,"n_dots":3.15,"target":"left","response":"left","rt":991,"correct":true,"confidence":2},{"trial_n":100,"n_dots":3.15,"target":"right","response":"right","rt":809.59999999404,"correct":true,"confidence":1},{"trial_n":101,"n_dots":3.05,"target":"left","response":"left","rt":596.30000001192,"correct":true,"confidence":3},{"trial_n":102,"n_dots":3.05,"target":"right","response":"right","rt":380.69999998808,"correct":true,"confidence":2},{"trial_n":103,"n_dots":2.95,"target":"left","response":"left","rt":55.199999988079,"correct":true,"confidence":3},{"trial_n":104,"n_dots":2.95,"target":"left","response":"right","rt":86.799999982119,"correct":false,"confidence":3},{"trial_n":105,"n_dots":3.05,"target":"left","response":"left","rt":2026.6999999881,"correct":true,"confidence":2},{"trial_n":106,"n_dots":3.05,"target":"right","response":"right","rt":427.39999997616,"correct":true,"confidence":2},{"trial_n":107,"n_dots":2.95,"target":"left","response":"left","rt":414.90000000596,"correct":true,"confidence":1},{"trial_n":108,"n_dots":2.95,"target":"right","response":"right","rt":573.09999999404,"correct":true,"confidence":2},{"trial_n":109,"n_dots":2.85,"target":"left","response":"right","rt":545.09999999404,"correct":false,"confidence":2},{"trial_n":110,"n_dots":2.95,"target":"left","response":"left","rt":697.29999998212,"correct":true,"confidence":1},{"trial_n":111,"n_dots":2.95,"target":"left","response":"left","rt":431.90000000596,"correct":true,"confidence":2},{"trial_n":112,"n_dots":2.85,"target":"left","response":"left","rt":336.79999998212,"correct":true,"confidence":3},{"trial_n":113,"n_dots":2.85,"target":"right","response":"left","rt":333.69999998808,"correct":false,"confidence":2},{"trial_n":114,"n_dots":2.95,"target":"left","response":"left","rt":301.59999999404,"correct":true,"confidence":3},{"trial_n":115,"n_dots":2.95,"target":"right","response":"left","rt":184.30000001192,"correct":false,"confidence":2},{"trial_n":116,"n_dots":3.05,"target":"left","response":"left","rt":399.59999999404,"correct":true,"confidence":2},{"trial_n":117,"n_dots":3.05,"target":"right","response":"left","rt":612.5,"correct":false,"confidence":1},{"trial_n":118,"n_dots":3.15,"target":"left","response":"left","rt":602.80000001192,"correct":true,"confidence":2},{"trial_n":119,"n_dots":3.15,"target":"left","response":"left","rt":520.69999998808,"correct":true,"confidence":2},{"trial_n":120,"n_dots":3.05,"target":"left","response":"right","rt":813.5,"correct":false,"confidence":1}]