[{"trial_n":1,"span":8,"encoder":"95915372","distractor":"95915376","target":"present","response":"present","rt":"8413.400000006","correct":true,"confidence":-1},{"trial_n":2,"span":8,"encoder":"08248939","distractor":"08246939","target":"present","response":"absent","rt":"2790.099999994","correct":false,"confidence":-1},{"trial_n":3,"span":6,"encoder":"710659","distractor":"710657","target":"absent","response":"absent","rt":"2894.099999994","correct":true,"confidence":-1},{"trial_n":4,"span":6,"encoder":"687088","distractor":"287088","target":"absent","response":"absent","rt":"1884.7999999821","correct":true,"confidence":-1},{"trial_n":5,"span":8,"encoder":"88429343","distractor":"38429343","target":"present","response":"present","rt":"1801.2000000179","correct":true,"confidence":-1},{"trial_n":6,"span":8,"encoder":"86055404","distractor":"66055404","target":"absent","response":"absent","rt":"1857.7000000179","correct":true,"confidence":-1},{"trial_n":7,"span":10,"encoder":"7819264077","distractor":"7919264077","target":"absent","response":"absent","rt":"1825.6000000238","correct":true,"confidence":-1},{"trial_n":8,"span":10,"encoder":"6202406632","distractor":"6202406612","target":"absent","response":"absent","rt":"1862.8000000119","correct":true,"confidence":-1},{"trial_n":9,"span":12,"encoder":"263476172616","distractor":"263476177616","target":"absent","response":"present","rt":"1985.5","correct":false,"confidence":-1},{"trial_n":10,"span":10,"encoder":"0932662815","distractor":"2932662815","target":"absent","response":"present","rt":"1648","correct":false,"confidence":-1},{"trial_n":11,"span":8,"encoder":"06516996","distractor":"06576996","target":"present","response":"absent","rt":"1571.400000006","correct":false,"confidence":-1},{"trial_n":12,"span":7,"encoder":"5413753","distractor":"5413153","target":"absent","response":"absent","rt":"1586.2999999821","correct":true,"confidence":-1},{"trial_n":13,"span":7,"encoder":"4702493","distractor":"4705493","target":"present","response":"present","rt":"1656.099999994","correct":true,"confidence":-1},{"trial_n":14,"span":8,"encoder":"59681097","distractor":"54681097","target":"absent","response":"absent","rt":"1649","correct":true,"confidence":-1},{"trial_n":15,"span":8,"encoder":"04241603","distractor":"04241403","target":"present","response":"present","rt":"1690.5","correct":true,"confidence":-1},{"trial_n":16,"span":9,"encoder":"752162347","distractor":"752162337","target":"present","response":"present","rt":"2774.900000006","correct":true,"confidence":-1},{"trial_n":17,"span":9,"encoder":"005318553","distractor":"005318554","target":"present","response":"present","rt":"2607.599999994","correct":true,"confidence":-1},{"trial_n":18,"span":10,"encoder":"9772611528","distractor":"9272611528","target":"present","response":"present","rt":"1746.2000000179","correct":true,"confidence":-1},{"trial_n":19,"span":10,"encoder":"0596177250","distractor":"0596177259","target":"present","response":"present","rt":"1715.599999994","correct":true,"confidence":-1},{"trial_n":20,"span":11,"encoder":"08535654560","distractor":"08530654560","target":"present","response":"present","rt":"6564.900000006","correct":true,"confidence":-1},{"trial_n":21,"span":11,"encoder":"96768196929","distractor":"96768194929","target":"absent","response":"present","rt":"3040.900000006","correct":false,"confidence":2},{"trial_n":22,"span":10,"encoder":"4340835972","distractor":"4340835952","target":"absent","response":"absent","rt":"9433.8999999762","correct":true,"confidence":2},{"trial_n":23,"span":10,"encoder":"1783075840","distractor":"1783075940","target":"present","response":"absent","rt":"2588.400000006","correct":false,"confidence":3},{"trial_n":24,"span":9,"encoder":"905886210","distractor":"705886210","target":"absent","response":"absent","rt":"1576","correct":true,"confidence":5},{"trial_n":25,"span":9,"encoder":"090027380","distractor":"090027300","target":"present","response":"present","rt":"2991.3000000119","correct":true,"confidence":3},{"trial_n":26,"span":10,"encoder":"0709128117","distractor":"0709128617","target":"present","response":"absent","rt":"2751.7000000179","correct":false,"confidence":2},{"trial_n":27,"span":9,"encoder":"685309073","distractor":"685309043","target":"present","response":"present","rt":"2841.400000006","correct":true,"confidence":3},{"trial_n":28,"span":9,"encoder":"018766346","distractor":"018866346","target":"present","response":"present","rt":"3690.3000000119","correct":true,"confidence":2},{"trial_n":29,"span":10,"encoder":"9289106685","distractor":"9289106085","target":"absent","response":"present","rt":"3590","correct":false,"confidence":3},{"trial_n":30,"span":9,"encoder":"072208831","distractor":"072268831","target":"absent","response":"absent","rt":"2346.7000000179","correct":true,"confidence":3},{"trial_n":31,"span":9,"encoder":"769108732","distractor":"769108332","target":"absent","response":"present","rt":"3179.599999994","correct":false,"confidence":2},{"trial_n":32,"span":8,"encoder":"88615376","distractor":"88415376","target":"absent","response":"absent","rt":"1502.400000006","correct":true,"confidence":5},{"trial_n":33,"span":8,"encoder":"08167314","distractor":"08187314","target":"absent","response":"absent","rt":"2992.8000000119","correct":true,"confidence":3},{"trial_n":34,"span":9,"encoder":"358696453","distractor":"359696453","target":"present","response":"present","rt":"3107.599999994","correct":true,"confidence":3},{"trial_n":35,"span":9,"encoder":"103657092","distractor":"103657592","target":"present","response":"present","rt":"2655.3000000119","correct":true,"confidence":3},{"trial_n":36,"span":10,"encoder":"2050893119","distractor":"2050883119","target":"absent","response":"present","rt":"4429.2000000179","correct":false,"confidence":3},{"trial_n":37,"span":9,"encoder":"413176312","distractor":"413176342","target":"present","response":"present","rt":"2547","correct":true,"confidence":4},{"trial_n":38,"span":9,"encoder":"609150115","distractor":"609150175","target":"absent","response":"absent","rt":"1713.2000000179","correct":true,"confidence":4},{"trial_n":39,"span":10,"encoder":"3311605890","distractor":"3311205890","target":"absent","response":"absent","rt":"3282.7000000179","correct":true,"confidence":3},{"trial_n":40,"span":10,"encoder":"7184096099","distractor":"7189096099","target":"present","response":"present","rt":"3348","correct":true,"confidence":3},{"trial_n":41,"span":11,"encoder":"20868510051","distractor":"20868510050","target":"absent","response":"present","rt":"9939","correct":false,"confidence":1},{"trial_n":42,"span":10,"encoder":"0868046463","distractor":"0868026463","target":"absent","response":"absent","rt":"3719.7000000179","correct":true,"confidence":3},{"trial_n":43,"span":10,"encoder":"3099741919","distractor":"3099741913","target":"absent","response":"present","rt":"5099.1999999881","correct":false,"confidence":1},{"trial_n":44,"span":9,"encoder":"499473693","distractor":"499973693","target":"present","response":"absent","rt":"4228.599999994","correct":false,"confidence":2},{"trial_n":45,"span":8,"encoder":"22980468","distractor":"22980268","target":"present","response":"absent","rt":"5376.5","correct":false,"confidence":2},{"trial_n":46,"span":7,"encoder":"5017829","distractor":"5017822","target":"present","response":"present","rt":"3674","correct":true,"confidence":1},{"trial_n":47,"span":7,"encoder":"7426537","distractor":"7446537","target":"absent","response":"present","rt":"3281.6999999881","correct":false,"confidence":2},{"trial_n":48,"span":6,"encoder":"373770","distractor":"303770","target":"absent","response":"absent","rt":"2157.2999999821","correct":true,"confidence":2},{"trial_n":49,"span":6,"encoder":"662256","distractor":"662226","target":"absent","response":"absent","rt":"2331","correct":true,"confidence":4},{"trial_n":50,"span":7,"encoder":"9716849","distractor":"9716809","target":"absent","response":"absent","rt":"2342.5","correct":true,"confidence":3},{"trial_n":51,"span":7,"encoder":"1214856","distractor":"1214852","target":"present","response":"present","rt":"2167.7000000179","correct":true,"confidence":5},{"trial_n":52,"span":8,"encoder":"98652997","distractor":"98657997","target":"absent","response":"absent","rt":"3734.7999999821","correct":true,"confidence":4},{"trial_n":53,"span":8,"encoder":"65301366","distractor":"65301362","target":"present","response":"present","rt":"3175.099999994","correct":true,"confidence":3},{"trial_n":54,"span":9,"encoder":"939522312","distractor":"939572312","target":"present","response":"present","rt":"2452.3000000119","correct":true,"confidence":3},{"trial_n":55,"span":9,"encoder":"731974436","distractor":"031974436","target":"absent","response":"absent","rt":"1802","correct":true,"confidence":3},{"trial_n":56,"span":10,"encoder":"5878010261","distractor":"5878010961","target":"present","response":"absent","rt":"3327.599999994","correct":false,"confidence":2},{"trial_n":57,"span":9,"encoder":"213744939","distractor":"213844939","target":"present","response":"present","rt":"2224.8000000119","correct":true,"confidence":2},{"trial_n":58,"span":9,"encoder":"280529698","distractor":"280329698","target":"absent","response":"absent","rt":"2702.5","correct":true,"confidence":3},{"trial_n":59,"span":10,"encoder":"5580028992","distractor":"5580098992","target":"present","response":"absent","rt":"3499","correct":false,"confidence":1},{"trial_n":60,"span":9,"encoder":"370274928","distractor":"380274928","target":"present","response":"present","rt":"2946.6000000238","correct":true,"confidence":2},{"trial_n":61,"span":9,"encoder":"218232337","distractor":"218732337","target":"absent","response":"absent","rt":"1990","correct":true,"confidence":4},{"trial_n":62,"span":10,"encoder":"3038114720","distractor":"3038014720","target":"absent","response":"absent","rt":"3286.099999994","correct":true,"confidence":4},{"trial_n":63,"span":10,"encoder":"1585895504","distractor":"1582895504","target":"present","response":"present","rt":"2347.900000006","correct":true,"confidence":3},{"trial_n":64,"span":11,"encoder":"92522457037","distractor":"99522457037","target":"present","response":"absent","rt":"9021","correct":false,"confidence":1},{"trial_n":65,"span":10,"encoder":"1257279528","distractor":"1253279528","target":"absent","response":"absent","rt":"3938.8999999762","correct":true,"confidence":2},{"trial_n":66,"span":10,"encoder":"1834356160","distractor":"1834356169","target":"present","response":"present","rt":"2745.099999994","correct":true,"confidence":2},{"trial_n":67,"span":11,"encoder":"46970422585","distractor":"46970420585","target":"absent","response":"absent","rt":"3413.5","correct":true,"confidence":3},{"trial_n":68,"span":11,"encoder":"58796897753","distractor":"58796896753","target":"present","response":"present","rt":"4984.900000006","correct":true,"confidence":1},{"trial_n":69,"span":12,"encoder":"776374170959","distractor":"476374170959","target":"present","response":"absent","rt":"4626.900000006","correct":false,"confidence":1},{"trial_n":70,"span":11,"encoder":"20361999096","distractor":"20361999796","target":"present","response":"present","rt":"3907.3000000119","correct":true,"confidence":2},{"trial_n":71,"span":8,"encoder":"06985454","distractor":"09985454","target":"present","response":"present","rt":"8259.5","correct":true,"confidence":-1},{"trial_n":72,"span":8,"encoder":"15164354","distractor":"15264354","target":"present","response":"present","rt":"2276.8000000119","correct":true,"confidence":-1},{"trial_n":73,"span":9,"encoder":"431192941","distractor":"431191941","target":"absent","response":"absent","rt":"2391.900000006","correct":true,"confidence":-1},{"trial_n":74,"span":9,"encoder":"855010549","distractor":"855014549","target":"absent","response":"present","rt":"6285.1999999881","correct":false,"confidence":-1},{"trial_n":75,"span":8,"encoder":"98541372","distractor":"98541272","target":"present","response":"present","rt":"2902.3999999762","correct":true,"confidence":-1},{"trial_n":76,"span":8,"encoder":"60086124","distractor":"60082124","target":"absent","response":"absent","rt":"5985.1000000238","correct":true,"confidence":-1},{"trial_n":77,"span":9,"encoder":"998016181","distractor":"998416181","target":"present","response":"present","rt":"3023.099999994","correct":true,"confidence":-1},{"trial_n":78,"span":9,"encoder":"482989205","distractor":"483989205","target":"present","response":"present","rt":"4217.8999999762","correct":true,"confidence":-1},{"trial_n":79,"span":10,"encoder":"3394437557","distractor":"7394437557","target":"present","response":"present","rt":"3603.900000006","correct":true,"confidence":-1},{"trial_n":80,"span":10,"encoder":"7925505895","distractor":"7925505899","target":"absent","response":"absent","rt":"4673.3000000119","correct":true,"confidence":-1},{"trial_n":81,"span":11,"encoder":"34206983336","distractor":"14206983336","target":"present","response":"present","rt":"2116.099999994","correct":true,"confidence":-1},{"trial_n":82,"span":11,"encoder":"63162255168","distractor":"63162253168","target":"present","response":"present","rt":"7345.6999999881","correct":true,"confidence":-1},{"trial_n":83,"span":12,"encoder":"650587416891","distractor":"650585416891","target":"present","response":"absent","rt":"9190.400000006","correct":false,"confidence":-1},{"trial_n":84,"span":11,"encoder":"99819753236","distractor":"99119753236","target":"present","response":"present","rt":"3885.3000000119","correct":true,"confidence":-1},{"trial_n":85,"span":11,"encoder":"95226840947","distractor":"95026840947","target":"absent","response":"present","rt":"2180.6999999881","correct":false,"confidence":-1},{"trial_n":86,"span":10,"encoder":"7812312979","distractor":"7612312979","target":"absent","response":"absent","rt":"2807.8999999762","correct":true,"confidence":-1},{"trial_n":87,"span":10,"encoder":"3754042199","distractor":"3774042199","target":"present","response":"absent","rt":"7609.2000000179","correct":false,"confidence":-1},{"trial_n":88,"span":9,"encoder":"623638307","distractor":"623668307","target":"present","response":"present","rt":"6891.2999999821","correct":true,"confidence":-1},{"trial_n":89,"span":9,"encoder":"118605959","distractor":"118705959","target":"absent","response":"absent","rt":"2220.099999994","correct":true,"confidence":-1},{"trial_n":90,"span":10,"encoder":"9141562444","distractor":"9141562447","target":"absent","response":"absent","rt":"2143.400000006","correct":true,"confidence":-1},{"trial_n":91,"span":10,"encoder":"1506697670","distractor":"1506697470","target":"absent","response":"absent","rt":"6587.1000000238","correct":true,"confidence":3},{"trial_n":92,"span":11,"encoder":"30753008686","distractor":"30753008186","target":"present","response":"absent","rt":"8715.900000006","correct":false,"confidence":2},{"trial_n":93,"span":10,"encoder":"3660371721","distractor":"3660871721","target":"present","response":"present","rt":"6098","correct":true,"confidence":2},{"trial_n":94,"span":10,"encoder":"5070622059","distractor":"5070622159","target":"present","response":"present","rt":"6335.6000000238","correct":true,"confidence":5},{"trial_n":95,"span":11,"encoder":"37648088488","distractor":"37648088988","target":"present","response":"present","rt":"15087.599999994","correct":true,"confidence":3},{"trial_n":96,"span":11,"encoder":"49839147897","distractor":"39839147897","target":"absent","response":"absent","rt":"8936.7000000179","correct":true,"confidence":2},{"trial_n":97,"span":12,"encoder":"368038601281","distractor":"368038601231","target":"present","response":"present","rt":"6173.3000000119","correct":true,"confidence":2},{"trial_n":98,"span":12,"encoder":"081691840816","distractor":"081691848816","target":"absent","response":"present","rt":"4475.6999999881","correct":false,"confidence":1},{"trial_n":99,"span":11,"encoder":"24763520319","distractor":"24713520319","target":"present","response":"present","rt":"5100.6999999881","correct":true,"confidence":3},{"trial_n":100,"span":11,"encoder":"38426985884","distractor":"37426985884","target":"present","response":"absent","rt":"7695.2999999821","correct":false,"confidence":2},{"trial_n":101,"span":10,"encoder":"2270839035","distractor":"2370839035","target":"absent","response":"absent","rt":"1787.400000006","correct":true,"confidence":4},{"trial_n":102,"span":10,"encoder":"6246592899","distractor":"6243592899","target":"absent","response":"absent","rt":"14364.099999994","correct":true,"confidence":3},{"trial_n":103,"span":11,"encoder":"28370702265","distractor":"28370702275","target":"present","response":"absent","rt":"12664.399999976","correct":false,"confidence":1},{"trial_n":104,"span":10,"encoder":"5947488710","distractor":"5947488010","target":"present","response":"present","rt":"2079","correct":true,"confidence":4},{"trial_n":105,"span":10,"encoder":"1576073691","distractor":"1516073691","target":"absent","response":"present","rt":"5447.400000006","correct":false,"confidence":2},{"trial_n":106,"span":9,"encoder":"354802084","distractor":"954802084","target":"present","response":"present","rt":"4103.099999994","correct":true,"confidence":4},{"trial_n":107,"span":9,"encoder":"373534851","distractor":"973534851","target":"absent","response":"absent","rt":"2238.099999994","correct":true,"confidence":4},{"trial_n":108,"span":10,"encoder":"9253549460","distractor":"9253049460","target":"present","response":"absent","rt":"16754","correct":false,"confidence":1},{"trial_n":109,"span":9,"encoder":"591560163","distractor":"591560166","target":"absent","response":"absent","rt":"7182.5","correct":true,"confidence":2},{"trial_n":110,"span":9,"encoder":"176885977","distractor":"176885979","target":"present","response":"present","rt":"4854.1000000238","correct":true,"confidence":1},{"trial_n":111,"span":10,"encoder":"5005867749","distractor":"5002867749","target":"absent","response":"absent","rt":"3617.2999999821","correct":true,"confidence":4},{"trial_n":112,"span":10,"encoder":"2164371321","distractor":"2164371351","target":"present","response":"present","rt":"9826.1000000238","correct":true,"confidence":3},{"trial_n":113,"span":11,"encoder":"29425166997","distractor":"29425166697","target":"present","response":"present","rt":"2885.900000006","correct":true,"confidence":3},{"trial_n":114,"span":11,"encoder":"92841528481","distractor":"92841508481","target":"absent","response":"absent","rt":"5618.599999994","correct":true,"confidence":1},{"trial_n":115,"span":12,"encoder":"134378458815","distractor":"134378458812","target":"absent","response":"absent","rt":"5998.7000000179","correct":true,"confidence":3},{"trial_n":116,"span":12,"encoder":"295848443365","distractor":"295843443365","target":"absent","response":"absent","rt":"2553.599999994","correct":true,"confidence":3},{"trial_n":117,"span":13,"encoder":"2973166518104","distractor":"2973166519104","target":"absent","response":"absent","rt":"8046.7999999821","correct":true,"confidence":2},{"trial_n":118,"span":13,"encoder":"4327559788471","distractor":"7327559788471","target":"absent","response":"absent","rt":"4730","correct":true,"confidence":3},{"trial_n":119,"span":14,"encoder":"79463902382245","distractor":"79468902382245","target":"present","response":"present","rt":"8169.5","correct":true,"confidence":2},{"trial_n":120,"span":14,"encoder":"04107527351260","distractor":"04167527351260","target":"present","response":"present","rt":"6186.900000006","correct":true,"confidence":4},{"trial_n":121,"span":15,"encoder":"128464433452226","distractor":"128464433452296","target":"absent","response":"absent","rt":"8398.400000006","correct":true,"confidence":1},{"trial_n":122,"span":15,"encoder":"415033439756945","distractor":"415033430756945","target":"absent","response":"absent","rt":"10648.199999988","correct":true,"confidence":1},{"trial_n":123,"span":16,"encoder":"3056660800586526","distractor":"3016660800586526","target":"present","response":"present","rt":"15401.200000018","correct":true,"confidence":1},{"trial_n":124,"span":16,"encoder":"9559217169637695","distractor":"9259217169637695","target":"present","response":"present","rt":"3641.1999999881","correct":true,"confidence":2},{"trial_n":125,"span":17,"encoder":"78350219533146625","distractor":"78350219533141625","target":"present","response":"present","rt":"10101.900000006","correct":true,"confidence":1},{"trial_n":126,"span":17,"encoder":"74145829446717276","distractor":"74145829546717276","target":"absent","response":"absent","rt":"14909.699999988","correct":true,"confidence":2},{"trial_n":127,"span":18,"encoder":"604194410946492932","distractor":"604194410946492632","target":"present","response":"present","rt":"10019.099999994","correct":true,"confidence":2},{"trial_n":128,"span":18,"encoder":"491669331467576529","distractor":"491669331467572529","target":"present","response":"absent","rt":"11943.199999988","correct":false,"confidence":1},{"trial_n":129,"span":17,"encoder":"28618789686559721","distractor":"28618789686559731","target":"absent","response":"absent","rt":"2793.5","correct":true,"confidence":3},{"trial_n":130,"span":17,"encoder":"42301840211529528","distractor":"42301840211529568","target":"present","response":"present","rt":"18822.899999976","correct":true,"confidence":2},{"trial_n":131,"span":18,"encoder":"632419116287873370","distractor":"632419116287973370","target":"absent","response":"absent","rt":"11726.5","correct":true,"confidence":1},{"trial_n":132,"span":18,"encoder":"798859195159120891","distractor":"798859195159127891","target":"present","response":"absent","rt":"9935.400000006","correct":false,"confidence":1},{"trial_n":133,"span":17,"encoder":"94888901767238619","distractor":"94888901767298619","target":"absent","response":"absent","rt":"12626.900000006","correct":true,"confidence":1},{"trial_n":134,"span":17,"encoder":"21298071091659709","distractor":"21298071091659789","target":"absent","response":"present","rt":"12053.599999994","correct":false,"confidence":1},{"trial_n":135,"span":16,"encoder":"9739803898523597","distractor":"9739003898523597","target":"absent","response":"absent","rt":"8690.1999999881","correct":true,"confidence":2},{"trial_n":136,"span":16,"encoder":"8674498973139701","distractor":"8474498973139701","target":"absent","response":"present","rt":"6445.900000006","correct":false,"confidence":1},{"trial_n":137,"span":15,"encoder":"036133117210848","distractor":"036133117217848","target":"absent","response":"absent","rt":"54710.200000018","correct":true,"confidence":2},{"trial_n":138,"span":15,"encoder":"772004618357253","distractor":"775004618357253","target":"absent","response":"absent","rt":"7695.8000000119","correct":true,"confidence":3},{"trial_n":139,"span":16,"encoder":"6459418877806189","distractor":"6559418877806189","target":"present","response":"present","rt":"4946.5","correct":true,"confidence":3},{"trial_n":140,"span":16,"encoder":"9247783895299326","distractor":"6247783895299326","target":"absent","response":"absent","rt":"6218.599999994","correct":true,"confidence":2}]