[{"trial_n":1,"min":25,"max":230,"target":"present","response":"absent","rt":7378.5,"correct":false,"confidence":-1},{"trial_n":2,"min":25,"max":230,"target":"present","response":"present","rt":1610,"correct":true,"confidence":-1},{"trial_n":3,"min":25,"max":230,"target":"absent","response":"absent","rt":1102.8000000119,"correct":true,"confidence":-1},{"trial_n":4,"min":41,"max":214,"target":"absent","response":"absent","rt":1579,"correct":true,"confidence":-1},{"trial_n":5,"min":41,"max":214,"target":"present","response":"present","rt":1533.7000000179,"correct":true,"confidence":-1},{"trial_n":6,"min":57,"max":198,"target":"absent","response":"absent","rt":1275.900000006,"correct":true,"confidence":-1},{"trial_n":7,"min":57,"max":198,"target":"present","response":"present","rt":1149.099999994,"correct":true,"confidence":-1},{"trial_n":8,"min":73,"max":182,"target":"absent","response":"absent","rt":801.90000000596,"correct":true,"confidence":-1},{"trial_n":9,"min":73,"max":182,"target":"present","response":"absent","rt":863.19999998808,"correct":false,"confidence":-1},{"trial_n":10,"min":57,"max":198,"target":"absent","response":"present","rt":1126.7000000179,"correct":false,"confidence":-1},{"trial_n":11,"min":49,"max":206,"target":"absent","response":"absent","rt":2090.5,"correct":true,"confidence":-1},{"trial_n":12,"min":49,"max":206,"target":"present","response":"present","rt":1738.3000000119,"correct":true,"confidence":-1},{"trial_n":13,"min":57,"max":198,"target":"present","response":"present","rt":990.40000000596,"correct":true,"confidence":-1},{"trial_n":14,"min":57,"max":198,"target":"present","response":"absent","rt":1368.5,"correct":false,"confidence":-1},{"trial_n":15,"min":49,"max":206,"target":"absent","response":"absent","rt":1590.900000006,"correct":true,"confidence":-1},{"trial_n":16,"min":49,"max":206,"target":"absent","response":"absent","rt":1000,"correct":true,"confidence":-1},{"trial_n":17,"min":57,"max":198,"target":"present","response":"present","rt":887.80000001192,"correct":true,"confidence":-1},{"trial_n":18,"min":57,"max":198,"target":"present","response":"present","rt":1018.3000000119,"correct":true,"confidence":-1},{"trial_n":19,"min":65,"max":190,"target":"present","response":"present","rt":774,"correct":true,"confidence":-1},{"trial_n":20,"min":65,"max":190,"target":"present","response":"present","rt":642.59999999404,"correct":true,"confidence":-1},{"trial_n":21,"min":69,"max":186,"target":"present","response":"present","rt":1561.6999999881,"correct":true,"confidence":3},{"trial_n":22,"min":69,"max":186,"target":"present","response":"present","rt":1299,"correct":true,"confidence":3},{"trial_n":23,"min":73,"max":182,"target":"present","response":"present","rt":1558.2000000179,"correct":true,"confidence":3},{"trial_n":24,"min":73,"max":182,"target":"present","response":"present","rt":1634.1999999881,"correct":true,"confidence":3},{"trial_n":25,"min":77,"max":178,"target":"present","response":"present","rt":1678.400000006,"correct":true,"confidence":3},{"trial_n":26,"min":77,"max":178,"target":"absent","response":"present","rt":1135.3999999762,"correct":false,"confidence":3},{"trial_n":27,"min":73,"max":182,"target":"absent","response":"present","rt":2263.5,"correct":false,"confidence":1},{"trial_n":28,"min":69,"max":186,"target":"present","response":"absent","rt":1229.400000006,"correct":false,"confidence":2},{"trial_n":29,"min":65,"max":190,"target":"present","response":"present","rt":2134.7000000179,"correct":true,"confidence":2},{"trial_n":30,"min":65,"max":190,"target":"present","response":"present","rt":1633.3000000119,"correct":true,"confidence":2},{"trial_n":31,"min":67,"max":188,"target":"absent","response":"absent","rt":2708.2000000179,"correct":true,"confidence":1},{"trial_n":32,"min":67,"max":188,"target":"present","response":"absent","rt":1963.8000000119,"correct":false,"confidence":1},{"trial_n":33,"min":65,"max":190,"target":"present","response":"absent","rt":2040.6999999881,"correct":false,"confidence":3},{"trial_n":34,"min":63,"max":192,"target":"absent","response":"absent","rt":1016.8000000119,"correct":true,"confidence":3},{"trial_n":35,"min":63,"max":192,"target":"present","response":"present","rt":2062.3999999762,"correct":true,"confidence":2},{"trial_n":36,"min":65,"max":190,"target":"present","response":"present","rt":1061.7999999821,"correct":true,"confidence":3},{"trial_n":37,"min":65,"max":190,"target":"absent","response":"absent","rt":1999,"correct":true,"confidence":3},{"trial_n":38,"min":67,"max":188,"target":"absent","response":"absent","rt":976.19999998808,"correct":true,"confidence":3},{"trial_n":39,"min":67,"max":188,"target":"absent","response":"absent","rt":1176.400000006,"correct":true,"confidence":4},{"trial_n":40,"min":69,"max":186,"target":"absent","response":"absent","rt":1259.599999994,"correct":true,"confidence":4},{"trial_n":41,"min":69,"max":186,"target":"absent","response":"absent","rt":3038,"correct":true,"confidence":2},{"trial_n":42,"min":70,"max":185,"target":"present","response":"present","rt":1061.7000000179,"correct":true,"confidence":2},{"trial_n":43,"min":70,"max":185,"target":"absent","response":"absent","rt":1460.099999994,"correct":true,"confidence":3},{"trial_n":44,"min":71,"max":184,"target":"absent","response":"absent","rt":1060.900000006,"correct":true,"confidence":3},{"trial_n":45,"min":71,"max":184,"target":"absent","response":"absent","rt":1026.1999999881,"correct":true,"confidence":4},{"trial_n":46,"min":72,"max":183,"target":"absent","response":"present","rt":945.40000000596,"correct":false,"confidence":2},{"trial_n":47,"min":71,"max":184,"target":"present","response":"present","rt":884.90000000596,"correct":true,"confidence":4},{"trial_n":48,"min":71,"max":184,"target":"absent","response":"absent","rt":1000,"correct":true,"confidence":4},{"trial_n":49,"min":72,"max":183,"target":"present","response":"present","rt":1475.6999999881,"correct":true,"confidence":5},{"trial_n":50,"min":72,"max":183,"target":"present","response":"absent","rt":1397.900000006,"correct":false,"confidence":3},{"trial_n":51,"min":71,"max":184,"target":"present","response":"present","rt":1964,"correct":true,"confidence":2},{"trial_n":52,"min":71,"max":184,"target":"absent","response":"present","rt":1375.2000000179,"correct":false,"confidence":4},{"trial_n":53,"min":70,"max":185,"target":"absent","response":"present","rt":3064,"correct":false,"confidence":1},{"trial_n":54,"min":69,"max":186,"target":"present","response":"present","rt":3929.6999999881,"correct":true,"confidence":2},{"trial_n":55,"min":69,"max":186,"target":"absent","response":"present","rt":1196.599999994,"correct":false,"confidence":2},{"trial_n":56,"min":68,"max":187,"target":"absent","response":"absent","rt":1503.5,"correct":true,"confidence":3},{"trial_n":57,"min":68,"max":187,"target":"absent","response":"absent","rt":1145.3000000119,"correct":true,"confidence":3},{"trial_n":58,"min":69,"max":186,"target":"present","response":"present","rt":1138.900000006,"correct":true,"confidence":4},{"trial_n":59,"min":69,"max":186,"target":"present","response":"present","rt":817.19999998808,"correct":true,"confidence":3},{"trial_n":60,"min":70,"max":185,"target":"absent","response":"absent","rt":2051.1999999881,"correct":true,"confidence":3},{"trial_n":61,"min":70,"max":185,"target":"absent","response":"present","rt":1922.900000006,"correct":false,"confidence":2},{"trial_n":62,"min":69,"max":186,"target":"absent","response":"absent","rt":1057.8000000119,"correct":true,"confidence":4},{"trial_n":63,"min":69,"max":186,"target":"present","response":"present","rt":1271,"correct":true,"confidence":3},{"trial_n":64,"min":70,"max":185,"target":"absent","response":"absent","rt":852.5,"correct":true,"confidence":3},{"trial_n":65,"min":70,"max":185,"target":"present","response":"present","rt":1463.2000000179,"correct":true,"confidence":3},{"trial_n":66,"min":71,"max":184,"target":"absent","response":"absent","rt":900.80000001192,"correct":true,"confidence":4},{"trial_n":67,"min":71,"max":184,"target":"absent","response":"absent","rt":1071.900000006,"correct":true,"confidence":4},{"trial_n":68,"min":72,"max":183,"target":"absent","response":"absent","rt":935.5,"correct":true,"confidence":3},{"trial_n":69,"min":72,"max":183,"target":"present","response":"present","rt":1694.2000000179,"correct":true,"confidence":3},{"trial_n":70,"min":73,"max":182,"target":"present","response":"present","rt":810.29999998212,"correct":true,"confidence":4},{"trial_n":71,"min":41,"max":214,"target":"present","response":"present","rt":2626.2000000179,"correct":true,"confidence":-1},{"trial_n":72,"min":41,"max":214,"target":"present","response":"present","rt":1338.400000006,"correct":true,"confidence":-1},{"trial_n":73,"min":57,"max":198,"target":"absent","response":"absent","rt":1605.1000000238,"correct":true,"confidence":-1},{"trial_n":74,"min":57,"max":198,"target":"absent","response":"absent","rt":1125.7000000179,"correct":true,"confidence":-1},{"trial_n":75,"min":73,"max":182,"target":"present","response":"present","rt":811.20000001788,"correct":true,"confidence":-1},{"trial_n":76,"min":73,"max":182,"target":"present","response":"present","rt":1672.6000000238,"correct":true,"confidence":-1},{"trial_n":77,"min":89,"max":166,"target":"absent","response":"present","rt":1180.1999999881,"correct":false,"confidence":-1},{"trial_n":78,"min":73,"max":182,"target":"present","response":"present","rt":858.70000001788,"correct":true,"confidence":-1},{"trial_n":79,"min":73,"max":182,"target":"absent","response":"absent","rt":1486.2000000179,"correct":true,"confidence":-1},{"trial_n":80,"min":89,"max":166,"target":"present","response":"present","rt":1332.3999999762,"correct":true,"confidence":-1},{"trial_n":81,"min":89,"max":166,"target":"present","response":"present","rt":1054.5,"correct":true,"confidence":-1},{"trial_n":82,"min":97,"max":158,"target":"absent","response":"absent","rt":1205.8999999762,"correct":true,"confidence":-1},{"trial_n":83,"min":97,"max":158,"target":"absent","response":"present","rt":2383.900000006,"correct":false,"confidence":-1},{"trial_n":84,"min":89,"max":166,"target":"present","response":"present","rt":648.60000002384,"correct":true,"confidence":-1},{"trial_n":85,"min":89,"max":166,"target":"absent","response":"present","rt":767,"correct":false,"confidence":-1},{"trial_n":86,"min":81,"max":174,"target":"absent","response":"absent","rt":1195,"correct":true,"confidence":-1},{"trial_n":87,"min":81,"max":174,"target":"absent","response":"absent","rt":2240.5,"correct":true,"confidence":-1},{"trial_n":88,"min":89,"max":166,"target":"absent","response":"present","rt":905.90000000596,"correct":false,"confidence":-1},{"trial_n":89,"min":81,"max":174,"target":"absent","response":"present","rt":1998.2000000179,"correct":false,"confidence":-1},{"trial_n":90,"min":73,"max":182,"target":"present","response":"present","rt":1462.6999999881,"correct":true,"confidence":-1},{"trial_n":91,"min":73,"max":182,"target":"present","response":"present","rt":1459.099999994,"correct":true,"confidence":3},{"trial_n":92,"min":77,"max":178,"target":"absent","response":"present","rt":1223.1999999881,"correct":false,"confidence":3},{"trial_n":93,"min":73,"max":182,"target":"present","response":"present","rt":824,"correct":true,"confidence":4},{"trial_n":94,"min":73,"max":182,"target":"present","response":"present","rt":1087.3000000119,"correct":true,"confidence":3},{"trial_n":95,"min":77,"max":178,"target":"present","response":"present","rt":1627.099999994,"correct":true,"confidence":4},{"trial_n":96,"min":77,"max":178,"target":"present","response":"present","rt":844.80000001192,"correct":true,"confidence":5},{"trial_n":97,"min":81,"max":174,"target":"absent","response":"present","rt":1505.599999994,"correct":false,"confidence":3},{"trial_n":98,"min":77,"max":178,"target":"absent","response":"absent","rt":2693.1000000238,"correct":true,"confidence":2},{"trial_n":99,"min":77,"max":178,"target":"absent","response":"absent","rt":2167.3999999762,"correct":true,"confidence":2},{"trial_n":100,"min":81,"max":174,"target":"present","response":"present","rt":1129.5,"correct":true,"confidence":4},{"trial_n":101,"min":81,"max":174,"target":"absent","response":"present","rt":2039,"correct":false,"confidence":2},{"trial_n":102,"min":79,"max":176,"target":"present","response":"present","rt":1496.8000000119,"correct":true,"confidence":4},{"trial_n":103,"min":79,"max":176,"target":"absent","response":"absent","rt":1488.099999994,"correct":true,"confidence":1},{"trial_n":104,"min":81,"max":174,"target":"absent","response":"present","rt":1471.099999994,"correct":false,"confidence":3},{"trial_n":105,"min":79,"max":176,"target":"present","response":"present","rt":1030.5,"correct":true,"confidence":2},{"trial_n":106,"min":79,"max":176,"target":"absent","response":"absent","rt":1128,"correct":true,"confidence":2},{"trial_n":107,"min":81,"max":174,"target":"absent","response":"present","rt":2329.7999999821,"correct":false,"confidence":1},{"trial_n":108,"min":79,"max":176,"target":"present","response":"present","rt":984.10000002384,"correct":true,"confidence":3},{"trial_n":109,"min":79,"max":176,"target":"absent","response":"present","rt":1155,"correct":false,"confidence":3},{"trial_n":110,"min":77,"max":178,"target":"absent","response":"present","rt":845.5,"correct":false,"confidence":2},{"trial_n":111,"min":76,"max":179,"target":"present","response":"present","rt":1261.6000000238,"correct":true,"confidence":3},{"trial_n":112,"min":76,"max":179,"target":"present","response":"present","rt":954.59999999404,"correct":true,"confidence":2},{"trial_n":113,"min":77,"max":178,"target":"present","response":"present","rt":1003.400000006,"correct":true,"confidence":4},{"trial_n":114,"min":77,"max":178,"target":"present","response":"present","rt":1155,"correct":true,"confidence":3},{"trial_n":115,"min":78,"max":177,"target":"absent","response":"absent","rt":1085.6999999881,"correct":true,"confidence":3},{"trial_n":116,"min":78,"max":177,"target":"present","response":"present","rt":1666.1999999881,"correct":true,"confidence":2},{"trial_n":117,"min":79,"max":176,"target":"present","response":"present","rt":1196.599999994,"correct":true,"confidence":3},{"trial_n":118,"min":79,"max":176,"target":"present","response":"present","rt":922.09999999404,"correct":true,"confidence":3},{"trial_n":119,"min":80,"max":175,"target":"absent","response":"present","rt":1897.099999994,"correct":false,"confidence":1},{"trial_n":120,"min":79,"max":176,"target":"present","response":"present","rt":1689.099999994,"correct":true,"confidence":1},{"trial_n":121,"min":79,"max":176,"target":"present","response":"present","rt":813.70000001788,"correct":true,"confidence":3},{"trial_n":122,"min":80,"max":175,"target":"absent","response":"present","rt":1594,"correct":false,"confidence":2},{"trial_n":123,"min":79,"max":176,"target":"absent","response":"absent","rt":989.90000000596,"correct":true,"confidence":3},{"trial_n":124,"min":79,"max":176,"target":"present","response":"present","rt":1013.7000000179,"correct":true,"confidence":2},{"trial_n":125,"min":80,"max":175,"target":"present","response":"present","rt":945.59999999404,"correct":true,"confidence":3},{"trial_n":126,"min":80,"max":175,"target":"present","response":"present","rt":1701.900000006,"correct":true,"confidence":3},{"trial_n":127,"min":81,"max":174,"target":"absent","response":"absent","rt":1355.900000006,"correct":true,"confidence":2},{"trial_n":128,"min":81,"max":174,"target":"absent","response":"absent","rt":2027.7999999821,"correct":true,"confidence":3},{"trial_n":129,"min":82,"max":173,"target":"present","response":"present","rt":1226,"correct":true,"confidence":2},{"trial_n":130,"min":82,"max":173,"target":"absent","response":"absent","rt":1171.8999999762,"correct":true,"confidence":2},{"trial_n":131,"min":83,"max":172,"target":"present","response":"present","rt":1074.5,"correct":true,"confidence":1},{"trial_n":132,"min":83,"max":172,"target":"present","response":"present","rt":1042.599999994,"correct":true,"confidence":2},{"trial_n":133,"min":84,"max":171,"target":"absent","response":"absent","rt":1564.8000000119,"correct":true,"confidence":3},{"trial_n":134,"min":84,"max":171,"target":"present","response":"present","rt":876.59999999404,"correct":true,"confidence":4},{"trial_n":135,"min":85,"max":170,"target":"absent","response":"absent","rt":2478.1999999881,"correct":true,"confidence":4},{"trial_n":136,"min":85,"max":170,"target":"absent","response":"present","rt":3053.2000000179,"correct":false,"confidence":1},{"trial_n":137,"min":84,"max":171,"target":"present","response":"present","rt":1445.2000000179,"correct":true,"confidence":4},{"trial_n":138,"min":84,"max":171,"target":"absent","response":"absent","rt":1345.6000000238,"correct":true,"confidence":2},{"trial_n":139,"min":85,"max":170,"target":"present","response":"present","rt":1187,"correct":true,"confidence":2},{"trial_n":140,"min":85,"max":170,"target":"absent","response":"present","rt":903.19999998808,"correct":false,"confidence":2}]