[{"trial_n":1,"min":25,"max":230,"target":"present","response":"present","rt":14205.5,"correct":true,"confidence":-1},{"trial_n":2,"min":25,"max":230,"target":"present","response":"present","rt":7714.3000000007,"correct":true,"confidence":-1},{"trial_n":3,"min":41,"max":214,"target":"absent","response":"present","rt":4362.6000000015,"correct":false,"confidence":-1},{"trial_n":4,"min":25,"max":230,"target":"absent","response":"absent","rt":3035.1000000015,"correct":true,"confidence":-1},{"trial_n":5,"min":25,"max":230,"target":"present","response":"absent","rt":2254.5,"correct":false,"confidence":-1},{"trial_n":6,"min":9,"max":246,"target":"present","response":"present","rt":2070,"correct":true,"confidence":-1},{"trial_n":7,"min":9,"max":246,"target":"absent","response":"present","rt":1547.6999999993,"correct":false,"confidence":-1},{"trial_n":8,"min":0,"max":255,"target":"present","response":"present","rt":2277.3000000007,"correct":true,"confidence":-1},{"trial_n":9,"min":0,"max":255,"target":"present","response":"absent","rt":3812.6999999993,"correct":false,"confidence":-1},{"trial_n":10,"min":0,"max":255,"target":"absent","response":"absent","rt":1050.6999999993,"correct":true,"confidence":-1},{"trial_n":11,"min":0,"max":255,"target":"present","response":"present","rt":965.89999999851,"correct":true,"confidence":-1},{"trial_n":12,"min":8,"max":247,"target":"present","response":"present","rt":949.30000000075,"correct":true,"confidence":-1},{"trial_n":13,"min":8,"max":247,"target":"present","response":"present","rt":1173.1999999993,"correct":true,"confidence":-1},{"trial_n":14,"min":16,"max":239,"target":"present","response":"present","rt":1236.8000000007,"correct":true,"confidence":-1},{"trial_n":15,"min":16,"max":239,"target":"absent","response":"absent","rt":1146.3000000007,"correct":true,"confidence":-1},{"trial_n":16,"min":24,"max":231,"target":"present","response":"present","rt":757.5,"correct":true,"confidence":-1},{"trial_n":17,"min":24,"max":231,"target":"present","response":"present","rt":1365.6000000015,"correct":true,"confidence":-1},{"trial_n":18,"min":32,"max":223,"target":"absent","response":"absent","rt":1226.6000000015,"correct":true,"confidence":-1},{"trial_n":19,"min":32,"max":223,"target":"absent","response":"absent","rt":843,"correct":true,"confidence":-1},{"trial_n":20,"min":40,"max":215,"target":"absent","response":"absent","rt":891.70000000298,"correct":true,"confidence":-1},{"trial_n":21,"min":40,"max":215,"target":"present","response":"present","rt":2001.6999999993,"correct":true,"confidence":5},{"trial_n":22,"min":44,"max":211,"target":"absent","response":"absent","rt":1938.5,"correct":true,"confidence":5},{"trial_n":23,"min":44,"max":211,"target":"present","response":"present","rt":1275.5,"correct":true,"confidence":5},{"trial_n":24,"min":48,"max":207,"target":"present","response":"present","rt":1210.5,"correct":true,"confidence":5},{"trial_n":25,"min":48,"max":207,"target":"present","response":"present","rt":1442.8000000007,"correct":true,"confidence":5},{"trial_n":26,"min":52,"max":203,"target":"absent","response":"absent","rt":1242.5,"correct":true,"confidence":5},{"trial_n":27,"min":52,"max":203,"target":"present","response":"present","rt":2726.3999999985,"correct":true,"confidence":4},{"trial_n":28,"min":56,"max":199,"target":"present","response":"present","rt":1129,"correct":true,"confidence":5},{"trial_n":29,"min":56,"max":199,"target":"absent","response":"absent","rt":1252.1999999993,"correct":true,"confidence":5},{"trial_n":30,"min":60,"max":195,"target":"absent","response":"absent","rt":1244.9000000022,"correct":true,"confidence":5},{"trial_n":31,"min":60,"max":195,"target":"present","response":"present","rt":2577.3999999985,"correct":true,"confidence":4},{"trial_n":32,"min":62,"max":193,"target":"absent","response":"absent","rt":1624.6000000015,"correct":true,"confidence":5},{"trial_n":33,"min":62,"max":193,"target":"absent","response":"absent","rt":3432.4000000022,"correct":true,"confidence":5},{"trial_n":34,"min":64,"max":191,"target":"present","response":"present","rt":2817.5999999978,"correct":true,"confidence":3},{"trial_n":35,"min":64,"max":191,"target":"absent","response":"absent","rt":1517.1000000015,"correct":true,"confidence":5},{"trial_n":36,"min":66,"max":189,"target":"absent","response":"absent","rt":1420.1999999993,"correct":true,"confidence":5},{"trial_n":37,"min":66,"max":189,"target":"absent","response":"absent","rt":1457.6999999993,"correct":true,"confidence":5},{"trial_n":38,"min":68,"max":187,"target":"absent","response":"absent","rt":1881.0999999978,"correct":true,"confidence":5},{"trial_n":39,"min":68,"max":187,"target":"present","response":"present","rt":2209.5,"correct":true,"confidence":5},{"trial_n":40,"min":70,"max":185,"target":"absent","response":"absent","rt":2302.4000000022,"correct":true,"confidence":4},{"trial_n":41,"min":70,"max":185,"target":"absent","response":"absent","rt":3158.6000000015,"correct":true,"confidence":5},{"trial_n":42,"min":71,"max":184,"target":"absent","response":"absent","rt":1128.1000000015,"correct":true,"confidence":5},{"trial_n":43,"min":71,"max":184,"target":"absent","response":"absent","rt":1318.8000000007,"correct":true,"confidence":5},{"trial_n":44,"min":72,"max":183,"target":"absent","response":"absent","rt":487.79999999702,"correct":true,"confidence":5},{"trial_n":45,"min":72,"max":183,"target":"present","response":"present","rt":1731,"correct":true,"confidence":5},{"trial_n":46,"min":73,"max":182,"target":"present","response":"present","rt":2579.4000000022,"correct":true,"confidence":3},{"trial_n":47,"min":73,"max":182,"target":"absent","response":"absent","rt":1368.1000000015,"correct":true,"confidence":4},{"trial_n":48,"min":74,"max":181,"target":"absent","response":"absent","rt":1431,"correct":true,"confidence":5},{"trial_n":49,"min":74,"max":181,"target":"absent","response":"absent","rt":1864.1999999993,"correct":true,"confidence":5},{"trial_n":50,"min":75,"max":180,"target":"present","response":"absent","rt":1347.1999999993,"correct":false,"confidence":4},{"trial_n":51,"min":74,"max":181,"target":"absent","response":"absent","rt":1351.8999999985,"correct":true,"confidence":4},{"trial_n":52,"min":74,"max":181,"target":"absent","response":"absent","rt":1127.8000000007,"correct":true,"confidence":5},{"trial_n":53,"min":75,"max":180,"target":"present","response":"absent","rt":1010.5999999978,"correct":false,"confidence":3},{"trial_n":54,"min":74,"max":181,"target":"present","response":"absent","rt":1042.9000000022,"correct":false,"confidence":4},{"trial_n":55,"min":73,"max":182,"target":"absent","response":"absent","rt":567.5,"correct":true,"confidence":3},{"trial_n":56,"min":73,"max":182,"target":"present","response":"present","rt":1314.8000000007,"correct":true,"confidence":3},{"trial_n":57,"min":74,"max":181,"target":"present","response":"present","rt":1186.799999997,"correct":true,"confidence":5},{"trial_n":58,"min":74,"max":181,"target":"present","response":"present","rt":931,"correct":true,"confidence":5},{"trial_n":59,"min":75,"max":180,"target":"absent","response":"absent","rt":1511.8000000007,"correct":true,"confidence":3},{"trial_n":60,"min":75,"max":180,"target":"present","response":"present","rt":962.80000000075,"correct":true,"confidence":4},{"trial_n":61,"min":76,"max":179,"target":"present","response":"present","rt":851,"correct":true,"confidence":5},{"trial_n":62,"min":76,"max":179,"target":"absent","response":"present","rt":1688.1999999993,"correct":false,"confidence":3},{"trial_n":63,"min":75,"max":180,"target":"present","response":"present","rt":739.09999999776,"correct":true,"confidence":5},{"trial_n":64,"min":75,"max":180,"target":"present","response":"present","rt":992.69999999925,"correct":true,"confidence":5},{"trial_n":65,"min":76,"max":179,"target":"present","response":"present","rt":1314.5,"correct":true,"confidence":4},{"trial_n":66,"min":76,"max":179,"target":"present","response":"present","rt":962.80000000075,"correct":true,"confidence":4},{"trial_n":67,"min":77,"max":178,"target":"absent","response":"absent","rt":2264.1999999993,"correct":true,"confidence":4},{"trial_n":68,"min":77,"max":178,"target":"present","response":"present","rt":1074.3000000007,"correct":true,"confidence":3},{"trial_n":69,"min":78,"max":177,"target":"absent","response":"absent","rt":1735.8999999985,"correct":true,"confidence":2},{"trial_n":70,"min":78,"max":177,"target":"absent","response":"absent","rt":1463.6999999993,"correct":true,"confidence":3},{"trial_n":71,"min":41,"max":214,"target":"present","response":"present","rt":2994.6000000015,"correct":true,"confidence":-1},{"trial_n":72,"min":41,"max":214,"target":"present","response":"present","rt":632.10000000149,"correct":true,"confidence":-1},{"trial_n":73,"min":57,"max":198,"target":"absent","response":"present","rt":1382.8999999985,"correct":false,"confidence":-1},{"trial_n":74,"min":41,"max":214,"target":"absent","response":"absent","rt":679.90000000224,"correct":true,"confidence":-1},{"trial_n":75,"min":41,"max":214,"target":"present","response":"present","rt":504,"correct":true,"confidence":-1},{"trial_n":76,"min":57,"max":198,"target":"absent","response":"absent","rt":599.89999999851,"correct":true,"confidence":-1},{"trial_n":77,"min":57,"max":198,"target":"present","response":"present","rt":728,"correct":true,"confidence":-1},{"trial_n":78,"min":73,"max":182,"target":"present","response":"absent","rt":439.29999999702,"correct":false,"confidence":-1},{"trial_n":79,"min":57,"max":198,"target":"present","response":"present","rt":631.30000000075,"correct":true,"confidence":-1},{"trial_n":80,"min":57,"max":198,"target":"present","response":"present","rt":599.19999999925,"correct":true,"confidence":-1},{"trial_n":81,"min":65,"max":190,"target":"absent","response":"present","rt":1062.9000000022,"correct":false,"confidence":-1},{"trial_n":82,"min":57,"max":198,"target":"present","response":"present","rt":695.5,"correct":true,"confidence":-1},{"trial_n":83,"min":57,"max":198,"target":"present","response":"present","rt":775.30000000075,"correct":true,"confidence":-1},{"trial_n":84,"min":65,"max":190,"target":"absent","response":"absent","rt":471,"correct":true,"confidence":-1},{"trial_n":85,"min":65,"max":190,"target":"absent","response":"present","rt":646.80000000075,"correct":false,"confidence":-1},{"trial_n":86,"min":57,"max":198,"target":"absent","response":"absent","rt":999.79999999702,"correct":true,"confidence":-1},{"trial_n":87,"min":57,"max":198,"target":"absent","response":"absent","rt":887,"correct":true,"confidence":-1},{"trial_n":88,"min":65,"max":190,"target":"present","response":"present","rt":470.59999999776,"correct":true,"confidence":-1},{"trial_n":89,"min":65,"max":190,"target":"absent","response":"absent","rt":599.19999999925,"correct":true,"confidence":-1},{"trial_n":90,"min":73,"max":182,"target":"absent","response":"present","rt":807.60000000149,"correct":false,"confidence":-1},{"trial_n":91,"min":69,"max":186,"target":"present","response":"present","rt":579.29999999702,"correct":true,"confidence":5},{"trial_n":92,"min":69,"max":186,"target":"absent","response":"present","rt":1460.5,"correct":false,"confidence":2},{"trial_n":93,"min":65,"max":190,"target":"present","response":"present","rt":483.10000000149,"correct":true,"confidence":5},{"trial_n":94,"min":65,"max":190,"target":"absent","response":"absent","rt":1075.6999999993,"correct":true,"confidence":5},{"trial_n":95,"min":69,"max":186,"target":"absent","response":"absent","rt":660.80000000075,"correct":true,"confidence":4},{"trial_n":96,"min":69,"max":186,"target":"present","response":"present","rt":387.40000000224,"correct":true,"confidence":5},{"trial_n":97,"min":73,"max":182,"target":"absent","response":"present","rt":1492.1999999993,"correct":false,"confidence":2},{"trial_n":98,"min":69,"max":186,"target":"absent","response":"absent","rt":1603.1999999993,"correct":true,"confidence":3},{"trial_n":99,"min":69,"max":186,"target":"absent","response":"present","rt":651.40000000224,"correct":false,"confidence":2},{"trial_n":100,"min":65,"max":190,"target":"present","response":"present","rt":276.80000000075,"correct":true,"confidence":5},{"trial_n":101,"min":65,"max":190,"target":"present","response":"present","rt":515.89999999851,"correct":true,"confidence":5},{"trial_n":102,"min":67,"max":188,"target":"present","response":"present","rt":371.5,"correct":true,"confidence":5},{"trial_n":103,"min":67,"max":188,"target":"absent","response":"absent","rt":1124.1000000015,"correct":true,"confidence":3},{"trial_n":104,"min":69,"max":186,"target":"present","response":"present","rt":451,"correct":true,"confidence":5},{"trial_n":105,"min":69,"max":186,"target":"absent","response":"present","rt":1540.6999999993,"correct":false,"confidence":4},{"trial_n":106,"min":67,"max":188,"target":"absent","response":"absent","rt":675.40000000224,"correct":true,"confidence":5},{"trial_n":107,"min":67,"max":188,"target":"absent","response":"present","rt":915.69999999925,"correct":false,"confidence":2},{"trial_n":108,"min":65,"max":190,"target":"present","response":"present","rt":788.59999999776,"correct":true,"confidence":5},{"trial_n":109,"min":65,"max":190,"target":"present","response":"present","rt":483.89999999851,"correct":true,"confidence":5},{"trial_n":110,"min":67,"max":188,"target":"absent","response":"absent","rt":947.79999999702,"correct":true,"confidence":3},{"trial_n":111,"min":67,"max":188,"target":"absent","response":"absent","rt":1139.8000000007,"correct":true,"confidence":3},{"trial_n":112,"min":68,"max":187,"target":"present","response":"present","rt":371.60000000149,"correct":true,"confidence":5},{"trial_n":113,"min":68,"max":187,"target":"absent","response":"present","rt":2019.3999999985,"correct":false,"confidence":3},{"trial_n":114,"min":67,"max":188,"target":"present","response":"present","rt":657.5,"correct":true,"confidence":5},{"trial_n":115,"min":67,"max":188,"target":"present","response":"present","rt":787.59999999776,"correct":true,"confidence":5},{"trial_n":116,"min":68,"max":187,"target":"present","response":"present","rt":691.59999999776,"correct":true,"confidence":5},{"trial_n":117,"min":68,"max":187,"target":"present","response":"present","rt":996.19999999925,"correct":true,"confidence":5},{"trial_n":118,"min":69,"max":186,"target":"absent","response":"absent","rt":660.29999999702,"correct":true,"confidence":4},{"trial_n":119,"min":69,"max":186,"target":"absent","response":"absent","rt":740.39999999851,"correct":true,"confidence":4},{"trial_n":120,"min":70,"max":185,"target":"absent","response":"absent","rt":547.80000000075,"correct":true,"confidence":4},{"trial_n":121,"min":70,"max":185,"target":"absent","response":"absent","rt":1058.8999999985,"correct":true,"confidence":4},{"trial_n":122,"min":71,"max":184,"target":"absent","response":"absent","rt":1267.299999997,"correct":true,"confidence":2},{"trial_n":123,"min":71,"max":184,"target":"present","response":"present","rt":644.80000000075,"correct":true,"confidence":5},{"trial_n":124,"min":72,"max":183,"target":"present","response":"present","rt":1253.5,"correct":true,"confidence":5},{"trial_n":125,"min":72,"max":183,"target":"present","response":"present","rt":868.10000000149,"correct":true,"confidence":5},{"trial_n":126,"min":73,"max":182,"target":"absent","response":"absent","rt":1315.0999999978,"correct":true,"confidence":5},{"trial_n":127,"min":73,"max":182,"target":"present","response":"present","rt":612.39999999851,"correct":true,"confidence":5},{"trial_n":128,"min":74,"max":181,"target":"present","response":"present","rt":628,"correct":true,"confidence":4},{"trial_n":129,"min":74,"max":181,"target":"present","response":"present","rt":661.60000000149,"correct":true,"confidence":4},{"trial_n":130,"min":75,"max":180,"target":"absent","response":"present","rt":771.5,"correct":false,"confidence":5},{"trial_n":131,"min":74,"max":181,"target":"present","response":"present","rt":803.69999999925,"correct":true,"confidence":4},{"trial_n":132,"min":74,"max":181,"target":"present","response":"present","rt":4467,"correct":true,"confidence":3},{"trial_n":133,"min":75,"max":180,"target":"absent","response":"present","rt":1108.1000000015,"correct":false,"confidence":2},{"trial_n":134,"min":74,"max":181,"target":"absent","response":"present","rt":1059.6000000015,"correct":false,"confidence":2},{"trial_n":135,"min":73,"max":182,"target":"present","response":"present","rt":1604,"correct":true,"confidence":4},{"trial_n":136,"min":73,"max":182,"target":"absent","response":"present","rt":1219.0999999978,"correct":false,"confidence":3},{"trial_n":137,"min":72,"max":183,"target":"absent","response":"absent","rt":1972.200000003,"correct":true,"confidence":1},{"trial_n":138,"min":72,"max":183,"target":"present","response":"absent","rt":851.60000000149,"correct":false,"confidence":2},{"trial_n":139,"min":71,"max":184,"target":"present","response":"present","rt":2084,"correct":true,"confidence":3},{"trial_n":140,"min":71,"max":184,"target":"present","response":"present","rt":548.39999999851,"correct":true,"confidence":4}]