[{"trial_n":1,"min":25,"max":230,"target":"present","response":"absent","rt":21736.200000048,"correct":false,"confidence":-1},{"trial_n":2,"min":25,"max":230,"target":"present","response":"present","rt":8888.0999999046,"correct":true,"confidence":-1},{"trial_n":3,"min":25,"max":230,"target":"absent","response":"absent","rt":2469.4000000954,"correct":true,"confidence":-1},{"trial_n":4,"min":41,"max":214,"target":"absent","response":"absent","rt":2462.5,"correct":true,"confidence":-1},{"trial_n":5,"min":41,"max":214,"target":"present","response":"present","rt":1695.3999999762,"correct":true,"confidence":-1},{"trial_n":6,"min":57,"max":198,"target":"absent","response":"absent","rt":1410.8000000715,"correct":true,"confidence":-1},{"trial_n":7,"min":57,"max":198,"target":"absent","response":"absent","rt":1087.8000000715,"correct":true,"confidence":-1},{"trial_n":8,"min":73,"max":182,"target":"present","response":"present","rt":1873.2999999523,"correct":true,"confidence":-1},{"trial_n":9,"min":73,"max":182,"target":"present","response":"absent","rt":1614.1999999285,"correct":false,"confidence":-1},{"trial_n":10,"min":57,"max":198,"target":"absent","response":"absent","rt":1091.8999999762,"correct":true,"confidence":-1},{"trial_n":11,"min":57,"max":198,"target":"present","response":"absent","rt":1077.9000000954,"correct":false,"confidence":-1},{"trial_n":12,"min":49,"max":206,"target":"absent","response":"absent","rt":1098.0999999046,"correct":true,"confidence":-1},{"trial_n":13,"min":49,"max":206,"target":"absent","response":"absent","rt":1103.8000000715,"correct":true,"confidence":-1},{"trial_n":14,"min":57,"max":198,"target":"present","response":"present","rt":1276.3000000715,"correct":true,"confidence":-1},{"trial_n":15,"min":57,"max":198,"target":"absent","response":"absent","rt":1136.1000000238,"correct":true,"confidence":-1},{"trial_n":16,"min":65,"max":190,"target":"present","response":"present","rt":1085.6000000238,"correct":true,"confidence":-1},{"trial_n":17,"min":65,"max":190,"target":"present","response":"present","rt":1877.7000000477,"correct":true,"confidence":-1},{"trial_n":18,"min":73,"max":182,"target":"absent","response":"absent","rt":1151.6000000238,"correct":true,"confidence":-1},{"trial_n":19,"min":73,"max":182,"target":"absent","response":"absent","rt":879.10000002384,"correct":true,"confidence":-1},{"trial_n":20,"min":81,"max":174,"target":"absent","response":"absent","rt":1537.3000000715,"correct":true,"confidence":-1},{"trial_n":21,"min":81,"max":174,"target":"present","response":"present","rt":1368.2000000477,"correct":true,"confidence":3},{"trial_n":22,"min":85,"max":170,"target":"absent","response":"absent","rt":2702.6000000238,"correct":true,"confidence":4},{"trial_n":23,"min":85,"max":170,"target":"absent","response":"absent","rt":1864.7000000477,"correct":true,"confidence":4},{"trial_n":24,"min":89,"max":166,"target":"present","response":"absent","rt":2695.7000000477,"correct":false,"confidence":3},{"trial_n":25,"min":85,"max":170,"target":"present","response":"present","rt":1378.7000000477,"correct":true,"confidence":4},{"trial_n":26,"min":85,"max":170,"target":"present","response":"present","rt":1525.7000000477,"correct":true,"confidence":5},{"trial_n":27,"min":89,"max":166,"target":"present","response":"absent","rt":1220.5,"correct":false,"confidence":4},{"trial_n":28,"min":85,"max":170,"target":"absent","response":"absent","rt":2102.6000000238,"correct":true,"confidence":2},{"trial_n":29,"min":85,"max":170,"target":"present","response":"absent","rt":2285.5,"correct":false,"confidence":2},{"trial_n":30,"min":81,"max":174,"target":"absent","response":"absent","rt":1702.8999999762,"correct":true,"confidence":2},{"trial_n":31,"min":81,"max":174,"target":"absent","response":"absent","rt":1904.6000000238,"correct":true,"confidence":2},{"trial_n":32,"min":83,"max":172,"target":"absent","response":"absent","rt":1688.2999999523,"correct":true,"confidence":3},{"trial_n":33,"min":83,"max":172,"target":"absent","response":"absent","rt":1478.7999999523,"correct":true,"confidence":3},{"trial_n":34,"min":85,"max":170,"target":"absent","response":"absent","rt":1397.1999999285,"correct":true,"confidence":3},{"trial_n":35,"min":85,"max":170,"target":"absent","response":"absent","rt":1528.2999999523,"correct":true,"confidence":3},{"trial_n":36,"min":87,"max":168,"target":"absent","response":"absent","rt":2086.8999999762,"correct":true,"confidence":2},{"trial_n":37,"min":87,"max":168,"target":"absent","response":"absent","rt":1703.6999999285,"correct":true,"confidence":3},{"trial_n":38,"min":89,"max":166,"target":"absent","response":"absent","rt":1828.8000000715,"correct":true,"confidence":4},{"trial_n":39,"min":89,"max":166,"target":"present","response":"present","rt":1471.7999999523,"correct":true,"confidence":5},{"trial_n":40,"min":91,"max":164,"target":"absent","response":"absent","rt":1553.7999999523,"correct":true,"confidence":3},{"trial_n":41,"min":91,"max":164,"target":"present","response":"present","rt":1686.1000000238,"correct":true,"confidence":3},{"trial_n":42,"min":92,"max":163,"target":"absent","response":"absent","rt":2069.4000000954,"correct":true,"confidence":3},{"trial_n":43,"min":92,"max":163,"target":"present","response":"absent","rt":2152.7999999523,"correct":false,"confidence":3},{"trial_n":44,"min":91,"max":164,"target":"absent","response":"absent","rt":1503.6000000238,"correct":true,"confidence":4},{"trial_n":45,"min":91,"max":164,"target":"absent","response":"absent","rt":1483.7000000477,"correct":true,"confidence":3},{"trial_n":46,"min":92,"max":163,"target":"present","response":"absent","rt":1983.2999999523,"correct":false,"confidence":4},{"trial_n":47,"min":91,"max":164,"target":"present","response":"present","rt":1477.2999999523,"correct":true,"confidence":2},{"trial_n":48,"min":91,"max":164,"target":"present","response":"present","rt":1303.1000000238,"correct":true,"confidence":3},{"trial_n":49,"min":92,"max":163,"target":"absent","response":"absent","rt":1530.5,"correct":true,"confidence":3},{"trial_n":50,"min":92,"max":163,"target":"absent","response":"absent","rt":1596,"correct":true,"confidence":4},{"trial_n":51,"min":93,"max":162,"target":"present","response":"absent","rt":1703.6999999285,"correct":false,"confidence":1},{"trial_n":52,"min":92,"max":163,"target":"present","response":"absent","rt":2004.6000000238,"correct":false,"confidence":2},{"trial_n":53,"min":91,"max":164,"target":"absent","response":"absent","rt":1630.5,"correct":true,"confidence":3},{"trial_n":54,"min":91,"max":164,"target":"absent","response":"present","rt":2024.8999999762,"correct":false,"confidence":3},{"trial_n":55,"min":90,"max":165,"target":"absent","response":"absent","rt":1446,"correct":true,"confidence":2},{"trial_n":56,"min":90,"max":165,"target":"present","response":"present","rt":1627.6000000238,"correct":true,"confidence":4},{"trial_n":57,"min":91,"max":164,"target":"present","response":"present","rt":1538.8000000715,"correct":true,"confidence":3},{"trial_n":58,"min":91,"max":164,"target":"present","response":"absent","rt":1369.8000000715,"correct":false,"confidence":2},{"trial_n":59,"min":90,"max":165,"target":"absent","response":"absent","rt":1579.7999999523,"correct":true,"confidence":3},{"trial_n":60,"min":90,"max":165,"target":"present","response":"absent","rt":1514.3000000715,"correct":false,"confidence":3},{"trial_n":61,"min":89,"max":166,"target":"present","response":"present","rt":1480,"correct":true,"confidence":3},{"trial_n":62,"min":89,"max":166,"target":"present","response":"present","rt":1510.7000000477,"correct":true,"confidence":2},{"trial_n":63,"min":90,"max":165,"target":"present","response":"absent","rt":1252.5,"correct":false,"confidence":3},{"trial_n":64,"min":89,"max":166,"target":"present","response":"present","rt":2652.3999999762,"correct":true,"confidence":3},{"trial_n":65,"min":89,"max":166,"target":"present","response":"present","rt":1581.5,"correct":true,"confidence":3},{"trial_n":66,"min":90,"max":165,"target":"absent","response":"present","rt":1445,"correct":false,"confidence":2},{"trial_n":67,"min":89,"max":166,"target":"present","response":"absent","rt":1388.8000000715,"correct":false,"confidence":3},{"trial_n":68,"min":88,"max":167,"target":"present","response":"absent","rt":1553.6999999285,"correct":false,"confidence":3},{"trial_n":69,"min":87,"max":168,"target":"present","response":"present","rt":1267.8999999762,"correct":true,"confidence":5},{"trial_n":70,"min":87,"max":168,"target":"present","response":"present","rt":1446.6999999285,"correct":true,"confidence":5},{"trial_n":71,"min":41,"max":214,"target":"present","response":"present","rt":4612.3999999762,"correct":true,"confidence":-1},{"trial_n":72,"min":41,"max":214,"target":"present","response":"present","rt":1262,"correct":true,"confidence":-1},{"trial_n":73,"min":57,"max":198,"target":"absent","response":"absent","rt":1171.8999999762,"correct":true,"confidence":-1},{"trial_n":74,"min":57,"max":198,"target":"absent","response":"absent","rt":2766,"correct":true,"confidence":-1},{"trial_n":75,"min":73,"max":182,"target":"present","response":"present","rt":1134.8999999762,"correct":true,"confidence":-1},{"trial_n":76,"min":73,"max":182,"target":"present","response":"present","rt":1114.8999999762,"correct":true,"confidence":-1},{"trial_n":77,"min":89,"max":166,"target":"present","response":"present","rt":1608.8999999762,"correct":true,"confidence":-1},{"trial_n":78,"min":89,"max":166,"target":"absent","response":"present","rt":3351.7999999523,"correct":false,"confidence":-1},{"trial_n":79,"min":73,"max":182,"target":"absent","response":"absent","rt":1535.3999999762,"correct":true,"confidence":-1},{"trial_n":80,"min":73,"max":182,"target":"absent","response":"absent","rt":1300.3999999762,"correct":true,"confidence":-1},{"trial_n":81,"min":81,"max":174,"target":"present","response":"present","rt":1058,"correct":true,"confidence":-1},{"trial_n":82,"min":81,"max":174,"target":"present","response":"present","rt":1641,"correct":true,"confidence":-1},{"trial_n":83,"min":89,"max":166,"target":"absent","response":"absent","rt":1175.3999999762,"correct":true,"confidence":-1},{"trial_n":84,"min":89,"max":166,"target":"absent","response":"absent","rt":1340,"correct":true,"confidence":-1},{"trial_n":85,"min":97,"max":158,"target":"absent","response":"absent","rt":1330.7999999523,"correct":true,"confidence":-1},{"trial_n":86,"min":97,"max":158,"target":"present","response":"present","rt":1428,"correct":true,"confidence":-1},{"trial_n":87,"min":105,"max":150,"target":"absent","response":"present","rt":1156.8999999762,"correct":false,"confidence":-1},{"trial_n":88,"min":97,"max":158,"target":"present","response":"absent","rt":1260.8999999762,"correct":false,"confidence":-1},{"trial_n":89,"min":89,"max":166,"target":"absent","response":"absent","rt":1593.2000000477,"correct":true,"confidence":-1},{"trial_n":90,"min":89,"max":166,"target":"present","response":"present","rt":2114.3999999762,"correct":true,"confidence":-1},{"trial_n":91,"min":93,"max":162,"target":"absent","response":"present","rt":1556.6000000238,"correct":false,"confidence":2},{"trial_n":92,"min":89,"max":166,"target":"present","response":"present","rt":1671,"correct":true,"confidence":3},{"trial_n":93,"min":89,"max":166,"target":"present","response":"present","rt":1908.1999999285,"correct":true,"confidence":3},{"trial_n":94,"min":93,"max":162,"target":"absent","response":"absent","rt":1554,"correct":true,"confidence":3},{"trial_n":95,"min":93,"max":162,"target":"present","response":"present","rt":1321,"correct":true,"confidence":3},{"trial_n":96,"min":97,"max":158,"target":"present","response":"present","rt":1848.0999999046,"correct":true,"confidence":4},{"trial_n":97,"min":97,"max":158,"target":"absent","response":"present","rt":2061.8999999762,"correct":false,"confidence":2},{"trial_n":98,"min":93,"max":162,"target":"present","response":"absent","rt":2303.7999999523,"correct":false,"confidence":2},{"trial_n":99,"min":89,"max":166,"target":"absent","response":"absent","rt":1446.5,"correct":true,"confidence":4},{"trial_n":100,"min":89,"max":166,"target":"present","response":"present","rt":1270,"correct":true,"confidence":5},{"trial_n":101,"min":91,"max":164,"target":"present","response":"present","rt":1288.2999999523,"correct":true,"confidence":3},{"trial_n":102,"min":91,"max":164,"target":"absent","response":"present","rt":2003.8999999762,"correct":false,"confidence":2},{"trial_n":103,"min":89,"max":166,"target":"absent","response":"absent","rt":1287.5,"correct":true,"confidence":3},{"trial_n":104,"min":89,"max":166,"target":"present","response":"present","rt":1514,"correct":true,"confidence":4},{"trial_n":105,"min":91,"max":164,"target":"present","response":"present","rt":1265.5,"correct":true,"confidence":5},{"trial_n":106,"min":91,"max":164,"target":"present","response":"present","rt":1474,"correct":true,"confidence":3},{"trial_n":107,"min":93,"max":162,"target":"present","response":"present","rt":1215.1000000238,"correct":true,"confidence":3},{"trial_n":108,"min":93,"max":162,"target":"absent","response":"absent","rt":1261.6999999285,"correct":true,"confidence":3},{"trial_n":109,"min":95,"max":160,"target":"absent","response":"present","rt":1365.3000000715,"correct":false,"confidence":3},{"trial_n":110,"min":93,"max":162,"target":"present","response":"present","rt":1314.6000000238,"correct":true,"confidence":4},{"trial_n":111,"min":93,"max":162,"target":"absent","response":"present","rt":1597.2999999523,"correct":false,"confidence":1},{"trial_n":112,"min":92,"max":163,"target":"present","response":"present","rt":1474.9000000954,"correct":true,"confidence":3},{"trial_n":113,"min":92,"max":163,"target":"present","response":"present","rt":1250.1000000238,"correct":true,"confidence":4},{"trial_n":114,"min":93,"max":162,"target":"present","response":"present","rt":1438.7000000477,"correct":true,"confidence":4},{"trial_n":115,"min":93,"max":162,"target":"present","response":"present","rt":1175,"correct":true,"confidence":4},{"trial_n":116,"min":94,"max":161,"target":"present","response":"present","rt":1473.8999999762,"correct":true,"confidence":3},{"trial_n":117,"min":94,"max":161,"target":"absent","response":"absent","rt":1330,"correct":true,"confidence":3},{"trial_n":118,"min":95,"max":160,"target":"present","response":"present","rt":1324.6999999285,"correct":true,"confidence":3},{"trial_n":119,"min":95,"max":160,"target":"present","response":"present","rt":1255.1999999285,"correct":true,"confidence":5},{"trial_n":120,"min":96,"max":159,"target":"absent","response":"absent","rt":1399.1000000238,"correct":true,"confidence":4},{"trial_n":121,"min":96,"max":159,"target":"absent","response":"absent","rt":1920.7000000477,"correct":true,"confidence":1},{"trial_n":122,"min":97,"max":158,"target":"present","response":"present","rt":3328,"correct":true,"confidence":2},{"trial_n":123,"min":97,"max":158,"target":"absent","response":"present","rt":1475.6000000238,"correct":false,"confidence":3},{"trial_n":124,"min":96,"max":159,"target":"absent","response":"absent","rt":1341.3000000715,"correct":true,"confidence":4},{"trial_n":125,"min":96,"max":159,"target":"absent","response":"absent","rt":1403.8999999762,"correct":true,"confidence":4},{"trial_n":126,"min":97,"max":158,"target":"present","response":"absent","rt":1846.2999999523,"correct":false,"confidence":2},{"trial_n":127,"min":96,"max":159,"target":"present","response":"present","rt":1191.3000000715,"correct":true,"confidence":4},{"trial_n":128,"min":96,"max":159,"target":"present","response":"present","rt":1307.8999999762,"correct":true,"confidence":4},{"trial_n":129,"min":97,"max":158,"target":"absent","response":"absent","rt":1612.2000000477,"correct":true,"confidence":4},{"trial_n":130,"min":97,"max":158,"target":"absent","response":"present","rt":1455.2999999523,"correct":false,"confidence":3},{"trial_n":131,"min":96,"max":159,"target":"absent","response":"present","rt":2296.7000000477,"correct":false,"confidence":2},{"trial_n":132,"min":95,"max":160,"target":"present","response":"present","rt":1389.7999999523,"correct":true,"confidence":2},{"trial_n":133,"min":95,"max":160,"target":"absent","response":"present","rt":1430.3999999762,"correct":false,"confidence":2},{"trial_n":134,"min":94,"max":161,"target":"absent","response":"present","rt":1554,"correct":false,"confidence":3},{"trial_n":135,"min":93,"max":162,"target":"present","response":"present","rt":1413.7000000477,"correct":true,"confidence":3},{"trial_n":136,"min":93,"max":162,"target":"absent","response":"present","rt":1519.7999999523,"correct":false,"confidence":3},{"trial_n":137,"min":92,"max":163,"target":"absent","response":"absent","rt":1320.8999999762,"correct":true,"confidence":2},{"trial_n":138,"min":92,"max":163,"target":"absent","response":"absent","rt":1770.3000000715,"correct":true,"confidence":3},{"trial_n":139,"min":93,"max":162,"target":"absent","response":"present","rt":2643.7999999523,"correct":false,"confidence":1},{"trial_n":140,"min":92,"max":163,"target":"present","response":"present","rt":1198.6999999285,"correct":true,"confidence":4}]