[{"trial_n":1,"n_dots":4.25,"target":"right","response":"right","rt":3337.7000000477,"correct":true,"confidence":-1},{"trial_n":2,"n_dots":4.25,"target":"right","response":"right","rt":1255.8000000715,"correct":true,"confidence":-1},{"trial_n":3,"n_dots":3.85,"target":"right","response":"left","rt":1032.7999999523,"correct":false,"confidence":-1},{"trial_n":4,"n_dots":4.25,"target":"left","response":"left","rt":978.89999997616,"correct":true,"confidence":-1},{"trial_n":5,"n_dots":4.25,"target":"right","response":"left","rt":3310.3999999762,"correct":false,"confidence":-1},{"trial_n":6,"n_dots":4.65,"target":"left","response":"left","rt":1429.7000000477,"correct":true,"confidence":-1},{"trial_n":7,"n_dots":4.65,"target":"right","response":"right","rt":4323.8000000715,"correct":true,"confidence":-1},{"trial_n":8,"n_dots":4.45,"target":"right","response":"left","rt":682.79999995232,"correct":false,"confidence":-1},{"trial_n":9,"n_dots":4.65,"target":"left","response":"left","rt":515,"correct":true,"confidence":-1},{"trial_n":10,"n_dots":4.65,"target":"left","response":"left","rt":688.29999995232,"correct":true,"confidence":-1},{"trial_n":11,"n_dots":4.45,"target":"right","response":"right","rt":454.89999997616,"correct":true,"confidence":-1},{"trial_n":12,"n_dots":4.45,"target":"left","response":"left","rt":401.39999997616,"correct":true,"confidence":-1},{"trial_n":13,"n_dots":4.35,"target":"right","response":"right","rt":346.89999997616,"correct":true,"confidence":-1},{"trial_n":14,"n_dots":4.35,"target":"left","response":"left","rt":328,"correct":true,"confidence":-1},{"trial_n":15,"n_dots":4.25,"target":"right","response":"right","rt":813.69999992847,"correct":true,"confidence":-1},{"trial_n":16,"n_dots":4.25,"target":"left","response":"left","rt":365.89999997616,"correct":true,"confidence":-1},{"trial_n":17,"n_dots":4.15,"target":"left","response":"left","rt":452.10000002384,"correct":true,"confidence":-1},{"trial_n":18,"n_dots":4.15,"target":"left","response":"left","rt":410.10000002384,"correct":true,"confidence":-1},{"trial_n":19,"n_dots":4.05,"target":"left","response":"left","rt":390.10000002384,"correct":true,"confidence":-1},{"trial_n":20,"n_dots":4.05,"target":"right","response":"right","rt":617,"correct":true,"confidence":-1},{"trial_n":21,"n_dots":3.95,"target":"left","response":"left","rt":631.10000002384,"correct":true,"confidence":5},{"trial_n":22,"n_dots":3.95,"target":"left","response":"left","rt":440.79999995232,"correct":true,"confidence":5},{"trial_n":23,"n_dots":3.85,"target":"right","response":"right","rt":1277.2999999523,"correct":true,"confidence":3},{"trial_n":24,"n_dots":3.85,"target":"left","response":"left","rt":811.30000007153,"correct":true,"confidence":4},{"trial_n":25,"n_dots":3.75,"target":"right","response":"right","rt":800.19999992847,"correct":true,"confidence":2},{"trial_n":26,"n_dots":3.75,"target":"right","response":"left","rt":2755.6000000238,"correct":false,"confidence":2},{"trial_n":27,"n_dots":3.85,"target":"right","response":"right","rt":551,"correct":true,"confidence":3},{"trial_n":28,"n_dots":3.85,"target":"right","response":"right","rt":888.20000004768,"correct":true,"confidence":3},{"trial_n":29,"n_dots":3.75,"target":"left","response":"left","rt":830.89999997616,"correct":true,"confidence":5},{"trial_n":30,"n_dots":3.75,"target":"left","response":"left","rt":922.10000002384,"correct":true,"confidence":5},{"trial_n":31,"n_dots":3.65,"target":"right","response":"right","rt":825.59999990463,"correct":true,"confidence":2},{"trial_n":32,"n_dots":3.65,"target":"right","response":"right","rt":722,"correct":true,"confidence":3},{"trial_n":33,"n_dots":3.55,"target":"right","response":"left","rt":541.10000002384,"correct":false,"confidence":4},{"trial_n":34,"n_dots":3.65,"target":"right","response":"right","rt":2046.2000000477,"correct":true,"confidence":2},{"trial_n":35,"n_dots":3.65,"target":"right","response":"left","rt":562.30000007153,"correct":false,"confidence":3},{"trial_n":36,"n_dots":3.75,"target":"left","response":"left","rt":631.09999990463,"correct":true,"confidence":5},{"trial_n":37,"n_dots":3.75,"target":"right","response":"left","rt":815,"correct":false,"confidence":3},{"trial_n":38,"n_dots":3.85,"target":"right","response":"left","rt":548.20000004768,"correct":false,"confidence":4},{"trial_n":39,"n_dots":3.95,"target":"left","response":"left","rt":889.70000004768,"correct":true,"confidence":5},{"trial_n":40,"n_dots":3.95,"target":"left","response":"left","rt":641.39999997616,"correct":true,"confidence":5},{"trial_n":41,"n_dots":3.85,"target":"left","response":"left","rt":554.5,"correct":true,"confidence":4},{"trial_n":42,"n_dots":3.85,"target":"left","response":"left","rt":668,"correct":true,"confidence":5},{"trial_n":43,"n_dots":3.75,"target":"left","response":"left","rt":1018.2000000477,"correct":true,"confidence":5},{"trial_n":44,"n_dots":3.75,"target":"right","response":"left","rt":1831.5,"correct":false,"confidence":2},{"trial_n":45,"n_dots":3.85,"target":"right","response":"right","rt":1896.6000000238,"correct":true,"confidence":2},{"trial_n":46,"n_dots":3.85,"target":"left","response":"left","rt":581.5,"correct":true,"confidence":4},{"trial_n":47,"n_dots":3.75,"target":"left","response":"left","rt":575.70000004768,"correct":true,"confidence":4},{"trial_n":48,"n_dots":3.75,"target":"right","response":"right","rt":1209.1000000238,"correct":true,"confidence":3},{"trial_n":49,"n_dots":3.65,"target":"right","response":"right","rt":700.70000004768,"correct":true,"confidence":3},{"trial_n":50,"n_dots":3.65,"target":"left","response":"left","rt":365.19999992847,"correct":true,"confidence":4},{"trial_n":51,"n_dots":3.55,"target":"left","response":"left","rt":931.5,"correct":true,"confidence":2},{"trial_n":52,"n_dots":3.55,"target":"left","response":"left","rt":361.39999997616,"correct":true,"confidence":4},{"trial_n":53,"n_dots":3.45,"target":"right","response":"right","rt":765.70000004768,"correct":true,"confidence":4},{"trial_n":54,"n_dots":3.45,"target":"right","response":"right","rt":1190.2999999523,"correct":true,"confidence":3},{"trial_n":55,"n_dots":3.35,"target":"left","response":"left","rt":371,"correct":true,"confidence":3},{"trial_n":56,"n_dots":3.35,"target":"right","response":"left","rt":946.60000002384,"correct":false,"confidence":2},{"trial_n":57,"n_dots":3.45,"target":"left","response":"left","rt":434.10000002384,"correct":true,"confidence":4},{"trial_n":58,"n_dots":3.45,"target":"right","response":"right","rt":816.89999997616,"correct":true,"confidence":2},{"trial_n":59,"n_dots":3.35,"target":"left","response":"left","rt":621.19999992847,"correct":true,"confidence":5},{"trial_n":60,"n_dots":3.35,"target":"left","response":"left","rt":439.29999995232,"correct":true,"confidence":4},{"trial_n":61,"n_dots":3.25,"target":"right","response":"left","rt":1535.3999999762,"correct":false,"confidence":1},{"trial_n":62,"n_dots":3.35,"target":"right","response":"left","rt":419,"correct":false,"confidence":3},{"trial_n":63,"n_dots":3.45,"target":"left","response":"left","rt":396.39999997616,"correct":true,"confidence":4},{"trial_n":64,"n_dots":3.45,"target":"right","response":"right","rt":1548.2999999523,"correct":true,"confidence":2},{"trial_n":65,"n_dots":3.35,"target":"left","response":"left","rt":382.19999992847,"correct":true,"confidence":3},{"trial_n":66,"n_dots":3.35,"target":"right","response":"right","rt":1083.8999999762,"correct":true,"confidence":2},{"trial_n":67,"n_dots":3.25,"target":"left","response":"left","rt":351.19999992847,"correct":true,"confidence":4},{"trial_n":68,"n_dots":3.25,"target":"right","response":"right","rt":1085.6999999285,"correct":true,"confidence":4},{"trial_n":69,"n_dots":3.15,"target":"right","response":"left","rt":3007.2000000477,"correct":false,"confidence":1},{"trial_n":70,"n_dots":3.25,"target":"left","response":"left","rt":534.59999990463,"correct":true,"confidence":2},{"trial_n":71,"n_dots":3.25,"target":"left","response":"left","rt":382.10000002384,"correct":true,"confidence":4},{"trial_n":72,"n_dots":3.15,"target":"right","response":"left","rt":2240.6000000238,"correct":false,"confidence":2},{"trial_n":73,"n_dots":3.25,"target":"left","response":"left","rt":318.20000004768,"correct":true,"confidence":4},{"trial_n":74,"n_dots":3.25,"target":"left","response":"left","rt":595.70000004768,"correct":true,"confidence":4},{"trial_n":75,"n_dots":3.15,"target":"right","response":"left","rt":552.5,"correct":false,"confidence":3},{"trial_n":76,"n_dots":3.25,"target":"left","response":"left","rt":397.79999995232,"correct":true,"confidence":4},{"trial_n":77,"n_dots":3.25,"target":"left","response":"left","rt":386.79999995232,"correct":true,"confidence":4},{"trial_n":78,"n_dots":3.15,"target":"left","response":"left","rt":747.70000004768,"correct":true,"confidence":3},{"trial_n":79,"n_dots":3.15,"target":"left","response":"left","rt":606.89999997616,"correct":true,"confidence":4},{"trial_n":80,"n_dots":3.05,"target":"left","response":"left","rt":455.70000004768,"correct":true,"confidence":3},{"trial_n":81,"n_dots":3.05,"target":"left","response":"left","rt":2713.2999999523,"correct":true,"confidence":1},{"trial_n":82,"n_dots":2.95,"target":"left","response":"left","rt":749.80000007153,"correct":true,"confidence":4},{"trial_n":83,"n_dots":2.95,"target":"left","response":"left","rt":415.30000007153,"correct":true,"confidence":3},{"trial_n":84,"n_dots":2.85,"target":"right","response":"right","rt":564.20000004768,"correct":true,"confidence":4},{"trial_n":85,"n_dots":2.85,"target":"right","response":"right","rt":1055.6000000238,"correct":true,"confidence":2},{"trial_n":86,"n_dots":2.75,"target":"right","response":"right","rt":500.89999997616,"correct":true,"confidence":3},{"trial_n":87,"n_dots":2.75,"target":"right","response":"right","rt":896.70000004768,"correct":true,"confidence":1},{"trial_n":88,"n_dots":2.65,"target":"right","response":"right","rt":1976.6000000238,"correct":true,"confidence":2},{"trial_n":89,"n_dots":2.65,"target":"left","response":"left","rt":411.29999995232,"correct":true,"confidence":3},{"trial_n":90,"n_dots":2.55,"target":"right","response":"left","rt":565.39999997616,"correct":false,"confidence":3},{"trial_n":91,"n_dots":2.65,"target":"left","response":"left","rt":1007.7999999523,"correct":true,"confidence":3},{"trial_n":92,"n_dots":2.65,"target":"right","response":"right","rt":572.20000004768,"correct":true,"confidence":4},{"trial_n":93,"n_dots":2.55,"target":"right","response":"left","rt":381.40000009537,"correct":false,"confidence":3},{"trial_n":94,"n_dots":2.65,"target":"right","response":"right","rt":714.79999995232,"correct":true,"confidence":3},{"trial_n":95,"n_dots":2.65,"target":"right","response":"left","rt":777.89999997616,"correct":false,"confidence":2},{"trial_n":96,"n_dots":2.75,"target":"right","response":"right","rt":778.60000002384,"correct":true,"confidence":3},{"trial_n":97,"n_dots":2.75,"target":"left","response":"left","rt":663.89999997616,"correct":true,"confidence":4},{"trial_n":98,"n_dots":2.65,"target":"right","response":"left","rt":581.59999990463,"correct":false,"confidence":4},{"trial_n":99,"n_dots":2.75,"target":"left","response":"left","rt":541.79999995232,"correct":true,"confidence":3},{"trial_n":100,"n_dots":2.75,"target":"left","response":"left","rt":1913.6000000238,"correct":true,"confidence":2},{"trial_n":101,"n_dots":2.65,"target":"left","response":"left","rt":416.29999995232,"correct":true,"confidence":3},{"trial_n":102,"n_dots":2.65,"target":"left","response":"right","rt":1189.2000000477,"correct":false,"confidence":2},{"trial_n":103,"n_dots":2.75,"target":"right","response":"left","rt":590.30000007153,"correct":false,"confidence":2},{"trial_n":104,"n_dots":2.85,"target":"left","response":"left","rt":434.39999997616,"correct":true,"confidence":3},{"trial_n":105,"n_dots":2.85,"target":"right","response":"left","rt":856.5,"correct":false,"confidence":2},{"trial_n":106,"n_dots":2.95,"target":"right","response":"right","rt":639.89999997616,"correct":true,"confidence":4},{"trial_n":107,"n_dots":2.95,"target":"left","response":"right","rt":832.79999995232,"correct":false,"confidence":3},{"trial_n":108,"n_dots":3.05,"target":"right","response":"right","rt":755.60000002384,"correct":true,"confidence":4},{"trial_n":109,"n_dots":3.05,"target":"left","response":"left","rt":481,"correct":true,"confidence":3},{"trial_n":110,"n_dots":2.95,"target":"left","response":"left","rt":545.5,"correct":true,"confidence":3},{"trial_n":111,"n_dots":2.95,"target":"right","response":"right","rt":737.89999997616,"correct":true,"confidence":4},{"trial_n":112,"n_dots":2.85,"target":"left","response":"left","rt":397.5,"correct":true,"confidence":4},{"trial_n":113,"n_dots":2.85,"target":"right","response":"right","rt":768,"correct":true,"confidence":5},{"trial_n":114,"n_dots":2.75,"target":"left","response":"left","rt":351.39999997616,"correct":true,"confidence":5},{"trial_n":115,"n_dots":2.75,"target":"left","response":"left","rt":420,"correct":true,"confidence":4},{"trial_n":116,"n_dots":2.65,"target":"right","response":"right","rt":637.79999995232,"correct":true,"confidence":4},{"trial_n":117,"n_dots":2.65,"target":"left","response":"left","rt":457,"correct":true,"confidence":3},{"trial_n":118,"n_dots":2.55,"target":"right","response":"right","rt":883.39999997616,"correct":true,"confidence":2},{"trial_n":119,"n_dots":2.55,"target":"right","response":"right","rt":927.09999990463,"correct":true,"confidence":3},{"trial_n":120,"n_dots":2.45,"target":"right","response":"left","rt":769.10000002384,"correct":false,"confidence":2}]