[{"trial_n":1,"span":8,"encoder":"40258549","distractor":"40158549","target":"present","response":"present","rt":"6303.0999999996","correct":true,"confidence":-1},{"trial_n":2,"span":8,"encoder":"56754424","distractor":"56754024","target":"present","response":"present","rt":"2544","correct":true,"confidence":-1},{"trial_n":3,"span":10,"encoder":"0112005457","distractor":"0112205457","target":"absent","response":"absent","rt":"2177.6999999993","correct":true,"confidence":-1},{"trial_n":4,"span":10,"encoder":"7892211296","distractor":"7892211226","target":"absent","response":"absent","rt":"3718.2999999989","correct":true,"confidence":-1},{"trial_n":5,"span":12,"encoder":"288855570020","distractor":"288855570520","target":"present","response":"absent","rt":"2551.5","correct":false,"confidence":-1},{"trial_n":6,"span":10,"encoder":"2011887122","distractor":"2061887122","target":"present","response":"present","rt":"3570.3999999985","correct":true,"confidence":-1},{"trial_n":7,"span":10,"encoder":"8445507015","distractor":"8445307015","target":"present","response":"present","rt":"2445.5","correct":true,"confidence":-1},{"trial_n":8,"span":12,"encoder":"055003215584","distractor":"055002215584","target":"absent","response":"absent","rt":"3003.9000000004","correct":true,"confidence":-1},{"trial_n":9,"span":12,"encoder":"888370120335","distractor":"888370120735","target":"absent","response":"present","rt":"2518.3000000007","correct":false,"confidence":-1},{"trial_n":10,"span":10,"encoder":"4464573307","distractor":"4364573307","target":"present","response":"present","rt":"1774.3000000007","correct":true,"confidence":-1},{"trial_n":11,"span":10,"encoder":"9219259555","distractor":"9219259955","target":"present","response":"present","rt":"1338.9000000004","correct":true,"confidence":-1},{"trial_n":12,"span":11,"encoder":"33530005275","distractor":"33530001275","target":"absent","response":"absent","rt":"1665.9000000004","correct":true,"confidence":-1},{"trial_n":13,"span":11,"encoder":"46729188882","distractor":"56729188882","target":"absent","response":"present","rt":"2185.2999999989","correct":false,"confidence":-1},{"trial_n":14,"span":10,"encoder":"0567306299","distractor":"0567326299","target":"present","response":"present","rt":"1303.8999999985","correct":true,"confidence":-1},{"trial_n":15,"span":10,"encoder":"0441732624","distractor":"0441032624","target":"absent","response":"absent","rt":"2794","correct":true,"confidence":-1},{"trial_n":16,"span":11,"encoder":"15137095107","distractor":"15137095197","target":"present","response":"present","rt":"2380.4000000004","correct":true,"confidence":-1},{"trial_n":17,"span":11,"encoder":"21365085739","distractor":"21865085739","target":"present","response":"absent","rt":"2432","correct":false,"confidence":-1},{"trial_n":18,"span":10,"encoder":"1405128251","distractor":"1405128241","target":"absent","response":"present","rt":"1062.8000000007","correct":false,"confidence":-1},{"trial_n":19,"span":9,"encoder":"570136091","distractor":"570139091","target":"present","response":"present","rt":"1225.9000000004","correct":true,"confidence":-1},{"trial_n":20,"span":9,"encoder":"429731015","distractor":"424731015","target":"absent","response":"present","rt":"2125","correct":false,"confidence":-1},{"trial_n":21,"span":8,"encoder":"71810643","distractor":"71810649","target":"present","response":"present","rt":"2278.2999999989","correct":true,"confidence":3},{"trial_n":22,"span":8,"encoder":"40092844","distractor":"80092844","target":"absent","response":"absent","rt":"2033.0999999996","correct":true,"confidence":2},{"trial_n":23,"span":9,"encoder":"203996695","distractor":"203996655","target":"absent","response":"absent","rt":"5511.5","correct":true,"confidence":2},{"trial_n":24,"span":9,"encoder":"216637885","distractor":"216437885","target":"present","response":"present","rt":"3250.6000000015","correct":true,"confidence":4},{"trial_n":25,"span":10,"encoder":"3438838006","distractor":"3438838003","target":"absent","response":"absent","rt":"4179.4000000004","correct":true,"confidence":4},{"trial_n":26,"span":10,"encoder":"3586774281","distractor":"9586774281","target":"present","response":"present","rt":"4473.8000000007","correct":true,"confidence":2},{"trial_n":27,"span":11,"encoder":"14819937657","distractor":"14819137657","target":"absent","response":"absent","rt":"2048.0999999996","correct":true,"confidence":2},{"trial_n":28,"span":11,"encoder":"83234478892","distractor":"83234478894","target":"present","response":"present","rt":"1323.4000000004","correct":true,"confidence":2},{"trial_n":29,"span":12,"encoder":"608185465829","distractor":"608182465829","target":"absent","response":"present","rt":"2757.9000000004","correct":false,"confidence":2},{"trial_n":30,"span":11,"encoder":"15899761571","distractor":"15879761571","target":"present","response":"present","rt":"2247.4000000004","correct":true,"confidence":2},{"trial_n":31,"span":11,"encoder":"85726022493","distractor":"85726022193","target":"present","response":"present","rt":"3806.3000000007","correct":true,"confidence":2},{"trial_n":32,"span":12,"encoder":"158031875828","distractor":"158031875528","target":"present","response":"absent","rt":"6163.2999999989","correct":false,"confidence":2},{"trial_n":33,"span":11,"encoder":"38618787393","distractor":"38618787396","target":"absent","response":"absent","rt":"3214.6999999993","correct":true,"confidence":4},{"trial_n":34,"span":11,"encoder":"31937326665","distractor":"31937326645","target":"absent","response":"absent","rt":"3626.9000000004","correct":true,"confidence":4},{"trial_n":35,"span":12,"encoder":"143818589765","distractor":"143818589755","target":"absent","response":"absent","rt":"5037.5999999996","correct":true,"confidence":2},{"trial_n":36,"span":12,"encoder":"438941641477","distractor":"418941641477","target":"present","response":"present","rt":"2525.3000000007","correct":true,"confidence":3},{"trial_n":37,"span":13,"encoder":"6350174753763","distractor":"6350174755763","target":"absent","response":"absent","rt":"6685.5","correct":true,"confidence":2},{"trial_n":38,"span":13,"encoder":"4743069669604","distractor":"4743069664604","target":"absent","response":"present","rt":"1322.7000000011","correct":false,"confidence":2},{"trial_n":39,"span":12,"encoder":"538742618576","distractor":"538742611576","target":"absent","response":"absent","rt":"2352.8000000007","correct":true,"confidence":2},{"trial_n":40,"span":12,"encoder":"083069645250","distractor":"083069245250","target":"present","response":"present","rt":"2934.2999999989","correct":true,"confidence":3},{"trial_n":41,"span":13,"encoder":"8211430698938","distractor":"8211470698938","target":"present","response":"absent","rt":"2526.5999999996","correct":false,"confidence":3},{"trial_n":42,"span":12,"encoder":"688964613356","distractor":"688464613356","target":"present","response":"present","rt":"3200.3000000007","correct":true,"confidence":2},{"trial_n":43,"span":12,"encoder":"438621652811","distractor":"438621352811","target":"present","response":"absent","rt":"3964.3000000007","correct":false,"confidence":2},{"trial_n":44,"span":11,"encoder":"28342495162","distractor":"28342795162","target":"absent","response":"present","rt":"2726.5","correct":false,"confidence":2},{"trial_n":45,"span":10,"encoder":"9589275272","distractor":"9589375272","target":"present","response":"present","rt":"3047.2999999989","correct":true,"confidence":3},{"trial_n":46,"span":10,"encoder":"5917628657","distractor":"5919628657","target":"present","response":"present","rt":"4518","correct":true,"confidence":3},{"trial_n":47,"span":11,"encoder":"48819157107","distractor":"48819157177","target":"present","response":"present","rt":"4808.5999999996","correct":true,"confidence":3},{"trial_n":48,"span":11,"encoder":"08703432343","distractor":"08003432343","target":"absent","response":"absent","rt":"2172","correct":true,"confidence":2},{"trial_n":49,"span":12,"encoder":"602685512010","distractor":"602655512010","target":"absent","response":"absent","rt":"2622.9000000004","correct":true,"confidence":3},{"trial_n":50,"span":12,"encoder":"330059299146","distractor":"330059299176","target":"present","response":"present","rt":"3820.8000000007","correct":true,"confidence":3},{"trial_n":51,"span":13,"encoder":"0566554920290","distractor":"0561554920290","target":"absent","response":"absent","rt":"6548","correct":true,"confidence":2},{"trial_n":52,"span":13,"encoder":"5175605700615","distractor":"5175705700615","target":"present","response":"present","rt":"7291.5999999996","correct":true,"confidence":2},{"trial_n":53,"span":14,"encoder":"43330690773046","distractor":"43330690273046","target":"absent","response":"present","rt":"1880.3000000007","correct":false,"confidence":3},{"trial_n":54,"span":13,"encoder":"1493174113470","distractor":"1493174153470","target":"present","response":"present","rt":"1996.0999999996","correct":true,"confidence":2},{"trial_n":55,"span":13,"encoder":"0891411280116","distractor":"0891471280116","target":"absent","response":"present","rt":"1612.9000000004","correct":false,"confidence":3},{"trial_n":56,"span":12,"encoder":"695846068011","distractor":"625846068011","target":"absent","response":"absent","rt":"3981.0999999996","correct":true,"confidence":3},{"trial_n":57,"span":12,"encoder":"642846965290","distractor":"842846965290","target":"absent","response":"present","rt":"2943.3000000007","correct":false,"confidence":3},{"trial_n":58,"span":11,"encoder":"09905073028","distractor":"09905073098","target":"absent","response":"absent","rt":"4679.6999999993","correct":true,"confidence":3},{"trial_n":59,"span":11,"encoder":"63780647834","distractor":"63280647834","target":"present","response":"present","rt":"7101.5999999996","correct":true,"confidence":3},{"trial_n":60,"span":12,"encoder":"808801545757","distractor":"808801545752","target":"absent","response":"absent","rt":"5530.7000000011","correct":true,"confidence":3},{"trial_n":61,"span":12,"encoder":"196039367888","distractor":"196039467888","target":"present","response":"present","rt":"2785.9000000004","correct":true,"confidence":3},{"trial_n":62,"span":13,"encoder":"3870582262062","distractor":"3870582462062","target":"present","response":"present","rt":"3157.6000000015","correct":true,"confidence":2},{"trial_n":63,"span":13,"encoder":"2657337423821","distractor":"2657337423721","target":"absent","response":"absent","rt":"3349.2999999989","correct":true,"confidence":3},{"trial_n":64,"span":14,"encoder":"49541619949966","distractor":"49541669949966","target":"absent","response":"present","rt":"4024.3999999985","correct":false,"confidence":2},{"trial_n":65,"span":13,"encoder":"7558989183883","distractor":"7558089183883","target":"present","response":"absent","rt":"8264.2000000011","correct":false,"confidence":3},{"trial_n":66,"span":12,"encoder":"071530951684","distractor":"071530958684","target":"present","response":"present","rt":"6470.6999999993","correct":true,"confidence":2},{"trial_n":67,"span":12,"encoder":"687657321146","distractor":"682657321146","target":"absent","response":"present","rt":"3050.4000000004","correct":false,"confidence":3},{"trial_n":68,"span":11,"encoder":"34161605835","distractor":"34161605838","target":"present","response":"present","rt":"3934.3999999985","correct":true,"confidence":3},{"trial_n":69,"span":11,"encoder":"48911179182","distractor":"48911179112","target":"absent","response":"absent","rt":"4769.3000000007","correct":true,"confidence":3},{"trial_n":70,"span":12,"encoder":"526012652569","distractor":"326012652569","target":"present","response":"present","rt":"2146.5","correct":true,"confidence":2},{"trial_n":71,"span":8,"encoder":"78349884","distractor":"58349884","target":"present","response":"present","rt":"3267.5999999996","correct":true,"confidence":-1},{"trial_n":72,"span":8,"encoder":"20284047","distractor":"20284547","target":"present","response":"present","rt":"2969.8000000007","correct":true,"confidence":-1},{"trial_n":73,"span":9,"encoder":"321593657","distractor":"321593677","target":"absent","response":"absent","rt":"2799.9000000004","correct":true,"confidence":-1},{"trial_n":74,"span":9,"encoder":"811734787","distractor":"811734785","target":"absent","response":"absent","rt":"1393.0999999996","correct":true,"confidence":-1},{"trial_n":75,"span":10,"encoder":"4476927981","distractor":"4476997981","target":"present","response":"absent","rt":"5626","correct":false,"confidence":-1},{"trial_n":76,"span":9,"encoder":"311019652","distractor":"310019652","target":"present","response":"present","rt":"3235.9000000004","correct":true,"confidence":-1},{"trial_n":77,"span":9,"encoder":"283767202","distractor":"783767202","target":"absent","response":"present","rt":"2613.5999999996","correct":false,"confidence":-1},{"trial_n":78,"span":8,"encoder":"45845599","distractor":"45745599","target":"present","response":"present","rt":"1897.4000000004","correct":true,"confidence":-1},{"trial_n":79,"span":8,"encoder":"54604588","distractor":"51604588","target":"present","response":"present","rt":"2720","correct":true,"confidence":-1},{"trial_n":80,"span":9,"encoder":"040091395","distractor":"240091395","target":"absent","response":"present","rt":"1649","correct":false,"confidence":-1},{"trial_n":81,"span":8,"encoder":"02119019","distractor":"02419019","target":"absent","response":"absent","rt":"4086","correct":true,"confidence":-1},{"trial_n":82,"span":8,"encoder":"78149956","distractor":"78169956","target":"present","response":"absent","rt":"2682.5","correct":false,"confidence":-1},{"trial_n":83,"span":7,"encoder":"4318566","distractor":"4318561","target":"present","response":"present","rt":"1760","correct":true,"confidence":-1},{"trial_n":84,"span":7,"encoder":"7022559","distractor":"7022551","target":"absent","response":"absent","rt":"1795.5","correct":true,"confidence":-1},{"trial_n":85,"span":8,"encoder":"50875508","distractor":"80875508","target":"absent","response":"present","rt":"2278.3000000007","correct":false,"confidence":-1},{"trial_n":86,"span":7,"encoder":"9796477","distractor":"3796477","target":"present","response":"absent","rt":"1742.4000000004","correct":false,"confidence":-1},{"trial_n":87,"span":6,"encoder":"730796","distractor":"730794","target":"absent","response":"absent","rt":"4378.1000000015","correct":true,"confidence":-1},{"trial_n":88,"span":6,"encoder":"328331","distractor":"338331","target":"absent","response":"absent","rt":"2333.3000000007","correct":true,"confidence":-1},{"trial_n":89,"span":7,"encoder":"7566934","distractor":"7566904","target":"absent","response":"absent","rt":"4594.1000000015","correct":true,"confidence":-1},{"trial_n":90,"span":7,"encoder":"8161753","distractor":"8191753","target":"present","response":"absent","rt":"2048.5999999996","correct":false,"confidence":-1},{"trial_n":91,"span":6,"encoder":"193430","distractor":"193830","target":"present","response":"present","rt":"4643.1000000015","correct":true,"confidence":4},{"trial_n":92,"span":6,"encoder":"514466","distractor":"514456","target":"absent","response":"absent","rt":"1855.6000000015","correct":true,"confidence":4},{"trial_n":93,"span":7,"encoder":"4785827","distractor":"4788827","target":"present","response":"present","rt":"5414.5999999996","correct":true,"confidence":3},{"trial_n":94,"span":7,"encoder":"3336286","distractor":"3332286","target":"absent","response":"absent","rt":"7853.2999999989","correct":true,"confidence":2},{"trial_n":95,"span":8,"encoder":"39081227","distractor":"39081027","target":"present","response":"present","rt":"1428.3000000007","correct":true,"confidence":4},{"trial_n":96,"span":8,"encoder":"32502891","distractor":"32502291","target":"present","response":"present","rt":"1731.2000000011","correct":true,"confidence":5},{"trial_n":97,"span":9,"encoder":"651656549","distractor":"641656549","target":"absent","response":"absent","rt":"2674.3000000007","correct":true,"confidence":5},{"trial_n":98,"span":9,"encoder":"134069729","distractor":"131069729","target":"present","response":"absent","rt":"4531.4000000004","correct":false,"confidence":2},{"trial_n":99,"span":8,"encoder":"67357043","distractor":"67327043","target":"absent","response":"absent","rt":"6595.8999999985","correct":true,"confidence":2},{"trial_n":100,"span":8,"encoder":"57080602","distractor":"57080608","target":"present","response":"present","rt":"3232.2999999989","correct":true,"confidence":4},{"trial_n":101,"span":9,"encoder":"041031774","distractor":"040031774","target":"absent","response":"present","rt":"2899.8000000007","correct":false,"confidence":2},{"trial_n":102,"span":8,"encoder":"62303315","distractor":"62403315","target":"present","response":"present","rt":"2232.2000000011","correct":true,"confidence":3},{"trial_n":103,"span":8,"encoder":"44814804","distractor":"44864804","target":"absent","response":"absent","rt":"3853.7000000011","correct":true,"confidence":4},{"trial_n":104,"span":9,"encoder":"637900010","distractor":"637900070","target":"present","response":"present","rt":"1223","correct":true,"confidence":5},{"trial_n":105,"span":9,"encoder":"392197047","distractor":"392297047","target":"present","response":"present","rt":"7806.5999999996","correct":true,"confidence":3},{"trial_n":106,"span":10,"encoder":"8001848559","distractor":"8011848559","target":"present","response":"present","rt":"2293.6999999993","correct":true,"confidence":5},{"trial_n":107,"span":10,"encoder":"9343434800","distractor":"9343234800","target":"present","response":"present","rt":"8207.9000000004","correct":true,"confidence":3},{"trial_n":108,"span":11,"encoder":"15006702686","distractor":"15006702681","target":"absent","response":"absent","rt":"1402.9000000004","correct":true,"confidence":5},{"trial_n":109,"span":11,"encoder":"88581284204","distractor":"88581244204","target":"absent","response":"absent","rt":"8414.2000000011","correct":true,"confidence":3},{"trial_n":110,"span":12,"encoder":"366815691702","distractor":"366815694702","target":"absent","response":"present","rt":"8765.3000000007","correct":false,"confidence":2},{"trial_n":111,"span":11,"encoder":"35490801106","distractor":"35491801106","target":"absent","response":"absent","rt":"7447.5999999996","correct":true,"confidence":2},{"trial_n":112,"span":11,"encoder":"24927592967","distractor":"24927522967","target":"present","response":"present","rt":"5137.1000000015","correct":true,"confidence":2},{"trial_n":113,"span":12,"encoder":"091992935057","distractor":"091992932057","target":"present","response":"present","rt":"2575.0999999996","correct":true,"confidence":2},{"trial_n":114,"span":12,"encoder":"179037503706","distractor":"176037503706","target":"present","response":"present","rt":"7377.0999999996","correct":true,"confidence":3},{"trial_n":115,"span":13,"encoder":"8982977080497","distractor":"8982977080493","target":"present","response":"present","rt":"5134","correct":true,"confidence":3},{"trial_n":116,"span":13,"encoder":"9153683454061","distractor":"9153683454021","target":"absent","response":"absent","rt":"1260.3999999985","correct":true,"confidence":5},{"trial_n":117,"span":14,"encoder":"31335756334131","distractor":"31338756334131","target":"present","response":"present","rt":"4277.8000000007","correct":true,"confidence":3},{"trial_n":118,"span":14,"encoder":"25952173923133","distractor":"25952173423133","target":"present","response":"present","rt":"5241.6000000015","correct":true,"confidence":2},{"trial_n":119,"span":15,"encoder":"122572053167270","distractor":"022572053167270","target":"present","response":"present","rt":"3938.5999999996","correct":true,"confidence":2},{"trial_n":120,"span":15,"encoder":"207606752119417","distractor":"207606752019417","target":"present","response":"present","rt":"4221.4000000004","correct":true,"confidence":1},{"trial_n":121,"span":16,"encoder":"2203203936239434","distractor":"2203203936236434","target":"present","response":"present","rt":"1943.5999999996","correct":true,"confidence":5},{"trial_n":122,"span":16,"encoder":"3437708207654794","distractor":"3437708207754794","target":"present","response":"present","rt":"4185.5999999996","correct":true,"confidence":2},{"trial_n":123,"span":17,"encoder":"59515414737004450","distractor":"59515414737004459","target":"present","response":"present","rt":"2444.1000000015","correct":true,"confidence":5},{"trial_n":124,"span":17,"encoder":"26040022261209962","distractor":"26040022261208962","target":"absent","response":"present","rt":"5648.6999999993","correct":false,"confidence":3},{"trial_n":125,"span":16,"encoder":"7988920199545910","distractor":"7988920159545910","target":"absent","response":"present","rt":"3693","correct":false,"confidence":2},{"trial_n":126,"span":15,"encoder":"783547856481566","distractor":"783547856181566","target":"absent","response":"present","rt":"4722.1999999993","correct":false,"confidence":2},{"trial_n":127,"span":14,"encoder":"24946894842857","distractor":"24946894842858","target":"absent","response":"absent","rt":"1199.2999999989","correct":true,"confidence":5},{"trial_n":128,"span":14,"encoder":"40200470199705","distractor":"40200470699705","target":"present","response":"present","rt":"6362.4000000004","correct":true,"confidence":2},{"trial_n":129,"span":15,"encoder":"214038050267193","distractor":"214038050267793","target":"present","response":"present","rt":"2602.2000000011","correct":true,"confidence":5},{"trial_n":130,"span":15,"encoder":"891119914144368","distractor":"891119914744368","target":"absent","response":"present","rt":"2804","correct":false,"confidence":2},{"trial_n":131,"span":14,"encoder":"38261215725521","distractor":"38261215725121","target":"present","response":"present","rt":"2234.4000000004","correct":true,"confidence":5},{"trial_n":132,"span":14,"encoder":"08242194780412","distractor":"08242154780412","target":"absent","response":"absent","rt":"4594.6999999993","correct":true,"confidence":2},{"trial_n":133,"span":15,"encoder":"336549058521027","distractor":"336549058561027","target":"absent","response":"present","rt":"4974.5999999996","correct":false,"confidence":2},{"trial_n":134,"span":14,"encoder":"99211188658668","distractor":"99211688658668","target":"absent","response":"present","rt":"2541.0999999996","correct":false,"confidence":2},{"trial_n":135,"span":13,"encoder":"9565506444878","distractor":"9565506446878","target":"present","response":"absent","rt":"4093.5","correct":false,"confidence":2},{"trial_n":136,"span":12,"encoder":"275335848062","distractor":"275334848062","target":"absent","response":"absent","rt":"5683.3000000007","correct":true,"confidence":2},{"trial_n":137,"span":12,"encoder":"944629148238","distractor":"944659148238","target":"absent","response":"present","rt":"1575.9000000004","correct":false,"confidence":2},{"trial_n":138,"span":11,"encoder":"66992267859","distractor":"66992267159","target":"absent","response":"absent","rt":"2550.1999999993","correct":true,"confidence":5},{"trial_n":139,"span":11,"encoder":"70436817837","distractor":"70436817937","target":"absent","response":"absent","rt":"2126.5","correct":true,"confidence":5},{"trial_n":140,"span":12,"encoder":"350402347314","distractor":"350402947314","target":"absent","response":"absent","rt":"8851.1999999993","correct":true,"confidence":2}]