[{"trial_n":1,"min":25,"max":230,"target":"present","response":"present","rt":3141.2999999989,"correct":true,"confidence":-1},{"trial_n":2,"min":25,"max":230,"target":"present","response":"present","rt":1011.1999999993,"correct":true,"confidence":-1},{"trial_n":3,"min":41,"max":214,"target":"absent","response":"absent","rt":684.09999999963,"correct":true,"confidence":-1},{"trial_n":4,"min":41,"max":214,"target":"absent","response":"absent","rt":1133.8000000007,"correct":true,"confidence":-1},{"trial_n":5,"min":57,"max":198,"target":"present","response":"present","rt":499.19999999925,"correct":true,"confidence":-1},{"trial_n":6,"min":57,"max":198,"target":"present","response":"present","rt":614.80000000075,"correct":true,"confidence":-1},{"trial_n":7,"min":73,"max":182,"target":"present","response":"present","rt":514.5,"correct":true,"confidence":-1},{"trial_n":8,"min":73,"max":182,"target":"present","response":"present","rt":509.5,"correct":true,"confidence":-1},{"trial_n":9,"min":89,"max":166,"target":"absent","response":"absent","rt":733.90000000037,"correct":true,"confidence":-1},{"trial_n":10,"min":89,"max":166,"target":"absent","response":"absent","rt":596.70000000112,"correct":true,"confidence":-1},{"trial_n":11,"min":97,"max":158,"target":"absent","response":"absent","rt":430.19999999925,"correct":true,"confidence":-1},{"trial_n":12,"min":97,"max":158,"target":"present","response":"absent","rt":373.09999999963,"correct":false,"confidence":-1},{"trial_n":13,"min":89,"max":166,"target":"present","response":"present","rt":687.90000000037,"correct":true,"confidence":-1},{"trial_n":14,"min":89,"max":166,"target":"present","response":"present","rt":606.40000000037,"correct":true,"confidence":-1},{"trial_n":15,"min":97,"max":158,"target":"present","response":"absent","rt":785,"correct":false,"confidence":-1},{"trial_n":16,"min":89,"max":166,"target":"absent","response":"absent","rt":578.59999999963,"correct":true,"confidence":-1},{"trial_n":17,"min":89,"max":166,"target":"present","response":"present","rt":569.09999999963,"correct":true,"confidence":-1},{"trial_n":18,"min":97,"max":158,"target":"present","response":"present","rt":662.69999999925,"correct":true,"confidence":-1},{"trial_n":19,"min":97,"max":158,"target":"present","response":"present","rt":809.69999999925,"correct":true,"confidence":-1},{"trial_n":20,"min":105,"max":150,"target":"present","response":"present","rt":535.19999999925,"correct":true,"confidence":-1},{"trial_n":21,"min":105,"max":150,"target":"present","response":"present","rt":1133.1999999993,"correct":true,"confidence":2},{"trial_n":22,"min":109,"max":146,"target":"absent","response":"present","rt":1016.4000000004,"correct":false,"confidence":2},{"trial_n":23,"min":105,"max":150,"target":"absent","response":"absent","rt":689.09999999963,"correct":true,"confidence":2},{"trial_n":24,"min":105,"max":150,"target":"absent","response":"absent","rt":2092.5999999996,"correct":true,"confidence":2},{"trial_n":25,"min":109,"max":146,"target":"absent","response":"present","rt":633.19999999925,"correct":false,"confidence":2},{"trial_n":26,"min":105,"max":150,"target":"absent","response":"present","rt":1198.3999999985,"correct":false,"confidence":2},{"trial_n":27,"min":101,"max":154,"target":"absent","response":"absent","rt":701.59999999963,"correct":true,"confidence":2},{"trial_n":28,"min":101,"max":154,"target":"present","response":"present","rt":833.59999999963,"correct":true,"confidence":2},{"trial_n":29,"min":105,"max":150,"target":"absent","response":"absent","rt":576.20000000112,"correct":true,"confidence":2},{"trial_n":30,"min":105,"max":150,"target":"present","response":"present","rt":698.69999999925,"correct":true,"confidence":2},{"trial_n":31,"min":107,"max":148,"target":"present","response":"present","rt":617.70000000112,"correct":true,"confidence":2},{"trial_n":32,"min":107,"max":148,"target":"absent","response":"present","rt":583.19999999925,"correct":false,"confidence":2},{"trial_n":33,"min":105,"max":150,"target":"present","response":"absent","rt":551.10000000149,"correct":false,"confidence":2},{"trial_n":34,"min":103,"max":152,"target":"present","response":"present","rt":710.79999999888,"correct":true,"confidence":2},{"trial_n":35,"min":103,"max":152,"target":"present","response":"present","rt":592.80000000075,"correct":true,"confidence":2},{"trial_n":36,"min":105,"max":150,"target":"absent","response":"absent","rt":651.5,"correct":true,"confidence":2},{"trial_n":37,"min":105,"max":150,"target":"absent","response":"present","rt":575.5,"correct":false,"confidence":2},{"trial_n":38,"min":103,"max":152,"target":"present","response":"present","rt":631.90000000037,"correct":true,"confidence":2},{"trial_n":39,"min":103,"max":152,"target":"present","response":"absent","rt":1574.3000000007,"correct":false,"confidence":2},{"trial_n":40,"min":101,"max":154,"target":"absent","response":"absent","rt":631.19999999925,"correct":true,"confidence":2},{"trial_n":41,"min":101,"max":154,"target":"absent","response":"present","rt":666.30000000075,"correct":false,"confidence":2},{"trial_n":42,"min":100,"max":155,"target":"absent","response":"present","rt":700.5,"correct":false,"confidence":2},{"trial_n":43,"min":99,"max":156,"target":"absent","response":"absent","rt":1075.5999999996,"correct":true,"confidence":2},{"trial_n":44,"min":99,"max":156,"target":"present","response":"present","rt":1051.6999999993,"correct":true,"confidence":2},{"trial_n":45,"min":100,"max":155,"target":"absent","response":"present","rt":592.59999999963,"correct":false,"confidence":2},{"trial_n":46,"min":99,"max":156,"target":"present","response":"present","rt":622.5,"correct":true,"confidence":2},{"trial_n":47,"min":99,"max":156,"target":"present","response":"absent","rt":441.30000000075,"correct":false,"confidence":2},{"trial_n":48,"min":98,"max":157,"target":"present","response":"present","rt":633.69999999925,"correct":true,"confidence":2},{"trial_n":49,"min":98,"max":157,"target":"present","response":"present","rt":691.80000000075,"correct":true,"confidence":2},{"trial_n":50,"min":99,"max":156,"target":"present","response":"absent","rt":809.89999999851,"correct":false,"confidence":2},{"trial_n":51,"min":98,"max":157,"target":"absent","response":"present","rt":585.90000000037,"correct":false,"confidence":2},{"trial_n":52,"min":97,"max":158,"target":"present","response":"present","rt":540.30000000075,"correct":true,"confidence":2},{"trial_n":53,"min":97,"max":158,"target":"absent","response":"absent","rt":743.60000000149,"correct":true,"confidence":2},{"trial_n":54,"min":98,"max":157,"target":"absent","response":"present","rt":454.5,"correct":false,"confidence":2},{"trial_n":55,"min":97,"max":158,"target":"absent","response":"present","rt":545.69999999925,"correct":false,"confidence":2},{"trial_n":56,"min":96,"max":159,"target":"absent","response":"absent","rt":754.90000000037,"correct":true,"confidence":2},{"trial_n":57,"min":96,"max":159,"target":"present","response":"present","rt":539.80000000075,"correct":true,"confidence":2},{"trial_n":58,"min":97,"max":158,"target":"absent","response":"present","rt":782.90000000037,"correct":false,"confidence":2},{"trial_n":59,"min":96,"max":159,"target":"absent","response":"present","rt":747.40000000037,"correct":false,"confidence":2},{"trial_n":60,"min":95,"max":160,"target":"absent","response":"present","rt":802,"correct":false,"confidence":2},{"trial_n":61,"min":94,"max":161,"target":"absent","response":"present","rt":749.09999999963,"correct":false,"confidence":2},{"trial_n":62,"min":93,"max":162,"target":"present","response":"absent","rt":711.20000000112,"correct":false,"confidence":2},{"trial_n":63,"min":92,"max":163,"target":"absent","response":"present","rt":786.30000000075,"correct":false,"confidence":2},{"trial_n":64,"min":91,"max":164,"target":"absent","response":"present","rt":886,"correct":false,"confidence":2},{"trial_n":65,"min":90,"max":165,"target":"present","response":"present","rt":769.69999999925,"correct":true,"confidence":2},{"trial_n":66,"min":90,"max":165,"target":"absent","response":"absent","rt":701.09999999963,"correct":true,"confidence":2},{"trial_n":67,"min":91,"max":164,"target":"present","response":"present","rt":594.80000000075,"correct":true,"confidence":2},{"trial_n":68,"min":91,"max":164,"target":"present","response":"present","rt":503.20000000112,"correct":true,"confidence":2},{"trial_n":69,"min":92,"max":163,"target":"absent","response":"present","rt":781.80000000075,"correct":false,"confidence":2},{"trial_n":70,"min":91,"max":164,"target":"present","response":"absent","rt":627.40000000037,"correct":false,"confidence":2},{"trial_n":71,"min":41,"max":214,"target":"present","response":"present","rt":896.29999999888,"correct":true,"confidence":-1},{"trial_n":72,"min":41,"max":214,"target":"present","response":"present","rt":503.59999999963,"correct":true,"confidence":-1},{"trial_n":73,"min":57,"max":198,"target":"absent","response":"present","rt":512.40000000037,"correct":false,"confidence":-1},{"trial_n":74,"min":41,"max":214,"target":"absent","response":"absent","rt":1368,"correct":true,"confidence":-1},{"trial_n":75,"min":41,"max":214,"target":"present","response":"present","rt":529,"correct":true,"confidence":-1},{"trial_n":76,"min":57,"max":198,"target":"absent","response":"absent","rt":563.70000000112,"correct":true,"confidence":-1},{"trial_n":77,"min":57,"max":198,"target":"present","response":"present","rt":923.59999999963,"correct":true,"confidence":-1},{"trial_n":78,"min":73,"max":182,"target":"absent","response":"absent","rt":582.09999999963,"correct":true,"confidence":-1},{"trial_n":79,"min":73,"max":182,"target":"present","response":"present","rt":428,"correct":true,"confidence":-1},{"trial_n":80,"min":89,"max":166,"target":"present","response":"present","rt":523.5,"correct":true,"confidence":-1},{"trial_n":81,"min":89,"max":166,"target":"absent","response":"absent","rt":1285.0999999996,"correct":true,"confidence":-1},{"trial_n":82,"min":97,"max":158,"target":"absent","response":"present","rt":2046.3999999985,"correct":false,"confidence":-1},{"trial_n":83,"min":89,"max":166,"target":"absent","response":"absent","rt":675.20000000112,"correct":true,"confidence":-1},{"trial_n":84,"min":89,"max":166,"target":"absent","response":"present","rt":1024.4000000004,"correct":false,"confidence":-1},{"trial_n":85,"min":81,"max":174,"target":"present","response":"present","rt":531.5,"correct":true,"confidence":-1},{"trial_n":86,"min":81,"max":174,"target":"absent","response":"absent","rt":639,"correct":true,"confidence":-1},{"trial_n":87,"min":89,"max":166,"target":"present","response":"present","rt":751,"correct":true,"confidence":-1},{"trial_n":88,"min":89,"max":166,"target":"absent","response":"present","rt":638.80000000075,"correct":false,"confidence":-1},{"trial_n":89,"min":81,"max":174,"target":"present","response":"absent","rt":509.5,"correct":false,"confidence":-1},{"trial_n":90,"min":73,"max":182,"target":"absent","response":"absent","rt":595.40000000037,"correct":true,"confidence":-1},{"trial_n":91,"min":73,"max":182,"target":"present","response":"present","rt":830.30000000075,"correct":true,"confidence":3},{"trial_n":92,"min":77,"max":178,"target":"absent","response":"absent","rt":901.80000000075,"correct":true,"confidence":2},{"trial_n":93,"min":77,"max":178,"target":"present","response":"present","rt":513.40000000037,"correct":true,"confidence":4},{"trial_n":94,"min":81,"max":174,"target":"present","response":"present","rt":904,"correct":true,"confidence":4},{"trial_n":95,"min":81,"max":174,"target":"absent","response":"absent","rt":728.69999999925,"correct":true,"confidence":3},{"trial_n":96,"min":85,"max":170,"target":"present","response":"present","rt":629.09999999963,"correct":true,"confidence":3},{"trial_n":97,"min":85,"max":170,"target":"present","response":"present","rt":670.69999999925,"correct":true,"confidence":3},{"trial_n":98,"min":89,"max":166,"target":"present","response":"present","rt":1825.7000000011,"correct":true,"confidence":2},{"trial_n":99,"min":89,"max":166,"target":"absent","response":"present","rt":604.09999999963,"correct":false,"confidence":3},{"trial_n":100,"min":85,"max":170,"target":"absent","response":"absent","rt":867.59999999963,"correct":true,"confidence":2},{"trial_n":101,"min":85,"max":170,"target":"present","response":"present","rt":2695,"correct":true,"confidence":4},{"trial_n":102,"min":87,"max":168,"target":"absent","response":"absent","rt":1302.9000000004,"correct":true,"confidence":2},{"trial_n":103,"min":87,"max":168,"target":"absent","response":"present","rt":683.69999999925,"correct":false,"confidence":3},{"trial_n":104,"min":85,"max":170,"target":"present","response":"present","rt":631.5,"correct":true,"confidence":3},{"trial_n":105,"min":85,"max":170,"target":"present","response":"present","rt":694.19999999925,"correct":true,"confidence":2},{"trial_n":106,"min":87,"max":168,"target":"present","response":"present","rt":850.59999999963,"correct":true,"confidence":2},{"trial_n":107,"min":87,"max":168,"target":"absent","response":"absent","rt":1165.3000000007,"correct":true,"confidence":2},{"trial_n":108,"min":89,"max":166,"target":"present","response":"present","rt":811.5,"correct":true,"confidence":2},{"trial_n":109,"min":89,"max":166,"target":"present","response":"present","rt":818.69999999925,"correct":true,"confidence":2},{"trial_n":110,"min":91,"max":164,"target":"present","response":"absent","rt":1104.6999999993,"correct":false,"confidence":2},{"trial_n":111,"min":90,"max":165,"target":"present","response":"present","rt":880.70000000112,"correct":true,"confidence":3},{"trial_n":112,"min":90,"max":165,"target":"absent","response":"present","rt":1188.3000000007,"correct":false,"confidence":1},{"trial_n":113,"min":89,"max":166,"target":"absent","response":"absent","rt":948.70000000112,"correct":true,"confidence":2},{"trial_n":114,"min":89,"max":166,"target":"present","response":"present","rt":3129.1999999993,"correct":true,"confidence":3},{"trial_n":115,"min":90,"max":165,"target":"absent","response":"absent","rt":936.90000000037,"correct":true,"confidence":2},{"trial_n":116,"min":90,"max":165,"target":"present","response":"absent","rt":1810.6999999993,"correct":false,"confidence":2},{"trial_n":117,"min":89,"max":166,"target":"present","response":"present","rt":1164.3999999985,"correct":true,"confidence":3},{"trial_n":118,"min":89,"max":166,"target":"present","response":"present","rt":1183.5,"correct":true,"confidence":2},{"trial_n":119,"min":90,"max":165,"target":"present","response":"absent","rt":1357.5,"correct":false,"confidence":2},{"trial_n":120,"min":89,"max":166,"target":"absent","response":"present","rt":750.80000000075,"correct":false,"confidence":1},{"trial_n":121,"min":88,"max":167,"target":"absent","response":"absent","rt":847.89999999851,"correct":true,"confidence":3},{"trial_n":122,"min":88,"max":167,"target":"absent","response":"present","rt":970.59999999963,"correct":false,"confidence":2},{"trial_n":123,"min":87,"max":168,"target":"absent","response":"absent","rt":711.5,"correct":true,"confidence":3},{"trial_n":124,"min":87,"max":168,"target":"present","response":"present","rt":818.80000000075,"correct":true,"confidence":2},{"trial_n":125,"min":88,"max":167,"target":"absent","response":"present","rt":1089.5,"correct":false,"confidence":2},{"trial_n":126,"min":87,"max":168,"target":"present","response":"absent","rt":687,"correct":false,"confidence":3},{"trial_n":127,"min":86,"max":169,"target":"absent","response":"present","rt":706.69999999925,"correct":false,"confidence":1},{"trial_n":128,"min":85,"max":170,"target":"absent","response":"absent","rt":783,"correct":true,"confidence":2},{"trial_n":129,"min":85,"max":170,"target":"present","response":"present","rt":1178.0999999996,"correct":true,"confidence":1},{"trial_n":130,"min":86,"max":169,"target":"absent","response":"absent","rt":673.09999999963,"correct":true,"confidence":1},{"trial_n":131,"min":86,"max":169,"target":"absent","response":"absent","rt":872.59999999963,"correct":true,"confidence":2},{"trial_n":132,"min":87,"max":168,"target":"absent","response":"absent","rt":1204.5,"correct":true,"confidence":1},{"trial_n":133,"min":87,"max":168,"target":"present","response":"present","rt":1505,"correct":true,"confidence":2},{"trial_n":134,"min":88,"max":167,"target":"present","response":"present","rt":730.5,"correct":true,"confidence":2},{"trial_n":135,"min":88,"max":167,"target":"absent","response":"absent","rt":596.5,"correct":true,"confidence":3},{"trial_n":136,"min":89,"max":166,"target":"present","response":"present","rt":647.30000000075,"correct":true,"confidence":4},{"trial_n":137,"min":89,"max":166,"target":"absent","response":"present","rt":2320.5999999996,"correct":false,"confidence":2},{"trial_n":138,"min":88,"max":167,"target":"present","response":"present","rt":676.70000000112,"correct":true,"confidence":4},{"trial_n":139,"min":88,"max":167,"target":"absent","response":"absent","rt":945.90000000037,"correct":true,"confidence":3},{"trial_n":140,"min":89,"max":166,"target":"present","response":"present","rt":563.90000000037,"correct":true,"confidence":4}]