[{"trial_n":1,"span":8,"encoder":"76043998","distractor":"76043898","target":"present","response":"present","rt":"5697.6000000238","correct":true,"confidence":-1},{"trial_n":2,"span":8,"encoder":"47209284","distractor":"47609284","target":"present","response":"present","rt":"3997.4000000954","correct":true,"confidence":-1},{"trial_n":3,"span":10,"encoder":"3145450909","distractor":"3148450909","target":"absent","response":"absent","rt":"4515.5","correct":true,"confidence":-1},{"trial_n":4,"span":10,"encoder":"6965731328","distractor":"6965731327","target":"absent","response":"absent","rt":"3536.5","correct":true,"confidence":-1},{"trial_n":5,"span":12,"encoder":"900406928977","distractor":"200406928977","target":"present","response":"present","rt":"2725.2000000477","correct":true,"confidence":-1},{"trial_n":6,"span":12,"encoder":"703834789493","distractor":"703834785493","target":"present","response":"present","rt":"3758.2000000477","correct":true,"confidence":-1},{"trial_n":7,"span":14,"encoder":"46999300313356","distractor":"46999300393356","target":"present","response":"present","rt":"4017.7999999523","correct":true,"confidence":-1},{"trial_n":8,"span":14,"encoder":"43847790361819","distractor":"43847790361814","target":"present","response":"present","rt":"2184","correct":true,"confidence":-1},{"trial_n":9,"span":16,"encoder":"3843824110640049","distractor":"3843824110640099","target":"absent","response":"present","rt":"2067.9000000954","correct":false,"confidence":-1},{"trial_n":10,"span":14,"encoder":"85730492639866","distractor":"85730492639806","target":"present","response":"absent","rt":"3648.6000000238","correct":false,"confidence":-1},{"trial_n":11,"span":12,"encoder":"365972425687","distractor":"365972424687","target":"absent","response":"absent","rt":"6805","correct":true,"confidence":-1},{"trial_n":12,"span":12,"encoder":"414364536244","distractor":"414367536244","target":"absent","response":"absent","rt":"7321.7999999523","correct":true,"confidence":-1},{"trial_n":13,"span":13,"encoder":"6742332799204","distractor":"6742372799204","target":"present","response":"present","rt":"5365.4000000954","correct":true,"confidence":-1},{"trial_n":14,"span":13,"encoder":"9094350859400","distractor":"9094350859480","target":"absent","response":"present","rt":"6513.3999999762","correct":false,"confidence":-1},{"trial_n":15,"span":12,"encoder":"518485869618","distractor":"511485869618","target":"absent","response":"present","rt":"4064.5999999046","correct":false,"confidence":-1},{"trial_n":16,"span":11,"encoder":"52314490838","distractor":"52310490838","target":"present","response":"present","rt":"4078.1000000238","correct":true,"confidence":-1},{"trial_n":17,"span":11,"encoder":"49999757332","distractor":"49999757338","target":"present","response":"present","rt":"5607.8000000715","correct":true,"confidence":-1},{"trial_n":18,"span":12,"encoder":"429453503140","distractor":"429456503140","target":"absent","response":"absent","rt":"3752.5","correct":true,"confidence":-1},{"trial_n":19,"span":12,"encoder":"210053948411","distractor":"210053948415","target":"absent","response":"present","rt":"3714.2999999523","correct":false,"confidence":-1},{"trial_n":20,"span":11,"encoder":"51857418441","distractor":"51457418441","target":"absent","response":"present","rt":"4409.1000000238","correct":false,"confidence":-1},{"trial_n":21,"span":10,"encoder":"8282756889","distractor":"8282756089","target":"absent","response":"present","rt":"10560.5","correct":false,"confidence":3},{"trial_n":22,"span":9,"encoder":"843591205","distractor":"823591205","target":"present","response":"absent","rt":"5139.3999999762","correct":false,"confidence":3},{"trial_n":23,"span":8,"encoder":"94169109","distractor":"94162109","target":"absent","response":"absent","rt":"6006","correct":true,"confidence":4},{"trial_n":24,"span":8,"encoder":"22747647","distractor":"22717647","target":"absent","response":"absent","rt":"3123.3999999762","correct":true,"confidence":5},{"trial_n":25,"span":9,"encoder":"462314735","distractor":"462414735","target":"absent","response":"present","rt":"4167.5","correct":false,"confidence":4},{"trial_n":26,"span":8,"encoder":"15142172","distractor":"15142152","target":"absent","response":"absent","rt":"3759.1000000238","correct":true,"confidence":5},{"trial_n":27,"span":8,"encoder":"81053498","distractor":"81053898","target":"absent","response":"absent","rt":"2985.2999999523","correct":true,"confidence":5},{"trial_n":28,"span":9,"encoder":"962570416","distractor":"962570486","target":"absent","response":"present","rt":"4352.5","correct":false,"confidence":3},{"trial_n":29,"span":8,"encoder":"55985010","distractor":"85985010","target":"present","response":"present","rt":"5089","correct":true,"confidence":4},{"trial_n":30,"span":8,"encoder":"79225426","distractor":"79525426","target":"present","response":"present","rt":"4791.5","correct":true,"confidence":4},{"trial_n":31,"span":9,"encoder":"082371102","distractor":"082371802","target":"absent","response":"absent","rt":"4162.3999999762","correct":true,"confidence":4},{"trial_n":32,"span":9,"encoder":"740439808","distractor":"740435808","target":"absent","response":"absent","rt":"3575","correct":true,"confidence":4},{"trial_n":33,"span":10,"encoder":"1827501874","distractor":"1827500874","target":"present","response":"present","rt":"3933.8999999762","correct":true,"confidence":5},{"trial_n":34,"span":10,"encoder":"5724256946","distractor":"5724254946","target":"absent","response":"present","rt":"3850.0999999046","correct":false,"confidence":3},{"trial_n":35,"span":9,"encoder":"511334172","distractor":"511334872","target":"absent","response":"absent","rt":"4715.5","correct":true,"confidence":3},{"trial_n":36,"span":9,"encoder":"188608738","distractor":"188608735","target":"present","response":"present","rt":"4151.2999999523","correct":true,"confidence":4},{"trial_n":37,"span":10,"encoder":"1486667042","distractor":"1486667942","target":"present","response":"present","rt":"3768","correct":true,"confidence":3},{"trial_n":38,"span":10,"encoder":"1188111651","distractor":"1188131651","target":"present","response":"present","rt":"3680.6000000238","correct":true,"confidence":2},{"trial_n":39,"span":11,"encoder":"04648671139","distractor":"04668671139","target":"absent","response":"present","rt":"4689.5","correct":false,"confidence":3},{"trial_n":40,"span":10,"encoder":"2324286844","distractor":"7324286844","target":"absent","response":"absent","rt":"4948.7000000477","correct":true,"confidence":5},{"trial_n":41,"span":10,"encoder":"5058750786","distractor":"5058758786","target":"present","response":"absent","rt":"4237.7000000477","correct":false,"confidence":4},{"trial_n":42,"span":9,"encoder":"117906605","distractor":"917906605","target":"present","response":"present","rt":"4333.2999999523","correct":true,"confidence":3},{"trial_n":43,"span":9,"encoder":"857648429","distractor":"157648429","target":"absent","response":"present","rt":"5431.9000000954","correct":false,"confidence":3},{"trial_n":44,"span":8,"encoder":"74668979","distractor":"74668999","target":"present","response":"absent","rt":"5685.6999999285","correct":false,"confidence":2},{"trial_n":45,"span":7,"encoder":"2651313","distractor":"2651311","target":"present","response":"present","rt":"4481.6999999285","correct":true,"confidence":3},{"trial_n":46,"span":7,"encoder":"1461898","distractor":"1461848","target":"present","response":"present","rt":"5532.5","correct":true,"confidence":4},{"trial_n":47,"span":8,"encoder":"95413106","distractor":"95413146","target":"present","response":"present","rt":"5200.5","correct":true,"confidence":5},{"trial_n":48,"span":8,"encoder":"60878692","distractor":"60878592","target":"absent","response":"absent","rt":"2945.7999999523","correct":true,"confidence":5},{"trial_n":49,"span":9,"encoder":"024141546","distractor":"024341546","target":"present","response":"present","rt":"10374.700000048","correct":true,"confidence":3},{"trial_n":50,"span":9,"encoder":"124537337","distractor":"154537337","target":"present","response":"present","rt":"3867.3999999762","correct":true,"confidence":4},{"trial_n":51,"span":10,"encoder":"1061735965","distractor":"1021735965","target":"present","response":"present","rt":"3611.2000000477","correct":true,"confidence":3},{"trial_n":52,"span":10,"encoder":"9931382201","distractor":"9931382208","target":"present","response":"present","rt":"6454.5999999046","correct":true,"confidence":4},{"trial_n":53,"span":11,"encoder":"74214935203","distractor":"74214635203","target":"absent","response":"absent","rt":"3799.6000000238","correct":true,"confidence":4},{"trial_n":54,"span":11,"encoder":"55579134700","distractor":"55579134704","target":"absent","response":"present","rt":"10373","correct":false,"confidence":3},{"trial_n":55,"span":10,"encoder":"5445462021","distractor":"5441462021","target":"present","response":"present","rt":"4010.6999999285","correct":true,"confidence":3},{"trial_n":56,"span":10,"encoder":"2365404241","distractor":"2315404241","target":"present","response":"present","rt":"6542.1000000238","correct":true,"confidence":3},{"trial_n":57,"span":11,"encoder":"99037669617","distractor":"99037669616","target":"absent","response":"present","rt":"4284.1000000238","correct":false,"confidence":1},{"trial_n":58,"span":10,"encoder":"0611593597","distractor":"0611553597","target":"present","response":"absent","rt":"5232.6999999285","correct":false,"confidence":2},{"trial_n":59,"span":9,"encoder":"326755639","distractor":"366755639","target":"present","response":"present","rt":"3203.5","correct":true,"confidence":3},{"trial_n":60,"span":9,"encoder":"493850232","distractor":"423850232","target":"absent","response":"absent","rt":"2808.1000000238","correct":true,"confidence":4},{"trial_n":61,"span":10,"encoder":"1562223330","distractor":"1562203330","target":"absent","response":"present","rt":"4066.7999999523","correct":false,"confidence":3},{"trial_n":62,"span":9,"encoder":"204357039","distractor":"504357039","target":"absent","response":"absent","rt":"3384.6999999285","correct":true,"confidence":3},{"trial_n":63,"span":9,"encoder":"495369699","distractor":"495369629","target":"absent","response":"absent","rt":"6138.5","correct":true,"confidence":3},{"trial_n":64,"span":10,"encoder":"4298468021","distractor":"7298468021","target":"absent","response":"absent","rt":"4290.7000000477","correct":true,"confidence":4},{"trial_n":65,"span":10,"encoder":"5438770574","distractor":"5438770274","target":"present","response":"present","rt":"4248.6999999285","correct":true,"confidence":3},{"trial_n":66,"span":11,"encoder":"09815470627","distractor":"09815470667","target":"present","response":"present","rt":"3452.6999999285","correct":true,"confidence":4},{"trial_n":67,"span":11,"encoder":"51422736373","distractor":"51422731373","target":"present","response":"present","rt":"4301.5999999046","correct":true,"confidence":3},{"trial_n":68,"span":12,"encoder":"903900601203","distractor":"903908601203","target":"absent","response":"absent","rt":"4027.8999999762","correct":true,"confidence":4},{"trial_n":69,"span":12,"encoder":"202733062808","distractor":"202735062808","target":"present","response":"present","rt":"4995.8999999762","correct":true,"confidence":5},{"trial_n":70,"span":13,"encoder":"1689596864965","distractor":"1689596864966","target":"present","response":"present","rt":"6210.6000000238","correct":true,"confidence":2},{"trial_n":71,"span":8,"encoder":"67662613","distractor":"62662613","target":"present","response":"present","rt":"5181.1999999285","correct":true,"confidence":-1},{"trial_n":72,"span":8,"encoder":"08461425","distractor":"08460425","target":"present","response":"present","rt":"4363.2999999523","correct":true,"confidence":-1},{"trial_n":73,"span":9,"encoder":"289460239","distractor":"281460239","target":"absent","response":"absent","rt":"3531.5","correct":true,"confidence":-1},{"trial_n":74,"span":9,"encoder":"628364368","distractor":"620364368","target":"absent","response":"absent","rt":"2693.7000000477","correct":true,"confidence":-1},{"trial_n":75,"span":10,"encoder":"7161301459","distractor":"7161301489","target":"present","response":"present","rt":"2932.5","correct":true,"confidence":-1},{"trial_n":76,"span":10,"encoder":"9973412160","distractor":"9973419160","target":"absent","response":"absent","rt":"4170.6000000238","correct":true,"confidence":-1},{"trial_n":77,"span":11,"encoder":"24984255502","distractor":"04984255502","target":"absent","response":"absent","rt":"3889","correct":true,"confidence":-1},{"trial_n":78,"span":11,"encoder":"61591327070","distractor":"61591327079","target":"absent","response":"absent","rt":"2234.2000000477","correct":true,"confidence":-1},{"trial_n":79,"span":12,"encoder":"728348085744","distractor":"725348085744","target":"present","response":"present","rt":"7089.8000000715","correct":true,"confidence":-1},{"trial_n":80,"span":12,"encoder":"899406340307","distractor":"892406340307","target":"absent","response":"absent","rt":"5849.1000000238","correct":true,"confidence":-1},{"trial_n":81,"span":13,"encoder":"8513405216282","distractor":"8593405216282","target":"present","response":"present","rt":"8685.8000000715","correct":true,"confidence":-1},{"trial_n":82,"span":13,"encoder":"3330830738464","distractor":"3630830738464","target":"present","response":"present","rt":"4598.1000000238","correct":true,"confidence":-1},{"trial_n":83,"span":14,"encoder":"28538563232621","distractor":"28538562232621","target":"absent","response":"present","rt":"9892.3000000715","correct":false,"confidence":-1},{"trial_n":84,"span":13,"encoder":"5027374798805","distractor":"5027374798875","target":"present","response":"present","rt":"3340.6999999285","correct":true,"confidence":-1},{"trial_n":85,"span":13,"encoder":"2755848527191","distractor":"2745848527191","target":"absent","response":"absent","rt":"6221.6000000238","correct":true,"confidence":-1},{"trial_n":86,"span":14,"encoder":"52061868671007","distractor":"52461868671007","target":"absent","response":"absent","rt":"7321.2999999523","correct":true,"confidence":-1},{"trial_n":87,"span":14,"encoder":"54243138344017","distractor":"54243135344017","target":"absent","response":"absent","rt":"4816.2000000477","correct":true,"confidence":-1},{"trial_n":88,"span":15,"encoder":"964958892495230","distractor":"964958892445230","target":"present","response":"present","rt":"7775.2000000477","correct":true,"confidence":-1},{"trial_n":89,"span":15,"encoder":"994047086014646","distractor":"994047286014646","target":"present","response":"absent","rt":"9511.7000000477","correct":false,"confidence":-1},{"trial_n":90,"span":14,"encoder":"78028258546113","distractor":"78028558546113","target":"present","response":"present","rt":"8545.2000000477","correct":true,"confidence":-1},{"trial_n":91,"span":14,"encoder":"06056426512129","distractor":"06156426512129","target":"present","response":"absent","rt":"21806.100000024","correct":false,"confidence":2},{"trial_n":92,"span":13,"encoder":"0678743004968","distractor":"0678743804968","target":"present","response":"present","rt":"8892.3000000715","correct":true,"confidence":3},{"trial_n":93,"span":13,"encoder":"1165603990203","distractor":"1165603990293","target":"absent","response":"absent","rt":"10301.799999952","correct":true,"confidence":2},{"trial_n":94,"span":14,"encoder":"97575698293951","distractor":"97575698293851","target":"present","response":"present","rt":"13739.599999905","correct":true,"confidence":3},{"trial_n":95,"span":14,"encoder":"63426366953343","distractor":"63476366953343","target":"absent","response":"absent","rt":"3339","correct":true,"confidence":4},{"trial_n":96,"span":15,"encoder":"329402451018884","distractor":"329402451018886","target":"present","response":"present","rt":"7658","correct":true,"confidence":4},{"trial_n":97,"span":15,"encoder":"153101699341957","distractor":"153101699141957","target":"absent","response":"absent","rt":"12457.700000048","correct":true,"confidence":3},{"trial_n":98,"span":16,"encoder":"7562718471190250","distractor":"7562718471190253","target":"absent","response":"present","rt":"3932.1999999285","correct":false,"confidence":3},{"trial_n":99,"span":15,"encoder":"927430275974234","distractor":"927430275974238","target":"present","response":"present","rt":"8956.3999999762","correct":true,"confidence":4},{"trial_n":100,"span":15,"encoder":"077351753093810","distractor":"077751753093810","target":"present","response":"present","rt":"12442.299999952","correct":true,"confidence":4},{"trial_n":101,"span":16,"encoder":"2746862409884261","distractor":"2746862409884264","target":"present","response":"present","rt":"9179.1999999285","correct":true,"confidence":3},{"trial_n":102,"span":16,"encoder":"6978417358834582","distractor":"6978417358834532","target":"absent","response":"present","rt":"19879.100000024","correct":false,"confidence":2},{"trial_n":103,"span":15,"encoder":"602415053354498","distractor":"607415053354498","target":"absent","response":"present","rt":"6610.7999999523","correct":false,"confidence":3},{"trial_n":104,"span":14,"encoder":"80984029290791","distractor":"80984029220791","target":"present","response":"present","rt":"19349.399999976","correct":true,"confidence":3},{"trial_n":105,"span":14,"encoder":"25366429318015","distractor":"25366429318012","target":"absent","response":"absent","rt":"8278","correct":true,"confidence":4},{"trial_n":106,"span":15,"encoder":"124315571753396","distractor":"124315577753396","target":"present","response":"absent","rt":"5231.1000000238","correct":false,"confidence":4},{"trial_n":107,"span":14,"encoder":"08674670481524","distractor":"08694670481524","target":"present","response":"absent","rt":"10167.899999976","correct":false,"confidence":2},{"trial_n":108,"span":13,"encoder":"8146612346297","distractor":"8146610346297","target":"present","response":"absent","rt":"10306.900000095","correct":false,"confidence":3},{"trial_n":109,"span":12,"encoder":"758611188701","distractor":"778611188701","target":"present","response":"present","rt":"5633.2000000477","correct":true,"confidence":4},{"trial_n":110,"span":12,"encoder":"069188122753","distractor":"099188122753","target":"absent","response":"absent","rt":"3569.6000000238","correct":true,"confidence":5},{"trial_n":111,"span":13,"encoder":"6268351843037","distractor":"6268351843047","target":"absent","response":"present","rt":"6369.5","correct":false,"confidence":3},{"trial_n":112,"span":12,"encoder":"032711131171","distractor":"032711131161","target":"absent","response":"absent","rt":"4805.6000000238","correct":true,"confidence":4},{"trial_n":113,"span":12,"encoder":"776497413523","distractor":"776492413523","target":"absent","response":"absent","rt":"4911.7999999523","correct":true,"confidence":4},{"trial_n":114,"span":13,"encoder":"7890006166442","distractor":"6890006166442","target":"present","response":"present","rt":"4390.1000000238","correct":true,"confidence":4},{"trial_n":115,"span":13,"encoder":"8582193922741","distractor":"8582193922711","target":"present","response":"present","rt":"7099.8000000715","correct":true,"confidence":3},{"trial_n":116,"span":14,"encoder":"09683762271075","distractor":"09693762271075","target":"absent","response":"absent","rt":"4444.8999999762","correct":true,"confidence":4},{"trial_n":117,"span":14,"encoder":"46867543243677","distractor":"46867543243627","target":"absent","response":"present","rt":"11998","correct":false,"confidence":2},{"trial_n":118,"span":13,"encoder":"5263007821388","distractor":"5263007820388","target":"present","response":"absent","rt":"7301.2000000477","correct":false,"confidence":3},{"trial_n":119,"span":12,"encoder":"901803682224","distractor":"971803682224","target":"absent","response":"absent","rt":"3575.6999999285","correct":true,"confidence":4},{"trial_n":120,"span":12,"encoder":"347032044454","distractor":"347032044451","target":"present","response":"present","rt":"6777.4000000954","correct":true,"confidence":4},{"trial_n":121,"span":13,"encoder":"8734131198521","distractor":"8734131198522","target":"absent","response":"absent","rt":"4824.1999999285","correct":true,"confidence":5},{"trial_n":122,"span":13,"encoder":"8306772001331","distractor":"8306772001335","target":"present","response":"absent","rt":"9442.3999999762","correct":false,"confidence":2},{"trial_n":123,"span":12,"encoder":"555579061307","distractor":"555529061307","target":"present","response":"present","rt":"3191.7999999523","correct":true,"confidence":5},{"trial_n":124,"span":12,"encoder":"216423009247","distractor":"256423009247","target":"present","response":"present","rt":"3439.6000000238","correct":true,"confidence":4},{"trial_n":125,"span":13,"encoder":"2068487555485","distractor":"2468487555485","target":"absent","response":"present","rt":"7551.6000000238","correct":false,"confidence":4},{"trial_n":126,"span":12,"encoder":"082262602208","distractor":"082269602208","target":"absent","response":"absent","rt":"4113.6999999285","correct":true,"confidence":5},{"trial_n":127,"span":12,"encoder":"378546371085","distractor":"370546371085","target":"present","response":"present","rt":"6139.2999999523","correct":true,"confidence":5},{"trial_n":128,"span":13,"encoder":"8732559486611","distractor":"8732559486619","target":"present","response":"absent","rt":"10746","correct":false,"confidence":3},{"trial_n":129,"span":12,"encoder":"516697433336","distractor":"516697433332","target":"absent","response":"absent","rt":"6034.2000000477","correct":true,"confidence":5},{"trial_n":130,"span":12,"encoder":"112189158503","distractor":"112189158506","target":"present","response":"present","rt":"4592.1000000238","correct":true,"confidence":4},{"trial_n":131,"span":13,"encoder":"8591394705415","distractor":"3591394705415","target":"absent","response":"present","rt":"9302.1000000238","correct":false,"confidence":4},{"trial_n":132,"span":12,"encoder":"763375415802","distractor":"763375415902","target":"absent","response":"present","rt":"6097.7999999523","correct":false,"confidence":4},{"trial_n":133,"span":11,"encoder":"64355768329","distractor":"64355768529","target":"present","response":"absent","rt":"8311.8999999762","correct":false,"confidence":2},{"trial_n":134,"span":10,"encoder":"1940617498","distractor":"1900617498","target":"present","response":"present","rt":"5104.8000000715","correct":true,"confidence":5},{"trial_n":135,"span":10,"encoder":"3768022361","distractor":"3468022361","target":"present","response":"present","rt":"6413.8000000715","correct":true,"confidence":4},{"trial_n":136,"span":11,"encoder":"82113990330","distractor":"82116990330","target":"absent","response":"absent","rt":"6097.5","correct":true,"confidence":5},{"trial_n":137,"span":11,"encoder":"37953742685","distractor":"37953702685","target":"absent","response":"absent","rt":"5045.7000000477","correct":true,"confidence":4},{"trial_n":138,"span":12,"encoder":"878716896070","distractor":"878716896076","target":"absent","response":"absent","rt":"6596.1999999285","correct":true,"confidence":3},{"trial_n":139,"span":12,"encoder":"825576771274","distractor":"825576771474","target":"absent","response":"absent","rt":"8390.3000000715","correct":true,"confidence":3},{"trial_n":140,"span":13,"encoder":"6869704749722","distractor":"6869754749722","target":"present","response":"present","rt":"5506.2000000477","correct":true,"confidence":4}]