[{"trial_n":1,"n_dots":4.25,"target":"right","response":"left","rt":12675.5,"correct":false,"confidence":-1},{"trial_n":2,"n_dots":4.25,"target":"left","response":"left","rt":1647.8000000007,"correct":true,"confidence":-1},{"trial_n":3,"n_dots":4.25,"target":"left","response":"left","rt":931.59999999776,"correct":true,"confidence":-1},{"trial_n":4,"n_dots":3.85,"target":"right","response":"right","rt":355.5,"correct":true,"confidence":-1},{"trial_n":5,"n_dots":3.85,"target":"left","response":"left","rt":948,"correct":true,"confidence":-1},{"trial_n":6,"n_dots":3.45,"target":"left","response":"left","rt":676.69999999925,"correct":true,"confidence":-1},{"trial_n":7,"n_dots":3.45,"target":"left","response":"right","rt":387.20000000298,"correct":false,"confidence":-1},{"trial_n":8,"n_dots":3.65,"target":"left","response":"left","rt":116.60000000149,"correct":true,"confidence":-1},{"trial_n":9,"n_dots":3.65,"target":"right","response":"right","rt":325.80000000075,"correct":true,"confidence":-1},{"trial_n":10,"n_dots":3.45,"target":"left","response":"left","rt":338.59999999776,"correct":true,"confidence":-1},{"trial_n":11,"n_dots":3.45,"target":"right","response":"right","rt":341.79999999702,"correct":true,"confidence":-1},{"trial_n":12,"n_dots":3.25,"target":"right","response":"right","rt":484.59999999776,"correct":true,"confidence":-1},{"trial_n":13,"n_dots":3.25,"target":"left","response":"left","rt":372.10000000149,"correct":true,"confidence":-1},{"trial_n":14,"n_dots":3.15,"target":"right","response":"left","rt":659.40000000224,"correct":false,"confidence":-1},{"trial_n":15,"n_dots":3.25,"target":"right","response":"right","rt":228,"correct":true,"confidence":-1},{"trial_n":16,"n_dots":3.25,"target":"right","response":"right","rt":1364,"correct":true,"confidence":-1},{"trial_n":17,"n_dots":3.15,"target":"left","response":"left","rt":242.29999999702,"correct":true,"confidence":-1},{"trial_n":18,"n_dots":3.15,"target":"right","response":"right","rt":484.60000000149,"correct":true,"confidence":-1},{"trial_n":19,"n_dots":3.05,"target":"left","response":"left","rt":116.89999999851,"correct":true,"confidence":-1},{"trial_n":20,"n_dots":3.05,"target":"right","response":"left","rt":772.89999999851,"correct":false,"confidence":-1},{"trial_n":21,"n_dots":3.15,"target":"left","response":"left","rt":1102.8999999985,"correct":true,"confidence":2},{"trial_n":22,"n_dots":3.15,"target":"left","response":"left","rt":1585.6999999993,"correct":true,"confidence":3},{"trial_n":23,"n_dots":3.05,"target":"left","response":"left","rt":704,"correct":true,"confidence":4},{"trial_n":24,"n_dots":3.05,"target":"right","response":"left","rt":850.19999999925,"correct":false,"confidence":4},{"trial_n":25,"n_dots":3.15,"target":"left","response":"left","rt":2033.299999997,"correct":true,"confidence":3},{"trial_n":26,"n_dots":3.15,"target":"left","response":"left","rt":961.39999999851,"correct":true,"confidence":5},{"trial_n":27,"n_dots":3.05,"target":"left","response":"left","rt":1266.1999999993,"correct":true,"confidence":3},{"trial_n":28,"n_dots":3.05,"target":"left","response":"left","rt":528.89999999851,"correct":true,"confidence":3},{"trial_n":29,"n_dots":2.95,"target":"left","response":"left","rt":610.30000000075,"correct":true,"confidence":4},{"trial_n":30,"n_dots":2.95,"target":"left","response":"right","rt":1313.299999997,"correct":false,"confidence":3},{"trial_n":31,"n_dots":3.05,"target":"right","response":"right","rt":1810.299999997,"correct":true,"confidence":2},{"trial_n":32,"n_dots":3.05,"target":"left","response":"left","rt":1136,"correct":true,"confidence":5},{"trial_n":33,"n_dots":2.95,"target":"right","response":"right","rt":2305.5,"correct":true,"confidence":3},{"trial_n":34,"n_dots":2.95,"target":"right","response":"left","rt":1762.200000003,"correct":false,"confidence":2},{"trial_n":35,"n_dots":3.05,"target":"right","response":"left","rt":2016.8999999985,"correct":false,"confidence":1},{"trial_n":36,"n_dots":3.15,"target":"left","response":"left","rt":1873,"correct":true,"confidence":4},{"trial_n":37,"n_dots":3.15,"target":"right","response":"left","rt":1537.9000000022,"correct":false,"confidence":4},{"trial_n":38,"n_dots":3.25,"target":"left","response":"left","rt":1185.8999999985,"correct":true,"confidence":4},{"trial_n":39,"n_dots":3.25,"target":"right","response":"right","rt":1090.1999999993,"correct":true,"confidence":3},{"trial_n":40,"n_dots":3.15,"target":"left","response":"left","rt":1409.799999997,"correct":true,"confidence":3},{"trial_n":41,"n_dots":3.15,"target":"left","response":"left","rt":1440.6000000015,"correct":true,"confidence":3},{"trial_n":42,"n_dots":3.05,"target":"left","response":"left","rt":2754.3999999985,"correct":true,"confidence":1},{"trial_n":43,"n_dots":3.05,"target":"right","response":"left","rt":5217.8000000007,"correct":false,"confidence":2},{"trial_n":44,"n_dots":3.15,"target":"left","response":"left","rt":2257.5,"correct":true,"confidence":3},{"trial_n":45,"n_dots":3.15,"target":"right","response":"right","rt":1441.1999999993,"correct":true,"confidence":3},{"trial_n":46,"n_dots":3.05,"target":"right","response":"right","rt":1650.200000003,"correct":true,"confidence":3},{"trial_n":47,"n_dots":3.05,"target":"right","response":"left","rt":2385.299999997,"correct":false,"confidence":3},{"trial_n":48,"n_dots":3.15,"target":"left","response":"left","rt":1617.1999999993,"correct":true,"confidence":4},{"trial_n":49,"n_dots":3.15,"target":"left","response":"left","rt":1633.6000000015,"correct":true,"confidence":5},{"trial_n":50,"n_dots":3.05,"target":"right","response":"left","rt":2672.4000000022,"correct":false,"confidence":2},{"trial_n":51,"n_dots":3.15,"target":"left","response":"left","rt":1938.6000000015,"correct":true,"confidence":3},{"trial_n":52,"n_dots":3.15,"target":"left","response":"left","rt":1617.8000000007,"correct":true,"confidence":4},{"trial_n":53,"n_dots":3.05,"target":"left","response":"right","rt":1885.3999999985,"correct":false,"confidence":3},{"trial_n":54,"n_dots":3.15,"target":"right","response":"left","rt":4001.8000000007,"correct":false,"confidence":3},{"trial_n":55,"n_dots":3.25,"target":"left","response":"left","rt":1581,"correct":true,"confidence":4},{"trial_n":56,"n_dots":3.25,"target":"right","response":"left","rt":2929.8999999985,"correct":false,"confidence":4},{"trial_n":57,"n_dots":3.35,"target":"right","response":"left","rt":2801.8999999985,"correct":false,"confidence":3},{"trial_n":58,"n_dots":3.45,"target":"right","response":"left","rt":2098.3999999985,"correct":false,"confidence":1},{"trial_n":59,"n_dots":3.55,"target":"right","response":"right","rt":1377.3999999985,"correct":true,"confidence":3},{"trial_n":60,"n_dots":3.55,"target":"left","response":"left","rt":1681.3999999985,"correct":true,"confidence":4},{"trial_n":61,"n_dots":3.45,"target":"left","response":"left","rt":1489.9000000022,"correct":true,"confidence":5},{"trial_n":62,"n_dots":3.45,"target":"right","response":"right","rt":1265.6000000015,"correct":true,"confidence":5},{"trial_n":63,"n_dots":3.35,"target":"right","response":"left","rt":3456.1000000015,"correct":false,"confidence":1},{"trial_n":64,"n_dots":3.45,"target":"right","response":"left","rt":1921.8000000007,"correct":false,"confidence":1},{"trial_n":65,"n_dots":3.55,"target":"left","response":"left","rt":1568.3999999985,"correct":true,"confidence":3},{"trial_n":66,"n_dots":3.55,"target":"right","response":"right","rt":2594,"correct":true,"confidence":2},{"trial_n":67,"n_dots":3.45,"target":"right","response":"right","rt":1777.5,"correct":true,"confidence":2},{"trial_n":68,"n_dots":3.45,"target":"left","response":"left","rt":1393.299999997,"correct":true,"confidence":4},{"trial_n":69,"n_dots":3.35,"target":"right","response":"right","rt":2511.1999999993,"correct":true,"confidence":2},{"trial_n":70,"n_dots":3.35,"target":"right","response":"right","rt":1263.3999999985,"correct":true,"confidence":3},{"trial_n":71,"n_dots":3.25,"target":"right","response":"right","rt":1345.299999997,"correct":true,"confidence":3},{"trial_n":72,"n_dots":3.25,"target":"left","response":"left","rt":1346,"correct":true,"confidence":4},{"trial_n":73,"n_dots":3.15,"target":"right","response":"right","rt":1442.1999999993,"correct":true,"confidence":4},{"trial_n":74,"n_dots":3.15,"target":"right","response":"right","rt":2097.5,"correct":true,"confidence":2},{"trial_n":75,"n_dots":3.05,"target":"right","response":"right","rt":1280.6000000015,"correct":true,"confidence":2},{"trial_n":76,"n_dots":3.05,"target":"right","response":"right","rt":1632.8999999985,"correct":true,"confidence":1},{"trial_n":77,"n_dots":2.95,"target":"right","response":"left","rt":1762.0999999978,"correct":false,"confidence":3},{"trial_n":78,"n_dots":3.05,"target":"right","response":"left","rt":1874.1999999993,"correct":false,"confidence":4},{"trial_n":79,"n_dots":3.15,"target":"right","response":"right","rt":2609.0999999978,"correct":true,"confidence":4},{"trial_n":80,"n_dots":3.15,"target":"left","response":"left","rt":2497.3999999985,"correct":true,"confidence":3},{"trial_n":81,"n_dots":3.05,"target":"right","response":"right","rt":1505.3999999985,"correct":true,"confidence":3},{"trial_n":82,"n_dots":3.05,"target":"right","response":"left","rt":1729.6000000015,"correct":false,"confidence":2},{"trial_n":83,"n_dots":3.15,"target":"right","response":"right","rt":1825.5,"correct":true,"confidence":2},{"trial_n":84,"n_dots":3.15,"target":"left","response":"left","rt":1360.4000000022,"correct":true,"confidence":3},{"trial_n":85,"n_dots":3.05,"target":"left","response":"left","rt":1745.8000000007,"correct":true,"confidence":4},{"trial_n":86,"n_dots":3.05,"target":"left","response":"right","rt":1937.5,"correct":false,"confidence":2},{"trial_n":87,"n_dots":3.15,"target":"left","response":"left","rt":946.70000000298,"correct":true,"confidence":4},{"trial_n":88,"n_dots":3.15,"target":"left","response":"left","rt":657.89999999851,"correct":true,"confidence":4},{"trial_n":89,"n_dots":3.05,"target":"left","response":"left","rt":961,"correct":true,"confidence":3},{"trial_n":90,"n_dots":3.05,"target":"left","response":"left","rt":336.80000000075,"correct":true,"confidence":4},{"trial_n":91,"n_dots":2.95,"target":"left","response":"right","rt":1327.8999999985,"correct":false,"confidence":4},{"trial_n":92,"n_dots":3.05,"target":"right","response":"left","rt":1777.6999999993,"correct":false,"confidence":2},{"trial_n":93,"n_dots":3.15,"target":"right","response":"right","rt":993.90000000224,"correct":true,"confidence":3},{"trial_n":94,"n_dots":3.15,"target":"left","response":"left","rt":961.10000000149,"correct":true,"confidence":3},{"trial_n":95,"n_dots":3.05,"target":"left","response":"left","rt":992.5,"correct":true,"confidence":4},{"trial_n":96,"n_dots":3.05,"target":"left","response":"left","rt":1041,"correct":true,"confidence":4},{"trial_n":97,"n_dots":2.95,"target":"right","response":"left","rt":2672.6000000015,"correct":false,"confidence":3},{"trial_n":98,"n_dots":3.05,"target":"right","response":"right","rt":1103,"correct":true,"confidence":3},{"trial_n":99,"n_dots":3.05,"target":"right","response":"right","rt":1345,"correct":true,"confidence":3},{"trial_n":100,"n_dots":2.95,"target":"left","response":"right","rt":4530.1999999993,"correct":false,"confidence":4},{"trial_n":101,"n_dots":3.05,"target":"left","response":"left","rt":1170.1999999993,"correct":true,"confidence":3},{"trial_n":102,"n_dots":3.05,"target":"right","response":"left","rt":2083.3999999985,"correct":false,"confidence":3},{"trial_n":103,"n_dots":3.15,"target":"left","response":"left","rt":3488.3999999985,"correct":true,"confidence":4},{"trial_n":104,"n_dots":3.15,"target":"right","response":"right","rt":2386.5,"correct":true,"confidence":1},{"trial_n":105,"n_dots":3.05,"target":"left","response":"right","rt":1986.8000000007,"correct":false,"confidence":1},{"trial_n":106,"n_dots":3.15,"target":"left","response":"left","rt":1507.1000000015,"correct":true,"confidence":3},{"trial_n":107,"n_dots":3.15,"target":"left","response":"left","rt":1137.9000000022,"correct":true,"confidence":5},{"trial_n":108,"n_dots":3.05,"target":"left","response":"left","rt":1103.5,"correct":true,"confidence":5},{"trial_n":109,"n_dots":3.05,"target":"right","response":"right","rt":2130.5,"correct":true,"confidence":3},{"trial_n":110,"n_dots":2.95,"target":"left","response":"left","rt":1666.4000000022,"correct":true,"confidence":4},{"trial_n":111,"n_dots":2.95,"target":"left","response":"left","rt":1827.1000000015,"correct":true,"confidence":4},{"trial_n":112,"n_dots":2.85,"target":"right","response":"left","rt":2193.1000000015,"correct":false,"confidence":3},{"trial_n":113,"n_dots":2.95,"target":"right","response":"right","rt":1665.6000000015,"correct":true,"confidence":2},{"trial_n":114,"n_dots":2.95,"target":"left","response":"left","rt":1330.3999999985,"correct":true,"confidence":3},{"trial_n":115,"n_dots":2.85,"target":"right","response":"right","rt":2579,"correct":true,"confidence":2},{"trial_n":116,"n_dots":2.85,"target":"left","response":"left","rt":1490.1999999993,"correct":true,"confidence":2},{"trial_n":117,"n_dots":2.75,"target":"right","response":"left","rt":1490.6999999993,"correct":false,"confidence":2},{"trial_n":118,"n_dots":2.85,"target":"right","response":"right","rt":2098.1000000015,"correct":true,"confidence":2},{"trial_n":119,"n_dots":2.85,"target":"right","response":"right","rt":2050.5,"correct":true,"confidence":2},{"trial_n":120,"n_dots":2.75,"target":"right","response":"left","rt":1873.6999999993,"correct":false,"confidence":3}]