[{"trial_n":1,"span":8,"encoder":"18943820","distractor":"18943520","target":"present","response":"present","rt":"9072.9000000022","correct":true,"confidence":-1},{"trial_n":2,"span":8,"encoder":"47706462","distractor":"47406462","target":"present","response":"absent","rt":"2196.6999999993","correct":false,"confidence":-1},{"trial_n":3,"span":6,"encoder":"368037","distractor":"388037","target":"absent","response":"absent","rt":"1939.6000000015","correct":true,"confidence":-1},{"trial_n":4,"span":6,"encoder":"424765","distractor":"424465","target":"absent","response":"absent","rt":"2243.1000000015","correct":true,"confidence":-1},{"trial_n":5,"span":8,"encoder":"97692368","distractor":"96692368","target":"present","response":"present","rt":"2022.8000000007","correct":true,"confidence":-1},{"trial_n":6,"span":8,"encoder":"98785075","distractor":"98784075","target":"present","response":"present","rt":"2629.8999999985","correct":true,"confidence":-1},{"trial_n":7,"span":10,"encoder":"5480393734","distractor":"7480393734","target":"absent","response":"absent","rt":"1817.3000000007","correct":true,"confidence":-1},{"trial_n":8,"span":10,"encoder":"0679361154","distractor":"0679361164","target":"absent","response":"absent","rt":"1592.6999999993","correct":true,"confidence":-1},{"trial_n":9,"span":12,"encoder":"130510370547","distractor":"140510370547","target":"absent","response":"absent","rt":"1483.0999999978","correct":true,"confidence":-1},{"trial_n":10,"span":12,"encoder":"120310140713","distractor":"120310140013","target":"present","response":"absent","rt":"875.60000000149","correct":false,"confidence":-1},{"trial_n":11,"span":10,"encoder":"2860922728","distractor":"2760922728","target":"present","response":"present","rt":"2504.5","correct":true,"confidence":-1},{"trial_n":12,"span":10,"encoder":"7900987898","distractor":"7900987899","target":"absent","response":"absent","rt":"1672.1000000015","correct":true,"confidence":-1},{"trial_n":13,"span":11,"encoder":"73459666658","distractor":"73449666658","target":"present","response":"present","rt":"1833.6999999993","correct":true,"confidence":-1},{"trial_n":14,"span":11,"encoder":"18199788747","distractor":"18199788447","target":"present","response":"present","rt":"1882","correct":true,"confidence":-1},{"trial_n":15,"span":12,"encoder":"630567482844","distractor":"630567482744","target":"present","response":"present","rt":"1995","correct":true,"confidence":-1},{"trial_n":16,"span":12,"encoder":"465725200788","distractor":"665725200788","target":"absent","response":"present","rt":"1754.8999999985","correct":false,"confidence":-1},{"trial_n":17,"span":11,"encoder":"27752430051","distractor":"57752430051","target":"absent","response":"present","rt":"1834.5","correct":false,"confidence":-1},{"trial_n":18,"span":10,"encoder":"1343389105","distractor":"1343385105","target":"present","response":"present","rt":"2505.1999999993","correct":true,"confidence":-1},{"trial_n":19,"span":10,"encoder":"4467385279","distractor":"8467385279","target":"absent","response":"present","rt":"4728.5999999978","correct":false,"confidence":-1},{"trial_n":20,"span":9,"encoder":"372878339","distractor":"372878333","target":"absent","response":"absent","rt":"2263.5","correct":true,"confidence":-1},{"trial_n":21,"span":9,"encoder":"694286468","distractor":"674286468","target":"absent","response":"present","rt":"2340.1999999993","correct":false,"confidence":3},{"trial_n":22,"span":8,"encoder":"92718804","distractor":"52718804","target":"absent","response":"present","rt":"1763.3000000007","correct":false,"confidence":4},{"trial_n":23,"span":7,"encoder":"0140039","distractor":"0150039","target":"present","response":"present","rt":"2641","correct":true,"confidence":5},{"trial_n":24,"span":7,"encoder":"0965504","distractor":"0961504","target":"absent","response":"absent","rt":"1186.6000000015","correct":true,"confidence":5},{"trial_n":25,"span":8,"encoder":"86791201","distractor":"86790201","target":"present","response":"present","rt":"2034.5999999978","correct":true,"confidence":3},{"trial_n":26,"span":8,"encoder":"79693974","distractor":"79683974","target":"present","response":"present","rt":"1955.3999999985","correct":true,"confidence":3},{"trial_n":27,"span":9,"encoder":"103113917","distractor":"103113717","target":"absent","response":"absent","rt":"2116.1999999993","correct":true,"confidence":2},{"trial_n":28,"span":9,"encoder":"904656804","distractor":"904653804","target":"present","response":"present","rt":"3411.6999999993","correct":true,"confidence":4},{"trial_n":29,"span":10,"encoder":"8506610570","distractor":"3506610570","target":"absent","response":"present","rt":"3525.8000000007","correct":false,"confidence":2},{"trial_n":30,"span":9,"encoder":"602411535","distractor":"602418535","target":"absent","response":"absent","rt":"2004.5999999978","correct":true,"confidence":3},{"trial_n":31,"span":9,"encoder":"501114713","distractor":"501116713","target":"present","response":"present","rt":"5251.5","correct":true,"confidence":2},{"trial_n":32,"span":10,"encoder":"3077383519","distractor":"3077388519","target":"present","response":"present","rt":"5765.6000000015","correct":true,"confidence":2},{"trial_n":33,"span":10,"encoder":"9630938964","distractor":"9690938964","target":"absent","response":"present","rt":"8069.799999997","correct":false,"confidence":3},{"trial_n":34,"span":9,"encoder":"992917587","distractor":"932917587","target":"absent","response":"absent","rt":"4405","correct":true,"confidence":4},{"trial_n":35,"span":9,"encoder":"746835928","distractor":"746835920","target":"present","response":"present","rt":"3412.1999999993","correct":true,"confidence":4},{"trial_n":36,"span":10,"encoder":"4874561694","distractor":"4874961694","target":"present","response":"present","rt":"5845","correct":true,"confidence":3},{"trial_n":37,"span":10,"encoder":"1651372058","distractor":"1681372058","target":"present","response":"present","rt":"5461.4000000022","correct":true,"confidence":3},{"trial_n":38,"span":11,"encoder":"06354259832","distractor":"06354259882","target":"absent","response":"absent","rt":"4167.3999999985","correct":true,"confidence":4},{"trial_n":39,"span":11,"encoder":"90217606500","distractor":"90217606600","target":"absent","response":"absent","rt":"4454.6999999993","correct":true,"confidence":5},{"trial_n":40,"span":12,"encoder":"748130554302","distractor":"748190554302","target":"absent","response":"present","rt":"5512.6000000015","correct":false,"confidence":3},{"trial_n":41,"span":11,"encoder":"41423459388","distractor":"41423459288","target":"present","response":"present","rt":"3799.0999999978","correct":true,"confidence":3},{"trial_n":42,"span":11,"encoder":"36445095516","distractor":"36445095506","target":"present","response":"absent","rt":"5128.5","correct":false,"confidence":2},{"trial_n":43,"span":10,"encoder":"9135045442","distractor":"9035045442","target":"absent","response":"absent","rt":"8934.6999999993","correct":true,"confidence":3},{"trial_n":44,"span":10,"encoder":"3585294915","distractor":"3585244915","target":"present","response":"absent","rt":"8934.700000003","correct":false,"confidence":3},{"trial_n":45,"span":9,"encoder":"794966927","distractor":"724966927","target":"present","response":"present","rt":"4005.1000000015","correct":true,"confidence":2},{"trial_n":46,"span":9,"encoder":"685658116","distractor":"685658196","target":"absent","response":"absent","rt":"6676.1999999993","correct":true,"confidence":3},{"trial_n":47,"span":10,"encoder":"7033974306","distractor":"7033174306","target":"present","response":"present","rt":"6134.3000000007","correct":true,"confidence":2},{"trial_n":48,"span":10,"encoder":"7165471192","distractor":"7765471192","target":"present","response":"absent","rt":"3829.8999999985","correct":false,"confidence":4},{"trial_n":49,"span":9,"encoder":"370230505","distractor":"375230505","target":"absent","response":"present","rt":"3365.299999997","correct":false,"confidence":4},{"trial_n":50,"span":8,"encoder":"36267083","distractor":"36261083","target":"absent","response":"present","rt":"3043.0999999978","correct":false,"confidence":4},{"trial_n":51,"span":7,"encoder":"1065089","distractor":"1061089","target":"absent","response":"absent","rt":"3329","correct":true,"confidence":4},{"trial_n":52,"span":7,"encoder":"0240386","distractor":"0240376","target":"present","response":"present","rt":"2705.3000000007","correct":true,"confidence":5},{"trial_n":53,"span":8,"encoder":"98304653","distractor":"98304663","target":"absent","response":"absent","rt":"2162.1000000015","correct":true,"confidence":4},{"trial_n":54,"span":8,"encoder":"65015130","distractor":"65415130","target":"absent","response":"absent","rt":"3474.6000000015","correct":true,"confidence":2},{"trial_n":55,"span":9,"encoder":"503808250","distractor":"103808250","target":"present","response":"present","rt":"9252.1999999993","correct":true,"confidence":3},{"trial_n":56,"span":9,"encoder":"521070284","distractor":"521090284","target":"present","response":"present","rt":"5188.9000000022","correct":true,"confidence":4},{"trial_n":57,"span":10,"encoder":"5456931061","distractor":"5466931061","target":"present","response":"absent","rt":"7476.8999999985","correct":false,"confidence":2},{"trial_n":58,"span":9,"encoder":"699055819","distractor":"697055819","target":"absent","response":"absent","rt":"2212","correct":true,"confidence":5},{"trial_n":59,"span":9,"encoder":"741720767","distractor":"841720767","target":"present","response":"present","rt":"4995.6000000015","correct":true,"confidence":2},{"trial_n":60,"span":10,"encoder":"6756558496","distractor":"6456558496","target":"present","response":"absent","rt":"3302.4000000022","correct":false,"confidence":4},{"trial_n":61,"span":9,"encoder":"254785426","distractor":"254185426","target":"present","response":"present","rt":"3508.3000000007","correct":true,"confidence":4},{"trial_n":62,"span":9,"encoder":"043275583","distractor":"053275583","target":"absent","response":"present","rt":"3413.3000000007","correct":false,"confidence":3},{"trial_n":63,"span":8,"encoder":"62032463","distractor":"62038463","target":"present","response":"present","rt":"3728.5","correct":true,"confidence":4},{"trial_n":64,"span":8,"encoder":"20688525","distractor":"23688525","target":"absent","response":"present","rt":"4627.1999999993","correct":false,"confidence":5},{"trial_n":65,"span":7,"encoder":"7282559","distractor":"9282559","target":"absent","response":"absent","rt":"4241.8000000007","correct":true,"confidence":5},{"trial_n":66,"span":7,"encoder":"6233037","distractor":"6233032","target":"present","response":"present","rt":"3730","correct":true,"confidence":5},{"trial_n":67,"span":8,"encoder":"61456728","distractor":"31456728","target":"absent","response":"absent","rt":"3891.8000000007","correct":true,"confidence":4},{"trial_n":68,"span":8,"encoder":"78716821","distractor":"78916821","target":"absent","response":"present","rt":"8370","correct":false,"confidence":3},{"trial_n":69,"span":7,"encoder":"8855771","distractor":"8855171","target":"present","response":"present","rt":"3201.6000000015","correct":true,"confidence":5},{"trial_n":70,"span":7,"encoder":"9179449","distractor":"9179349","target":"present","response":"present","rt":"3009.6999999993","correct":true,"confidence":5},{"trial_n":71,"span":8,"encoder":"55861211","distractor":"55861214","target":"present","response":"present","rt":"6337.8999999985","correct":true,"confidence":-1},{"trial_n":72,"span":8,"encoder":"16430028","distractor":"16436028","target":"present","response":"present","rt":"2230.4000000022","correct":true,"confidence":-1},{"trial_n":73,"span":9,"encoder":"833589205","distractor":"833889205","target":"absent","response":"absent","rt":"5687.6999999993","correct":true,"confidence":-1},{"trial_n":74,"span":9,"encoder":"232489854","distractor":"232689854","target":"absent","response":"absent","rt":"4278.1999999993","correct":true,"confidence":-1},{"trial_n":75,"span":10,"encoder":"2942721760","distractor":"2942021760","target":"present","response":"absent","rt":"4263.3000000007","correct":false,"confidence":-1},{"trial_n":76,"span":9,"encoder":"155060399","distractor":"155060397","target":"absent","response":"absent","rt":"1543.5999999978","correct":true,"confidence":-1},{"trial_n":77,"span":9,"encoder":"235340411","distractor":"233340411","target":"present","response":"present","rt":"3368.1000000015","correct":true,"confidence":-1},{"trial_n":78,"span":10,"encoder":"6745017119","distractor":"6745017114","target":"present","response":"present","rt":"1639.8000000007","correct":true,"confidence":-1},{"trial_n":79,"span":10,"encoder":"1989979128","distractor":"1989976128","target":"present","response":"absent","rt":"5993.3999999985","correct":false,"confidence":-1},{"trial_n":80,"span":9,"encoder":"189961512","distractor":"189961515","target":"absent","response":"absent","rt":"2999.3000000007","correct":true,"confidence":-1},{"trial_n":81,"span":9,"encoder":"105859862","distractor":"109859862","target":"present","response":"present","rt":"5016.1000000015","correct":true,"confidence":-1},{"trial_n":82,"span":10,"encoder":"9420855310","distractor":"9450855310","target":"present","response":"present","rt":"4903.3999999985","correct":true,"confidence":-1},{"trial_n":83,"span":10,"encoder":"6629373875","distractor":"8629373875","target":"absent","response":"absent","rt":"2489.5999999978","correct":true,"confidence":-1},{"trial_n":84,"span":11,"encoder":"95377932742","distractor":"05377932742","target":"absent","response":"absent","rt":"10681.599999998","correct":true,"confidence":-1},{"trial_n":85,"span":11,"encoder":"82590931649","distractor":"81590931649","target":"present","response":"present","rt":"8104.1999999993","correct":true,"confidence":-1},{"trial_n":86,"span":12,"encoder":"177021296281","distractor":"177121296281","target":"absent","response":"absent","rt":"5482.1999999993","correct":true,"confidence":-1},{"trial_n":87,"span":12,"encoder":"873082262603","distractor":"863082262603","target":"absent","response":"absent","rt":"1020.4000000022","correct":true,"confidence":-1},{"trial_n":88,"span":13,"encoder":"0858019877704","distractor":"0858019878704","target":"present","response":"present","rt":"2684.299999997","correct":true,"confidence":-1},{"trial_n":89,"span":13,"encoder":"0404225837450","distractor":"0403225837450","target":"present","response":"present","rt":"3324.0999999978","correct":true,"confidence":-1},{"trial_n":90,"span":14,"encoder":"96909037831814","distractor":"96909037832814","target":"absent","response":"present","rt":"10653.5","correct":false,"confidence":-1},{"trial_n":91,"span":13,"encoder":"4374222088873","distractor":"4378222088873","target":"present","response":"present","rt":"9880.6999999993","correct":true,"confidence":2},{"trial_n":92,"span":13,"encoder":"9263251106852","distractor":"9263751106852","target":"present","response":"absent","rt":"8184.8000000007","correct":false,"confidence":3},{"trial_n":93,"span":12,"encoder":"112759205674","distractor":"112759206674","target":"absent","response":"absent","rt":"5302.5","correct":true,"confidence":4},{"trial_n":94,"span":12,"encoder":"568722856863","distractor":"568722856867","target":"absent","response":"absent","rt":"3736.4000000022","correct":true,"confidence":5},{"trial_n":95,"span":13,"encoder":"6852027321786","distractor":"6852527321786","target":"absent","response":"present","rt":"8361","correct":false,"confidence":3},{"trial_n":96,"span":12,"encoder":"032769789990","distractor":"232769789990","target":"absent","response":"absent","rt":"6760.9000000022","correct":true,"confidence":4},{"trial_n":97,"span":12,"encoder":"860799226779","distractor":"850799226779","target":"present","response":"present","rt":"9816.8000000007","correct":true,"confidence":4},{"trial_n":98,"span":13,"encoder":"0120245017663","distractor":"0120285017663","target":"present","response":"absent","rt":"8969.6999999993","correct":false,"confidence":2},{"trial_n":99,"span":12,"encoder":"041317476955","distractor":"041417476955","target":"absent","response":"absent","rt":"5559.9000000022","correct":true,"confidence":3},{"trial_n":100,"span":12,"encoder":"779898100950","distractor":"779898100957","target":"present","response":"present","rt":"2711.3999999985","correct":true,"confidence":5},{"trial_n":101,"span":13,"encoder":"5118597988227","distractor":"5118097988227","target":"present","response":"present","rt":"9765.8999999985","correct":true,"confidence":2},{"trial_n":102,"span":13,"encoder":"4617688558922","distractor":"4617680558922","target":"present","response":"present","rt":"6666","correct":true,"confidence":4},{"trial_n":103,"span":14,"encoder":"01031275749292","distractor":"01031975749292","target":"present","response":"absent","rt":"25723.100000001","correct":false,"confidence":4},{"trial_n":104,"span":13,"encoder":"2985774269687","distractor":"2983774269687","target":"present","response":"present","rt":"6553.3999999985","correct":true,"confidence":3},{"trial_n":105,"span":13,"encoder":"3978489880089","distractor":"3978489880489","target":"absent","response":"present","rt":"8681.6999999993","correct":false,"confidence":2},{"trial_n":106,"span":12,"encoder":"979239963892","distractor":"979289963892","target":"present","response":"absent","rt":"8840.0999999978","correct":false,"confidence":4},{"trial_n":107,"span":11,"encoder":"15494327082","distractor":"15495327082","target":"absent","response":"absent","rt":"54726.899999999","correct":true,"confidence":3},{"trial_n":108,"span":11,"encoder":"47035944975","distractor":"47535944975","target":"absent","response":"absent","rt":"4951.6000000015","correct":true,"confidence":2},{"trial_n":109,"span":12,"encoder":"486241324022","distractor":"426241324022","target":"absent","response":"present","rt":"4743.1999999993","correct":false,"confidence":1},{"trial_n":110,"span":11,"encoder":"29611948250","distractor":"29611148250","target":"absent","response":"absent","rt":"5127.1999999993","correct":true,"confidence":3},{"trial_n":111,"span":11,"encoder":"10849799821","distractor":"10849799121","target":"present","response":"present","rt":"3335","correct":true,"confidence":5},{"trial_n":112,"span":12,"encoder":"719041186878","distractor":"719041686878","target":"absent","response":"absent","rt":"3974.8999999985","correct":true,"confidence":5},{"trial_n":113,"span":12,"encoder":"864549500504","distractor":"864599500504","target":"present","response":"present","rt":"13400.399999999","correct":true,"confidence":3},{"trial_n":114,"span":13,"encoder":"8445327412902","distractor":"8445727412902","target":"present","response":"absent","rt":"5560.1999999993","correct":false,"confidence":3},{"trial_n":115,"span":12,"encoder":"451665809860","distractor":"451666809860","target":"absent","response":"absent","rt":"3687.3000000007","correct":true,"confidence":4},{"trial_n":116,"span":12,"encoder":"628976295807","distractor":"728976295807","target":"absent","response":"absent","rt":"5976.6000000015","correct":true,"confidence":3},{"trial_n":117,"span":13,"encoder":"4806916180648","distractor":"4806916180548","target":"absent","response":"absent","rt":"4650","correct":true,"confidence":1},{"trial_n":118,"span":13,"encoder":"4267789757681","distractor":"4267789777681","target":"absent","response":"absent","rt":"7335.299999997","correct":true,"confidence":3},{"trial_n":119,"span":14,"encoder":"13303609855704","distractor":"13303209855704","target":"present","response":"present","rt":"11019.199999999","correct":true,"confidence":4},{"trial_n":120,"span":14,"encoder":"91176194330675","distractor":"91176144330675","target":"present","response":"absent","rt":"7099.8000000007","correct":false,"confidence":2},{"trial_n":121,"span":13,"encoder":"8026409947797","distractor":"8026409947097","target":"absent","response":"absent","rt":"3833.1000000015","correct":true,"confidence":3},{"trial_n":122,"span":13,"encoder":"4363688080669","distractor":"4363688084669","target":"present","response":"present","rt":"7321.0999999978","correct":true,"confidence":3},{"trial_n":123,"span":14,"encoder":"28757173910672","distractor":"28757173918672","target":"present","response":"absent","rt":"4502.8999999985","correct":false,"confidence":5},{"trial_n":124,"span":13,"encoder":"1581368518385","distractor":"1591368518385","target":"absent","response":"absent","rt":"5704.6999999993","correct":true,"confidence":2},{"trial_n":125,"span":13,"encoder":"9044908133784","distractor":"9044908733784","target":"absent","response":"absent","rt":"9511.1000000015","correct":true,"confidence":3},{"trial_n":126,"span":14,"encoder":"36234298628861","distractor":"36234298628161","target":"present","response":"present","rt":"3883.700000003","correct":true,"confidence":5},{"trial_n":127,"span":14,"encoder":"97983129395462","distractor":"97483129395462","target":"present","response":"present","rt":"8554.1000000015","correct":true,"confidence":2},{"trial_n":128,"span":15,"encoder":"869605236418413","distractor":"861605236418413","target":"present","response":"present","rt":"10476.100000001","correct":true,"confidence":1},{"trial_n":129,"span":15,"encoder":"911502440745387","distractor":"911502449745387","target":"absent","response":"absent","rt":"8396","correct":true,"confidence":3},{"trial_n":130,"span":16,"encoder":"4823280211822853","distractor":"4822280211822853","target":"absent","response":"present","rt":"14557.5","correct":false,"confidence":2},{"trial_n":131,"span":15,"encoder":"915154153707645","distractor":"915154153707649","target":"present","response":"absent","rt":"2554.6999999993","correct":false,"confidence":1},{"trial_n":132,"span":14,"encoder":"92348663211442","distractor":"92348669211442","target":"present","response":"absent","rt":"6875.1999999993","correct":false,"confidence":2},{"trial_n":133,"span":13,"encoder":"2073043269780","distractor":"2073843269780","target":"present","response":"absent","rt":"4264.6000000015","correct":false,"confidence":1},{"trial_n":134,"span":12,"encoder":"816770489142","distractor":"816770459142","target":"present","response":"present","rt":"6439.6999999993","correct":true,"confidence":3},{"trial_n":135,"span":12,"encoder":"610258637107","distractor":"650258637107","target":"absent","response":"present","rt":"6392.1000000015","correct":false,"confidence":4},{"trial_n":136,"span":11,"encoder":"33265197050","distractor":"33265117050","target":"absent","response":"absent","rt":"8456","correct":true,"confidence":4},{"trial_n":137,"span":11,"encoder":"56818695916","distractor":"36818695916","target":"absent","response":"present","rt":"8646.299999997","correct":false,"confidence":2},{"trial_n":138,"span":10,"encoder":"6699515187","distractor":"6696515187","target":"present","response":"present","rt":"4150","correct":true,"confidence":5},{"trial_n":139,"span":10,"encoder":"9521104667","distractor":"0521104667","target":"absent","response":"present","rt":"4901","correct":false,"confidence":3},{"trial_n":140,"span":9,"encoder":"528002137","distractor":"528902137","target":"absent","response":"absent","rt":"5413.0999999978","correct":true,"confidence":3}]