[{"trial_n":1,"n_dots":4.25,"target":"right","response":"right","rt":2475.9000000004,"correct":true,"confidence":-1},{"trial_n":2,"n_dots":4.25,"target":"left","response":"left","rt":819.80000000075,"correct":true,"confidence":-1},{"trial_n":3,"n_dots":3.85,"target":"right","response":"left","rt":484.30000000075,"correct":false,"confidence":-1},{"trial_n":4,"n_dots":4.25,"target":"right","response":"right","rt":1079.1999999993,"correct":true,"confidence":-1},{"trial_n":5,"n_dots":4.25,"target":"left","response":"left","rt":55,"correct":true,"confidence":-1},{"trial_n":6,"n_dots":3.85,"target":"right","response":"right","rt":519.5,"correct":true,"confidence":-1},{"trial_n":7,"n_dots":3.85,"target":"left","response":"left","rt":126.09999999963,"correct":true,"confidence":-1},{"trial_n":8,"n_dots":3.65,"target":"right","response":"right","rt":84.5,"correct":true,"confidence":-1},{"trial_n":9,"n_dots":3.65,"target":"right","response":"right","rt":88,"correct":true,"confidence":-1},{"trial_n":10,"n_dots":3.45,"target":"left","response":"left","rt":119.30000000075,"correct":true,"confidence":-1},{"trial_n":11,"n_dots":3.45,"target":"left","response":"right","rt":236.40000000037,"correct":false,"confidence":-1},{"trial_n":12,"n_dots":3.65,"target":"left","response":"right","rt":451.5,"correct":false,"confidence":-1},{"trial_n":13,"n_dots":3.75,"target":"right","response":"left","rt":71.5,"correct":false,"confidence":-1},{"trial_n":14,"n_dots":3.85,"target":"left","response":"left","rt":478.80000000075,"correct":true,"confidence":-1},{"trial_n":15,"n_dots":3.85,"target":"right","response":"right","rt":484.90000000037,"correct":true,"confidence":-1},{"trial_n":16,"n_dots":3.75,"target":"left","response":"left","rt":338.79999999888,"correct":true,"confidence":-1},{"trial_n":17,"n_dots":3.75,"target":"right","response":"right","rt":500.39999999851,"correct":true,"confidence":-1},{"trial_n":18,"n_dots":3.65,"target":"left","response":"left","rt":350.59999999963,"correct":true,"confidence":-1},{"trial_n":19,"n_dots":3.65,"target":"left","response":"left","rt":278.5,"correct":true,"confidence":-1},{"trial_n":20,"n_dots":3.55,"target":"right","response":"right","rt":390.69999999925,"correct":true,"confidence":-1},{"trial_n":21,"n_dots":3.55,"target":"right","response":"right","rt":555.40000000037,"correct":true,"confidence":2},{"trial_n":22,"n_dots":3.45,"target":"left","response":"right","rt":575.59999999963,"correct":false,"confidence":2},{"trial_n":23,"n_dots":3.55,"target":"left","response":"left","rt":406.30000000075,"correct":true,"confidence":3},{"trial_n":24,"n_dots":3.55,"target":"right","response":"right","rt":533.80000000075,"correct":true,"confidence":3},{"trial_n":25,"n_dots":3.45,"target":"left","response":"left","rt":585.20000000112,"correct":true,"confidence":2},{"trial_n":26,"n_dots":3.45,"target":"left","response":"right","rt":663.30000000075,"correct":false,"confidence":2},{"trial_n":27,"n_dots":3.55,"target":"left","response":"left","rt":707.59999999963,"correct":true,"confidence":2},{"trial_n":28,"n_dots":3.55,"target":"right","response":"right","rt":534.90000000037,"correct":true,"confidence":3},{"trial_n":29,"n_dots":3.45,"target":"right","response":"right","rt":677.09999999963,"correct":true,"confidence":2},{"trial_n":30,"n_dots":3.45,"target":"right","response":"left","rt":572.59999999963,"correct":false,"confidence":2},{"trial_n":31,"n_dots":3.55,"target":"left","response":"left","rt":396.89999999851,"correct":true,"confidence":3},{"trial_n":32,"n_dots":3.55,"target":"right","response":"right","rt":441.5,"correct":true,"confidence":2},{"trial_n":33,"n_dots":3.45,"target":"right","response":"right","rt":389.90000000037,"correct":true,"confidence":3},{"trial_n":34,"n_dots":3.45,"target":"right","response":"right","rt":407.19999999925,"correct":true,"confidence":3},{"trial_n":35,"n_dots":3.35,"target":"right","response":"right","rt":407.10000000149,"correct":true,"confidence":2},{"trial_n":36,"n_dots":3.35,"target":"right","response":"right","rt":404.90000000037,"correct":true,"confidence":3},{"trial_n":37,"n_dots":3.25,"target":"left","response":"left","rt":319.19999999925,"correct":true,"confidence":2},{"trial_n":38,"n_dots":3.25,"target":"right","response":"right","rt":280.89999999851,"correct":true,"confidence":3},{"trial_n":39,"n_dots":3.15,"target":"left","response":"left","rt":348.5,"correct":true,"confidence":2},{"trial_n":40,"n_dots":3.15,"target":"right","response":"left","rt":532.59999999963,"correct":false,"confidence":2},{"trial_n":41,"n_dots":3.25,"target":"right","response":"right","rt":426.80000000075,"correct":true,"confidence":2},{"trial_n":42,"n_dots":3.25,"target":"right","response":"left","rt":292.79999999888,"correct":false,"confidence":2},{"trial_n":43,"n_dots":3.35,"target":"right","response":"right","rt":347,"correct":true,"confidence":2},{"trial_n":44,"n_dots":3.35,"target":"right","response":"right","rt":596.10000000149,"correct":true,"confidence":1},{"trial_n":45,"n_dots":3.25,"target":"right","response":"right","rt":502.40000000037,"correct":true,"confidence":2},{"trial_n":46,"n_dots":3.25,"target":"left","response":"left","rt":371.89999999851,"correct":true,"confidence":3},{"trial_n":47,"n_dots":3.15,"target":"right","response":"right","rt":503.5,"correct":true,"confidence":2},{"trial_n":48,"n_dots":3.15,"target":"right","response":"right","rt":382.10000000149,"correct":true,"confidence":2},{"trial_n":49,"n_dots":3.05,"target":"left","response":"left","rt":313.5,"correct":true,"confidence":3},{"trial_n":50,"n_dots":3.05,"target":"left","response":"left","rt":601.90000000037,"correct":true,"confidence":2},{"trial_n":51,"n_dots":2.95,"target":"right","response":"left","rt":317.69999999925,"correct":false,"confidence":2},{"trial_n":52,"n_dots":3.05,"target":"right","response":"left","rt":294.5,"correct":false,"confidence":2},{"trial_n":53,"n_dots":3.15,"target":"left","response":"left","rt":290.5,"correct":true,"confidence":2},{"trial_n":54,"n_dots":3.15,"target":"left","response":"left","rt":367.09999999963,"correct":true,"confidence":3},{"trial_n":55,"n_dots":3.05,"target":"right","response":"left","rt":432,"correct":false,"confidence":2},{"trial_n":56,"n_dots":3.15,"target":"left","response":"left","rt":697.20000000112,"correct":true,"confidence":2},{"trial_n":57,"n_dots":3.15,"target":"left","response":"left","rt":783.70000000112,"correct":true,"confidence":2},{"trial_n":58,"n_dots":3.05,"target":"left","response":"left","rt":508.30000000075,"correct":true,"confidence":2},{"trial_n":59,"n_dots":3.05,"target":"left","response":"right","rt":558,"correct":false,"confidence":2},{"trial_n":60,"n_dots":3.15,"target":"left","response":"left","rt":345.20000000112,"correct":true,"confidence":2},{"trial_n":61,"n_dots":3.15,"target":"left","response":"left","rt":324.5,"correct":true,"confidence":2},{"trial_n":62,"n_dots":3.05,"target":"right","response":"left","rt":550,"correct":false,"confidence":2},{"trial_n":63,"n_dots":3.15,"target":"left","response":"left","rt":414,"correct":true,"confidence":2},{"trial_n":64,"n_dots":3.15,"target":"left","response":"left","rt":397.69999999925,"correct":true,"confidence":1},{"trial_n":65,"n_dots":3.05,"target":"right","response":"left","rt":321.70000000112,"correct":false,"confidence":1},{"trial_n":66,"n_dots":3.15,"target":"right","response":"right","rt":488.40000000037,"correct":true,"confidence":1},{"trial_n":67,"n_dots":3.15,"target":"right","response":"left","rt":365.69999999925,"correct":false,"confidence":1},{"trial_n":68,"n_dots":3.25,"target":"left","response":"right","rt":494.70000000112,"correct":false,"confidence":1},{"trial_n":69,"n_dots":3.35,"target":"right","response":"left","rt":316.40000000037,"correct":false,"confidence":2},{"trial_n":70,"n_dots":3.45,"target":"left","response":"left","rt":354.29999999888,"correct":true,"confidence":1},{"trial_n":71,"n_dots":3.45,"target":"left","response":"left","rt":438.5,"correct":true,"confidence":1},{"trial_n":72,"n_dots":3.35,"target":"left","response":"left","rt":371.60000000149,"correct":true,"confidence":1},{"trial_n":73,"n_dots":3.35,"target":"left","response":"left","rt":318.70000000112,"correct":true,"confidence":1},{"trial_n":74,"n_dots":3.25,"target":"left","response":"left","rt":263.39999999851,"correct":true,"confidence":1},{"trial_n":75,"n_dots":3.25,"target":"right","response":"left","rt":329,"correct":false,"confidence":1},{"trial_n":76,"n_dots":3.35,"target":"right","response":"left","rt":343.40000000037,"correct":false,"confidence":1},{"trial_n":77,"n_dots":3.45,"target":"left","response":"left","rt":288.09999999963,"correct":true,"confidence":1},{"trial_n":78,"n_dots":3.45,"target":"left","response":"left","rt":288.90000000037,"correct":true,"confidence":1},{"trial_n":79,"n_dots":3.35,"target":"right","response":"right","rt":774.59999999963,"correct":true,"confidence":1},{"trial_n":80,"n_dots":3.35,"target":"right","response":"right","rt":577.90000000037,"correct":true,"confidence":1},{"trial_n":81,"n_dots":3.25,"target":"right","response":"right","rt":484.30000000075,"correct":true,"confidence":1},{"trial_n":82,"n_dots":3.25,"target":"left","response":"right","rt":326.5,"correct":false,"confidence":1},{"trial_n":83,"n_dots":3.35,"target":"left","response":"left","rt":457.40000000037,"correct":true,"confidence":1},{"trial_n":84,"n_dots":3.35,"target":"left","response":"left","rt":1061,"correct":true,"confidence":1},{"trial_n":85,"n_dots":3.25,"target":"left","response":"left","rt":564.60000000149,"correct":true,"confidence":2},{"trial_n":86,"n_dots":3.25,"target":"left","response":"left","rt":373.79999999888,"correct":true,"confidence":2},{"trial_n":87,"n_dots":3.15,"target":"right","response":"left","rt":496.09999999963,"correct":false,"confidence":2},{"trial_n":88,"n_dots":3.25,"target":"left","response":"left","rt":451.39999999851,"correct":true,"confidence":2},{"trial_n":89,"n_dots":3.25,"target":"left","response":"left","rt":380,"correct":true,"confidence":3},{"trial_n":90,"n_dots":3.15,"target":"right","response":"right","rt":372.30000000075,"correct":true,"confidence":2},{"trial_n":91,"n_dots":3.15,"target":"right","response":"left","rt":372.10000000149,"correct":false,"confidence":2},{"trial_n":92,"n_dots":3.25,"target":"left","response":"left","rt":502.80000000075,"correct":true,"confidence":2},{"trial_n":93,"n_dots":3.25,"target":"right","response":"right","rt":411.30000000075,"correct":true,"confidence":2},{"trial_n":94,"n_dots":3.15,"target":"right","response":"left","rt":601.5,"correct":false,"confidence":2},{"trial_n":95,"n_dots":3.25,"target":"right","response":"right","rt":521.40000000037,"correct":true,"confidence":2},{"trial_n":96,"n_dots":3.25,"target":"left","response":"left","rt":387.5,"correct":true,"confidence":2},{"trial_n":97,"n_dots":3.15,"target":"left","response":"left","rt":444.20000000112,"correct":true,"confidence":2},{"trial_n":98,"n_dots":3.15,"target":"left","response":"right","rt":595.60000000149,"correct":false,"confidence":2},{"trial_n":99,"n_dots":3.25,"target":"left","response":"right","rt":460.29999999888,"correct":false,"confidence":2},{"trial_n":100,"n_dots":3.35,"target":"right","response":"right","rt":521.59999999963,"correct":true,"confidence":2},{"trial_n":101,"n_dots":3.35,"target":"right","response":"left","rt":606.39999999851,"correct":false,"confidence":2},{"trial_n":102,"n_dots":3.45,"target":"right","response":"right","rt":417.59999999963,"correct":true,"confidence":2},{"trial_n":103,"n_dots":3.45,"target":"left","response":"right","rt":443.5,"correct":false,"confidence":2},{"trial_n":104,"n_dots":3.55,"target":"left","response":"left","rt":18.700000001118,"correct":true,"confidence":2},{"trial_n":105,"n_dots":3.55,"target":"left","response":"right","rt":361,"correct":false,"confidence":2},{"trial_n":106,"n_dots":3.65,"target":"left","response":"left","rt":460.70000000112,"correct":true,"confidence":2},{"trial_n":107,"n_dots":3.65,"target":"right","response":"right","rt":455.40000000037,"correct":true,"confidence":2},{"trial_n":108,"n_dots":3.55,"target":"right","response":"right","rt":435.80000000075,"correct":true,"confidence":2},{"trial_n":109,"n_dots":3.55,"target":"right","response":"right","rt":300.79999999888,"correct":true,"confidence":3},{"trial_n":110,"n_dots":3.45,"target":"right","response":"right","rt":328.69999999925,"correct":true,"confidence":3},{"trial_n":111,"n_dots":3.45,"target":"right","response":"right","rt":771.59999999963,"correct":true,"confidence":2},{"trial_n":112,"n_dots":3.35,"target":"right","response":"left","rt":331,"correct":false,"confidence":2},{"trial_n":113,"n_dots":3.45,"target":"right","response":"right","rt":320,"correct":true,"confidence":2},{"trial_n":114,"n_dots":3.45,"target":"right","response":"right","rt":385.30000000075,"correct":true,"confidence":3},{"trial_n":115,"n_dots":3.35,"target":"left","response":"left","rt":284.59999999963,"correct":true,"confidence":3},{"trial_n":116,"n_dots":3.35,"target":"right","response":"right","rt":421.70000000112,"correct":true,"confidence":2},{"trial_n":117,"n_dots":3.25,"target":"left","response":"left","rt":323.39999999851,"correct":true,"confidence":2},{"trial_n":118,"n_dots":3.25,"target":"left","response":"left","rt":594.90000000037,"correct":true,"confidence":2},{"trial_n":119,"n_dots":3.15,"target":"left","response":"right","rt":541.89999999851,"correct":false,"confidence":2},{"trial_n":120,"n_dots":3.25,"target":"left","response":"right","rt":511.30000000075,"correct":false,"confidence":2}]