[{"trial_n":1,"span":8,"encoder":"29616901","distractor":"29616902","target":"present","response":"present","rt":"20094","correct":true,"confidence":-1},{"trial_n":2,"span":8,"encoder":"97944312","distractor":"17944312","target":"present","response":"present","rt":"4321.599999994","correct":true,"confidence":-1},{"trial_n":3,"span":10,"encoder":"7256064386","distractor":"7956064386","target":"absent","response":"present","rt":"5763.1000000089","correct":false,"confidence":-1},{"trial_n":4,"span":8,"encoder":"64456182","distractor":"64456122","target":"absent","response":"absent","rt":"3484.299999997","correct":true,"confidence":-1},{"trial_n":5,"span":8,"encoder":"40164175","distractor":"40164185","target":"present","response":"present","rt":"4172.099999994","correct":true,"confidence":-1},{"trial_n":6,"span":10,"encoder":"0629995286","distractor":"0629996286","target":"absent","response":"present","rt":"4403.400000006","correct":false,"confidence":-1},{"trial_n":7,"span":8,"encoder":"73564922","distractor":"73514922","target":"absent","response":"present","rt":"4380.599999994","correct":false,"confidence":-1},{"trial_n":8,"span":6,"encoder":"046902","distractor":"086902","target":"present","response":"present","rt":"2058.2999999821","correct":true,"confidence":-1},{"trial_n":9,"span":6,"encoder":"444041","distractor":"444049","target":"present","response":"present","rt":"1946.599999994","correct":true,"confidence":-1},{"trial_n":10,"span":8,"encoder":"59773357","distractor":"59773377","target":"absent","response":"absent","rt":"4838.5","correct":true,"confidence":-1},{"trial_n":11,"span":8,"encoder":"48112430","distractor":"48119430","target":"present","response":"present","rt":"5086.900000006","correct":true,"confidence":-1},{"trial_n":12,"span":9,"encoder":"281244956","distractor":"281241956","target":"absent","response":"present","rt":"6029.099999994","correct":false,"confidence":-1},{"trial_n":13,"span":8,"encoder":"69667885","distractor":"69667855","target":"present","response":"absent","rt":"2292.900000006","correct":false,"confidence":-1},{"trial_n":14,"span":7,"encoder":"7454331","distractor":"7454334","target":"absent","response":"absent","rt":"2348","correct":true,"confidence":-1},{"trial_n":15,"span":7,"encoder":"0791533","distractor":"0796533","target":"absent","response":"present","rt":"4269.2000000179","correct":false,"confidence":-1},{"trial_n":16,"span":6,"encoder":"108378","distractor":"108368","target":"absent","response":"absent","rt":"2761.7000000179","correct":true,"confidence":-1},{"trial_n":17,"span":6,"encoder":"037391","distractor":"137391","target":"present","response":"present","rt":"3658.099999994","correct":true,"confidence":-1},{"trial_n":18,"span":7,"encoder":"1046270","distractor":"4046270","target":"absent","response":"absent","rt":"2698.099999994","correct":true,"confidence":-1},{"trial_n":19,"span":7,"encoder":"9362609","distractor":"9369609","target":"present","response":"present","rt":"2427.6999999881","correct":true,"confidence":-1},{"trial_n":20,"span":8,"encoder":"17555471","distractor":"17555451","target":"absent","response":"absent","rt":"2285.7999999821","correct":true,"confidence":-1},{"trial_n":21,"span":8,"encoder":"59555080","distractor":"59555086","target":"absent","response":"present","rt":"3144.099999994","correct":false,"confidence":4},{"trial_n":22,"span":7,"encoder":"9615088","distractor":"9615588","target":"present","response":"absent","rt":"2194","correct":false,"confidence":5},{"trial_n":23,"span":6,"encoder":"324876","distractor":"327876","target":"present","response":"present","rt":"3489.2000000179","correct":true,"confidence":5},{"trial_n":24,"span":6,"encoder":"798804","distractor":"797804","target":"absent","response":"absent","rt":"3909.099999994","correct":true,"confidence":5},{"trial_n":25,"span":7,"encoder":"3450848","distractor":"3450948","target":"absent","response":"absent","rt":"4428.099999994","correct":true,"confidence":5},{"trial_n":26,"span":7,"encoder":"3310206","distractor":"3310266","target":"absent","response":"absent","rt":"6310.6999999881","correct":true,"confidence":5},{"trial_n":27,"span":8,"encoder":"88324112","distractor":"86324112","target":"absent","response":"present","rt":"2142.400000006","correct":false,"confidence":5},{"trial_n":28,"span":7,"encoder":"3785723","distractor":"4785723","target":"present","response":"present","rt":"2131.400000006","correct":true,"confidence":5},{"trial_n":29,"span":7,"encoder":"2395006","distractor":"2395206","target":"present","response":"present","rt":"2969.6999999881","correct":true,"confidence":5},{"trial_n":30,"span":8,"encoder":"57687346","distractor":"07687346","target":"absent","response":"present","rt":"4185.2999999821","correct":false,"confidence":4},{"trial_n":31,"span":7,"encoder":"0344599","distractor":"0344519","target":"present","response":"present","rt":"2698.3000000119","correct":true,"confidence":5},{"trial_n":32,"span":7,"encoder":"4720188","distractor":"4420188","target":"absent","response":"absent","rt":"2160.7000000179","correct":true,"confidence":5},{"trial_n":33,"span":8,"encoder":"86830449","distractor":"16830449","target":"present","response":"present","rt":"4987.099999994","correct":true,"confidence":3},{"trial_n":34,"span":8,"encoder":"87759743","distractor":"87759543","target":"absent","response":"absent","rt":"3780.6999999881","correct":true,"confidence":3},{"trial_n":35,"span":9,"encoder":"747868047","distractor":"747868043","target":"present","response":"present","rt":"3440.6999999881","correct":true,"confidence":4},{"trial_n":36,"span":9,"encoder":"639015508","distractor":"639015509","target":"absent","response":"absent","rt":"2855.599999994","correct":true,"confidence":5},{"trial_n":37,"span":10,"encoder":"4262444653","distractor":"4262445653","target":"present","response":"present","rt":"2919","correct":true,"confidence":4},{"trial_n":38,"span":10,"encoder":"1085123147","distractor":"1095123147","target":"present","response":"present","rt":"6853.400000006","correct":true,"confidence":3},{"trial_n":39,"span":11,"encoder":"65011824694","distractor":"65011834694","target":"present","response":"present","rt":"2622.2999999821","correct":true,"confidence":4},{"trial_n":40,"span":11,"encoder":"16875392115","distractor":"16877392115","target":"present","response":"present","rt":"5576.599999994","correct":true,"confidence":3},{"trial_n":41,"span":12,"encoder":"683673423846","distractor":"683673423847","target":"present","response":"present","rt":"3327","correct":true,"confidence":4},{"trial_n":42,"span":12,"encoder":"723049051428","distractor":"723049051458","target":"absent","response":"absent","rt":"2109.5","correct":true,"confidence":5},{"trial_n":43,"span":13,"encoder":"3535842380501","distractor":"3535842320501","target":"present","response":"present","rt":"5880.7000000179","correct":true,"confidence":4},{"trial_n":44,"span":13,"encoder":"8432206878419","distractor":"8432206878412","target":"present","response":"present","rt":"3063.7000000179","correct":true,"confidence":5},{"trial_n":45,"span":14,"encoder":"74977207624659","distractor":"74973207624659","target":"present","response":"present","rt":"8647.099999994","correct":true,"confidence":3},{"trial_n":46,"span":14,"encoder":"22404451933450","distractor":"22404451033450","target":"absent","response":"absent","rt":"3302","correct":true,"confidence":5},{"trial_n":47,"span":15,"encoder":"484679663889841","distractor":"484679363889841","target":"absent","response":"present","rt":"5340.599999994","correct":false,"confidence":4},{"trial_n":48,"span":14,"encoder":"68420719237590","distractor":"68420719257590","target":"present","response":"present","rt":"4902.400000006","correct":true,"confidence":3},{"trial_n":49,"span":14,"encoder":"89933610244950","distractor":"89933610844950","target":"present","response":"present","rt":"5497","correct":true,"confidence":4},{"trial_n":50,"span":15,"encoder":"633693425711171","distractor":"633693425711181","target":"absent","response":"present","rt":"4159.8000000119","correct":false,"confidence":3},{"trial_n":51,"span":14,"encoder":"29710488326186","distractor":"29710478326186","target":"absent","response":"present","rt":"9276.7000000179","correct":false,"confidence":3},{"trial_n":52,"span":13,"encoder":"5387443303377","distractor":"5387443306377","target":"absent","response":"present","rt":"4174.599999994","correct":false,"confidence":4},{"trial_n":53,"span":12,"encoder":"015761991396","distractor":"015761991366","target":"absent","response":"present","rt":"3436.1999999881","correct":false,"confidence":3},{"trial_n":54,"span":11,"encoder":"78813230323","distractor":"78813030323","target":"absent","response":"absent","rt":"3017.1999999881","correct":true,"confidence":4},{"trial_n":55,"span":11,"encoder":"72963981064","distractor":"72933981064","target":"absent","response":"present","rt":"3860.099999994","correct":false,"confidence":3},{"trial_n":56,"span":10,"encoder":"0453982229","distractor":"9453982229","target":"absent","response":"present","rt":"2085.1999999881","correct":false,"confidence":5},{"trial_n":57,"span":9,"encoder":"908701083","distractor":"968701083","target":"absent","response":"present","rt":"3805.6999999881","correct":false,"confidence":5},{"trial_n":58,"span":8,"encoder":"16274955","distractor":"16274655","target":"present","response":"absent","rt":"3781","correct":false,"confidence":5},{"trial_n":59,"span":7,"encoder":"8595210","distractor":"8598210","target":"absent","response":"present","rt":"1869.900000006","correct":false,"confidence":5},{"trial_n":60,"span":6,"encoder":"881064","distractor":"883064","target":"absent","response":"absent","rt":"4587.6999999881","correct":true,"confidence":5},{"trial_n":61,"span":6,"encoder":"236283","distractor":"236282","target":"present","response":"present","rt":"2122.900000006","correct":true,"confidence":5},{"trial_n":62,"span":7,"encoder":"4118144","distractor":"0118144","target":"present","response":"present","rt":"2349.3999999762","correct":true,"confidence":5},{"trial_n":63,"span":7,"encoder":"2123586","distractor":"2123686","target":"absent","response":"absent","rt":"1690.8000000119","correct":true,"confidence":5},{"trial_n":64,"span":8,"encoder":"76623698","distractor":"76627698","target":"present","response":"absent","rt":"3360.900000006","correct":false,"confidence":5},{"trial_n":65,"span":7,"encoder":"6907030","distractor":"6908030","target":"present","response":"present","rt":"4680.8999999762","correct":true,"confidence":4},{"trial_n":66,"span":7,"encoder":"0938746","distractor":"0938747","target":"present","response":"absent","rt":"1797","correct":false,"confidence":3},{"trial_n":67,"span":6,"encoder":"915906","distractor":"915406","target":"present","response":"present","rt":"2374.1000000238","correct":true,"confidence":5},{"trial_n":68,"span":6,"encoder":"946262","distractor":"996262","target":"present","response":"absent","rt":"1778.2999999821","correct":false,"confidence":5},{"trial_n":69,"span":5,"encoder":"09915","distractor":"09615","target":"present","response":"present","rt":"2515.8000000119","correct":true,"confidence":5},{"trial_n":70,"span":5,"encoder":"67270","distractor":"67240","target":"present","response":"present","rt":"3828.8000000119","correct":true,"confidence":5},{"trial_n":71,"span":8,"encoder":"28860441","distractor":"28360441","target":"present","response":"present","rt":"19201.599999994","correct":true,"confidence":-1},{"trial_n":72,"span":8,"encoder":"18156342","distractor":"18256342","target":"present","response":"present","rt":"4867.7999999821","correct":true,"confidence":-1},{"trial_n":73,"span":9,"encoder":"905643584","distractor":"905643544","target":"absent","response":"absent","rt":"2717.599999994","correct":true,"confidence":-1},{"trial_n":74,"span":9,"encoder":"214909922","distractor":"914909922","target":"absent","response":"present","rt":"6228.400000006","correct":false,"confidence":-1},{"trial_n":75,"span":8,"encoder":"36341617","distractor":"16341617","target":"present","response":"absent","rt":"2930.2000000179","correct":false,"confidence":-1},{"trial_n":76,"span":7,"encoder":"8971004","distractor":"8271004","target":"absent","response":"absent","rt":"3966.900000006","correct":true,"confidence":-1},{"trial_n":77,"span":7,"encoder":"6309204","distractor":"6309207","target":"present","response":"present","rt":"2064.599999994","correct":true,"confidence":-1},{"trial_n":78,"span":8,"encoder":"25966915","distractor":"25956915","target":"present","response":"absent","rt":"3686.2000000179","correct":false,"confidence":-1},{"trial_n":79,"span":7,"encoder":"8377409","distractor":"9377409","target":"present","response":"absent","rt":"3092.7000000179","correct":false,"confidence":-1},{"trial_n":80,"span":6,"encoder":"732056","distractor":"732052","target":"present","response":"present","rt":"2671.400000006","correct":true,"confidence":-1},{"trial_n":81,"span":6,"encoder":"722222","distractor":"727222","target":"present","response":"present","rt":"9366","correct":true,"confidence":-1},{"trial_n":82,"span":7,"encoder":"6632017","distractor":"5632017","target":"absent","response":"present","rt":"2310.8000000119","correct":false,"confidence":-1},{"trial_n":83,"span":6,"encoder":"505202","distractor":"575202","target":"absent","response":"absent","rt":"1978.6999999881","correct":true,"confidence":-1},{"trial_n":84,"span":6,"encoder":"749990","distractor":"759990","target":"absent","response":"absent","rt":"3879.400000006","correct":true,"confidence":-1},{"trial_n":85,"span":7,"encoder":"5053768","distractor":"5051768","target":"present","response":"present","rt":"2407.1000000238","correct":true,"confidence":-1},{"trial_n":86,"span":7,"encoder":"4684537","distractor":"4684237","target":"absent","response":"present","rt":"3650.1999999881","correct":false,"confidence":-1},{"trial_n":87,"span":6,"encoder":"390250","distractor":"395250","target":"absent","response":"absent","rt":"4478.1999999881","correct":true,"confidence":-1},{"trial_n":88,"span":6,"encoder":"070972","distractor":"040972","target":"present","response":"present","rt":"2295.599999994","correct":true,"confidence":-1},{"trial_n":89,"span":7,"encoder":"1070640","distractor":"6070640","target":"absent","response":"present","rt":"3452.2000000179","correct":false,"confidence":-1},{"trial_n":90,"span":6,"encoder":"343085","distractor":"323085","target":"absent","response":"absent","rt":"4374.2999999821","correct":true,"confidence":-1},{"trial_n":91,"span":6,"encoder":"264430","distractor":"204430","target":"present","response":"absent","rt":"5045","correct":false,"confidence":2},{"trial_n":92,"span":5,"encoder":"44870","distractor":"14870","target":"absent","response":"absent","rt":"2739.6999999881","correct":true,"confidence":5},{"trial_n":93,"span":5,"encoder":"51001","distractor":"51701","target":"present","response":"present","rt":"3203","correct":true,"confidence":5},{"trial_n":94,"span":6,"encoder":"702268","distractor":"706268","target":"present","response":"absent","rt":"3989.6000000238","correct":false,"confidence":2},{"trial_n":95,"span":5,"encoder":"77889","distractor":"77879","target":"present","response":"present","rt":"2114.8999999762","correct":true,"confidence":5},{"trial_n":96,"span":5,"encoder":"82499","distractor":"82498","target":"present","response":"present","rt":"5058","correct":true,"confidence":4},{"trial_n":97,"span":6,"encoder":"131021","distractor":"131921","target":"absent","response":"absent","rt":"3048.7000000179","correct":true,"confidence":4},{"trial_n":98,"span":6,"encoder":"411434","distractor":"411435","target":"present","response":"present","rt":"2869.599999994","correct":true,"confidence":5},{"trial_n":99,"span":7,"encoder":"5359725","distractor":"5359728","target":"present","response":"present","rt":"2691.8000000119","correct":true,"confidence":5},{"trial_n":100,"span":7,"encoder":"5087083","distractor":"5084083","target":"present","response":"present","rt":"2541.1999999881","correct":true,"confidence":5},{"trial_n":101,"span":8,"encoder":"24169268","distractor":"24369268","target":"absent","response":"absent","rt":"3922","correct":true,"confidence":3},{"trial_n":102,"span":8,"encoder":"48380677","distractor":"48380977","target":"absent","response":"absent","rt":"2441.400000006","correct":true,"confidence":5},{"trial_n":103,"span":9,"encoder":"731339672","distractor":"731439672","target":"present","response":"present","rt":"3121.3000000119","correct":true,"confidence":5},{"trial_n":104,"span":9,"encoder":"486464269","distractor":"476464269","target":"absent","response":"present","rt":"6314.400000006","correct":false,"confidence":2},{"trial_n":105,"span":8,"encoder":"17503933","distractor":"15503933","target":"present","response":"absent","rt":"10235.300000012","correct":false,"confidence":2},{"trial_n":106,"span":7,"encoder":"2698966","distractor":"2608966","target":"present","response":"absent","rt":"4531.099999994","correct":false,"confidence":3},{"trial_n":107,"span":6,"encoder":"812663","distractor":"816663","target":"absent","response":"absent","rt":"2546.400000006","correct":true,"confidence":5},{"trial_n":108,"span":6,"encoder":"655976","distractor":"659976","target":"present","response":"present","rt":"3434.5","correct":true,"confidence":4},{"trial_n":109,"span":7,"encoder":"5133410","distractor":"5133810","target":"absent","response":"absent","rt":"2105.599999994","correct":true,"confidence":5},{"trial_n":110,"span":7,"encoder":"5547362","distractor":"5547322","target":"present","response":"present","rt":"3891.3000000119","correct":true,"confidence":4},{"trial_n":111,"span":8,"encoder":"27991825","distractor":"27991225","target":"present","response":"present","rt":"2819.900000006","correct":true,"confidence":5},{"trial_n":112,"span":8,"encoder":"36543413","distractor":"66543413","target":"present","response":"present","rt":"5239.1999999881","correct":true,"confidence":3},{"trial_n":113,"span":9,"encoder":"460525395","distractor":"450525395","target":"absent","response":"absent","rt":"6751.7000000179","correct":true,"confidence":3},{"trial_n":114,"span":9,"encoder":"177116720","distractor":"173116720","target":"present","response":"absent","rt":"9895.099999994","correct":false,"confidence":4},{"trial_n":115,"span":8,"encoder":"91745378","distractor":"51745378","target":"absent","response":"present","rt":"5287.599999994","correct":false,"confidence":5},{"trial_n":116,"span":7,"encoder":"2128201","distractor":"2128701","target":"absent","response":"absent","rt":"5513.900000006","correct":true,"confidence":1},{"trial_n":117,"span":7,"encoder":"5768312","distractor":"9768312","target":"present","response":"present","rt":"3415.3000000119","correct":true,"confidence":3},{"trial_n":118,"span":8,"encoder":"36117683","distractor":"36917683","target":"present","response":"absent","rt":"4167.900000006","correct":false,"confidence":3},{"trial_n":119,"span":7,"encoder":"3919892","distractor":"3916892","target":"absent","response":"present","rt":"6492.8000000119","correct":false,"confidence":4},{"trial_n":120,"span":6,"encoder":"000803","distractor":"002803","target":"present","response":"present","rt":"2383.599999994","correct":true,"confidence":5},{"trial_n":121,"span":6,"encoder":"630874","distractor":"630474","target":"absent","response":"present","rt":"13383.699999988","correct":false,"confidence":2},{"trial_n":122,"span":5,"encoder":"29722","distractor":"29792","target":"absent","response":"absent","rt":"2750.900000006","correct":true,"confidence":5},{"trial_n":123,"span":5,"encoder":"50207","distractor":"30207","target":"absent","response":"absent","rt":"1801.5","correct":true,"confidence":5},{"trial_n":124,"span":6,"encoder":"018310","distractor":"018810","target":"present","response":"present","rt":"2743.2000000179","correct":true,"confidence":5},{"trial_n":125,"span":6,"encoder":"809948","distractor":"809448","target":"present","response":"present","rt":"3219.1999999881","correct":true,"confidence":5},{"trial_n":126,"span":7,"encoder":"1531264","distractor":"1531164","target":"present","response":"present","rt":"4801.900000006","correct":true,"confidence":3},{"trial_n":127,"span":7,"encoder":"6532212","distractor":"6502212","target":"absent","response":"present","rt":"4491.5","correct":false,"confidence":4},{"trial_n":128,"span":6,"encoder":"992785","distractor":"292785","target":"absent","response":"absent","rt":"4545","correct":true,"confidence":5},{"trial_n":129,"span":6,"encoder":"787660","distractor":"787600","target":"absent","response":"absent","rt":"2627.400000006","correct":true,"confidence":5},{"trial_n":130,"span":7,"encoder":"0777104","distractor":"0777504","target":"absent","response":"absent","rt":"2565.400000006","correct":true,"confidence":5},{"trial_n":131,"span":7,"encoder":"0300321","distractor":"7300321","target":"absent","response":"absent","rt":"2552.1000000238","correct":true,"confidence":4},{"trial_n":132,"span":8,"encoder":"99640807","distractor":"19640807","target":"absent","response":"absent","rt":"2485.1999999881","correct":true,"confidence":5},{"trial_n":133,"span":8,"encoder":"20076006","distractor":"20070006","target":"present","response":"present","rt":"8372.2999999821","correct":true,"confidence":1},{"trial_n":134,"span":9,"encoder":"448483646","distractor":"448483636","target":"present","response":"present","rt":"3309","correct":true,"confidence":5},{"trial_n":135,"span":9,"encoder":"729107530","distractor":"729107500","target":"absent","response":"absent","rt":"2047.400000006","correct":true,"confidence":4},{"trial_n":136,"span":10,"encoder":"0300486421","distractor":"0370486421","target":"present","response":"present","rt":"7863.2000000179","correct":true,"confidence":1},{"trial_n":137,"span":10,"encoder":"9735476138","distractor":"9735376138","target":"absent","response":"present","rt":"4557.099999994","correct":false,"confidence":1},{"trial_n":138,"span":9,"encoder":"988545496","distractor":"988545494","target":"present","response":"present","rt":"3330.5","correct":true,"confidence":4},{"trial_n":139,"span":9,"encoder":"391916909","distractor":"191916909","target":"absent","response":"absent","rt":"5608.599999994","correct":true,"confidence":2},{"trial_n":140,"span":10,"encoder":"7254526777","distractor":"7254526477","target":"absent","response":"present","rt":"11668.5","correct":false,"confidence":3}]