[{"trial_n":1,"span":8,"encoder":"56816728","distractor":"55816728","target":"present","response":"present","rt":"6082.3999998569","correct":true,"confidence":-1},{"trial_n":2,"span":8,"encoder":"92908228","distractor":"92908828","target":"present","response":"present","rt":"5202.8000001907","correct":true,"confidence":-1},{"trial_n":3,"span":10,"encoder":"8666787320","distractor":"1666787320","target":"absent","response":"absent","rt":"3519.2000000477","correct":true,"confidence":-1},{"trial_n":4,"span":10,"encoder":"6901773770","distractor":"6401773770","target":"absent","response":"absent","rt":"2586.1000001431","correct":true,"confidence":-1},{"trial_n":5,"span":12,"encoder":"722187103216","distractor":"722187183216","target":"present","response":"present","rt":"4186.7999999523","correct":true,"confidence":-1},{"trial_n":6,"span":12,"encoder":"129863965440","distractor":"129863935440","target":"present","response":"present","rt":"2116","correct":true,"confidence":-1},{"trial_n":7,"span":14,"encoder":"15885104775719","distractor":"15885104755719","target":"absent","response":"present","rt":"2069.5","correct":false,"confidence":-1},{"trial_n":8,"span":12,"encoder":"426439225817","distractor":"426435225817","target":"present","response":"present","rt":"1617.2999999523","correct":true,"confidence":-1},{"trial_n":9,"span":12,"encoder":"563746644181","distractor":"563746644101","target":"absent","response":"present","rt":"1617.0999999046","correct":false,"confidence":-1},{"trial_n":10,"span":10,"encoder":"7543470016","distractor":"7547470016","target":"absent","response":"present","rt":"3585.9000000954","correct":false,"confidence":-1},{"trial_n":11,"span":8,"encoder":"64567905","distractor":"63567905","target":"absent","response":"present","rt":"4435.1999998093","correct":false,"confidence":-1},{"trial_n":12,"span":7,"encoder":"0925090","distractor":"0925095","target":"absent","response":"present","rt":"1039.1999998093","correct":false,"confidence":-1},{"trial_n":13,"span":6,"encoder":"547686","distractor":"547689","target":"absent","response":"present","rt":"1787.5","correct":false,"confidence":-1},{"trial_n":14,"span":5,"encoder":"85443","distractor":"85463","target":"absent","response":"absent","rt":"4454.9000000954","correct":true,"confidence":-1},{"trial_n":15,"span":5,"encoder":"60682","distractor":"60689","target":"present","response":"present","rt":"2337.2999999523","correct":true,"confidence":-1},{"trial_n":16,"span":6,"encoder":"577182","distractor":"577162","target":"present","response":"present","rt":"1401.6000001431","correct":true,"confidence":-1},{"trial_n":17,"span":6,"encoder":"924387","distractor":"944387","target":"absent","response":"absent","rt":"2268.3999998569","correct":true,"confidence":-1},{"trial_n":18,"span":7,"encoder":"0291316","distractor":"0231316","target":"absent","response":"absent","rt":"3315","correct":true,"confidence":-1},{"trial_n":19,"span":7,"encoder":"2679375","distractor":"2679675","target":"absent","response":"present","rt":"2603.9000000954","correct":false,"confidence":-1},{"trial_n":20,"span":6,"encoder":"251537","distractor":"257537","target":"absent","response":"present","rt":"2334.2999999523","correct":false,"confidence":-1},{"trial_n":21,"span":5,"encoder":"88585","distractor":"38585","target":"present","response":"present","rt":"3167.2000000477","correct":true,"confidence":5},{"trial_n":22,"span":5,"encoder":"88573","distractor":"88563","target":"present","response":"present","rt":"2104.7999999523","correct":true,"confidence":5},{"trial_n":23,"span":6,"encoder":"475492","distractor":"475412","target":"absent","response":"absent","rt":"3521","correct":true,"confidence":2},{"trial_n":24,"span":6,"encoder":"493923","distractor":"463923","target":"absent","response":"absent","rt":"2498.7999999523","correct":true,"confidence":4},{"trial_n":25,"span":7,"encoder":"6170283","distractor":"6130283","target":"present","response":"present","rt":"3145.9000000954","correct":true,"confidence":4},{"trial_n":26,"span":7,"encoder":"0894159","distractor":"0894152","target":"absent","response":"absent","rt":"4527.7000000477","correct":true,"confidence":4},{"trial_n":27,"span":8,"encoder":"14509714","distractor":"94509714","target":"absent","response":"present","rt":"4144","correct":false,"confidence":3},{"trial_n":28,"span":7,"encoder":"5814155","distractor":"5114155","target":"present","response":"present","rt":"3300.5","correct":true,"confidence":5},{"trial_n":29,"span":7,"encoder":"2605858","distractor":"2605158","target":"absent","response":"absent","rt":"7208.2000000477","correct":true,"confidence":3},{"trial_n":30,"span":8,"encoder":"81329195","distractor":"91329195","target":"present","response":"present","rt":"7664.6000001431","correct":true,"confidence":4},{"trial_n":31,"span":8,"encoder":"09379493","distractor":"09378493","target":"absent","response":"present","rt":"2095.1000001431","correct":false,"confidence":3},{"trial_n":32,"span":7,"encoder":"0323490","distractor":"0323390","target":"present","response":"present","rt":"3768.9000000954","correct":true,"confidence":4},{"trial_n":33,"span":7,"encoder":"3125403","distractor":"3115403","target":"absent","response":"absent","rt":"2365.9000000954","correct":true,"confidence":4},{"trial_n":34,"span":8,"encoder":"57960457","distractor":"57930457","target":"present","response":"present","rt":"3647.5","correct":true,"confidence":3},{"trial_n":35,"span":8,"encoder":"16559408","distractor":"16569408","target":"absent","response":"absent","rt":"2834.9000000954","correct":true,"confidence":3},{"trial_n":36,"span":9,"encoder":"585200105","distractor":"584200105","target":"present","response":"absent","rt":"5583.3999998569","correct":false,"confidence":2},{"trial_n":37,"span":8,"encoder":"07316396","distractor":"07366396","target":"present","response":"present","rt":"2090.9000000954","correct":true,"confidence":4},{"trial_n":38,"span":8,"encoder":"21142216","distractor":"21141216","target":"absent","response":"present","rt":"5650.9000000954","correct":false,"confidence":3},{"trial_n":39,"span":7,"encoder":"9437862","distractor":"9477862","target":"absent","response":"absent","rt":"2185.4000000954","correct":true,"confidence":5},{"trial_n":40,"span":7,"encoder":"7899429","distractor":"7898429","target":"present","response":"present","rt":"3436.2000000477","correct":true,"confidence":4},{"trial_n":41,"span":8,"encoder":"82042164","distractor":"87042164","target":"absent","response":"present","rt":"2835","correct":false,"confidence":4},{"trial_n":42,"span":7,"encoder":"9485077","distractor":"9485037","target":"present","response":"absent","rt":"2625.8999998569","correct":false,"confidence":4},{"trial_n":43,"span":6,"encoder":"739203","distractor":"737203","target":"present","response":"present","rt":"3182.1000001431","correct":true,"confidence":5},{"trial_n":44,"span":6,"encoder":"026284","distractor":"126284","target":"absent","response":"absent","rt":"2081.3000001907","correct":true,"confidence":5},{"trial_n":45,"span":7,"encoder":"0083405","distractor":"4083405","target":"present","response":"present","rt":"5399.2999999523","correct":true,"confidence":4},{"trial_n":46,"span":7,"encoder":"7934623","distractor":"2934623","target":"present","response":"present","rt":"3033.8999998569","correct":true,"confidence":5},{"trial_n":47,"span":8,"encoder":"45109561","distractor":"45108561","target":"present","response":"present","rt":"4716.5","correct":true,"confidence":3},{"trial_n":48,"span":8,"encoder":"85811918","distractor":"85911918","target":"present","response":"absent","rt":"8615","correct":false,"confidence":2},{"trial_n":49,"span":7,"encoder":"0629140","distractor":"0029140","target":"absent","response":"absent","rt":"7618.0999999046","correct":true,"confidence":2},{"trial_n":50,"span":7,"encoder":"0235759","distractor":"0035759","target":"present","response":"present","rt":"2568.0999999046","correct":true,"confidence":4},{"trial_n":51,"span":8,"encoder":"87269679","distractor":"87269639","target":"present","response":"present","rt":"4598.7999999523","correct":true,"confidence":4},{"trial_n":52,"span":8,"encoder":"21043446","distractor":"24043446","target":"absent","response":"absent","rt":"3232.7000000477","correct":true,"confidence":2},{"trial_n":53,"span":9,"encoder":"510466167","distractor":"510466967","target":"present","response":"present","rt":"2832.0999999046","correct":true,"confidence":3},{"trial_n":54,"span":9,"encoder":"619177796","distractor":"519177796","target":"absent","response":"absent","rt":"2729.5999999046","correct":true,"confidence":4},{"trial_n":55,"span":10,"encoder":"1090935807","distractor":"1020935807","target":"absent","response":"present","rt":"6318.1999998093","correct":false,"confidence":2},{"trial_n":56,"span":9,"encoder":"028673008","distractor":"028073008","target":"present","response":"present","rt":"4470.2999999523","correct":true,"confidence":3},{"trial_n":57,"span":9,"encoder":"052978757","distractor":"052978797","target":"present","response":"absent","rt":"3768.2000000477","correct":false,"confidence":3},{"trial_n":58,"span":8,"encoder":"88048188","distractor":"84048188","target":"absent","response":"present","rt":"5535.7000000477","correct":false,"confidence":3},{"trial_n":59,"span":7,"encoder":"3042078","distractor":"0042078","target":"absent","response":"absent","rt":"4800","correct":true,"confidence":3},{"trial_n":60,"span":7,"encoder":"9709945","distractor":"3709945","target":"present","response":"present","rt":"3180.2000000477","correct":true,"confidence":4},{"trial_n":61,"span":8,"encoder":"44653730","distractor":"44658730","target":"present","response":"absent","rt":"3719.0999999046","correct":false,"confidence":4},{"trial_n":62,"span":7,"encoder":"8042057","distractor":"8072057","target":"present","response":"present","rt":"4600.5","correct":true,"confidence":3},{"trial_n":63,"span":7,"encoder":"1233045","distractor":"1239045","target":"absent","response":"absent","rt":"3518.6000001431","correct":true,"confidence":5},{"trial_n":64,"span":8,"encoder":"77347305","distractor":"77347306","target":"present","response":"present","rt":"3463.4000000954","correct":true,"confidence":5},{"trial_n":65,"span":8,"encoder":"70869092","distractor":"70866092","target":"present","response":"present","rt":"3866.5999999046","correct":true,"confidence":4},{"trial_n":66,"span":9,"encoder":"961095203","distractor":"961095200","target":"absent","response":"absent","rt":"2481.5","correct":true,"confidence":4},{"trial_n":67,"span":9,"encoder":"845404687","distractor":"845204687","target":"present","response":"present","rt":"3031.5999999046","correct":true,"confidence":2},{"trial_n":68,"span":10,"encoder":"1736197153","distractor":"1736195153","target":"present","response":"present","rt":"2380","correct":true,"confidence":3},{"trial_n":69,"span":10,"encoder":"1951361381","distractor":"1951461381","target":"absent","response":"absent","rt":"4233.7000000477","correct":true,"confidence":3},{"trial_n":70,"span":11,"encoder":"47395179555","distractor":"17395179555","target":"present","response":"absent","rt":"2191.4000000954","correct":false,"confidence":3},{"trial_n":71,"span":8,"encoder":"66306208","distractor":"66306298","target":"present","response":"present","rt":"5987.5999999046","correct":true,"confidence":-1},{"trial_n":72,"span":8,"encoder":"52607420","distractor":"82607420","target":"present","response":"absent","rt":"5384.2000000477","correct":false,"confidence":-1},{"trial_n":73,"span":7,"encoder":"0778932","distractor":"5778932","target":"absent","response":"present","rt":"985.5","correct":false,"confidence":-1},{"trial_n":74,"span":6,"encoder":"413958","distractor":"413948","target":"absent","response":"present","rt":"390.29999995232","correct":false,"confidence":-1},{"trial_n":75,"span":5,"encoder":"71351","distractor":"71551","target":"present","response":"absent","rt":"2778.5999999046","correct":false,"confidence":-1},{"trial_n":76,"span":4,"encoder":"5656","distractor":"5653","target":"present","response":"present","rt":"1659.0999999046","correct":true,"confidence":-1},{"trial_n":77,"span":4,"encoder":"0987","distractor":"0907","target":"present","response":"present","rt":"2309.7000000477","correct":true,"confidence":-1},{"trial_n":78,"span":5,"encoder":"69740","distractor":"69700","target":"absent","response":"absent","rt":"1446.9000000954","correct":true,"confidence":-1},{"trial_n":79,"span":5,"encoder":"98035","distractor":"48035","target":"present","response":"present","rt":"2114.5","correct":true,"confidence":-1},{"trial_n":80,"span":6,"encoder":"249331","distractor":"249332","target":"present","response":"present","rt":"1561.2999999523","correct":true,"confidence":-1},{"trial_n":81,"span":6,"encoder":"792753","distractor":"792756","target":"present","response":"present","rt":"1470.2000000477","correct":true,"confidence":-1},{"trial_n":82,"span":7,"encoder":"1247443","distractor":"1247043","target":"absent","response":"absent","rt":"2537","correct":true,"confidence":-1},{"trial_n":83,"span":7,"encoder":"1573111","distractor":"1570111","target":"absent","response":"absent","rt":"2577","correct":true,"confidence":-1},{"trial_n":84,"span":8,"encoder":"75050231","distractor":"05050231","target":"present","response":"present","rt":"2326","correct":true,"confidence":-1},{"trial_n":85,"span":8,"encoder":"84844879","distractor":"84344879","target":"present","response":"present","rt":"2492.6000001431","correct":true,"confidence":-1},{"trial_n":86,"span":9,"encoder":"507983343","distractor":"507983363","target":"present","response":"present","rt":"4774.7000000477","correct":true,"confidence":-1},{"trial_n":87,"span":9,"encoder":"810525480","distractor":"810525481","target":"present","response":"present","rt":"6212.2000000477","correct":true,"confidence":-1},{"trial_n":88,"span":10,"encoder":"9812788306","distractor":"9812788326","target":"present","response":"present","rt":"1303.7999999523","correct":true,"confidence":-1},{"trial_n":89,"span":10,"encoder":"7250532640","distractor":"7250332640","target":"present","response":"present","rt":"2515.9000000954","correct":true,"confidence":-1},{"trial_n":90,"span":11,"encoder":"14970597807","distractor":"14970897807","target":"absent","response":"absent","rt":"4676.2999999523","correct":true,"confidence":-1},{"trial_n":91,"span":11,"encoder":"87295590137","distractor":"87295580137","target":"present","response":"present","rt":"5378.1000001431","correct":true,"confidence":3},{"trial_n":92,"span":12,"encoder":"532810893796","distractor":"537810893796","target":"absent","response":"present","rt":"6015.0999999046","correct":false,"confidence":3},{"trial_n":93,"span":11,"encoder":"04249233405","distractor":"04209233405","target":"present","response":"absent","rt":"4059.8999998569","correct":false,"confidence":5},{"trial_n":94,"span":10,"encoder":"5099978078","distractor":"5099978071","target":"present","response":"present","rt":"2124.5","correct":true,"confidence":5},{"trial_n":95,"span":10,"encoder":"1836181887","distractor":"1836781887","target":"present","response":"present","rt":"4949.6000001431","correct":true,"confidence":4},{"trial_n":96,"span":11,"encoder":"27331840906","distractor":"21331840906","target":"absent","response":"absent","rt":"7498.7999999523","correct":true,"confidence":2},{"trial_n":97,"span":11,"encoder":"01454315902","distractor":"01454325902","target":"present","response":"present","rt":"7270.7000000477","correct":true,"confidence":2},{"trial_n":98,"span":12,"encoder":"796906948388","distractor":"796906948358","target":"present","response":"present","rt":"2038","correct":true,"confidence":5},{"trial_n":99,"span":12,"encoder":"291337562479","distractor":"298337562479","target":"absent","response":"absent","rt":"10086.099999905","correct":true,"confidence":2},{"trial_n":100,"span":13,"encoder":"5329107725424","distractor":"5359107725424","target":"absent","response":"absent","rt":"33902","correct":true,"confidence":5},{"trial_n":101,"span":13,"encoder":"2743636534709","distractor":"2743636534719","target":"absent","response":"absent","rt":"3732.0999999046","correct":true,"confidence":4},{"trial_n":102,"span":14,"encoder":"90077995801067","distractor":"90077995800067","target":"present","response":"present","rt":"2734.0999999046","correct":true,"confidence":3},{"trial_n":103,"span":14,"encoder":"51475118084113","distractor":"51475618084113","target":"absent","response":"present","rt":"7450.7999999523","correct":false,"confidence":3},{"trial_n":104,"span":13,"encoder":"5217141812509","distractor":"5217141802509","target":"absent","response":"absent","rt":"5399.8999998569","correct":true,"confidence":5},{"trial_n":105,"span":13,"encoder":"0179382458403","distractor":"0179982458403","target":"present","response":"present","rt":"5694.0999999046","correct":true,"confidence":3},{"trial_n":106,"span":14,"encoder":"52271089834358","distractor":"52271089834398","target":"absent","response":"present","rt":"15249.700000048","correct":false,"confidence":3},{"trial_n":107,"span":13,"encoder":"9691095825760","distractor":"9691095825767","target":"absent","response":"absent","rt":"2185","correct":true,"confidence":5},{"trial_n":108,"span":13,"encoder":"3999531115914","distractor":"7999531115914","target":"absent","response":"absent","rt":"5569.2999999523","correct":true,"confidence":2},{"trial_n":109,"span":14,"encoder":"77636940064702","distractor":"77636940364702","target":"present","response":"present","rt":"12716.700000048","correct":true,"confidence":2},{"trial_n":110,"span":14,"encoder":"20354359169970","distractor":"20354359189970","target":"present","response":"absent","rt":"8466.7000000477","correct":false,"confidence":3},{"trial_n":111,"span":13,"encoder":"9520914650762","distractor":"9520914650742","target":"absent","response":"absent","rt":"2081.2999999523","correct":true,"confidence":5},{"trial_n":112,"span":13,"encoder":"6006302179106","distractor":"6006362179106","target":"absent","response":"present","rt":"5499.0999999046","correct":false,"confidence":4},{"trial_n":113,"span":12,"encoder":"410709749925","distractor":"410109749925","target":"absent","response":"absent","rt":"3551.8999998569","correct":true,"confidence":2},{"trial_n":114,"span":12,"encoder":"748102405989","distractor":"718102405989","target":"absent","response":"absent","rt":"5581.2000000477","correct":true,"confidence":3},{"trial_n":115,"span":13,"encoder":"3349203228735","distractor":"3349203224735","target":"absent","response":"absent","rt":"6681.0999999046","correct":true,"confidence":2},{"trial_n":116,"span":13,"encoder":"0830715080726","distractor":"0030715080726","target":"absent","response":"present","rt":"5665.6999998093","correct":false,"confidence":4},{"trial_n":117,"span":12,"encoder":"956968546091","distractor":"959968546091","target":"absent","response":"present","rt":"3385.6999998093","correct":false,"confidence":3},{"trial_n":118,"span":11,"encoder":"71656712986","distractor":"71656722986","target":"present","response":"absent","rt":"6400.2000000477","correct":false,"confidence":3},{"trial_n":119,"span":10,"encoder":"9063682090","distractor":"9063682040","target":"absent","response":"absent","rt":"3354.3000001907","correct":true,"confidence":5},{"trial_n":120,"span":10,"encoder":"5374177817","distractor":"1374177817","target":"absent","response":"absent","rt":"3317.4000000954","correct":true,"confidence":5},{"trial_n":121,"span":11,"encoder":"62337662885","distractor":"32337662885","target":"absent","response":"absent","rt":"18752.299999952","correct":true,"confidence":3},{"trial_n":122,"span":11,"encoder":"88373020551","distractor":"88373220551","target":"present","response":"present","rt":"4835.2000000477","correct":true,"confidence":4},{"trial_n":123,"span":12,"encoder":"840937398414","distractor":"860937398414","target":"absent","response":"absent","rt":"5451.2999999523","correct":true,"confidence":3},{"trial_n":124,"span":12,"encoder":"473991490003","distractor":"473991990003","target":"absent","response":"absent","rt":"3730.2000000477","correct":true,"confidence":4},{"trial_n":125,"span":13,"encoder":"6037661053956","distractor":"6037661353956","target":"absent","response":"absent","rt":"7832.2999999523","correct":true,"confidence":4},{"trial_n":126,"span":13,"encoder":"3147003812969","distractor":"3147000812969","target":"present","response":"present","rt":"7896","correct":true,"confidence":2},{"trial_n":127,"span":14,"encoder":"34197813106621","distractor":"34997813106621","target":"present","response":"present","rt":"1077527","correct":true,"confidence":1},{"trial_n":128,"span":14,"encoder":"77195850346142","distractor":"77595850346142","target":"present","response":"present","rt":"6247.7000000477","correct":true,"confidence":3},{"trial_n":129,"span":15,"encoder":"685521243822651","distractor":"685521241822651","target":"present","response":"present","rt":"4683.0999999046","correct":true,"confidence":3},{"trial_n":130,"span":15,"encoder":"113431649039513","distractor":"113431679039513","target":"present","response":"present","rt":"5417.7999999523","correct":true,"confidence":4},{"trial_n":131,"span":16,"encoder":"1662657779330153","distractor":"1672657779330153","target":"present","response":"present","rt":"11266.5","correct":true,"confidence":2},{"trial_n":132,"span":16,"encoder":"3237119041859428","distractor":"3237119041959428","target":"absent","response":"absent","rt":"12026.399999857","correct":true,"confidence":2},{"trial_n":133,"span":17,"encoder":"57795239589235820","distractor":"37795239589235820","target":"present","response":"absent","rt":"4965.0999999046","correct":false,"confidence":2},{"trial_n":134,"span":16,"encoder":"4486667230638098","distractor":"4486667230638092","target":"absent","response":"absent","rt":"2678.5999999046","correct":true,"confidence":5},{"trial_n":135,"span":16,"encoder":"4371451565971894","distractor":"4371451565975894","target":"present","response":"absent","rt":"14567","correct":false,"confidence":2},{"trial_n":136,"span":15,"encoder":"781170232400224","distractor":"781170232400624","target":"absent","response":"absent","rt":"2701.2000000477","correct":true,"confidence":5},{"trial_n":137,"span":15,"encoder":"895491369497036","distractor":"895498369497036","target":"present","response":"absent","rt":"5251.3000001907","correct":false,"confidence":1},{"trial_n":138,"span":14,"encoder":"03389625159857","distractor":"03389685159857","target":"absent","response":"absent","rt":"9365.3000001907","correct":true,"confidence":3},{"trial_n":139,"span":14,"encoder":"90647081625753","distractor":"90642081625753","target":"present","response":"present","rt":"6467.0999999046","correct":true,"confidence":3},{"trial_n":140,"span":15,"encoder":"096105394620552","distractor":"096105094620552","target":"absent","response":"absent","rt":"6307.9000000954","correct":true,"confidence":2}]