[{"trial_n":1,"min":25,"max":230,"target":"present","response":"present","rt":8556,"correct":true,"confidence":-1},{"trial_n":2,"min":25,"max":230,"target":"present","response":"present","rt":1574.3999998569,"correct":true,"confidence":-1},{"trial_n":3,"min":41,"max":214,"target":"absent","response":"absent","rt":2458.5999999046,"correct":true,"confidence":-1},{"trial_n":4,"min":41,"max":214,"target":"absent","response":"absent","rt":904.89999985695,"correct":true,"confidence":-1},{"trial_n":5,"min":57,"max":198,"target":"present","response":"present","rt":1554.5,"correct":true,"confidence":-1},{"trial_n":6,"min":57,"max":198,"target":"present","response":"present","rt":4126.5,"correct":true,"confidence":-1},{"trial_n":7,"min":73,"max":182,"target":"present","response":"absent","rt":261.5,"correct":false,"confidence":-1},{"trial_n":8,"min":57,"max":198,"target":"absent","response":"absent","rt":395.20000004768,"correct":true,"confidence":-1},{"trial_n":9,"min":57,"max":198,"target":"present","response":"present","rt":209.70000004768,"correct":true,"confidence":-1},{"trial_n":10,"min":73,"max":182,"target":"present","response":"absent","rt":456.39999985695,"correct":false,"confidence":-1},{"trial_n":11,"min":65,"max":190,"target":"absent","response":"present","rt":338.79999995232,"correct":false,"confidence":-1},{"trial_n":12,"min":57,"max":198,"target":"present","response":"present","rt":535.80000019073,"correct":true,"confidence":-1},{"trial_n":13,"min":57,"max":198,"target":"present","response":"present","rt":474.70000004768,"correct":true,"confidence":-1},{"trial_n":14,"min":65,"max":190,"target":"present","response":"present","rt":462.59999990463,"correct":true,"confidence":-1},{"trial_n":15,"min":65,"max":190,"target":"present","response":"present","rt":551.59999990463,"correct":true,"confidence":-1},{"trial_n":16,"min":73,"max":182,"target":"absent","response":"absent","rt":493.09999990463,"correct":true,"confidence":-1},{"trial_n":17,"min":73,"max":182,"target":"absent","response":"absent","rt":388.59999990463,"correct":true,"confidence":-1},{"trial_n":18,"min":81,"max":174,"target":"present","response":"present","rt":501.79999995232,"correct":true,"confidence":-1},{"trial_n":19,"min":81,"max":174,"target":"present","response":"absent","rt":1290.2000000477,"correct":false,"confidence":-1},{"trial_n":20,"min":73,"max":182,"target":"present","response":"absent","rt":595.69999980927,"correct":false,"confidence":-1},{"trial_n":21,"min":69,"max":186,"target":"absent","response":"absent","rt":2752.1999998093,"correct":true,"confidence":2},{"trial_n":22,"min":69,"max":186,"target":"absent","response":"absent","rt":1232,"correct":true,"confidence":3},{"trial_n":23,"min":73,"max":182,"target":"present","response":"present","rt":669.30000019073,"correct":true,"confidence":4},{"trial_n":24,"min":73,"max":182,"target":"present","response":"present","rt":549.70000004768,"correct":true,"confidence":5},{"trial_n":25,"min":77,"max":178,"target":"absent","response":"absent","rt":885.79999995232,"correct":true,"confidence":4},{"trial_n":26,"min":77,"max":178,"target":"absent","response":"absent","rt":1437.7000000477,"correct":true,"confidence":4},{"trial_n":27,"min":81,"max":174,"target":"present","response":"present","rt":591.60000014305,"correct":true,"confidence":3},{"trial_n":28,"min":81,"max":174,"target":"absent","response":"absent","rt":1518.9000000954,"correct":true,"confidence":3},{"trial_n":29,"min":85,"max":170,"target":"present","response":"present","rt":690.5,"correct":true,"confidence":4},{"trial_n":30,"min":85,"max":170,"target":"present","response":"absent","rt":1044.7999999523,"correct":false,"confidence":4},{"trial_n":31,"min":83,"max":172,"target":"present","response":"present","rt":1330.5,"correct":true,"confidence":4},{"trial_n":32,"min":83,"max":172,"target":"present","response":"present","rt":1768.0999999046,"correct":true,"confidence":3},{"trial_n":33,"min":85,"max":170,"target":"absent","response":"absent","rt":986.90000009537,"correct":true,"confidence":4},{"trial_n":34,"min":85,"max":170,"target":"present","response":"absent","rt":1540.1000001431,"correct":false,"confidence":3},{"trial_n":35,"min":83,"max":172,"target":"absent","response":"absent","rt":496,"correct":true,"confidence":4},{"trial_n":36,"min":83,"max":172,"target":"present","response":"present","rt":1218.5,"correct":true,"confidence":3},{"trial_n":37,"min":85,"max":170,"target":"absent","response":"absent","rt":496.79999995232,"correct":true,"confidence":4},{"trial_n":38,"min":85,"max":170,"target":"present","response":"absent","rt":1316.0999999046,"correct":false,"confidence":3},{"trial_n":39,"min":83,"max":172,"target":"absent","response":"absent","rt":1331.0999999046,"correct":true,"confidence":3},{"trial_n":40,"min":83,"max":172,"target":"absent","response":"absent","rt":460.90000009537,"correct":true,"confidence":4},{"trial_n":41,"min":84,"max":171,"target":"absent","response":"absent","rt":4161.4000000954,"correct":true,"confidence":3},{"trial_n":42,"min":84,"max":171,"target":"absent","response":"absent","rt":1165.5999999046,"correct":true,"confidence":4},{"trial_n":43,"min":85,"max":170,"target":"absent","response":"absent","rt":659.70000004768,"correct":true,"confidence":4},{"trial_n":44,"min":85,"max":170,"target":"present","response":"present","rt":1640.4000000954,"correct":true,"confidence":2},{"trial_n":45,"min":86,"max":169,"target":"present","response":"present","rt":1300.1000001431,"correct":true,"confidence":3},{"trial_n":46,"min":86,"max":169,"target":"absent","response":"absent","rt":1306.4000000954,"correct":true,"confidence":3},{"trial_n":47,"min":87,"max":168,"target":"present","response":"present","rt":992.79999995232,"correct":true,"confidence":3},{"trial_n":48,"min":87,"max":168,"target":"absent","response":"absent","rt":1894.7000000477,"correct":true,"confidence":3},{"trial_n":49,"min":88,"max":167,"target":"present","response":"absent","rt":1267.4000000954,"correct":false,"confidence":3},{"trial_n":50,"min":87,"max":168,"target":"present","response":"absent","rt":1293.5,"correct":false,"confidence":2},{"trial_n":51,"min":86,"max":169,"target":"absent","response":"absent","rt":729.80000019073,"correct":true,"confidence":5},{"trial_n":52,"min":86,"max":169,"target":"absent","response":"absent","rt":690.59999990463,"correct":true,"confidence":4},{"trial_n":53,"min":87,"max":168,"target":"absent","response":"absent","rt":666.59999990463,"correct":true,"confidence":4},{"trial_n":54,"min":87,"max":168,"target":"present","response":"absent","rt":1013.2999999523,"correct":false,"confidence":4},{"trial_n":55,"min":86,"max":169,"target":"present","response":"absent","rt":468.5,"correct":false,"confidence":5},{"trial_n":56,"min":85,"max":170,"target":"present","response":"present","rt":1167.9000000954,"correct":true,"confidence":2},{"trial_n":57,"min":85,"max":170,"target":"absent","response":"absent","rt":634.69999980927,"correct":true,"confidence":4},{"trial_n":58,"min":86,"max":169,"target":"absent","response":"absent","rt":695,"correct":true,"confidence":4},{"trial_n":59,"min":86,"max":169,"target":"present","response":"absent","rt":1738.2000000477,"correct":false,"confidence":4},{"trial_n":60,"min":85,"max":170,"target":"absent","response":"absent","rt":569.20000004768,"correct":true,"confidence":5},{"trial_n":61,"min":85,"max":170,"target":"absent","response":"absent","rt":497.10000014305,"correct":true,"confidence":3},{"trial_n":62,"min":86,"max":169,"target":"present","response":"present","rt":3646.7999999523,"correct":true,"confidence":3},{"trial_n":63,"min":86,"max":169,"target":"absent","response":"absent","rt":626.79999995232,"correct":true,"confidence":4},{"trial_n":64,"min":87,"max":168,"target":"absent","response":"present","rt":1429.1999998093,"correct":false,"confidence":3},{"trial_n":65,"min":86,"max":169,"target":"present","response":"absent","rt":546.5,"correct":false,"confidence":3},{"trial_n":66,"min":85,"max":170,"target":"present","response":"present","rt":1616.5,"correct":true,"confidence":3},{"trial_n":67,"min":85,"max":170,"target":"absent","response":"present","rt":917.40000009537,"correct":false,"confidence":3},{"trial_n":68,"min":84,"max":171,"target":"absent","response":"absent","rt":567.89999985695,"correct":true,"confidence":4},{"trial_n":69,"min":84,"max":171,"target":"absent","response":"absent","rt":1435.2000000477,"correct":true,"confidence":3},{"trial_n":70,"min":85,"max":170,"target":"absent","response":"absent","rt":557.70000004768,"correct":true,"confidence":3},{"trial_n":71,"min":41,"max":214,"target":"present","response":"present","rt":3990.1000001431,"correct":true,"confidence":-1},{"trial_n":72,"min":41,"max":214,"target":"present","response":"absent","rt":55.699999809265,"correct":false,"confidence":-1},{"trial_n":73,"min":25,"max":230,"target":"absent","response":"absent","rt":735.79999995232,"correct":true,"confidence":-1},{"trial_n":74,"min":25,"max":230,"target":"absent","response":"absent","rt":367.70000004768,"correct":true,"confidence":-1},{"trial_n":75,"min":41,"max":214,"target":"present","response":"absent","rt":528.10000014305,"correct":false,"confidence":-1},{"trial_n":76,"min":25,"max":230,"target":"absent","response":"absent","rt":403.40000009537,"correct":true,"confidence":-1},{"trial_n":77,"min":25,"max":230,"target":"present","response":"present","rt":790.59999990463,"correct":true,"confidence":-1},{"trial_n":78,"min":41,"max":214,"target":"present","response":"present","rt":1902.5,"correct":true,"confidence":-1},{"trial_n":79,"min":41,"max":214,"target":"present","response":"present","rt":446.29999995232,"correct":true,"confidence":-1},{"trial_n":80,"min":57,"max":198,"target":"present","response":"present","rt":501.90000009537,"correct":true,"confidence":-1},{"trial_n":81,"min":57,"max":198,"target":"absent","response":"absent","rt":482,"correct":true,"confidence":-1},{"trial_n":82,"min":65,"max":190,"target":"absent","response":"absent","rt":457.60000014305,"correct":true,"confidence":-1},{"trial_n":83,"min":65,"max":190,"target":"present","response":"present","rt":471.70000004768,"correct":true,"confidence":-1},{"trial_n":84,"min":73,"max":182,"target":"present","response":"present","rt":406.69999980927,"correct":true,"confidence":-1},{"trial_n":85,"min":73,"max":182,"target":"present","response":"present","rt":500.29999995232,"correct":true,"confidence":-1},{"trial_n":86,"min":81,"max":174,"target":"absent","response":"absent","rt":395.60000014305,"correct":true,"confidence":-1},{"trial_n":87,"min":81,"max":174,"target":"absent","response":"absent","rt":494.89999985695,"correct":true,"confidence":-1},{"trial_n":88,"min":89,"max":166,"target":"present","response":"absent","rt":1684.2000000477,"correct":false,"confidence":-1},{"trial_n":89,"min":81,"max":174,"target":"absent","response":"absent","rt":1188.7999999523,"correct":true,"confidence":-1},{"trial_n":90,"min":81,"max":174,"target":"absent","response":"absent","rt":555.20000004768,"correct":true,"confidence":-1},{"trial_n":91,"min":85,"max":170,"target":"present","response":"present","rt":602.5,"correct":true,"confidence":4},{"trial_n":92,"min":85,"max":170,"target":"present","response":"present","rt":2959.6000001431,"correct":true,"confidence":4},{"trial_n":93,"min":89,"max":166,"target":"present","response":"present","rt":1740,"correct":true,"confidence":3},{"trial_n":94,"min":89,"max":166,"target":"absent","response":"absent","rt":1297.4000000954,"correct":true,"confidence":2},{"trial_n":95,"min":93,"max":162,"target":"present","response":"present","rt":2138.9000000954,"correct":true,"confidence":3},{"trial_n":96,"min":93,"max":162,"target":"present","response":"present","rt":1526.0999999046,"correct":true,"confidence":3},{"trial_n":97,"min":97,"max":158,"target":"absent","response":"present","rt":1125.7999999523,"correct":false,"confidence":2},{"trial_n":98,"min":93,"max":162,"target":"absent","response":"absent","rt":2007,"correct":true,"confidence":3},{"trial_n":99,"min":93,"max":162,"target":"present","response":"present","rt":5434.6999998093,"correct":true,"confidence":3},{"trial_n":100,"min":97,"max":158,"target":"present","response":"present","rt":821.09999990463,"correct":true,"confidence":4},{"trial_n":101,"min":97,"max":158,"target":"present","response":"present","rt":959,"correct":true,"confidence":3},{"trial_n":102,"min":99,"max":156,"target":"present","response":"absent","rt":2004.5,"correct":false,"confidence":3},{"trial_n":103,"min":97,"max":158,"target":"absent","response":"present","rt":1079.5999999046,"correct":false,"confidence":3},{"trial_n":104,"min":95,"max":160,"target":"present","response":"absent","rt":1058.5999999046,"correct":false,"confidence":2},{"trial_n":105,"min":93,"max":162,"target":"absent","response":"present","rt":1065.5,"correct":false,"confidence":3},{"trial_n":106,"min":91,"max":164,"target":"absent","response":"present","rt":1608.2999999523,"correct":false,"confidence":3},{"trial_n":107,"min":89,"max":166,"target":"absent","response":"present","rt":7411.6000001431,"correct":false,"confidence":2},{"trial_n":108,"min":87,"max":168,"target":"present","response":"present","rt":816.40000009537,"correct":true,"confidence":4},{"trial_n":109,"min":87,"max":168,"target":"present","response":"present","rt":773.5,"correct":true,"confidence":4},{"trial_n":110,"min":89,"max":166,"target":"absent","response":"absent","rt":958.79999995232,"correct":true,"confidence":4},{"trial_n":111,"min":89,"max":166,"target":"absent","response":"present","rt":1004.2999999523,"correct":false,"confidence":3},{"trial_n":112,"min":88,"max":167,"target":"absent","response":"absent","rt":1148.3999998569,"correct":true,"confidence":2},{"trial_n":113,"min":88,"max":167,"target":"absent","response":"absent","rt":1659.5,"correct":true,"confidence":3},{"trial_n":114,"min":89,"max":166,"target":"present","response":"present","rt":564.40000009537,"correct":true,"confidence":4},{"trial_n":115,"min":89,"max":166,"target":"absent","response":"present","rt":2257.7999999523,"correct":false,"confidence":1},{"trial_n":116,"min":88,"max":167,"target":"absent","response":"present","rt":2409.3999998569,"correct":false,"confidence":2},{"trial_n":117,"min":87,"max":168,"target":"present","response":"present","rt":1075,"correct":true,"confidence":4},{"trial_n":118,"min":87,"max":168,"target":"present","response":"present","rt":753.89999985695,"correct":true,"confidence":5},{"trial_n":119,"min":88,"max":167,"target":"absent","response":"absent","rt":988.5,"correct":true,"confidence":3},{"trial_n":120,"min":88,"max":167,"target":"absent","response":"absent","rt":1261.9000000954,"correct":true,"confidence":4},{"trial_n":121,"min":89,"max":166,"target":"present","response":"present","rt":654.09999990463,"correct":true,"confidence":5},{"trial_n":122,"min":89,"max":166,"target":"present","response":"present","rt":735.39999985695,"correct":true,"confidence":4},{"trial_n":123,"min":90,"max":165,"target":"absent","response":"absent","rt":1007.2000000477,"correct":true,"confidence":3},{"trial_n":124,"min":90,"max":165,"target":"present","response":"absent","rt":995.60000014305,"correct":false,"confidence":3},{"trial_n":125,"min":89,"max":166,"target":"absent","response":"present","rt":1274.5,"correct":false,"confidence":1},{"trial_n":126,"min":88,"max":167,"target":"absent","response":"present","rt":1343.4000000954,"correct":false,"confidence":3},{"trial_n":127,"min":87,"max":168,"target":"absent","response":"absent","rt":2799.2000000477,"correct":true,"confidence":1},{"trial_n":128,"min":87,"max":168,"target":"present","response":"present","rt":689.59999990463,"correct":true,"confidence":4},{"trial_n":129,"min":88,"max":167,"target":"absent","response":"absent","rt":2449.6000001431,"correct":true,"confidence":2},{"trial_n":130,"min":88,"max":167,"target":"absent","response":"present","rt":2063.7999999523,"correct":false,"confidence":3},{"trial_n":131,"min":87,"max":168,"target":"present","response":"present","rt":688.59999990463,"correct":true,"confidence":5},{"trial_n":132,"min":87,"max":168,"target":"present","response":"present","rt":861.79999995232,"correct":true,"confidence":4},{"trial_n":133,"min":88,"max":167,"target":"absent","response":"absent","rt":1314.0999999046,"correct":true,"confidence":3},{"trial_n":134,"min":88,"max":167,"target":"present","response":"absent","rt":2109.8999998569,"correct":false,"confidence":2},{"trial_n":135,"min":87,"max":168,"target":"absent","response":"present","rt":2330.9000000954,"correct":false,"confidence":2},{"trial_n":136,"min":86,"max":169,"target":"absent","response":"present","rt":1034.7999999523,"correct":false,"confidence":2},{"trial_n":137,"min":85,"max":170,"target":"present","response":"present","rt":1039.8999998569,"correct":true,"confidence":4},{"trial_n":138,"min":85,"max":170,"target":"absent","response":"absent","rt":1070.2999999523,"correct":true,"confidence":3},{"trial_n":139,"min":86,"max":169,"target":"present","response":"present","rt":741.39999985695,"correct":true,"confidence":5},{"trial_n":140,"min":86,"max":169,"target":"present","response":"present","rt":706.70000004768,"correct":true,"confidence":5}]