[{"trial_n":1,"n_dots":4.25,"target":"left","response":"left","rt":39372.200000048,"correct":true,"confidence":-1},{"trial_n":2,"n_dots":4.25,"target":"right","response":"left","rt":317124.9000001,"correct":false,"confidence":-1},{"trial_n":3,"n_dots":4.65,"target":"left","response":"left","rt":630.5,"correct":true,"confidence":-1},{"trial_n":4,"n_dots":4.65,"target":"left","response":"left","rt":72.099999904633,"correct":true,"confidence":-1},{"trial_n":5,"n_dots":4.25,"target":"left","response":"left","rt":3206.8999998569,"correct":true,"confidence":-1},{"trial_n":6,"n_dots":4.25,"target":"right","response":"right","rt":304.60000014305,"correct":true,"confidence":-1},{"trial_n":7,"n_dots":3.85,"target":"right","response":"right","rt":890.5,"correct":true,"confidence":-1},{"trial_n":8,"n_dots":3.85,"target":"left","response":"left","rt":316.29999995232,"correct":true,"confidence":-1},{"trial_n":9,"n_dots":3.65,"target":"right","response":"right","rt":263.89999985695,"correct":true,"confidence":-1},{"trial_n":10,"n_dots":3.65,"target":"left","response":"left","rt":392.60000014305,"correct":true,"confidence":-1},{"trial_n":11,"n_dots":3.45,"target":"left","response":"left","rt":54.700000047684,"correct":true,"confidence":-1},{"trial_n":12,"n_dots":3.45,"target":"right","response":"right","rt":176,"correct":true,"confidence":-1},{"trial_n":13,"n_dots":3.35,"target":"left","response":"left","rt":791.20000004768,"correct":true,"confidence":-1},{"trial_n":14,"n_dots":3.35,"target":"right","response":"right","rt":455,"correct":true,"confidence":-1},{"trial_n":15,"n_dots":3.25,"target":"left","response":"left","rt":502.5,"correct":true,"confidence":-1},{"trial_n":16,"n_dots":3.25,"target":"right","response":"right","rt":74.399999856949,"correct":true,"confidence":-1},{"trial_n":17,"n_dots":3.15,"target":"left","response":"left","rt":355.89999985695,"correct":true,"confidence":-1},{"trial_n":18,"n_dots":3.15,"target":"right","response":"right","rt":1270.4000000954,"correct":true,"confidence":-1},{"trial_n":19,"n_dots":3.05,"target":"right","response":"right","rt":554.70000004768,"correct":true,"confidence":-1},{"trial_n":20,"n_dots":3.05,"target":"left","response":"left","rt":335.40000009537,"correct":true,"confidence":-1},{"trial_n":21,"n_dots":2.95,"target":"right","response":"right","rt":677.29999995232,"correct":true,"confidence":2},{"trial_n":22,"n_dots":2.95,"target":"right","response":"left","rt":372.19999980927,"correct":false,"confidence":4},{"trial_n":23,"n_dots":3.05,"target":"right","response":"left","rt":1503.2000000477,"correct":false,"confidence":3},{"trial_n":24,"n_dots":3.15,"target":"right","response":"left","rt":324.40000009537,"correct":false,"confidence":5},{"trial_n":25,"n_dots":3.25,"target":"left","response":"left","rt":822.59999990463,"correct":true,"confidence":5},{"trial_n":26,"n_dots":3.25,"target":"left","response":"left","rt":1040.2999999523,"correct":true,"confidence":5},{"trial_n":27,"n_dots":3.15,"target":"left","response":"left","rt":467.20000004768,"correct":true,"confidence":5},{"trial_n":28,"n_dots":3.15,"target":"right","response":"right","rt":1531.2999999523,"correct":true,"confidence":2},{"trial_n":29,"n_dots":3.05,"target":"left","response":"left","rt":485.5,"correct":true,"confidence":5},{"trial_n":30,"n_dots":3.05,"target":"left","response":"left","rt":577.5,"correct":true,"confidence":5},{"trial_n":31,"n_dots":2.95,"target":"left","response":"left","rt":1105.9000000954,"correct":true,"confidence":4},{"trial_n":32,"n_dots":2.95,"target":"right","response":"left","rt":1396.1000001431,"correct":false,"confidence":3},{"trial_n":33,"n_dots":3.05,"target":"right","response":"left","rt":764.29999995232,"correct":false,"confidence":4},{"trial_n":34,"n_dots":3.15,"target":"right","response":"left","rt":1088.3999998569,"correct":false,"confidence":2},{"trial_n":35,"n_dots":3.25,"target":"left","response":"right","rt":2708.5,"correct":false,"confidence":2},{"trial_n":36,"n_dots":3.35,"target":"right","response":"right","rt":708.5,"correct":true,"confidence":5},{"trial_n":37,"n_dots":3.35,"target":"left","response":"left","rt":680.40000009537,"correct":true,"confidence":4},{"trial_n":38,"n_dots":3.25,"target":"left","response":"left","rt":510.70000004768,"correct":true,"confidence":4},{"trial_n":39,"n_dots":3.25,"target":"right","response":"right","rt":653.20000004768,"correct":true,"confidence":4},{"trial_n":40,"n_dots":3.15,"target":"right","response":"left","rt":1360.6000001431,"correct":false,"confidence":2},{"trial_n":41,"n_dots":3.25,"target":"left","response":"left","rt":913,"correct":true,"confidence":4},{"trial_n":42,"n_dots":3.25,"target":"left","response":"left","rt":826.40000009537,"correct":true,"confidence":4},{"trial_n":43,"n_dots":3.15,"target":"left","response":"right","rt":1220.5999999046,"correct":false,"confidence":4},{"trial_n":44,"n_dots":3.25,"target":"right","response":"right","rt":986,"correct":true,"confidence":2},{"trial_n":45,"n_dots":3.25,"target":"left","response":"left","rt":622.29999995232,"correct":true,"confidence":4},{"trial_n":46,"n_dots":3.15,"target":"left","response":"left","rt":5187,"correct":true,"confidence":1},{"trial_n":47,"n_dots":3.15,"target":"left","response":"left","rt":674.29999995232,"correct":true,"confidence":3},{"trial_n":48,"n_dots":3.05,"target":"left","response":"left","rt":1468.0999999046,"correct":true,"confidence":3},{"trial_n":49,"n_dots":3.05,"target":"left","response":"left","rt":1532.6000001431,"correct":true,"confidence":3},{"trial_n":50,"n_dots":2.95,"target":"right","response":"right","rt":1183.3999998569,"correct":true,"confidence":4},{"trial_n":51,"n_dots":2.95,"target":"left","response":"left","rt":924.80000019073,"correct":true,"confidence":3},{"trial_n":52,"n_dots":2.85,"target":"right","response":"right","rt":1239.9000000954,"correct":true,"confidence":3},{"trial_n":53,"n_dots":2.85,"target":"right","response":"left","rt":896.80000019073,"correct":false,"confidence":3},{"trial_n":54,"n_dots":2.95,"target":"right","response":"left","rt":808.39999985695,"correct":false,"confidence":3},{"trial_n":55,"n_dots":3.05,"target":"right","response":"right","rt":1544.1999998093,"correct":true,"confidence":4},{"trial_n":56,"n_dots":3.05,"target":"right","response":"right","rt":916.80000019073,"correct":true,"confidence":3},{"trial_n":57,"n_dots":2.95,"target":"left","response":"left","rt":691.90000009537,"correct":true,"confidence":3},{"trial_n":58,"n_dots":2.95,"target":"right","response":"left","rt":1436.3000001907,"correct":false,"confidence":2},{"trial_n":59,"n_dots":3.05,"target":"right","response":"right","rt":1984.2999999523,"correct":true,"confidence":3},{"trial_n":60,"n_dots":3.05,"target":"right","response":"left","rt":771.29999995232,"correct":false,"confidence":3},{"trial_n":61,"n_dots":3.15,"target":"right","response":"left","rt":1490.0999999046,"correct":false,"confidence":3},{"trial_n":62,"n_dots":3.25,"target":"right","response":"right","rt":1025.2000000477,"correct":true,"confidence":3},{"trial_n":63,"n_dots":3.25,"target":"right","response":"right","rt":1489.7000000477,"correct":true,"confidence":4},{"trial_n":64,"n_dots":3.15,"target":"left","response":"left","rt":983.70000004768,"correct":true,"confidence":3},{"trial_n":65,"n_dots":3.15,"target":"right","response":"right","rt":1458.4000000954,"correct":true,"confidence":4},{"trial_n":66,"n_dots":3.05,"target":"left","response":"left","rt":794,"correct":true,"confidence":4},{"trial_n":67,"n_dots":3.05,"target":"right","response":"right","rt":1449.8999998569,"correct":true,"confidence":3},{"trial_n":68,"n_dots":2.95,"target":"right","response":"left","rt":1317.2999999523,"correct":false,"confidence":2},{"trial_n":69,"n_dots":3.05,"target":"left","response":"left","rt":375.29999995232,"correct":true,"confidence":4},{"trial_n":70,"n_dots":3.05,"target":"left","response":"left","rt":333.80000019073,"correct":true,"confidence":5},{"trial_n":71,"n_dots":2.95,"target":"right","response":"left","rt":755.89999985695,"correct":false,"confidence":5},{"trial_n":72,"n_dots":3.05,"target":"right","response":"right","rt":1520.7000000477,"correct":true,"confidence":4},{"trial_n":73,"n_dots":3.05,"target":"right","response":"left","rt":897.29999995232,"correct":false,"confidence":4},{"trial_n":74,"n_dots":3.15,"target":"left","response":"left","rt":547.39999985695,"correct":true,"confidence":3},{"trial_n":75,"n_dots":3.15,"target":"right","response":"right","rt":1111.4000000954,"correct":true,"confidence":3},{"trial_n":76,"n_dots":3.05,"target":"left","response":"left","rt":906.29999995232,"correct":true,"confidence":4},{"trial_n":77,"n_dots":3.05,"target":"right","response":"right","rt":724.70000004768,"correct":true,"confidence":5},{"trial_n":78,"n_dots":2.95,"target":"right","response":"left","rt":1310.7999999523,"correct":false,"confidence":3},{"trial_n":79,"n_dots":3.05,"target":"left","response":"left","rt":517.59999990463,"correct":true,"confidence":5},{"trial_n":80,"n_dots":3.05,"target":"right","response":"left","rt":889.40000009537,"correct":false,"confidence":5},{"trial_n":81,"n_dots":3.15,"target":"left","response":"left","rt":717.20000004768,"correct":true,"confidence":5},{"trial_n":82,"n_dots":3.15,"target":"left","response":"left","rt":111.5,"correct":true,"confidence":5},{"trial_n":83,"n_dots":3.05,"target":"right","response":"left","rt":358.70000004768,"correct":false,"confidence":5},{"trial_n":84,"n_dots":3.15,"target":"left","response":"left","rt":288.20000004768,"correct":true,"confidence":5},{"trial_n":85,"n_dots":3.15,"target":"right","response":"left","rt":787.90000009537,"correct":false,"confidence":4},{"trial_n":86,"n_dots":3.25,"target":"left","response":"left","rt":305.70000004768,"correct":true,"confidence":5},{"trial_n":87,"n_dots":3.25,"target":"left","response":"left","rt":407.09999990463,"correct":true,"confidence":5},{"trial_n":88,"n_dots":3.15,"target":"right","response":"right","rt":1230,"correct":true,"confidence":4},{"trial_n":89,"n_dots":3.15,"target":"left","response":"left","rt":1177.0999999046,"correct":true,"confidence":3},{"trial_n":90,"n_dots":3.05,"target":"left","response":"left","rt":830.40000009537,"correct":true,"confidence":3},{"trial_n":91,"n_dots":3.05,"target":"left","response":"left","rt":440,"correct":true,"confidence":3},{"trial_n":92,"n_dots":2.95,"target":"right","response":"right","rt":822.09999990463,"correct":true,"confidence":4},{"trial_n":93,"n_dots":2.95,"target":"right","response":"right","rt":825,"correct":true,"confidence":4},{"trial_n":94,"n_dots":2.85,"target":"left","response":"left","rt":682.10000014305,"correct":true,"confidence":4},{"trial_n":95,"n_dots":2.85,"target":"left","response":"left","rt":664.79999995232,"correct":true,"confidence":4},{"trial_n":96,"n_dots":2.75,"target":"left","response":"left","rt":710.09999990463,"correct":true,"confidence":4},{"trial_n":97,"n_dots":2.75,"target":"right","response":"left","rt":386.60000014305,"correct":false,"confidence":4},{"trial_n":98,"n_dots":2.85,"target":"left","response":"left","rt":848.10000014305,"correct":true,"confidence":4},{"trial_n":99,"n_dots":2.85,"target":"left","response":"left","rt":684,"correct":true,"confidence":4},{"trial_n":100,"n_dots":2.75,"target":"left","response":"left","rt":889.69999980927,"correct":true,"confidence":4},{"trial_n":101,"n_dots":2.75,"target":"left","response":"left","rt":623.29999995232,"correct":true,"confidence":4},{"trial_n":102,"n_dots":2.65,"target":"right","response":"right","rt":1723.7000000477,"correct":true,"confidence":3},{"trial_n":103,"n_dots":2.65,"target":"left","response":"left","rt":2309.1999998093,"correct":true,"confidence":3},{"trial_n":104,"n_dots":2.55,"target":"left","response":"left","rt":1205.2999999523,"correct":true,"confidence":4},{"trial_n":105,"n_dots":2.55,"target":"left","response":"left","rt":875.59999990463,"correct":true,"confidence":4},{"trial_n":106,"n_dots":2.45,"target":"right","response":"left","rt":1047.0999999046,"correct":false,"confidence":4},{"trial_n":107,"n_dots":2.55,"target":"right","response":"left","rt":1033.4000000954,"correct":false,"confidence":3},{"trial_n":108,"n_dots":2.65,"target":"right","response":"left","rt":1495.5999999046,"correct":false,"confidence":2},{"trial_n":109,"n_dots":2.75,"target":"left","response":"right","rt":1447.7000000477,"correct":false,"confidence":3},{"trial_n":110,"n_dots":2.85,"target":"right","response":"left","rt":432.5,"correct":false,"confidence":3},{"trial_n":111,"n_dots":2.95,"target":"right","response":"left","rt":2021.3000001907,"correct":false,"confidence":3},{"trial_n":112,"n_dots":3.05,"target":"right","response":"left","rt":663.70000004768,"correct":false,"confidence":3},{"trial_n":113,"n_dots":3.15,"target":"right","response":"right","rt":1465.7999999523,"correct":true,"confidence":4},{"trial_n":114,"n_dots":3.15,"target":"left","response":"right","rt":1186.7999999523,"correct":false,"confidence":4},{"trial_n":115,"n_dots":3.25,"target":"left","response":"left","rt":1248.9000000954,"correct":true,"confidence":3},{"trial_n":116,"n_dots":3.25,"target":"right","response":"right","rt":771.40000009537,"correct":true,"confidence":3},{"trial_n":117,"n_dots":3.15,"target":"right","response":"right","rt":1298.0999999046,"correct":true,"confidence":2},{"trial_n":118,"n_dots":3.15,"target":"left","response":"left","rt":741,"correct":true,"confidence":3},{"trial_n":119,"n_dots":3.05,"target":"left","response":"left","rt":914.5,"correct":true,"confidence":3},{"trial_n":120,"n_dots":3.05,"target":"right","response":"right","rt":662,"correct":true,"confidence":5}]