[{"trial_n":1,"span":8,"encoder":"72062739","distractor":"22062739","target":"present","response":"present","rt":"7262","correct":true,"confidence":-1},{"trial_n":2,"span":8,"encoder":"41238809","distractor":"41338809","target":"present","response":"absent","rt":"2294","correct":false,"confidence":-1},{"trial_n":3,"span":6,"encoder":"798523","distractor":"798543","target":"absent","response":"present","rt":"2072","correct":false,"confidence":-1},{"trial_n":4,"span":4,"encoder":"0304","distractor":"0300","target":"absent","response":"absent","rt":"1382","correct":true,"confidence":-1},{"trial_n":5,"span":4,"encoder":"7993","distractor":"7963","target":"present","response":"present","rt":"1945","correct":true,"confidence":-1},{"trial_n":6,"span":6,"encoder":"986819","distractor":"986869","target":"present","response":"present","rt":"1555","correct":true,"confidence":-1},{"trial_n":7,"span":6,"encoder":"053825","distractor":"653825","target":"absent","response":"present","rt":"2025","correct":false,"confidence":-1},{"trial_n":8,"span":4,"encoder":"2155","distractor":"5155","target":"absent","response":"absent","rt":"1491","correct":true,"confidence":-1},{"trial_n":9,"span":4,"encoder":"3358","distractor":"0358","target":"absent","response":"present","rt":"1326","correct":false,"confidence":-1},{"trial_n":10,"span":2,"encoder":"18","distractor":"28","target":"absent","response":"absent","rt":"1168","correct":true,"confidence":-1},{"trial_n":11,"span":2,"encoder":"22","distractor":"12","target":"absent","response":"absent","rt":"1396","correct":true,"confidence":-1},{"trial_n":12,"span":3,"encoder":"431","distractor":"491","target":"present","response":"present","rt":"1302","correct":true,"confidence":-1},{"trial_n":13,"span":3,"encoder":"152","distractor":"154","target":"absent","response":"present","rt":"686","correct":false,"confidence":-1},{"trial_n":14,"span":2,"encoder":"98","distractor":"48","target":"present","response":"present","rt":"1247","correct":true,"confidence":-1},{"trial_n":15,"span":2,"encoder":"85","distractor":"35","target":"absent","response":"absent","rt":"1180","correct":true,"confidence":-1},{"trial_n":16,"span":3,"encoder":"859","distractor":"899","target":"present","response":"present","rt":"1167","correct":true,"confidence":-1},{"trial_n":17,"span":3,"encoder":"975","distractor":"972","target":"present","response":"present","rt":"1009","correct":true,"confidence":-1},{"trial_n":18,"span":4,"encoder":"6150","distractor":"6190","target":"present","response":"present","rt":"948","correct":true,"confidence":-1},{"trial_n":19,"span":4,"encoder":"7150","distractor":"7160","target":"absent","response":"absent","rt":"954.00000000003","correct":true,"confidence":-1},{"trial_n":20,"span":5,"encoder":"35961","distractor":"35361","target":"present","response":"present","rt":"1468","correct":true,"confidence":-1},{"trial_n":21,"span":5,"encoder":"26736","distractor":"26737","target":"present","response":"absent","rt":"1593","correct":false,"confidence":4},{"trial_n":22,"span":4,"encoder":"1220","distractor":"1224","target":"present","response":"present","rt":"2314","correct":true,"confidence":4},{"trial_n":23,"span":4,"encoder":"5303","distractor":"5302","target":"absent","response":"absent","rt":"2630","correct":true,"confidence":4},{"trial_n":24,"span":5,"encoder":"47564","distractor":"40564","target":"absent","response":"absent","rt":"2086","correct":true,"confidence":3},{"trial_n":25,"span":5,"encoder":"58013","distractor":"58003","target":"present","response":"present","rt":"2536","correct":true,"confidence":5},{"trial_n":26,"span":6,"encoder":"155706","distractor":"455706","target":"absent","response":"present","rt":"2755","correct":false,"confidence":2},{"trial_n":27,"span":5,"encoder":"69854","distractor":"69844","target":"present","response":"present","rt":"1720","correct":true,"confidence":2},{"trial_n":28,"span":5,"encoder":"12127","distractor":"15127","target":"present","response":"present","rt":"1870","correct":true,"confidence":3},{"trial_n":29,"span":6,"encoder":"752484","distractor":"152484","target":"present","response":"present","rt":"2756.9999999999","correct":true,"confidence":2},{"trial_n":30,"span":6,"encoder":"349714","distractor":"349712","target":"present","response":"present","rt":"2123","correct":true,"confidence":2},{"trial_n":31,"span":7,"encoder":"7301258","distractor":"3301258","target":"absent","response":"absent","rt":"3343","correct":true,"confidence":5},{"trial_n":32,"span":7,"encoder":"1330529","distractor":"9330529","target":"present","response":"present","rt":"2581.9999999999","correct":true,"confidence":2},{"trial_n":33,"span":8,"encoder":"61263685","distractor":"61268685","target":"present","response":"present","rt":"1570.9999999999","correct":true,"confidence":1},{"trial_n":34,"span":8,"encoder":"81828733","distractor":"81868733","target":"present","response":"absent","rt":"3315","correct":false,"confidence":5},{"trial_n":35,"span":7,"encoder":"2307859","distractor":"2407859","target":"absent","response":"absent","rt":"4681","correct":true,"confidence":3},{"trial_n":36,"span":7,"encoder":"4108483","distractor":"4108486","target":"absent","response":"absent","rt":"3146","correct":true,"confidence":3},{"trial_n":37,"span":8,"encoder":"32594360","distractor":"32594380","target":"absent","response":"absent","rt":"2506.0000000001","correct":true,"confidence":4},{"trial_n":38,"span":8,"encoder":"44216283","distractor":"44216883","target":"present","response":"present","rt":"5333","correct":true,"confidence":2},{"trial_n":39,"span":9,"encoder":"537726213","distractor":"597726213","target":"present","response":"absent","rt":"3342","correct":false,"confidence":2},{"trial_n":40,"span":8,"encoder":"70849508","distractor":"70049508","target":"present","response":"present","rt":"1574","correct":true,"confidence":2},{"trial_n":41,"span":8,"encoder":"80633741","distractor":"80633701","target":"absent","response":"absent","rt":"3156","correct":true,"confidence":2},{"trial_n":42,"span":9,"encoder":"012364503","distractor":"018364503","target":"present","response":"present","rt":"2959","correct":true,"confidence":3},{"trial_n":43,"span":9,"encoder":"277717521","distractor":"227717521","target":"absent","response":"present","rt":"3042","correct":false,"confidence":2},{"trial_n":44,"span":8,"encoder":"60890268","distractor":"60899268","target":"absent","response":"present","rt":"2322.9999999999","correct":false,"confidence":2},{"trial_n":45,"span":7,"encoder":"2774164","distractor":"2574164","target":"absent","response":"present","rt":"2536.0000000001","correct":false,"confidence":3},{"trial_n":46,"span":6,"encoder":"725249","distractor":"725209","target":"absent","response":"absent","rt":"2463","correct":true,"confidence":4},{"trial_n":47,"span":6,"encoder":"678809","distractor":"778809","target":"absent","response":"absent","rt":"3577","correct":true,"confidence":3},{"trial_n":48,"span":7,"encoder":"9524003","distractor":"9526003","target":"absent","response":"present","rt":"2202","correct":false,"confidence":3},{"trial_n":49,"span":6,"encoder":"103705","distractor":"103745","target":"present","response":"present","rt":"1649","correct":true,"confidence":5},{"trial_n":50,"span":6,"encoder":"743819","distractor":"743818","target":"present","response":"present","rt":"2082","correct":true,"confidence":3},{"trial_n":51,"span":7,"encoder":"3752589","distractor":"3752389","target":"absent","response":"present","rt":"1720","correct":false,"confidence":2},{"trial_n":52,"span":6,"encoder":"246636","distractor":"246656","target":"present","response":"present","rt":"2032","correct":true,"confidence":2},{"trial_n":53,"span":6,"encoder":"637903","distractor":"637900","target":"present","response":"present","rt":"2466","correct":true,"confidence":3},{"trial_n":54,"span":7,"encoder":"4631510","distractor":"4631410","target":"present","response":"present","rt":"2420","correct":true,"confidence":2},{"trial_n":55,"span":7,"encoder":"9799809","distractor":"9769809","target":"absent","response":"absent","rt":"2988","correct":true,"confidence":1},{"trial_n":56,"span":8,"encoder":"79679172","distractor":"79679162","target":"present","response":"present","rt":"3909","correct":true,"confidence":4},{"trial_n":57,"span":8,"encoder":"05222400","distractor":"05212400","target":"present","response":"present","rt":"2644","correct":true,"confidence":4},{"trial_n":58,"span":9,"encoder":"989655057","distractor":"989656057","target":"absent","response":"absent","rt":"1996.0000000001","correct":true,"confidence":1},{"trial_n":59,"span":9,"encoder":"149890915","distractor":"149810915","target":"absent","response":"present","rt":"2481","correct":false,"confidence":1},{"trial_n":60,"span":8,"encoder":"20088263","distractor":"20008263","target":"present","response":"present","rt":"2342","correct":true,"confidence":3},{"trial_n":61,"span":8,"encoder":"22574085","distractor":"22574285","target":"present","response":"present","rt":"1696","correct":true,"confidence":3},{"trial_n":62,"span":9,"encoder":"623082825","distractor":"643082825","target":"absent","response":"present","rt":"1400","correct":false,"confidence":2},{"trial_n":63,"span":8,"encoder":"96747135","distractor":"96747175","target":"absent","response":"present","rt":"2625","correct":false,"confidence":2},{"trial_n":64,"span":7,"encoder":"1273268","distractor":"1283268","target":"absent","response":"absent","rt":"5374.0000000001","correct":true,"confidence":3},{"trial_n":65,"span":7,"encoder":"2615615","distractor":"2675615","target":"absent","response":"present","rt":"3887","correct":false,"confidence":2},{"trial_n":66,"span":6,"encoder":"102249","distractor":"102649","target":"present","response":"present","rt":"2169","correct":true,"confidence":4},{"trial_n":67,"span":6,"encoder":"345946","distractor":"345446","target":"present","response":"present","rt":"2388","correct":true,"confidence":3},{"trial_n":68,"span":7,"encoder":"2745420","distractor":"5745420","target":"absent","response":"absent","rt":"3686","correct":true,"confidence":3},{"trial_n":69,"span":7,"encoder":"3425444","distractor":"3425244","target":"absent","response":"present","rt":"1891","correct":false,"confidence":3},{"trial_n":70,"span":6,"encoder":"598575","distractor":"598585","target":"present","response":"present","rt":"2970","correct":true,"confidence":4},{"trial_n":71,"span":8,"encoder":"82923042","distractor":"02923042","target":"present","response":"present","rt":"5207","correct":true,"confidence":-1},{"trial_n":72,"span":8,"encoder":"01588535","distractor":"01588575","target":"present","response":"present","rt":"1399","correct":true,"confidence":-1},{"trial_n":73,"span":9,"encoder":"503912098","distractor":"503912598","target":"absent","response":"absent","rt":"803","correct":true,"confidence":-1},{"trial_n":74,"span":9,"encoder":"829384312","distractor":"329384312","target":"absent","response":"present","rt":"986.99999999988","correct":false,"confidence":-1},{"trial_n":75,"span":8,"encoder":"48404587","distractor":"48424587","target":"present","response":"absent","rt":"770","correct":false,"confidence":-1},{"trial_n":76,"span":7,"encoder":"7973569","distractor":"7973969","target":"absent","response":"absent","rt":"629.99999999988","correct":true,"confidence":-1},{"trial_n":77,"span":7,"encoder":"9083329","distractor":"7083329","target":"absent","response":"absent","rt":"1779","correct":true,"confidence":-1},{"trial_n":78,"span":8,"encoder":"00066729","distractor":"07066729","target":"absent","response":"absent","rt":"1834","correct":true,"confidence":-1},{"trial_n":79,"span":8,"encoder":"42779676","distractor":"42779276","target":"present","response":"present","rt":"6419","correct":true,"confidence":-1},{"trial_n":80,"span":9,"encoder":"781820131","distractor":"781820134","target":"present","response":"absent","rt":"641","correct":false,"confidence":-1},{"trial_n":81,"span":8,"encoder":"81323005","distractor":"81323002","target":"present","response":"present","rt":"1065.9999999999","correct":true,"confidence":-1},{"trial_n":82,"span":8,"encoder":"30710682","distractor":"30710882","target":"absent","response":"absent","rt":"1050","correct":true,"confidence":-1},{"trial_n":83,"span":9,"encoder":"627134080","distractor":"627144080","target":"absent","response":"absent","rt":"955","correct":true,"confidence":-1},{"trial_n":84,"span":9,"encoder":"664479180","distractor":"664479380","target":"present","response":"present","rt":"2203.9999999999","correct":true,"confidence":-1},{"trial_n":85,"span":10,"encoder":"2056057787","distractor":"2956057787","target":"present","response":"absent","rt":"706","correct":false,"confidence":-1},{"trial_n":86,"span":9,"encoder":"553905598","distractor":"553905998","target":"present","response":"present","rt":"773.00000000012","correct":true,"confidence":-1},{"trial_n":87,"span":9,"encoder":"523439345","distractor":"523439545","target":"present","response":"absent","rt":"789","correct":false,"confidence":-1},{"trial_n":88,"span":8,"encoder":"04219918","distractor":"84219918","target":"absent","response":"absent","rt":"635","correct":true,"confidence":-1},{"trial_n":89,"span":8,"encoder":"96316371","distractor":"96316571","target":"present","response":"absent","rt":"636.00000000012","correct":false,"confidence":-1},{"trial_n":90,"span":7,"encoder":"5924089","distractor":"3924089","target":"absent","response":"absent","rt":"729.00000000012","correct":true,"confidence":-1},{"trial_n":91,"span":7,"encoder":"1406738","distractor":"1476738","target":"present","response":"absent","rt":"4583.0000000001","correct":false,"confidence":3},{"trial_n":92,"span":6,"encoder":"964235","distractor":"964735","target":"absent","response":"absent","rt":"3011","correct":true,"confidence":4},{"trial_n":93,"span":6,"encoder":"042733","distractor":"042730","target":"present","response":"present","rt":"2761","correct":true,"confidence":5},{"trial_n":94,"span":7,"encoder":"5557770","distractor":"5550770","target":"absent","response":"absent","rt":"5265","correct":true,"confidence":2},{"trial_n":95,"span":7,"encoder":"5310978","distractor":"5330978","target":"absent","response":"absent","rt":"3981","correct":true,"confidence":3},{"trial_n":96,"span":8,"encoder":"33117499","distractor":"33117459","target":"absent","response":"absent","rt":"3856","correct":true,"confidence":1},{"trial_n":97,"span":8,"encoder":"30469026","distractor":"30469326","target":"present","response":"absent","rt":"2106","correct":false,"confidence":1},{"trial_n":98,"span":7,"encoder":"9205476","distractor":"9245476","target":"absent","response":"present","rt":"4450","correct":false,"confidence":2},{"trial_n":99,"span":6,"encoder":"153647","distractor":"154647","target":"present","response":"present","rt":"2529","correct":true,"confidence":5},{"trial_n":100,"span":6,"encoder":"523290","distractor":"513290","target":"absent","response":"present","rt":"2779","correct":false,"confidence":2},{"trial_n":101,"span":5,"encoder":"73095","distractor":"33095","target":"present","response":"present","rt":"2842","correct":true,"confidence":5},{"trial_n":102,"span":5,"encoder":"11969","distractor":"71969","target":"absent","response":"absent","rt":"1675","correct":true,"confidence":5},{"trial_n":103,"span":6,"encoder":"255261","distractor":"255266","target":"absent","response":"absent","rt":"1962","correct":true,"confidence":5},{"trial_n":104,"span":6,"encoder":"879199","distractor":"829199","target":"present","response":"present","rt":"3644.9999999998","correct":true,"confidence":4},{"trial_n":105,"span":7,"encoder":"9101954","distractor":"9101354","target":"present","response":"present","rt":"4185","correct":true,"confidence":5},{"trial_n":106,"span":7,"encoder":"8078337","distractor":"8028337","target":"present","response":"present","rt":"2066.0000000002","correct":true,"confidence":4},{"trial_n":107,"span":8,"encoder":"76112977","distractor":"76132977","target":"present","response":"present","rt":"2238","correct":true,"confidence":4},{"trial_n":108,"span":8,"encoder":"18084564","distractor":"18084563","target":"present","response":"present","rt":"2206.9999999998","correct":true,"confidence":5},{"trial_n":109,"span":9,"encoder":"560518195","distractor":"560518135","target":"present","response":"present","rt":"2109","correct":true,"confidence":5},{"trial_n":110,"span":9,"encoder":"666803026","distractor":"667803026","target":"absent","response":"absent","rt":"5161","correct":true,"confidence":2},{"trial_n":111,"span":10,"encoder":"4843815142","distractor":"4843816142","target":"present","response":"present","rt":"3133","correct":true,"confidence":4},{"trial_n":112,"span":10,"encoder":"7028469587","distractor":"7024469587","target":"absent","response":"present","rt":"4200","correct":false,"confidence":1},{"trial_n":113,"span":9,"encoder":"605935224","distractor":"605735224","target":"present","response":"present","rt":"4198","correct":true,"confidence":3},{"trial_n":114,"span":9,"encoder":"717562085","distractor":"711562085","target":"present","response":"present","rt":"5446","correct":true,"confidence":2},{"trial_n":115,"span":10,"encoder":"4386030781","distractor":"4386030780","target":"absent","response":"absent","rt":"3133","correct":true,"confidence":5},{"trial_n":116,"span":10,"encoder":"0581393419","distractor":"0481393419","target":"present","response":"present","rt":"3665.0000000002","correct":true,"confidence":1},{"trial_n":117,"span":11,"encoder":"61187399182","distractor":"61187799182","target":"present","response":"present","rt":"5920","correct":true,"confidence":1},{"trial_n":118,"span":11,"encoder":"53616572779","distractor":"57616572779","target":"absent","response":"present","rt":"6370","correct":false,"confidence":1},{"trial_n":119,"span":10,"encoder":"4347505530","distractor":"4347505550","target":"present","response":"present","rt":"6151","correct":true,"confidence":3},{"trial_n":120,"span":10,"encoder":"4166372219","distractor":"4166372019","target":"absent","response":"absent","rt":"2233","correct":true,"confidence":4},{"trial_n":121,"span":11,"encoder":"96652467533","distractor":"66652467533","target":"absent","response":"present","rt":"4520","correct":false,"confidence":2},{"trial_n":122,"span":10,"encoder":"6401332133","distractor":"6401332132","target":"absent","response":"absent","rt":"2383","correct":true,"confidence":5},{"trial_n":123,"span":10,"encoder":"9845674401","distractor":"9845674421","target":"absent","response":"absent","rt":"2214","correct":true,"confidence":4},{"trial_n":124,"span":11,"encoder":"19417865136","distractor":"19417865436","target":"absent","response":"absent","rt":"1990","correct":true,"confidence":4},{"trial_n":125,"span":11,"encoder":"25616565407","distractor":"20616565407","target":"present","response":"present","rt":"2202","correct":true,"confidence":1},{"trial_n":126,"span":12,"encoder":"508806400016","distractor":"508806800016","target":"present","response":"present","rt":"5308.9999999998","correct":true,"confidence":1},{"trial_n":127,"span":12,"encoder":"700973406287","distractor":"700473406287","target":"absent","response":"present","rt":"6442","correct":false,"confidence":2},{"trial_n":128,"span":11,"encoder":"39451166948","distractor":"39457166948","target":"present","response":"present","rt":"5257","correct":true,"confidence":2},{"trial_n":129,"span":11,"encoder":"43238900088","distractor":"43438900088","target":"absent","response":"present","rt":"4271","correct":false,"confidence":2},{"trial_n":130,"span":10,"encoder":"5704678366","distractor":"5704677366","target":"absent","response":"absent","rt":"3284","correct":true,"confidence":2},{"trial_n":131,"span":10,"encoder":"5720562985","distractor":"5720562915","target":"present","response":"present","rt":"1750","correct":true,"confidence":4},{"trial_n":132,"span":11,"encoder":"66705185520","distractor":"66705182520","target":"present","response":"absent","rt":"4159","correct":false,"confidence":1},{"trial_n":133,"span":10,"encoder":"4031053159","distractor":"4037053159","target":"present","response":"present","rt":"5437","correct":true,"confidence":1},{"trial_n":134,"span":10,"encoder":"4761487629","distractor":"4761407629","target":"absent","response":"present","rt":"3569","correct":false,"confidence":1},{"trial_n":135,"span":9,"encoder":"225795025","distractor":"225765025","target":"present","response":"present","rt":"3966","correct":true,"confidence":1},{"trial_n":136,"span":9,"encoder":"678231148","distractor":"678231140","target":"present","response":"present","rt":"2449","correct":true,"confidence":5},{"trial_n":137,"span":10,"encoder":"2876959515","distractor":"2876951515","target":"absent","response":"absent","rt":"2416","correct":true,"confidence":3},{"trial_n":138,"span":10,"encoder":"5256203550","distractor":"5256203250","target":"absent","response":"absent","rt":"2386.0000000002","correct":true,"confidence":2},{"trial_n":139,"span":11,"encoder":"91545297873","distractor":"91545297872","target":"absent","response":"absent","rt":"1472","correct":true,"confidence":5},{"trial_n":140,"span":11,"encoder":"53900933376","distractor":"53903933376","target":"absent","response":"present","rt":"4224.0000000002","correct":false,"confidence":1}]