[{"trial_n":1,"span":8,"encoder":"40275053","distractor":"40271053","target":"present","response":"absent","rt":"4967","correct":false,"confidence":-1},{"trial_n":2,"span":6,"encoder":"147376","distractor":"147676","target":"present","response":"present","rt":"3715","correct":true,"confidence":-1},{"trial_n":3,"span":6,"encoder":"992971","distractor":"992271","target":"absent","response":"absent","rt":"4781","correct":true,"confidence":-1},{"trial_n":4,"span":8,"encoder":"90588559","distractor":"90588759","target":"absent","response":"absent","rt":"1727","correct":true,"confidence":-1},{"trial_n":5,"span":8,"encoder":"84137133","distractor":"84137193","target":"present","response":"present","rt":"2118","correct":true,"confidence":-1},{"trial_n":6,"span":10,"encoder":"1620917303","distractor":"1420917303","target":"present","response":"present","rt":"1951","correct":true,"confidence":-1},{"trial_n":7,"span":10,"encoder":"8252500503","distractor":"8252504503","target":"absent","response":"present","rt":"2671","correct":false,"confidence":-1},{"trial_n":8,"span":8,"encoder":"60226094","distractor":"60226994","target":"absent","response":"present","rt":"2205","correct":false,"confidence":-1},{"trial_n":9,"span":6,"encoder":"822433","distractor":"825433","target":"absent","response":"absent","rt":"1650","correct":true,"confidence":-1},{"trial_n":10,"span":6,"encoder":"904281","distractor":"904287","target":"absent","response":"present","rt":"2552","correct":false,"confidence":-1},{"trial_n":11,"span":4,"encoder":"5943","distractor":"5913","target":"present","response":"present","rt":"3466","correct":true,"confidence":-1},{"trial_n":12,"span":4,"encoder":"7131","distractor":"7161","target":"present","response":"absent","rt":"3135","correct":false,"confidence":-1},{"trial_n":13,"span":3,"encoder":"257","distractor":"657","target":"present","response":"absent","rt":"2021","correct":false,"confidence":-1},{"trial_n":14,"span":2,"encoder":"79","distractor":"09","target":"present","response":"present","rt":"1274","correct":true,"confidence":-1},{"trial_n":15,"span":2,"encoder":"51","distractor":"11","target":"present","response":"present","rt":"927","correct":true,"confidence":-1},{"trial_n":16,"span":3,"encoder":"192","distractor":"122","target":"absent","response":"absent","rt":"1418","correct":true,"confidence":-1},{"trial_n":17,"span":3,"encoder":"074","distractor":"374","target":"present","response":"absent","rt":"1547","correct":false,"confidence":-1},{"trial_n":18,"span":2,"encoder":"64","distractor":"62","target":"absent","response":"absent","rt":"2325","correct":true,"confidence":-1},{"trial_n":19,"span":2,"encoder":"21","distractor":"23","target":"present","response":"present","rt":"974","correct":true,"confidence":-1},{"trial_n":20,"span":3,"encoder":"929","distractor":"923","target":"present","response":"present","rt":"1345","correct":true,"confidence":-1},{"trial_n":21,"span":3,"encoder":"476","distractor":"475","target":"present","response":"present","rt":"1790","correct":true,"confidence":5},{"trial_n":22,"span":4,"encoder":"3037","distractor":"3017","target":"absent","response":"absent","rt":"1806","correct":true,"confidence":5},{"trial_n":23,"span":4,"encoder":"6817","distractor":"6847","target":"present","response":"present","rt":"1394","correct":true,"confidence":4},{"trial_n":24,"span":5,"encoder":"68681","distractor":"68691","target":"present","response":"present","rt":"1697","correct":true,"confidence":5},{"trial_n":25,"span":5,"encoder":"93769","distractor":"93763","target":"present","response":"present","rt":"1966","correct":true,"confidence":5},{"trial_n":26,"span":6,"encoder":"081500","distractor":"086500","target":"absent","response":"absent","rt":"2587","correct":true,"confidence":4},{"trial_n":27,"span":6,"encoder":"637406","distractor":"637416","target":"present","response":"present","rt":"2354","correct":true,"confidence":5},{"trial_n":28,"span":7,"encoder":"9566541","distractor":"9066541","target":"absent","response":"present","rt":"2779.0000000001","correct":false,"confidence":4},{"trial_n":29,"span":6,"encoder":"797851","distractor":"747851","target":"absent","response":"absent","rt":"2186","correct":true,"confidence":3},{"trial_n":30,"span":6,"encoder":"444292","distractor":"244292","target":"present","response":"present","rt":"2672.0000000001","correct":true,"confidence":3},{"trial_n":31,"span":7,"encoder":"6554094","distractor":"6554194","target":"present","response":"present","rt":"3218.0000000001","correct":true,"confidence":4},{"trial_n":32,"span":7,"encoder":"2107883","distractor":"2107803","target":"present","response":"absent","rt":"2359","correct":false,"confidence":3},{"trial_n":33,"span":6,"encoder":"674306","distractor":"674396","target":"present","response":"present","rt":"2223","correct":true,"confidence":4},{"trial_n":34,"span":6,"encoder":"671686","distractor":"671688","target":"absent","response":"absent","rt":"2177","correct":true,"confidence":4},{"trial_n":35,"span":7,"encoder":"5810311","distractor":"5710311","target":"absent","response":"absent","rt":"2128","correct":true,"confidence":4},{"trial_n":36,"span":7,"encoder":"7528588","distractor":"7520588","target":"absent","response":"absent","rt":"2956","correct":true,"confidence":3},{"trial_n":37,"span":8,"encoder":"33146712","distractor":"33144712","target":"absent","response":"absent","rt":"2731.9999999999","correct":true,"confidence":5},{"trial_n":38,"span":8,"encoder":"26520442","distractor":"26500442","target":"absent","response":"absent","rt":"15440","correct":true,"confidence":4},{"trial_n":39,"span":9,"encoder":"753665997","distractor":"753165997","target":"present","response":"present","rt":"2393","correct":true,"confidence":4},{"trial_n":40,"span":9,"encoder":"343940038","distractor":"343940018","target":"absent","response":"absent","rt":"4017","correct":true,"confidence":2},{"trial_n":41,"span":10,"encoder":"9549846220","distractor":"9549849220","target":"absent","response":"absent","rt":"2667.9999999999","correct":true,"confidence":3},{"trial_n":42,"span":10,"encoder":"9230812294","distractor":"9238812294","target":"absent","response":"present","rt":"2169","correct":false,"confidence":4},{"trial_n":43,"span":9,"encoder":"199273108","distractor":"199271108","target":"present","response":"present","rt":"1310","correct":true,"confidence":4},{"trial_n":44,"span":9,"encoder":"617984977","distractor":"317984977","target":"present","response":"present","rt":"2310.0000000001","correct":true,"confidence":4},{"trial_n":45,"span":10,"encoder":"1063518881","distractor":"1763518881","target":"present","response":"absent","rt":"3645.9999999999","correct":false,"confidence":4},{"trial_n":46,"span":9,"encoder":"784601925","distractor":"784641925","target":"absent","response":"present","rt":"3567","correct":false,"confidence":3},{"trial_n":47,"span":8,"encoder":"75655344","distractor":"75655144","target":"present","response":"present","rt":"2731","correct":true,"confidence":3},{"trial_n":48,"span":8,"encoder":"36762732","distractor":"36767732","target":"present","response":"absent","rt":"2343","correct":false,"confidence":2},{"trial_n":49,"span":7,"encoder":"0871952","distractor":"0871950","target":"present","response":"present","rt":"4093","correct":true,"confidence":4},{"trial_n":50,"span":7,"encoder":"1711794","distractor":"1711694","target":"present","response":"present","rt":"3326","correct":true,"confidence":4},{"trial_n":51,"span":8,"encoder":"14349523","distractor":"19349523","target":"present","response":"present","rt":"3228.9999999999","correct":true,"confidence":4},{"trial_n":52,"span":8,"encoder":"54003429","distractor":"54013429","target":"absent","response":"present","rt":"2607","correct":false,"confidence":4},{"trial_n":53,"span":7,"encoder":"7568286","distractor":"7568282","target":"absent","response":"absent","rt":"1954","correct":true,"confidence":5},{"trial_n":54,"span":7,"encoder":"5745429","distractor":"6745429","target":"absent","response":"absent","rt":"5502","correct":true,"confidence":3},{"trial_n":55,"span":8,"encoder":"74857564","distractor":"74897564","target":"present","response":"absent","rt":"1172","correct":false,"confidence":2},{"trial_n":56,"span":7,"encoder":"9733641","distractor":"9733541","target":"present","response":"present","rt":"2564","correct":true,"confidence":4},{"trial_n":57,"span":7,"encoder":"6198349","distractor":"6191349","target":"absent","response":"present","rt":"1515.0000000001","correct":false,"confidence":4},{"trial_n":58,"span":6,"encoder":"463773","distractor":"453773","target":"present","response":"present","rt":"2260","correct":true,"confidence":5},{"trial_n":59,"span":6,"encoder":"513244","distractor":"213244","target":"absent","response":"absent","rt":"1565","correct":true,"confidence":5},{"trial_n":60,"span":7,"encoder":"3477494","distractor":"3477424","target":"present","response":"present","rt":"2163","correct":true,"confidence":4},{"trial_n":61,"span":7,"encoder":"1183672","distractor":"1183670","target":"absent","response":"absent","rt":"2135","correct":true,"confidence":4},{"trial_n":62,"span":8,"encoder":"39385241","distractor":"31385241","target":"absent","response":"absent","rt":"2859.0000000001","correct":true,"confidence":4},{"trial_n":63,"span":8,"encoder":"22504260","distractor":"22004260","target":"absent","response":"present","rt":"1630","correct":false,"confidence":3},{"trial_n":64,"span":7,"encoder":"7490844","distractor":"7440844","target":"absent","response":"present","rt":"3119.0000000001","correct":false,"confidence":4},{"trial_n":65,"span":6,"encoder":"708732","distractor":"708782","target":"present","response":"present","rt":"1682","correct":true,"confidence":4},{"trial_n":66,"span":6,"encoder":"462180","distractor":"442180","target":"present","response":"present","rt":"1890","correct":true,"confidence":4},{"trial_n":67,"span":7,"encoder":"0207927","distractor":"3207927","target":"absent","response":"present","rt":"1080.0000000002","correct":false,"confidence":4},{"trial_n":68,"span":6,"encoder":"868602","distractor":"968602","target":"absent","response":"present","rt":"1339.9999999999","correct":false,"confidence":4},{"trial_n":69,"span":5,"encoder":"24352","distractor":"24252","target":"absent","response":"present","rt":"1624","correct":false,"confidence":4},{"trial_n":70,"span":4,"encoder":"4161","distractor":"4141","target":"absent","response":"absent","rt":"1328.0000000002","correct":true,"confidence":5},{"trial_n":71,"span":8,"encoder":"04081433","distractor":"05081433","target":"present","response":"present","rt":"2725","correct":true,"confidence":-1},{"trial_n":72,"span":8,"encoder":"16921727","distractor":"16931727","target":"present","response":"present","rt":"2943","correct":true,"confidence":-1},{"trial_n":73,"span":9,"encoder":"867438788","distractor":"867438768","target":"absent","response":"absent","rt":"3105","correct":true,"confidence":-1},{"trial_n":74,"span":9,"encoder":"838562013","distractor":"838562010","target":"absent","response":"absent","rt":"1946.9999999995","correct":true,"confidence":-1},{"trial_n":75,"span":10,"encoder":"2408183731","distractor":"2408153731","target":"present","response":"absent","rt":"6345","correct":false,"confidence":-1},{"trial_n":76,"span":9,"encoder":"588835600","distractor":"558835600","target":"present","response":"present","rt":"1542","correct":true,"confidence":-1},{"trial_n":77,"span":9,"encoder":"469488264","distractor":"469488064","target":"absent","response":"absent","rt":"1036.0000000005","correct":true,"confidence":-1},{"trial_n":78,"span":10,"encoder":"3306978280","distractor":"3306978283","target":"present","response":"present","rt":"1230","correct":true,"confidence":-1},{"trial_n":79,"span":10,"encoder":"4825365421","distractor":"3825365421","target":"absent","response":"absent","rt":"845","correct":true,"confidence":-1},{"trial_n":80,"span":11,"encoder":"76298202738","distractor":"76298272738","target":"absent","response":"absent","rt":"809","correct":true,"confidence":-1},{"trial_n":81,"span":11,"encoder":"72036986857","distractor":"72086986857","target":"absent","response":"absent","rt":"948","correct":true,"confidence":-1},{"trial_n":82,"span":12,"encoder":"305603400432","distractor":"305603400437","target":"absent","response":"absent","rt":"627","correct":true,"confidence":-1},{"trial_n":83,"span":12,"encoder":"155705957976","distractor":"155795957976","target":"absent","response":"present","rt":"822.99999999953","correct":false,"confidence":-1},{"trial_n":84,"span":11,"encoder":"14386459748","distractor":"14356459748","target":"present","response":"absent","rt":"678.00000000047","correct":false,"confidence":-1},{"trial_n":85,"span":10,"encoder":"2193962301","distractor":"2113962301","target":"present","response":"present","rt":"534","correct":true,"confidence":-1},{"trial_n":86,"span":10,"encoder":"1985596169","distractor":"1985556169","target":"present","response":"present","rt":"535","correct":true,"confidence":-1},{"trial_n":87,"span":11,"encoder":"70076491372","distractor":"70046491372","target":"absent","response":"absent","rt":"617.00000000047","correct":true,"confidence":-1},{"trial_n":88,"span":11,"encoder":"49542447746","distractor":"49547447746","target":"absent","response":"present","rt":"977","correct":false,"confidence":-1},{"trial_n":89,"span":10,"encoder":"1969203838","distractor":"1969303838","target":"present","response":"present","rt":"452","correct":true,"confidence":-1},{"trial_n":90,"span":10,"encoder":"2993874109","distractor":"7993874109","target":"absent","response":"present","rt":"818","correct":false,"confidence":-1},{"trial_n":91,"span":9,"encoder":"014481934","distractor":"014481994","target":"absent","response":"absent","rt":"1784.0000000005","correct":true,"confidence":5},{"trial_n":92,"span":9,"encoder":"373878381","distractor":"373877381","target":"absent","response":"absent","rt":"2893.9999999995","correct":true,"confidence":2},{"trial_n":93,"span":10,"encoder":"8937347288","distractor":"8937347218","target":"present","response":"present","rt":"1360","correct":true,"confidence":5},{"trial_n":94,"span":10,"encoder":"3896943619","distractor":"3896903619","target":"absent","response":"absent","rt":"2127","correct":true,"confidence":5},{"trial_n":95,"span":11,"encoder":"86098095156","distractor":"86098095152","target":"absent","response":"absent","rt":"1913","correct":true,"confidence":4},{"trial_n":96,"span":11,"encoder":"59024478944","distractor":"99024478944","target":"absent","response":"present","rt":"6546.0000000005","correct":false,"confidence":3},{"trial_n":97,"span":10,"encoder":"3677397528","distractor":"3677399528","target":"present","response":"absent","rt":"591","correct":false,"confidence":4},{"trial_n":98,"span":9,"encoder":"215952279","distractor":"315952279","target":"present","response":"present","rt":"581","correct":true,"confidence":4},{"trial_n":99,"span":9,"encoder":"903125791","distractor":"909125791","target":"absent","response":"present","rt":"853.00000000047","correct":false,"confidence":3},{"trial_n":100,"span":8,"encoder":"59560529","distractor":"59560579","target":"absent","response":"absent","rt":"2463","correct":true,"confidence":3},{"trial_n":101,"span":8,"encoder":"96279957","distractor":"96279959","target":"present","response":"present","rt":"1586","correct":true,"confidence":4},{"trial_n":102,"span":9,"encoder":"114496392","distractor":"119496392","target":"present","response":"absent","rt":"1435.9999999995","correct":false,"confidence":3},{"trial_n":103,"span":8,"encoder":"88051513","distractor":"88051113","target":"present","response":"present","rt":"1997.0000000005","correct":true,"confidence":4},{"trial_n":104,"span":8,"encoder":"02519040","distractor":"02519000","target":"absent","response":"absent","rt":"1500","correct":true,"confidence":4},{"trial_n":105,"span":9,"encoder":"501131770","distractor":"501134770","target":"present","response":"present","rt":"2588","correct":true,"confidence":4},{"trial_n":106,"span":9,"encoder":"454312587","distractor":"453312587","target":"present","response":"absent","rt":"2991","correct":false,"confidence":4},{"trial_n":107,"span":8,"encoder":"45532570","distractor":"45232570","target":"present","response":"present","rt":"4610","correct":true,"confidence":3},{"trial_n":108,"span":8,"encoder":"20817649","distractor":"20817549","target":"present","response":"present","rt":"5563","correct":true,"confidence":4},{"trial_n":109,"span":9,"encoder":"572699688","distractor":"579699688","target":"present","response":"present","rt":"3886","correct":true,"confidence":5},{"trial_n":110,"span":9,"encoder":"124383852","distractor":"124983852","target":"absent","response":"absent","rt":"992","correct":true,"confidence":3},{"trial_n":111,"span":10,"encoder":"0854792223","distractor":"0854799223","target":"present","response":"present","rt":"12313","correct":true,"confidence":3},{"trial_n":112,"span":10,"encoder":"5566232228","distractor":"5566235228","target":"present","response":"present","rt":"7964","correct":true,"confidence":3},{"trial_n":113,"span":11,"encoder":"65183548140","distractor":"65183508140","target":"absent","response":"present","rt":"4462.9999999995","correct":false,"confidence":3},{"trial_n":114,"span":10,"encoder":"1389571509","distractor":"1389521509","target":"present","response":"absent","rt":"2930","correct":false,"confidence":2},{"trial_n":115,"span":9,"encoder":"524676195","distractor":"524626195","target":"absent","response":"absent","rt":"4659","correct":true,"confidence":2},{"trial_n":116,"span":9,"encoder":"886692613","distractor":"886622613","target":"present","response":"present","rt":"3585","correct":true,"confidence":3},{"trial_n":117,"span":10,"encoder":"4474976670","distractor":"4474976680","target":"absent","response":"absent","rt":"3386.9999999995","correct":true,"confidence":4},{"trial_n":118,"span":10,"encoder":"6622109940","distractor":"6622199940","target":"present","response":"present","rt":"1741","correct":true,"confidence":4},{"trial_n":119,"span":11,"encoder":"50153369016","distractor":"50153363016","target":"present","response":"present","rt":"2706","correct":true,"confidence":4},{"trial_n":120,"span":11,"encoder":"33458268806","distractor":"33459268806","target":"absent","response":"absent","rt":"5791","correct":true,"confidence":4},{"trial_n":121,"span":12,"encoder":"040321532563","distractor":"040321530563","target":"present","response":"absent","rt":"5317","correct":false,"confidence":3},{"trial_n":122,"span":11,"encoder":"86266107506","distractor":"86566107506","target":"absent","response":"absent","rt":"7809","correct":true,"confidence":2},{"trial_n":123,"span":11,"encoder":"73074200701","distractor":"73074206701","target":"present","response":"absent","rt":"1491","correct":false,"confidence":1},{"trial_n":124,"span":10,"encoder":"7837416613","distractor":"7837816613","target":"absent","response":"absent","rt":"6766","correct":true,"confidence":4},{"trial_n":125,"span":10,"encoder":"0032749306","distractor":"0032739306","target":"absent","response":"absent","rt":"3319","correct":true,"confidence":4},{"trial_n":126,"span":11,"encoder":"09577925723","distractor":"09577965723","target":"absent","response":"absent","rt":"6185","correct":true,"confidence":2},{"trial_n":127,"span":11,"encoder":"09616349169","distractor":"09616399169","target":"present","response":"present","rt":"1834.9999999991","correct":true,"confidence":2},{"trial_n":128,"span":12,"encoder":"869152958067","distractor":"899152958067","target":"present","response":"absent","rt":"1884","correct":false,"confidence":1},{"trial_n":129,"span":11,"encoder":"32697601285","distractor":"32697601885","target":"absent","response":"absent","rt":"3466","correct":true,"confidence":4},{"trial_n":130,"span":11,"encoder":"58709490508","distractor":"55709490508","target":"absent","response":"absent","rt":"8413","correct":true,"confidence":2},{"trial_n":131,"span":12,"encoder":"144348304149","distractor":"140348304149","target":"present","response":"present","rt":"2225.9999999991","correct":true,"confidence":3},{"trial_n":132,"span":12,"encoder":"399957281182","distractor":"399957241182","target":"absent","response":"absent","rt":"1793","correct":true,"confidence":1},{"trial_n":133,"span":13,"encoder":"3164604176727","distractor":"3124604176727","target":"absent","response":"absent","rt":"2901","correct":true,"confidence":3},{"trial_n":134,"span":13,"encoder":"4449498683667","distractor":"4449498683637","target":"present","response":"present","rt":"3539","correct":true,"confidence":4},{"trial_n":135,"span":14,"encoder":"00588837212970","distractor":"07588837212970","target":"absent","response":"absent","rt":"2258","correct":true,"confidence":1},{"trial_n":136,"span":14,"encoder":"94088701753081","distractor":"94088701793081","target":"present","response":"absent","rt":"2130","correct":false,"confidence":1},{"trial_n":137,"span":13,"encoder":"2683875612808","distractor":"2683875615808","target":"present","response":"present","rt":"4053","correct":true,"confidence":5},{"trial_n":138,"span":13,"encoder":"1961625658989","distractor":"1961622658989","target":"present","response":"present","rt":"2957.0000000009","correct":true,"confidence":4},{"trial_n":139,"span":14,"encoder":"66894711298469","distractor":"66894311298469","target":"absent","response":"absent","rt":"5418","correct":true,"confidence":5},{"trial_n":140,"span":14,"encoder":"43261623418454","distractor":"43261623417454","target":"present","response":"present","rt":"4479","correct":true,"confidence":4}]