[{"trial_n":1,"min":25,"max":230,"target":"present","response":"absent","rt":7407,"correct":false,"confidence":-1},{"trial_n":2,"min":25,"max":230,"target":"present","response":"present","rt":4265,"correct":true,"confidence":-1},{"trial_n":3,"min":25,"max":230,"target":"absent","response":"absent","rt":1567,"correct":true,"confidence":-1},{"trial_n":4,"min":41,"max":214,"target":"absent","response":"absent","rt":925,"correct":true,"confidence":-1},{"trial_n":5,"min":41,"max":214,"target":"present","response":"present","rt":455,"correct":true,"confidence":-1},{"trial_n":6,"min":57,"max":198,"target":"absent","response":"absent","rt":966,"correct":true,"confidence":-1},{"trial_n":7,"min":57,"max":198,"target":"absent","response":"absent","rt":534,"correct":true,"confidence":-1},{"trial_n":8,"min":73,"max":182,"target":"absent","response":"absent","rt":821,"correct":true,"confidence":-1},{"trial_n":9,"min":73,"max":182,"target":"present","response":"present","rt":825,"correct":true,"confidence":-1},{"trial_n":10,"min":89,"max":166,"target":"absent","response":"absent","rt":562,"correct":true,"confidence":-1},{"trial_n":11,"min":89,"max":166,"target":"absent","response":"absent","rt":629,"correct":true,"confidence":-1},{"trial_n":12,"min":97,"max":158,"target":"absent","response":"present","rt":678.00000000001,"correct":false,"confidence":-1},{"trial_n":13,"min":89,"max":166,"target":"absent","response":"absent","rt":666,"correct":true,"confidence":-1},{"trial_n":14,"min":89,"max":166,"target":"absent","response":"absent","rt":634,"correct":true,"confidence":-1},{"trial_n":15,"min":97,"max":158,"target":"absent","response":"absent","rt":522.99999999999,"correct":true,"confidence":-1},{"trial_n":16,"min":97,"max":158,"target":"present","response":"absent","rt":517,"correct":false,"confidence":-1},{"trial_n":17,"min":89,"max":166,"target":"absent","response":"present","rt":543,"correct":false,"confidence":-1},{"trial_n":18,"min":81,"max":174,"target":"present","response":"absent","rt":612,"correct":false,"confidence":-1},{"trial_n":19,"min":73,"max":182,"target":"absent","response":"present","rt":764,"correct":false,"confidence":-1},{"trial_n":20,"min":65,"max":190,"target":"present","response":"absent","rt":475,"correct":false,"confidence":-1},{"trial_n":21,"min":61,"max":194,"target":"present","response":"present","rt":622,"correct":true,"confidence":5},{"trial_n":22,"min":61,"max":194,"target":"present","response":"present","rt":1403,"correct":true,"confidence":4},{"trial_n":23,"min":65,"max":190,"target":"absent","response":"absent","rt":982,"correct":true,"confidence":3},{"trial_n":24,"min":65,"max":190,"target":"present","response":"present","rt":891,"correct":true,"confidence":4},{"trial_n":25,"min":69,"max":186,"target":"present","response":"present","rt":1665,"correct":true,"confidence":3},{"trial_n":26,"min":69,"max":186,"target":"present","response":"present","rt":1710,"correct":true,"confidence":4},{"trial_n":27,"min":73,"max":182,"target":"absent","response":"present","rt":1085,"correct":false,"confidence":3},{"trial_n":28,"min":69,"max":186,"target":"present","response":"absent","rt":1344,"correct":false,"confidence":3},{"trial_n":29,"min":65,"max":190,"target":"present","response":"present","rt":1169,"correct":true,"confidence":3},{"trial_n":30,"min":65,"max":190,"target":"absent","response":"present","rt":2251,"correct":false,"confidence":2},{"trial_n":31,"min":63,"max":192,"target":"present","response":"present","rt":971.99999999997,"correct":true,"confidence":4},{"trial_n":32,"min":63,"max":192,"target":"present","response":"present","rt":620,"correct":true,"confidence":4},{"trial_n":33,"min":65,"max":190,"target":"absent","response":"absent","rt":930.00000000003,"correct":true,"confidence":3},{"trial_n":34,"min":65,"max":190,"target":"present","response":"present","rt":781,"correct":true,"confidence":5},{"trial_n":35,"min":67,"max":188,"target":"present","response":"present","rt":389,"correct":true,"confidence":4},{"trial_n":36,"min":67,"max":188,"target":"absent","response":"absent","rt":1270,"correct":true,"confidence":3},{"trial_n":37,"min":69,"max":186,"target":"absent","response":"absent","rt":1262,"correct":true,"confidence":3},{"trial_n":38,"min":69,"max":186,"target":"present","response":"present","rt":696,"correct":true,"confidence":4},{"trial_n":39,"min":71,"max":184,"target":"present","response":"present","rt":806.00000000003,"correct":true,"confidence":4},{"trial_n":40,"min":71,"max":184,"target":"absent","response":"absent","rt":865,"correct":true,"confidence":3},{"trial_n":41,"min":72,"max":183,"target":"absent","response":"absent","rt":562,"correct":true,"confidence":3},{"trial_n":42,"min":72,"max":183,"target":"absent","response":"absent","rt":695,"correct":true,"confidence":4},{"trial_n":43,"min":73,"max":182,"target":"absent","response":"absent","rt":1732,"correct":true,"confidence":4},{"trial_n":44,"min":73,"max":182,"target":"absent","response":"absent","rt":1375,"correct":true,"confidence":3},{"trial_n":45,"min":74,"max":181,"target":"absent","response":"present","rt":1795.9999999999,"correct":false,"confidence":4},{"trial_n":46,"min":73,"max":182,"target":"present","response":"present","rt":1447,"correct":true,"confidence":5},{"trial_n":47,"min":73,"max":182,"target":"present","response":"present","rt":1532,"correct":true,"confidence":3},{"trial_n":48,"min":74,"max":181,"target":"present","response":"present","rt":1040,"correct":true,"confidence":3},{"trial_n":49,"min":74,"max":181,"target":"present","response":"present","rt":926.00000000006,"correct":true,"confidence":3},{"trial_n":50,"min":75,"max":180,"target":"present","response":"present","rt":631,"correct":true,"confidence":5},{"trial_n":51,"min":75,"max":180,"target":"present","response":"present","rt":581,"correct":true,"confidence":4},{"trial_n":52,"min":76,"max":179,"target":"present","response":"absent","rt":736.99999999988,"correct":false,"confidence":3},{"trial_n":53,"min":75,"max":180,"target":"present","response":"present","rt":632,"correct":true,"confidence":4},{"trial_n":54,"min":75,"max":180,"target":"present","response":"present","rt":515,"correct":true,"confidence":3},{"trial_n":55,"min":76,"max":179,"target":"present","response":"present","rt":917,"correct":true,"confidence":3},{"trial_n":56,"min":76,"max":179,"target":"absent","response":"absent","rt":920,"correct":true,"confidence":3},{"trial_n":57,"min":77,"max":178,"target":"absent","response":"absent","rt":913,"correct":true,"confidence":2},{"trial_n":58,"min":77,"max":178,"target":"absent","response":"absent","rt":664.99999999988,"correct":true,"confidence":4},{"trial_n":59,"min":78,"max":177,"target":"present","response":"present","rt":752,"correct":true,"confidence":4},{"trial_n":60,"min":78,"max":177,"target":"absent","response":"absent","rt":844,"correct":true,"confidence":3},{"trial_n":61,"min":79,"max":176,"target":"absent","response":"absent","rt":2601,"correct":true,"confidence":4},{"trial_n":62,"min":79,"max":176,"target":"absent","response":"absent","rt":800.00000000012,"correct":true,"confidence":4},{"trial_n":63,"min":80,"max":175,"target":"absent","response":"absent","rt":545,"correct":true,"confidence":4},{"trial_n":64,"min":80,"max":175,"target":"present","response":"present","rt":1319.9999999999,"correct":true,"confidence":4},{"trial_n":65,"min":81,"max":174,"target":"present","response":"present","rt":881,"correct":true,"confidence":4},{"trial_n":66,"min":81,"max":174,"target":"present","response":"absent","rt":2068,"correct":false,"confidence":2},{"trial_n":67,"min":80,"max":175,"target":"present","response":"present","rt":828,"correct":true,"confidence":2},{"trial_n":68,"min":80,"max":175,"target":"absent","response":"absent","rt":598,"correct":true,"confidence":4},{"trial_n":69,"min":81,"max":174,"target":"absent","response":"present","rt":909,"correct":false,"confidence":3},{"trial_n":70,"min":80,"max":175,"target":"present","response":"present","rt":1293,"correct":true,"confidence":3},{"trial_n":71,"min":41,"max":214,"target":"present","response":"present","rt":8933.9999999999,"correct":true,"confidence":-1},{"trial_n":72,"min":41,"max":214,"target":"present","response":"present","rt":885.99999999988,"correct":true,"confidence":-1},{"trial_n":73,"min":57,"max":198,"target":"absent","response":"absent","rt":1147.9999999999,"correct":true,"confidence":-1},{"trial_n":74,"min":57,"max":198,"target":"absent","response":"present","rt":481,"correct":false,"confidence":-1},{"trial_n":75,"min":41,"max":214,"target":"present","response":"present","rt":606,"correct":true,"confidence":-1},{"trial_n":76,"min":41,"max":214,"target":"present","response":"present","rt":354,"correct":true,"confidence":-1},{"trial_n":77,"min":57,"max":198,"target":"absent","response":"absent","rt":426,"correct":true,"confidence":-1},{"trial_n":78,"min":57,"max":198,"target":"present","response":"present","rt":515.00000000012,"correct":true,"confidence":-1},{"trial_n":79,"min":73,"max":182,"target":"present","response":"present","rt":424,"correct":true,"confidence":-1},{"trial_n":80,"min":73,"max":182,"target":"absent","response":"absent","rt":545,"correct":true,"confidence":-1},{"trial_n":81,"min":81,"max":174,"target":"present","response":"present","rt":1576,"correct":true,"confidence":-1},{"trial_n":82,"min":81,"max":174,"target":"absent","response":"absent","rt":904,"correct":true,"confidence":-1},{"trial_n":83,"min":89,"max":166,"target":"present","response":"present","rt":453,"correct":true,"confidence":-1},{"trial_n":84,"min":89,"max":166,"target":"present","response":"present","rt":597.00000000012,"correct":true,"confidence":-1},{"trial_n":85,"min":97,"max":158,"target":"absent","response":"absent","rt":548,"correct":true,"confidence":-1},{"trial_n":86,"min":97,"max":158,"target":"absent","response":"absent","rt":677,"correct":true,"confidence":-1},{"trial_n":87,"min":105,"max":150,"target":"present","response":"present","rt":829,"correct":true,"confidence":-1},{"trial_n":88,"min":105,"max":150,"target":"present","response":"absent","rt":636,"correct":false,"confidence":-1},{"trial_n":89,"min":97,"max":158,"target":"present","response":"present","rt":1586,"correct":true,"confidence":-1},{"trial_n":90,"min":97,"max":158,"target":"absent","response":"present","rt":682,"correct":false,"confidence":-1},{"trial_n":91,"min":93,"max":162,"target":"present","response":"present","rt":477,"correct":true,"confidence":4},{"trial_n":92,"min":93,"max":162,"target":"present","response":"absent","rt":792,"correct":false,"confidence":3},{"trial_n":93,"min":89,"max":166,"target":"present","response":"present","rt":786.99999999988,"correct":true,"confidence":4},{"trial_n":94,"min":89,"max":166,"target":"absent","response":"present","rt":1248,"correct":false,"confidence":2},{"trial_n":95,"min":85,"max":170,"target":"present","response":"present","rt":889,"correct":true,"confidence":3},{"trial_n":96,"min":85,"max":170,"target":"absent","response":"present","rt":1961,"correct":false,"confidence":1},{"trial_n":97,"min":81,"max":174,"target":"absent","response":"present","rt":920.00000000012,"correct":false,"confidence":3},{"trial_n":98,"min":77,"max":178,"target":"absent","response":"present","rt":1754.0000000001,"correct":false,"confidence":3},{"trial_n":99,"min":73,"max":182,"target":"absent","response":"absent","rt":695,"correct":true,"confidence":4},{"trial_n":100,"min":73,"max":182,"target":"present","response":"present","rt":426,"correct":true,"confidence":5},{"trial_n":101,"min":75,"max":180,"target":"absent","response":"present","rt":1130,"correct":false,"confidence":4},{"trial_n":102,"min":73,"max":182,"target":"absent","response":"present","rt":819,"correct":false,"confidence":4},{"trial_n":103,"min":71,"max":184,"target":"present","response":"present","rt":487,"correct":true,"confidence":4},{"trial_n":104,"min":71,"max":184,"target":"present","response":"present","rt":401,"correct":true,"confidence":4},{"trial_n":105,"min":73,"max":182,"target":"absent","response":"absent","rt":1010,"correct":true,"confidence":3},{"trial_n":106,"min":73,"max":182,"target":"absent","response":"present","rt":843.99999999988,"correct":false,"confidence":4},{"trial_n":107,"min":71,"max":184,"target":"present","response":"present","rt":771,"correct":true,"confidence":4},{"trial_n":108,"min":71,"max":184,"target":"present","response":"present","rt":756.00000000012,"correct":true,"confidence":4},{"trial_n":109,"min":73,"max":182,"target":"absent","response":"absent","rt":779,"correct":true,"confidence":3},{"trial_n":110,"min":73,"max":182,"target":"absent","response":"absent","rt":1048.9999999999,"correct":true,"confidence":2},{"trial_n":111,"min":74,"max":181,"target":"absent","response":"absent","rt":427.00000000012,"correct":true,"confidence":4},{"trial_n":112,"min":74,"max":181,"target":"present","response":"present","rt":1437.9999999999,"correct":true,"confidence":4},{"trial_n":113,"min":75,"max":180,"target":"present","response":"present","rt":1191,"correct":true,"confidence":4},{"trial_n":114,"min":75,"max":180,"target":"present","response":"present","rt":423,"correct":true,"confidence":3},{"trial_n":115,"min":76,"max":179,"target":"absent","response":"present","rt":617,"correct":false,"confidence":4},{"trial_n":116,"min":75,"max":180,"target":"absent","response":"absent","rt":488,"correct":true,"confidence":4},{"trial_n":117,"min":75,"max":180,"target":"present","response":"present","rt":1429,"correct":true,"confidence":3},{"trial_n":118,"min":76,"max":179,"target":"present","response":"present","rt":496.00000000023,"correct":true,"confidence":4},{"trial_n":119,"min":76,"max":179,"target":"present","response":"present","rt":351,"correct":true,"confidence":3},{"trial_n":120,"min":77,"max":178,"target":"absent","response":"absent","rt":636.99999999977,"correct":true,"confidence":2},{"trial_n":121,"min":77,"max":178,"target":"present","response":"present","rt":850,"correct":true,"confidence":4},{"trial_n":122,"min":78,"max":177,"target":"absent","response":"absent","rt":1089,"correct":true,"confidence":2},{"trial_n":123,"min":78,"max":177,"target":"absent","response":"present","rt":917,"correct":false,"confidence":4},{"trial_n":124,"min":77,"max":178,"target":"absent","response":"present","rt":1023,"correct":false,"confidence":4},{"trial_n":125,"min":76,"max":179,"target":"present","response":"present","rt":741,"correct":true,"confidence":4},{"trial_n":126,"min":76,"max":179,"target":"absent","response":"absent","rt":949,"correct":true,"confidence":4},{"trial_n":127,"min":77,"max":178,"target":"present","response":"present","rt":767,"correct":true,"confidence":3},{"trial_n":128,"min":77,"max":178,"target":"absent","response":"absent","rt":864,"correct":true,"confidence":2},{"trial_n":129,"min":78,"max":177,"target":"present","response":"absent","rt":1077,"correct":false,"confidence":1},{"trial_n":130,"min":77,"max":178,"target":"absent","response":"present","rt":974,"correct":false,"confidence":4},{"trial_n":131,"min":76,"max":179,"target":"absent","response":"absent","rt":1062.0000000002,"correct":true,"confidence":4},{"trial_n":132,"min":76,"max":179,"target":"present","response":"present","rt":767.99999999977,"correct":true,"confidence":4},{"trial_n":133,"min":77,"max":178,"target":"absent","response":"absent","rt":948,"correct":true,"confidence":2},{"trial_n":134,"min":77,"max":178,"target":"absent","response":"absent","rt":1214,"correct":true,"confidence":3},{"trial_n":135,"min":78,"max":177,"target":"absent","response":"absent","rt":1204,"correct":true,"confidence":4},{"trial_n":136,"min":78,"max":177,"target":"present","response":"present","rt":735,"correct":true,"confidence":4},{"trial_n":137,"min":79,"max":176,"target":"absent","response":"absent","rt":908,"correct":true,"confidence":3},{"trial_n":138,"min":79,"max":176,"target":"present","response":"present","rt":901,"correct":true,"confidence":4},{"trial_n":139,"min":80,"max":175,"target":"present","response":"present","rt":756,"correct":true,"confidence":4},{"trial_n":140,"min":80,"max":175,"target":"present","response":"present","rt":1308,"correct":true,"confidence":3}]