[{"trial_n":1,"n_dots":4.25,"target":"right","response":"right","rt":2802,"correct":true,"confidence":-1},{"trial_n":2,"n_dots":4.25,"target":"right","response":"left","rt":3117,"correct":false,"confidence":-1},{"trial_n":3,"n_dots":4.65,"target":"left","response":"right","rt":1565,"correct":false,"confidence":-1},{"trial_n":4,"n_dots":5.05,"target":"left","response":"left","rt":511,"correct":true,"confidence":-1},{"trial_n":5,"n_dots":5.05,"target":"right","response":"right","rt":477.99999999999,"correct":true,"confidence":-1},{"trial_n":6,"n_dots":4.65,"target":"left","response":"left","rt":254.00000000001,"correct":true,"confidence":-1},{"trial_n":7,"n_dots":4.65,"target":"right","response":"right","rt":106,"correct":true,"confidence":-1},{"trial_n":8,"n_dots":4.45,"target":"left","response":"left","rt":2187,"correct":true,"confidence":-1},{"trial_n":9,"n_dots":4.45,"target":"right","response":"right","rt":401,"correct":true,"confidence":-1},{"trial_n":10,"n_dots":4.25,"target":"left","response":"left","rt":56,"correct":true,"confidence":-1},{"trial_n":11,"n_dots":4.25,"target":"right","response":"right","rt":104,"correct":true,"confidence":-1},{"trial_n":12,"n_dots":4.05,"target":"left","response":"left","rt":116,"correct":true,"confidence":-1},{"trial_n":13,"n_dots":4.05,"target":"right","response":"right","rt":685.99999999997,"correct":true,"confidence":-1},{"trial_n":14,"n_dots":3.95,"target":"right","response":"right","rt":417,"correct":true,"confidence":-1},{"trial_n":15,"n_dots":3.95,"target":"right","response":"left","rt":987,"correct":false,"confidence":-1},{"trial_n":16,"n_dots":4.05,"target":"left","response":"right","rt":1332,"correct":false,"confidence":-1},{"trial_n":17,"n_dots":4.15,"target":"left","response":"left","rt":171,"correct":true,"confidence":-1},{"trial_n":18,"n_dots":4.15,"target":"left","response":"left","rt":404,"correct":true,"confidence":-1},{"trial_n":19,"n_dots":4.05,"target":"right","response":"right","rt":564,"correct":true,"confidence":-1},{"trial_n":20,"n_dots":4.05,"target":"left","response":"left","rt":797,"correct":true,"confidence":-1},{"trial_n":21,"n_dots":3.95,"target":"right","response":"left","rt":459,"correct":false,"confidence":3},{"trial_n":22,"n_dots":4.05,"target":"left","response":"left","rt":464,"correct":true,"confidence":3},{"trial_n":23,"n_dots":4.05,"target":"right","response":"right","rt":153,"correct":true,"confidence":3},{"trial_n":24,"n_dots":3.95,"target":"left","response":"right","rt":59.999999999971,"correct":false,"confidence":1},{"trial_n":25,"n_dots":4.05,"target":"left","response":"left","rt":230,"correct":true,"confidence":4},{"trial_n":26,"n_dots":4.05,"target":"right","response":"right","rt":100,"correct":true,"confidence":3},{"trial_n":27,"n_dots":3.95,"target":"right","response":"right","rt":694,"correct":true,"confidence":1},{"trial_n":28,"n_dots":3.95,"target":"left","response":"left","rt":613,"correct":true,"confidence":3},{"trial_n":29,"n_dots":3.85,"target":"right","response":"right","rt":615,"correct":true,"confidence":3},{"trial_n":30,"n_dots":3.85,"target":"right","response":"right","rt":223,"correct":true,"confidence":3},{"trial_n":31,"n_dots":3.75,"target":"right","response":"right","rt":774,"correct":true,"confidence":2},{"trial_n":32,"n_dots":3.75,"target":"left","response":"right","rt":531,"correct":false,"confidence":2},{"trial_n":33,"n_dots":3.85,"target":"right","response":"right","rt":568,"correct":true,"confidence":3},{"trial_n":34,"n_dots":3.85,"target":"right","response":"left","rt":83,"correct":false,"confidence":3},{"trial_n":35,"n_dots":3.95,"target":"right","response":"right","rt":846,"correct":true,"confidence":3},{"trial_n":36,"n_dots":3.95,"target":"left","response":"left","rt":99.999999999971,"correct":true,"confidence":3},{"trial_n":37,"n_dots":3.85,"target":"right","response":"right","rt":632,"correct":true,"confidence":3},{"trial_n":38,"n_dots":3.85,"target":"right","response":"right","rt":1217,"correct":true,"confidence":3},{"trial_n":39,"n_dots":3.75,"target":"left","response":"left","rt":857,"correct":true,"confidence":3},{"trial_n":40,"n_dots":3.75,"target":"right","response":"right","rt":33.999999999971,"correct":true,"confidence":3},{"trial_n":41,"n_dots":3.65,"target":"right","response":"right","rt":3400.9999999999,"correct":true,"confidence":3},{"trial_n":42,"n_dots":3.65,"target":"right","response":"right","rt":1204,"correct":true,"confidence":4},{"trial_n":43,"n_dots":3.55,"target":"right","response":"right","rt":542,"correct":true,"confidence":3},{"trial_n":44,"n_dots":3.55,"target":"right","response":"right","rt":759,"correct":true,"confidence":3},{"trial_n":45,"n_dots":3.45,"target":"left","response":"right","rt":1602,"correct":false,"confidence":2},{"trial_n":46,"n_dots":3.55,"target":"right","response":"right","rt":1401,"correct":true,"confidence":4},{"trial_n":47,"n_dots":3.55,"target":"right","response":"right","rt":2135,"correct":true,"confidence":2},{"trial_n":48,"n_dots":3.45,"target":"right","response":"left","rt":913.99999999994,"correct":false,"confidence":3},{"trial_n":49,"n_dots":3.55,"target":"left","response":"left","rt":936.99999999994,"correct":true,"confidence":3},{"trial_n":50,"n_dots":3.55,"target":"right","response":"right","rt":972,"correct":true,"confidence":3},{"trial_n":51,"n_dots":3.45,"target":"left","response":"right","rt":808,"correct":false,"confidence":4},{"trial_n":52,"n_dots":3.55,"target":"left","response":"left","rt":485,"correct":true,"confidence":5},{"trial_n":53,"n_dots":3.55,"target":"left","response":"left","rt":794,"correct":true,"confidence":4},{"trial_n":54,"n_dots":3.45,"target":"left","response":"right","rt":1210.0000000001,"correct":false,"confidence":4},{"trial_n":55,"n_dots":3.55,"target":"left","response":"left","rt":524,"correct":true,"confidence":3},{"trial_n":56,"n_dots":3.55,"target":"right","response":"right","rt":1006,"correct":true,"confidence":5},{"trial_n":57,"n_dots":3.45,"target":"right","response":"right","rt":709.99999999994,"correct":true,"confidence":4},{"trial_n":58,"n_dots":3.45,"target":"left","response":"right","rt":721,"correct":false,"confidence":4},{"trial_n":59,"n_dots":3.55,"target":"right","response":"right","rt":808,"correct":true,"confidence":3},{"trial_n":60,"n_dots":3.55,"target":"right","response":"right","rt":201,"correct":true,"confidence":4},{"trial_n":61,"n_dots":3.45,"target":"right","response":"right","rt":242.00000000006,"correct":true,"confidence":4},{"trial_n":62,"n_dots":3.45,"target":"left","response":"left","rt":1833,"correct":true,"confidence":2},{"trial_n":63,"n_dots":3.35,"target":"left","response":"left","rt":436,"correct":true,"confidence":5},{"trial_n":64,"n_dots":3.35,"target":"left","response":"right","rt":615,"correct":false,"confidence":4},{"trial_n":65,"n_dots":3.45,"target":"right","response":"right","rt":1522,"correct":true,"confidence":3},{"trial_n":66,"n_dots":3.45,"target":"left","response":"left","rt":832,"correct":true,"confidence":3},{"trial_n":67,"n_dots":3.35,"target":"left","response":"right","rt":728,"correct":false,"confidence":4},{"trial_n":68,"n_dots":3.45,"target":"right","response":"left","rt":687,"correct":false,"confidence":3},{"trial_n":69,"n_dots":3.55,"target":"right","response":"right","rt":356,"correct":true,"confidence":3},{"trial_n":70,"n_dots":3.55,"target":"right","response":"right","rt":2812,"correct":true,"confidence":4},{"trial_n":71,"n_dots":3.45,"target":"right","response":"right","rt":501,"correct":true,"confidence":3},{"trial_n":72,"n_dots":3.45,"target":"right","response":"right","rt":227,"correct":true,"confidence":4},{"trial_n":73,"n_dots":3.35,"target":"left","response":"right","rt":128.99999999988,"correct":false,"confidence":2},{"trial_n":74,"n_dots":3.45,"target":"left","response":"left","rt":380,"correct":true,"confidence":5},{"trial_n":75,"n_dots":3.45,"target":"right","response":"right","rt":366,"correct":true,"confidence":4},{"trial_n":76,"n_dots":3.35,"target":"left","response":"left","rt":178,"correct":true,"confidence":1},{"trial_n":77,"n_dots":3.35,"target":"left","response":"right","rt":517,"correct":false,"confidence":3},{"trial_n":78,"n_dots":3.45,"target":"right","response":"right","rt":637.99999999988,"correct":true,"confidence":4},{"trial_n":79,"n_dots":3.45,"target":"right","response":"right","rt":171,"correct":true,"confidence":3},{"trial_n":80,"n_dots":3.35,"target":"left","response":"left","rt":1123,"correct":true,"confidence":4},{"trial_n":81,"n_dots":3.35,"target":"right","response":"right","rt":306.99999999988,"correct":true,"confidence":4},{"trial_n":82,"n_dots":3.25,"target":"right","response":"left","rt":1004,"correct":false,"confidence":4},{"trial_n":83,"n_dots":3.35,"target":"left","response":"left","rt":808,"correct":true,"confidence":3},{"trial_n":84,"n_dots":3.35,"target":"left","response":"right","rt":171,"correct":false,"confidence":4},{"trial_n":85,"n_dots":3.45,"target":"left","response":"right","rt":105,"correct":false,"confidence":4},{"trial_n":86,"n_dots":3.55,"target":"left","response":"left","rt":512,"correct":true,"confidence":4},{"trial_n":87,"n_dots":3.55,"target":"left","response":"left","rt":231,"correct":true,"confidence":5},{"trial_n":88,"n_dots":3.45,"target":"left","response":"left","rt":490,"correct":true,"confidence":4},{"trial_n":89,"n_dots":3.45,"target":"right","response":"right","rt":112.00000000012,"correct":true,"confidence":4},{"trial_n":90,"n_dots":3.35,"target":"right","response":"right","rt":662,"correct":true,"confidence":4},{"trial_n":91,"n_dots":3.35,"target":"right","response":"right","rt":195,"correct":true,"confidence":4},{"trial_n":92,"n_dots":3.25,"target":"left","response":"right","rt":665,"correct":false,"confidence":4},{"trial_n":93,"n_dots":3.35,"target":"left","response":"left","rt":435,"correct":true,"confidence":5},{"trial_n":94,"n_dots":3.35,"target":"left","response":"left","rt":412,"correct":true,"confidence":4},{"trial_n":95,"n_dots":3.25,"target":"left","response":"left","rt":573.99999999988,"correct":true,"confidence":4},{"trial_n":96,"n_dots":3.25,"target":"right","response":"right","rt":501,"correct":true,"confidence":4},{"trial_n":97,"n_dots":3.15,"target":"left","response":"left","rt":601,"correct":true,"confidence":2},{"trial_n":98,"n_dots":3.15,"target":"left","response":"left","rt":810,"correct":true,"confidence":3},{"trial_n":99,"n_dots":3.05,"target":"right","response":"right","rt":283.99999999988,"correct":true,"confidence":4},{"trial_n":100,"n_dots":3.05,"target":"right","response":"right","rt":399,"correct":true,"confidence":4},{"trial_n":101,"n_dots":2.95,"target":"left","response":"right","rt":355,"correct":false,"confidence":4},{"trial_n":102,"n_dots":3.05,"target":"right","response":"right","rt":164,"correct":true,"confidence":4},{"trial_n":103,"n_dots":3.05,"target":"left","response":"left","rt":866,"correct":true,"confidence":4},{"trial_n":104,"n_dots":2.95,"target":"right","response":"right","rt":275,"correct":true,"confidence":4},{"trial_n":105,"n_dots":2.95,"target":"right","response":"right","rt":397,"correct":true,"confidence":4},{"trial_n":106,"n_dots":2.85,"target":"left","response":"right","rt":388,"correct":false,"confidence":4},{"trial_n":107,"n_dots":2.95,"target":"left","response":"right","rt":834,"correct":false,"confidence":4},{"trial_n":108,"n_dots":3.05,"target":"left","response":"right","rt":574.99999999988,"correct":false,"confidence":4},{"trial_n":109,"n_dots":3.15,"target":"right","response":"right","rt":540.99999999988,"correct":true,"confidence":4},{"trial_n":110,"n_dots":3.15,"target":"right","response":"right","rt":866.99999999988,"correct":true,"confidence":4},{"trial_n":111,"n_dots":3.05,"target":"left","response":"right","rt":332,"correct":false,"confidence":4},{"trial_n":112,"n_dots":3.15,"target":"left","response":"right","rt":583,"correct":false,"confidence":3},{"trial_n":113,"n_dots":3.25,"target":"left","response":"right","rt":868,"correct":false,"confidence":3},{"trial_n":114,"n_dots":3.35,"target":"left","response":"left","rt":406.00000000012,"correct":true,"confidence":3},{"trial_n":115,"n_dots":3.35,"target":"right","response":"right","rt":576,"correct":true,"confidence":4},{"trial_n":116,"n_dots":3.25,"target":"left","response":"left","rt":746.00000000012,"correct":true,"confidence":4},{"trial_n":117,"n_dots":3.25,"target":"left","response":"left","rt":517,"correct":true,"confidence":4},{"trial_n":118,"n_dots":3.15,"target":"right","response":"right","rt":752.99999999988,"correct":true,"confidence":4},{"trial_n":119,"n_dots":3.15,"target":"left","response":"left","rt":867,"correct":true,"confidence":4},{"trial_n":120,"n_dots":3.05,"target":"left","response":"right","rt":9821.9999999999,"correct":false,"confidence":3}]