[{"trial_n":1,"n_dots":4.25,"target":"right","response":"left","rt":8664.9999999998,"correct":false,"confidence":-1},{"trial_n":2,"n_dots":4.25,"target":"left","response":"left","rt":1054,"correct":true,"confidence":-1},{"trial_n":3,"n_dots":4.25,"target":"right","response":"right","rt":854.99999999977,"correct":true,"confidence":-1},{"trial_n":4,"n_dots":3.85,"target":"right","response":"right","rt":920,"correct":true,"confidence":-1},{"trial_n":5,"n_dots":3.85,"target":"right","response":"right","rt":741,"correct":true,"confidence":-1},{"trial_n":6,"n_dots":3.45,"target":"left","response":"left","rt":404,"correct":true,"confidence":-1},{"trial_n":7,"n_dots":3.45,"target":"left","response":"left","rt":522,"correct":true,"confidence":-1},{"trial_n":8,"n_dots":3.25,"target":"right","response":"left","rt":337,"correct":false,"confidence":-1},{"trial_n":9,"n_dots":3.45,"target":"right","response":"left","rt":872.00000000023,"correct":false,"confidence":-1},{"trial_n":10,"n_dots":3.65,"target":"right","response":"right","rt":319.00000000023,"correct":true,"confidence":-1},{"trial_n":11,"n_dots":3.65,"target":"left","response":"right","rt":1105,"correct":false,"confidence":-1},{"trial_n":12,"n_dots":3.85,"target":"left","response":"right","rt":905,"correct":false,"confidence":-1},{"trial_n":13,"n_dots":3.95,"target":"right","response":"right","rt":703.99999999977,"correct":true,"confidence":-1},{"trial_n":14,"n_dots":3.95,"target":"left","response":"left","rt":936,"correct":true,"confidence":-1},{"trial_n":15,"n_dots":3.85,"target":"right","response":"right","rt":821,"correct":true,"confidence":-1},{"trial_n":16,"n_dots":3.85,"target":"right","response":"right","rt":556,"correct":true,"confidence":-1},{"trial_n":17,"n_dots":3.75,"target":"left","response":"left","rt":555,"correct":true,"confidence":-1},{"trial_n":18,"n_dots":3.75,"target":"right","response":"right","rt":555,"correct":true,"confidence":-1},{"trial_n":19,"n_dots":3.65,"target":"right","response":"right","rt":340,"correct":true,"confidence":-1},{"trial_n":20,"n_dots":3.65,"target":"left","response":"left","rt":473,"correct":true,"confidence":-1},{"trial_n":21,"n_dots":3.55,"target":"left","response":"left","rt":591,"correct":true,"confidence":2},{"trial_n":22,"n_dots":3.55,"target":"left","response":"left","rt":342,"correct":true,"confidence":2},{"trial_n":23,"n_dots":3.45,"target":"right","response":"right","rt":1525.9999999998,"correct":true,"confidence":2},{"trial_n":24,"n_dots":3.45,"target":"left","response":"left","rt":909,"correct":true,"confidence":1},{"trial_n":25,"n_dots":3.35,"target":"left","response":"left","rt":2126,"correct":true,"confidence":1},{"trial_n":26,"n_dots":3.35,"target":"left","response":"left","rt":775,"correct":true,"confidence":3},{"trial_n":27,"n_dots":3.25,"target":"left","response":"left","rt":1475,"correct":true,"confidence":2},{"trial_n":28,"n_dots":3.25,"target":"right","response":"right","rt":2460,"correct":true,"confidence":1},{"trial_n":29,"n_dots":3.15,"target":"right","response":"right","rt":1192.9999999998,"correct":true,"confidence":2},{"trial_n":30,"n_dots":3.15,"target":"left","response":"left","rt":891.99999999977,"correct":true,"confidence":1},{"trial_n":31,"n_dots":3.05,"target":"left","response":"left","rt":361.00000000023,"correct":true,"confidence":3},{"trial_n":32,"n_dots":3.05,"target":"right","response":"left","rt":611,"correct":false,"confidence":3},{"trial_n":33,"n_dots":3.15,"target":"right","response":"left","rt":909,"correct":false,"confidence":3},{"trial_n":34,"n_dots":3.25,"target":"right","response":"left","rt":509,"correct":false,"confidence":4},{"trial_n":35,"n_dots":3.35,"target":"left","response":"left","rt":577,"correct":true,"confidence":5},{"trial_n":36,"n_dots":3.35,"target":"right","response":"left","rt":1043,"correct":false,"confidence":2},{"trial_n":37,"n_dots":3.45,"target":"right","response":"left","rt":309,"correct":false,"confidence":3},{"trial_n":38,"n_dots":3.55,"target":"left","response":"left","rt":693,"correct":true,"confidence":3},{"trial_n":39,"n_dots":3.55,"target":"left","response":"left","rt":710,"correct":true,"confidence":2},{"trial_n":40,"n_dots":3.45,"target":"left","response":"left","rt":725.99999999977,"correct":true,"confidence":3},{"trial_n":41,"n_dots":3.45,"target":"left","response":"left","rt":601,"correct":true,"confidence":2},{"trial_n":42,"n_dots":3.35,"target":"right","response":"right","rt":528,"correct":true,"confidence":2},{"trial_n":43,"n_dots":3.35,"target":"right","response":"left","rt":760,"correct":false,"confidence":2},{"trial_n":44,"n_dots":3.45,"target":"right","response":"right","rt":777.00000000023,"correct":true,"confidence":2},{"trial_n":45,"n_dots":3.45,"target":"left","response":"left","rt":659,"correct":true,"confidence":2},{"trial_n":46,"n_dots":3.35,"target":"right","response":"right","rt":597.00000000023,"correct":true,"confidence":3},{"trial_n":47,"n_dots":3.35,"target":"left","response":"left","rt":511,"correct":true,"confidence":2},{"trial_n":48,"n_dots":3.25,"target":"left","response":"left","rt":1029.9999999998,"correct":true,"confidence":1},{"trial_n":49,"n_dots":3.25,"target":"right","response":"right","rt":1228.0000000002,"correct":true,"confidence":1},{"trial_n":50,"n_dots":3.15,"target":"left","response":"left","rt":1444.9999999998,"correct":true,"confidence":1},{"trial_n":51,"n_dots":3.15,"target":"right","response":"right","rt":846,"correct":true,"confidence":1},{"trial_n":52,"n_dots":3.05,"target":"right","response":"right","rt":828,"correct":true,"confidence":2},{"trial_n":53,"n_dots":3.05,"target":"right","response":"left","rt":1562,"correct":false,"confidence":1},{"trial_n":54,"n_dots":3.15,"target":"left","response":"left","rt":1230,"correct":true,"confidence":1},{"trial_n":55,"n_dots":3.15,"target":"left","response":"left","rt":1029,"correct":true,"confidence":1},{"trial_n":56,"n_dots":3.05,"target":"left","response":"left","rt":830,"correct":true,"confidence":2},{"trial_n":57,"n_dots":3.05,"target":"left","response":"right","rt":1546.0000000002,"correct":false,"confidence":1},{"trial_n":58,"n_dots":3.15,"target":"right","response":"right","rt":746.00000000023,"correct":true,"confidence":1},{"trial_n":59,"n_dots":3.15,"target":"left","response":"left","rt":1744.9999999998,"correct":true,"confidence":1},{"trial_n":60,"n_dots":3.05,"target":"right","response":"right","rt":815,"correct":true,"confidence":2},{"trial_n":61,"n_dots":3.05,"target":"left","response":"left","rt":799,"correct":true,"confidence":1},{"trial_n":62,"n_dots":2.95,"target":"right","response":"right","rt":333,"correct":true,"confidence":2},{"trial_n":63,"n_dots":2.95,"target":"left","response":"left","rt":336,"correct":true,"confidence":1},{"trial_n":64,"n_dots":2.85,"target":"left","response":"right","rt":1183,"correct":false,"confidence":1},{"trial_n":65,"n_dots":2.95,"target":"left","response":"left","rt":1366,"correct":true,"confidence":1},{"trial_n":66,"n_dots":2.95,"target":"right","response":"right","rt":951,"correct":true,"confidence":1},{"trial_n":67,"n_dots":2.85,"target":"right","response":"right","rt":901,"correct":true,"confidence":3},{"trial_n":68,"n_dots":2.85,"target":"right","response":"right","rt":1035,"correct":true,"confidence":2},{"trial_n":69,"n_dots":2.75,"target":"left","response":"left","rt":467,"correct":true,"confidence":3},{"trial_n":70,"n_dots":2.75,"target":"left","response":"left","rt":902,"correct":true,"confidence":3},{"trial_n":71,"n_dots":2.65,"target":"right","response":"left","rt":1185,"correct":false,"confidence":1},{"trial_n":72,"n_dots":2.75,"target":"left","response":"right","rt":1086.0000000005,"correct":false,"confidence":2},{"trial_n":73,"n_dots":2.85,"target":"right","response":"right","rt":750,"correct":true,"confidence":2},{"trial_n":74,"n_dots":2.85,"target":"right","response":"right","rt":970.00000000047,"correct":true,"confidence":2},{"trial_n":75,"n_dots":2.75,"target":"left","response":"left","rt":433,"correct":true,"confidence":1},{"trial_n":76,"n_dots":2.75,"target":"right","response":"left","rt":1002.0000000005,"correct":false,"confidence":2},{"trial_n":77,"n_dots":2.85,"target":"right","response":"right","rt":1251.0000000005,"correct":true,"confidence":1},{"trial_n":78,"n_dots":2.85,"target":"left","response":"left","rt":470,"correct":true,"confidence":2},{"trial_n":79,"n_dots":2.75,"target":"left","response":"left","rt":1053,"correct":true,"confidence":1},{"trial_n":80,"n_dots":2.75,"target":"right","response":"right","rt":1168,"correct":true,"confidence":1},{"trial_n":81,"n_dots":2.65,"target":"left","response":"left","rt":1402,"correct":true,"confidence":1},{"trial_n":82,"n_dots":2.65,"target":"left","response":"right","rt":572,"correct":false,"confidence":1},{"trial_n":83,"n_dots":2.75,"target":"right","response":"left","rt":921,"correct":false,"confidence":1},{"trial_n":84,"n_dots":2.85,"target":"left","response":"left","rt":861.00000000047,"correct":true,"confidence":1},{"trial_n":85,"n_dots":2.85,"target":"left","response":"left","rt":784,"correct":true,"confidence":2},{"trial_n":86,"n_dots":2.75,"target":"left","response":"left","rt":718,"correct":true,"confidence":1},{"trial_n":87,"n_dots":2.75,"target":"right","response":"left","rt":1271,"correct":false,"confidence":2},{"trial_n":88,"n_dots":2.85,"target":"left","response":"left","rt":1338,"correct":true,"confidence":1},{"trial_n":89,"n_dots":2.85,"target":"right","response":"left","rt":1154,"correct":false,"confidence":2},{"trial_n":90,"n_dots":2.95,"target":"left","response":"right","rt":1170,"correct":false,"confidence":1},{"trial_n":91,"n_dots":3.05,"target":"left","response":"left","rt":837,"correct":true,"confidence":2},{"trial_n":92,"n_dots":3.05,"target":"right","response":"right","rt":756,"correct":true,"confidence":3},{"trial_n":93,"n_dots":2.95,"target":"left","response":"left","rt":686,"correct":true,"confidence":3},{"trial_n":94,"n_dots":2.95,"target":"right","response":"left","rt":653,"correct":false,"confidence":3},{"trial_n":95,"n_dots":3.05,"target":"right","response":"right","rt":1438,"correct":true,"confidence":1},{"trial_n":96,"n_dots":3.05,"target":"left","response":"left","rt":437.99999999953,"correct":true,"confidence":5},{"trial_n":97,"n_dots":2.95,"target":"right","response":"left","rt":524,"correct":false,"confidence":3},{"trial_n":98,"n_dots":3.05,"target":"right","response":"left","rt":1021,"correct":false,"confidence":1},{"trial_n":99,"n_dots":3.15,"target":"left","response":"left","rt":387,"correct":true,"confidence":4},{"trial_n":100,"n_dots":3.15,"target":"right","response":"left","rt":1054,"correct":false,"confidence":2},{"trial_n":101,"n_dots":3.25,"target":"right","response":"right","rt":338,"correct":true,"confidence":2},{"trial_n":102,"n_dots":3.25,"target":"left","response":"left","rt":1252.0000000005,"correct":true,"confidence":1},{"trial_n":103,"n_dots":3.15,"target":"right","response":"right","rt":1355.0000000005,"correct":true,"confidence":2},{"trial_n":104,"n_dots":3.15,"target":"left","response":"left","rt":573,"correct":true,"confidence":2},{"trial_n":105,"n_dots":3.05,"target":"left","response":"left","rt":524,"correct":true,"confidence":2},{"trial_n":106,"n_dots":3.05,"target":"left","response":"right","rt":1072.0000000005,"correct":false,"confidence":1},{"trial_n":107,"n_dots":3.15,"target":"right","response":"right","rt":957.00000000047,"correct":true,"confidence":1},{"trial_n":108,"n_dots":3.15,"target":"left","response":"left","rt":857,"correct":true,"confidence":3},{"trial_n":109,"n_dots":3.05,"target":"left","response":"left","rt":757,"correct":true,"confidence":2},{"trial_n":110,"n_dots":3.05,"target":"right","response":"right","rt":759,"correct":true,"confidence":3},{"trial_n":111,"n_dots":2.95,"target":"left","response":"left","rt":242,"correct":true,"confidence":3},{"trial_n":112,"n_dots":2.95,"target":"right","response":"right","rt":1258,"correct":true,"confidence":1},{"trial_n":113,"n_dots":2.85,"target":"left","response":"left","rt":543,"correct":true,"confidence":4},{"trial_n":114,"n_dots":2.85,"target":"right","response":"right","rt":761,"correct":true,"confidence":2},{"trial_n":115,"n_dots":2.75,"target":"right","response":"left","rt":726,"correct":false,"confidence":1},{"trial_n":116,"n_dots":2.85,"target":"right","response":"right","rt":541,"correct":true,"confidence":2},{"trial_n":117,"n_dots":2.85,"target":"right","response":"right","rt":842,"correct":true,"confidence":1},{"trial_n":118,"n_dots":2.75,"target":"right","response":"right","rt":875,"correct":true,"confidence":2},{"trial_n":119,"n_dots":2.75,"target":"left","response":"left","rt":759,"correct":true,"confidence":1},{"trial_n":120,"n_dots":2.65,"target":"right","response":"right","rt":526,"correct":true,"confidence":2}]