[{"trial_n":1,"min":25,"max":230,"target":"present","response":"present","rt":4225.0000000001,"correct":true,"confidence":-1},{"trial_n":2,"min":25,"max":230,"target":"present","response":"present","rt":926,"correct":true,"confidence":-1},{"trial_n":3,"min":41,"max":214,"target":"absent","response":"absent","rt":1253,"correct":true,"confidence":-1},{"trial_n":4,"min":41,"max":214,"target":"absent","response":"absent","rt":1587,"correct":true,"confidence":-1},{"trial_n":5,"min":57,"max":198,"target":"present","response":"present","rt":2478.9999999999,"correct":true,"confidence":-1},{"trial_n":6,"min":57,"max":198,"target":"present","response":"present","rt":669.00000000012,"correct":true,"confidence":-1},{"trial_n":7,"min":73,"max":182,"target":"absent","response":"absent","rt":535,"correct":true,"confidence":-1},{"trial_n":8,"min":73,"max":182,"target":"absent","response":"absent","rt":339.00000000012,"correct":true,"confidence":-1},{"trial_n":9,"min":89,"max":166,"target":"present","response":"absent","rt":349,"correct":false,"confidence":-1},{"trial_n":10,"min":73,"max":182,"target":"present","response":"present","rt":279,"correct":true,"confidence":-1},{"trial_n":11,"min":73,"max":182,"target":"present","response":"present","rt":1820,"correct":true,"confidence":-1},{"trial_n":12,"min":81,"max":174,"target":"absent","response":"absent","rt":319,"correct":true,"confidence":-1},{"trial_n":13,"min":81,"max":174,"target":"absent","response":"absent","rt":334,"correct":true,"confidence":-1},{"trial_n":14,"min":89,"max":166,"target":"present","response":"absent","rt":257,"correct":false,"confidence":-1},{"trial_n":15,"min":81,"max":174,"target":"present","response":"absent","rt":180.99999999988,"correct":false,"confidence":-1},{"trial_n":16,"min":73,"max":182,"target":"present","response":"absent","rt":865.00000000012,"correct":false,"confidence":-1},{"trial_n":17,"min":65,"max":190,"target":"present","response":"absent","rt":541.00000000012,"correct":false,"confidence":-1},{"trial_n":18,"min":57,"max":198,"target":"absent","response":"absent","rt":275,"correct":true,"confidence":-1},{"trial_n":19,"min":57,"max":198,"target":"absent","response":"absent","rt":555,"correct":true,"confidence":-1},{"trial_n":20,"min":65,"max":190,"target":"present","response":"absent","rt":331,"correct":false,"confidence":-1},{"trial_n":21,"min":61,"max":194,"target":"absent","response":"present","rt":4228,"correct":false,"confidence":2},{"trial_n":22,"min":57,"max":198,"target":"absent","response":"absent","rt":1189,"correct":true,"confidence":2},{"trial_n":23,"min":57,"max":198,"target":"present","response":"present","rt":1164,"correct":true,"confidence":2},{"trial_n":24,"min":61,"max":194,"target":"absent","response":"absent","rt":1638,"correct":true,"confidence":3},{"trial_n":25,"min":61,"max":194,"target":"present","response":"present","rt":913,"correct":true,"confidence":4},{"trial_n":26,"min":65,"max":190,"target":"absent","response":"absent","rt":1222,"correct":true,"confidence":1},{"trial_n":27,"min":65,"max":190,"target":"absent","response":"absent","rt":1889,"correct":true,"confidence":2},{"trial_n":28,"min":69,"max":186,"target":"present","response":"present","rt":851,"correct":true,"confidence":2},{"trial_n":29,"min":69,"max":186,"target":"absent","response":"absent","rt":1223,"correct":true,"confidence":2},{"trial_n":30,"min":73,"max":182,"target":"absent","response":"absent","rt":1524,"correct":true,"confidence":2},{"trial_n":31,"min":73,"max":182,"target":"absent","response":"absent","rt":1508,"correct":true,"confidence":2},{"trial_n":32,"min":75,"max":180,"target":"present","response":"absent","rt":1133,"correct":false,"confidence":2},{"trial_n":33,"min":73,"max":182,"target":"absent","response":"absent","rt":1325.0000000001,"correct":true,"confidence":2},{"trial_n":34,"min":73,"max":182,"target":"present","response":"absent","rt":1133.9999999999,"correct":false,"confidence":2},{"trial_n":35,"min":71,"max":184,"target":"present","response":"absent","rt":1050.9999999999,"correct":false,"confidence":2},{"trial_n":36,"min":69,"max":186,"target":"absent","response":"absent","rt":1208,"correct":true,"confidence":2},{"trial_n":37,"min":69,"max":186,"target":"absent","response":"absent","rt":942,"correct":true,"confidence":3},{"trial_n":38,"min":71,"max":184,"target":"present","response":"present","rt":1017.9999999999,"correct":true,"confidence":4},{"trial_n":39,"min":71,"max":184,"target":"present","response":"present","rt":1217,"correct":true,"confidence":5},{"trial_n":40,"min":73,"max":182,"target":"present","response":"absent","rt":820.99999999988,"correct":false,"confidence":3},{"trial_n":41,"min":72,"max":183,"target":"absent","response":"present","rt":1208.0000000001,"correct":false,"confidence":1},{"trial_n":42,"min":71,"max":184,"target":"absent","response":"present","rt":1409,"correct":false,"confidence":2},{"trial_n":43,"min":70,"max":185,"target":"present","response":"present","rt":900,"correct":true,"confidence":2},{"trial_n":44,"min":70,"max":185,"target":"present","response":"present","rt":1267,"correct":true,"confidence":3},{"trial_n":45,"min":71,"max":184,"target":"absent","response":"absent","rt":1076,"correct":true,"confidence":3},{"trial_n":46,"min":71,"max":184,"target":"present","response":"absent","rt":1755,"correct":false,"confidence":4},{"trial_n":47,"min":70,"max":185,"target":"present","response":"present","rt":969,"correct":true,"confidence":2},{"trial_n":48,"min":70,"max":185,"target":"present","response":"present","rt":871,"correct":true,"confidence":4},{"trial_n":49,"min":71,"max":184,"target":"absent","response":"absent","rt":973.99999999988,"correct":true,"confidence":4},{"trial_n":50,"min":71,"max":184,"target":"present","response":"present","rt":2067,"correct":true,"confidence":1},{"trial_n":51,"min":72,"max":183,"target":"present","response":"absent","rt":1387,"correct":false,"confidence":2},{"trial_n":52,"min":71,"max":184,"target":"present","response":"absent","rt":1153.0000000001,"correct":false,"confidence":1},{"trial_n":53,"min":70,"max":185,"target":"absent","response":"absent","rt":943,"correct":true,"confidence":3},{"trial_n":54,"min":70,"max":185,"target":"absent","response":"absent","rt":1125.9999999999,"correct":true,"confidence":3},{"trial_n":55,"min":71,"max":184,"target":"absent","response":"absent","rt":910,"correct":true,"confidence":3},{"trial_n":56,"min":71,"max":184,"target":"absent","response":"absent","rt":844.00000000012,"correct":true,"confidence":3},{"trial_n":57,"min":72,"max":183,"target":"present","response":"present","rt":1140.0000000001,"correct":true,"confidence":2},{"trial_n":58,"min":72,"max":183,"target":"absent","response":"absent","rt":1045,"correct":true,"confidence":3},{"trial_n":59,"min":73,"max":182,"target":"present","response":"absent","rt":891.00000000012,"correct":false,"confidence":3},{"trial_n":60,"min":72,"max":183,"target":"present","response":"absent","rt":870,"correct":false,"confidence":3},{"trial_n":61,"min":71,"max":184,"target":"present","response":"present","rt":869,"correct":true,"confidence":5},{"trial_n":62,"min":71,"max":184,"target":"absent","response":"absent","rt":926,"correct":true,"confidence":3},{"trial_n":63,"min":72,"max":183,"target":"absent","response":"absent","rt":2043.9999999999,"correct":true,"confidence":2},{"trial_n":64,"min":72,"max":183,"target":"absent","response":"absent","rt":862,"correct":true,"confidence":2},{"trial_n":65,"min":73,"max":182,"target":"absent","response":"absent","rt":827,"correct":true,"confidence":2},{"trial_n":66,"min":73,"max":182,"target":"present","response":"present","rt":1308,"correct":true,"confidence":4},{"trial_n":67,"min":74,"max":181,"target":"absent","response":"absent","rt":943.99999999988,"correct":true,"confidence":2},{"trial_n":68,"min":74,"max":181,"target":"present","response":"absent","rt":1320,"correct":false,"confidence":2},{"trial_n":69,"min":73,"max":182,"target":"absent","response":"present","rt":1444,"correct":false,"confidence":1},{"trial_n":70,"min":72,"max":183,"target":"present","response":"present","rt":1118.9999999999,"correct":true,"confidence":1},{"trial_n":71,"min":41,"max":214,"target":"present","response":"present","rt":1419,"correct":true,"confidence":-1},{"trial_n":72,"min":41,"max":214,"target":"present","response":"absent","rt":1703,"correct":false,"confidence":-1},{"trial_n":73,"min":25,"max":230,"target":"absent","response":"absent","rt":1768,"correct":true,"confidence":-1},{"trial_n":74,"min":25,"max":230,"target":"absent","response":"absent","rt":828,"correct":true,"confidence":-1},{"trial_n":75,"min":41,"max":214,"target":"present","response":"present","rt":577,"correct":true,"confidence":-1},{"trial_n":76,"min":41,"max":214,"target":"absent","response":"absent","rt":532,"correct":true,"confidence":-1},{"trial_n":77,"min":57,"max":198,"target":"absent","response":"present","rt":651,"correct":false,"confidence":-1},{"trial_n":78,"min":41,"max":214,"target":"present","response":"present","rt":1428,"correct":true,"confidence":-1},{"trial_n":79,"min":41,"max":214,"target":"present","response":"present","rt":660.99999999988,"correct":true,"confidence":-1},{"trial_n":80,"min":57,"max":198,"target":"present","response":"present","rt":615,"correct":true,"confidence":-1},{"trial_n":81,"min":57,"max":198,"target":"absent","response":"absent","rt":546,"correct":true,"confidence":-1},{"trial_n":82,"min":65,"max":190,"target":"absent","response":"absent","rt":800.00000000012,"correct":true,"confidence":-1},{"trial_n":83,"min":65,"max":190,"target":"present","response":"present","rt":563,"correct":true,"confidence":-1},{"trial_n":84,"min":73,"max":182,"target":"absent","response":"absent","rt":1058.9999999999,"correct":true,"confidence":-1},{"trial_n":85,"min":73,"max":182,"target":"present","response":"present","rt":568,"correct":true,"confidence":-1},{"trial_n":86,"min":81,"max":174,"target":"present","response":"present","rt":591,"correct":true,"confidence":-1},{"trial_n":87,"min":81,"max":174,"target":"present","response":"absent","rt":1001.9999999999,"correct":false,"confidence":-1},{"trial_n":88,"min":73,"max":182,"target":"present","response":"present","rt":724,"correct":true,"confidence":-1},{"trial_n":89,"min":73,"max":182,"target":"absent","response":"present","rt":1089,"correct":false,"confidence":-1},{"trial_n":90,"min":65,"max":190,"target":"present","response":"present","rt":989.00000000012,"correct":true,"confidence":-1},{"trial_n":91,"min":65,"max":190,"target":"present","response":"present","rt":1001,"correct":true,"confidence":3},{"trial_n":92,"min":69,"max":186,"target":"present","response":"absent","rt":1128,"correct":false,"confidence":1},{"trial_n":93,"min":65,"max":190,"target":"absent","response":"absent","rt":899,"correct":true,"confidence":3},{"trial_n":94,"min":65,"max":190,"target":"absent","response":"absent","rt":714,"correct":true,"confidence":2},{"trial_n":95,"min":69,"max":186,"target":"absent","response":"absent","rt":1383.0000000001,"correct":true,"confidence":3},{"trial_n":96,"min":69,"max":186,"target":"present","response":"present","rt":581,"correct":true,"confidence":4},{"trial_n":97,"min":73,"max":182,"target":"absent","response":"absent","rt":540,"correct":true,"confidence":5},{"trial_n":98,"min":73,"max":182,"target":"absent","response":"present","rt":1224.9999999999,"correct":false,"confidence":3},{"trial_n":99,"min":69,"max":186,"target":"absent","response":"absent","rt":734.00000000023,"correct":true,"confidence":4},{"trial_n":100,"min":69,"max":186,"target":"absent","response":"present","rt":1011,"correct":false,"confidence":1},{"trial_n":101,"min":67,"max":188,"target":"present","response":"present","rt":700.00000000012,"correct":true,"confidence":2},{"trial_n":102,"min":67,"max":188,"target":"absent","response":"absent","rt":999,"correct":true,"confidence":4},{"trial_n":103,"min":69,"max":186,"target":"present","response":"present","rt":896,"correct":true,"confidence":2},{"trial_n":104,"min":69,"max":186,"target":"present","response":"present","rt":544.00000000012,"correct":true,"confidence":3},{"trial_n":105,"min":71,"max":184,"target":"present","response":"present","rt":575,"correct":true,"confidence":4},{"trial_n":106,"min":71,"max":184,"target":"absent","response":"absent","rt":516,"correct":true,"confidence":4},{"trial_n":107,"min":73,"max":182,"target":"present","response":"present","rt":706,"correct":true,"confidence":4},{"trial_n":108,"min":73,"max":182,"target":"present","response":"present","rt":594.99999999977,"correct":true,"confidence":4},{"trial_n":109,"min":75,"max":180,"target":"present","response":"present","rt":593,"correct":true,"confidence":4},{"trial_n":110,"min":75,"max":180,"target":"absent","response":"present","rt":713,"correct":false,"confidence":1},{"trial_n":111,"min":74,"max":181,"target":"present","response":"present","rt":785,"correct":true,"confidence":4},{"trial_n":112,"min":74,"max":181,"target":"present","response":"present","rt":587,"correct":true,"confidence":4},{"trial_n":113,"min":75,"max":180,"target":"present","response":"present","rt":620.99999999977,"correct":true,"confidence":5},{"trial_n":114,"min":75,"max":180,"target":"absent","response":"absent","rt":1179.9999999998,"correct":true,"confidence":1},{"trial_n":115,"min":76,"max":179,"target":"present","response":"present","rt":573,"correct":true,"confidence":3},{"trial_n":116,"min":76,"max":179,"target":"present","response":"present","rt":965,"correct":true,"confidence":3},{"trial_n":117,"min":77,"max":178,"target":"absent","response":"present","rt":1226.9999999998,"correct":false,"confidence":2},{"trial_n":118,"min":76,"max":179,"target":"absent","response":"absent","rt":779,"correct":true,"confidence":1},{"trial_n":119,"min":76,"max":179,"target":"absent","response":"absent","rt":1230,"correct":true,"confidence":1},{"trial_n":120,"min":77,"max":178,"target":"absent","response":"absent","rt":1405,"correct":true,"confidence":1},{"trial_n":121,"min":77,"max":178,"target":"absent","response":"absent","rt":931.00000000023,"correct":true,"confidence":1},{"trial_n":122,"min":78,"max":177,"target":"present","response":"present","rt":1642,"correct":true,"confidence":3},{"trial_n":123,"min":78,"max":177,"target":"present","response":"present","rt":937,"correct":true,"confidence":3},{"trial_n":124,"min":79,"max":176,"target":"absent","response":"absent","rt":925,"correct":true,"confidence":1},{"trial_n":125,"min":79,"max":176,"target":"present","response":"present","rt":1286,"correct":true,"confidence":3},{"trial_n":126,"min":80,"max":175,"target":"absent","response":"present","rt":869,"correct":false,"confidence":2},{"trial_n":127,"min":79,"max":176,"target":"absent","response":"present","rt":1244,"correct":false,"confidence":1},{"trial_n":128,"min":78,"max":177,"target":"present","response":"present","rt":960,"correct":true,"confidence":4},{"trial_n":129,"min":78,"max":177,"target":"absent","response":"absent","rt":729,"correct":true,"confidence":1},{"trial_n":130,"min":79,"max":176,"target":"absent","response":"present","rt":811.99999999977,"correct":false,"confidence":1},{"trial_n":131,"min":78,"max":177,"target":"present","response":"present","rt":712,"correct":true,"confidence":4},{"trial_n":132,"min":78,"max":177,"target":"absent","response":"absent","rt":584.00000000023,"correct":true,"confidence":3},{"trial_n":133,"min":79,"max":176,"target":"absent","response":"absent","rt":821,"correct":true,"confidence":3},{"trial_n":134,"min":79,"max":176,"target":"present","response":"present","rt":443,"correct":true,"confidence":4},{"trial_n":135,"min":80,"max":175,"target":"absent","response":"absent","rt":695,"correct":true,"confidence":4},{"trial_n":136,"min":80,"max":175,"target":"absent","response":"absent","rt":1669,"correct":true,"confidence":1},{"trial_n":137,"min":81,"max":174,"target":"present","response":"present","rt":674,"correct":true,"confidence":3},{"trial_n":138,"min":81,"max":174,"target":"present","response":"present","rt":592,"correct":true,"confidence":3},{"trial_n":139,"min":82,"max":173,"target":"present","response":"present","rt":500,"correct":true,"confidence":3},{"trial_n":140,"min":82,"max":173,"target":"absent","response":"absent","rt":1162,"correct":true,"confidence":1}]