[{"trial_n":1,"n_dots":4.25,"target":"left","response":"right","rt":7071,"correct":false,"confidence":-1},{"trial_n":2,"n_dots":4.25,"target":"right","response":"right","rt":620.10000000149,"correct":true,"confidence":-1},{"trial_n":3,"n_dots":4.25,"target":"left","response":"left","rt":488.10000000149,"correct":true,"confidence":-1},{"trial_n":4,"n_dots":3.85,"target":"left","response":"left","rt":653,"correct":true,"confidence":-1},{"trial_n":5,"n_dots":3.85,"target":"right","response":"right","rt":485.5,"correct":true,"confidence":-1},{"trial_n":6,"n_dots":3.45,"target":"left","response":"left","rt":570.80000000447,"correct":true,"confidence":-1},{"trial_n":7,"n_dots":3.45,"target":"left","response":"left","rt":603.79999999702,"correct":true,"confidence":-1},{"trial_n":8,"n_dots":3.25,"target":"right","response":"right","rt":170.20000000298,"correct":true,"confidence":-1},{"trial_n":9,"n_dots":3.25,"target":"right","response":"right","rt":228.5,"correct":true,"confidence":-1},{"trial_n":10,"n_dots":3.05,"target":"right","response":"right","rt":390,"correct":true,"confidence":-1},{"trial_n":11,"n_dots":3.05,"target":"left","response":"left","rt":238.10000000149,"correct":true,"confidence":-1},{"trial_n":12,"n_dots":2.85,"target":"right","response":"right","rt":462.90000000596,"correct":true,"confidence":-1},{"trial_n":13,"n_dots":2.85,"target":"left","response":"left","rt":620.60000000149,"correct":true,"confidence":-1},{"trial_n":14,"n_dots":2.75,"target":"right","response":"left","rt":636.69999999553,"correct":false,"confidence":-1},{"trial_n":15,"n_dots":2.85,"target":"right","response":"right","rt":213,"correct":true,"confidence":-1},{"trial_n":16,"n_dots":2.85,"target":"right","response":"right","rt":167.60000000149,"correct":true,"confidence":-1},{"trial_n":17,"n_dots":2.75,"target":"left","response":"right","rt":465.89999999851,"correct":false,"confidence":-1},{"trial_n":18,"n_dots":2.85,"target":"left","response":"right","rt":448.10000000149,"correct":false,"confidence":-1},{"trial_n":19,"n_dots":2.95,"target":"left","response":"left","rt":334.5,"correct":true,"confidence":-1},{"trial_n":20,"n_dots":2.95,"target":"left","response":"left","rt":436,"correct":true,"confidence":-1},{"trial_n":21,"n_dots":2.85,"target":"right","response":"left","rt":355.80000000447,"correct":false,"confidence":4},{"trial_n":22,"n_dots":2.95,"target":"left","response":"left","rt":209.70000000298,"correct":true,"confidence":5},{"trial_n":23,"n_dots":2.95,"target":"left","response":"left","rt":312.40000000596,"correct":true,"confidence":5},{"trial_n":24,"n_dots":2.85,"target":"right","response":"right","rt":163.09999999404,"correct":true,"confidence":5},{"trial_n":25,"n_dots":2.85,"target":"left","response":"left","rt":391.10000000149,"correct":true,"confidence":5},{"trial_n":26,"n_dots":2.75,"target":"left","response":"left","rt":471.60000000149,"correct":true,"confidence":3},{"trial_n":27,"n_dots":2.75,"target":"left","response":"left","rt":573.29999999702,"correct":true,"confidence":3},{"trial_n":28,"n_dots":2.65,"target":"right","response":"right","rt":524.10000000149,"correct":true,"confidence":3},{"trial_n":29,"n_dots":2.65,"target":"left","response":"left","rt":649.90000000596,"correct":true,"confidence":3},{"trial_n":30,"n_dots":2.55,"target":"left","response":"left","rt":451,"correct":true,"confidence":3},{"trial_n":31,"n_dots":2.55,"target":"left","response":"right","rt":377.40000000596,"correct":false,"confidence":5},{"trial_n":32,"n_dots":2.65,"target":"left","response":"right","rt":514,"correct":false,"confidence":4},{"trial_n":33,"n_dots":2.75,"target":"left","response":"left","rt":695,"correct":true,"confidence":3},{"trial_n":34,"n_dots":2.75,"target":"left","response":"left","rt":444.39999999851,"correct":true,"confidence":5},{"trial_n":35,"n_dots":2.65,"target":"right","response":"left","rt":350.39999999851,"correct":false,"confidence":5},{"trial_n":36,"n_dots":2.75,"target":"left","response":"left","rt":309.10000000149,"correct":true,"confidence":5},{"trial_n":37,"n_dots":2.75,"target":"left","response":"right","rt":1478,"correct":false,"confidence":3},{"trial_n":38,"n_dots":2.85,"target":"left","response":"right","rt":702.70000000298,"correct":false,"confidence":3},{"trial_n":39,"n_dots":2.95,"target":"right","response":"right","rt":614.10000000149,"correct":true,"confidence":5},{"trial_n":40,"n_dots":2.95,"target":"left","response":"left","rt":389.60000000149,"correct":true,"confidence":3},{"trial_n":41,"n_dots":2.85,"target":"left","response":"left","rt":366.30000000447,"correct":true,"confidence":4},{"trial_n":42,"n_dots":2.85,"target":"left","response":"right","rt":552.20000000298,"correct":false,"confidence":5},{"trial_n":43,"n_dots":2.95,"target":"left","response":"left","rt":422.79999999702,"correct":true,"confidence":5},{"trial_n":44,"n_dots":2.95,"target":"right","response":"right","rt":303.39999999851,"correct":true,"confidence":5},{"trial_n":45,"n_dots":2.85,"target":"right","response":"left","rt":366.19999999553,"correct":false,"confidence":3},{"trial_n":46,"n_dots":2.95,"target":"right","response":"right","rt":378,"correct":true,"confidence":5},{"trial_n":47,"n_dots":2.95,"target":"right","response":"left","rt":1551.1000000015,"correct":false,"confidence":2},{"trial_n":48,"n_dots":3.05,"target":"right","response":"right","rt":659,"correct":true,"confidence":5},{"trial_n":49,"n_dots":3.05,"target":"right","response":"right","rt":687.39999999851,"correct":true,"confidence":5},{"trial_n":50,"n_dots":2.95,"target":"right","response":"left","rt":325.20000000298,"correct":false,"confidence":5},{"trial_n":51,"n_dots":3.05,"target":"left","response":"left","rt":520.79999999702,"correct":true,"confidence":5},{"trial_n":52,"n_dots":3.05,"target":"left","response":"left","rt":313.5,"correct":true,"confidence":3},{"trial_n":53,"n_dots":2.95,"target":"right","response":"right","rt":398.09999999404,"correct":true,"confidence":3},{"trial_n":54,"n_dots":2.95,"target":"left","response":"left","rt":399.40000000596,"correct":true,"confidence":4},{"trial_n":55,"n_dots":2.85,"target":"left","response":"right","rt":632.90000000596,"correct":false,"confidence":4},{"trial_n":56,"n_dots":2.95,"target":"left","response":"left","rt":798.10000000149,"correct":true,"confidence":4},{"trial_n":57,"n_dots":2.95,"target":"right","response":"right","rt":652,"correct":true,"confidence":3},{"trial_n":58,"n_dots":2.85,"target":"right","response":"right","rt":669.09999999404,"correct":true,"confidence":2},{"trial_n":59,"n_dots":2.85,"target":"right","response":"right","rt":406.29999999702,"correct":true,"confidence":5},{"trial_n":60,"n_dots":2.75,"target":"right","response":"right","rt":468.90000000596,"correct":true,"confidence":5},{"trial_n":61,"n_dots":2.75,"target":"right","response":"right","rt":464.80000000447,"correct":true,"confidence":5},{"trial_n":62,"n_dots":2.65,"target":"right","response":"right","rt":826.19999999553,"correct":true,"confidence":4},{"trial_n":63,"n_dots":2.65,"target":"left","response":"left","rt":429.90000000596,"correct":true,"confidence":5},{"trial_n":64,"n_dots":2.55,"target":"right","response":"right","rt":305.20000000298,"correct":true,"confidence":3},{"trial_n":65,"n_dots":2.55,"target":"right","response":"left","rt":511,"correct":false,"confidence":5},{"trial_n":66,"n_dots":2.65,"target":"right","response":"right","rt":259.5,"correct":true,"confidence":4},{"trial_n":67,"n_dots":2.65,"target":"left","response":"left","rt":329.69999999553,"correct":true,"confidence":4},{"trial_n":68,"n_dots":2.55,"target":"right","response":"right","rt":621.10000000149,"correct":true,"confidence":4},{"trial_n":69,"n_dots":2.55,"target":"right","response":"right","rt":397,"correct":true,"confidence":4},{"trial_n":70,"n_dots":2.45,"target":"left","response":"left","rt":839.5,"correct":true,"confidence":4},{"trial_n":71,"n_dots":2.45,"target":"right","response":"left","rt":568,"correct":false,"confidence":3},{"trial_n":72,"n_dots":2.55,"target":"right","response":"right","rt":438.79999999702,"correct":true,"confidence":5},{"trial_n":73,"n_dots":2.55,"target":"right","response":"right","rt":707.70000000298,"correct":true,"confidence":4},{"trial_n":74,"n_dots":2.45,"target":"right","response":"right","rt":535.60000000149,"correct":true,"confidence":4},{"trial_n":75,"n_dots":2.45,"target":"right","response":"left","rt":1284.299999997,"correct":false,"confidence":3},{"trial_n":76,"n_dots":2.55,"target":"left","response":"right","rt":571.79999999702,"correct":false,"confidence":4},{"trial_n":77,"n_dots":2.65,"target":"left","response":"left","rt":1854.5,"correct":true,"confidence":3},{"trial_n":78,"n_dots":2.65,"target":"left","response":"left","rt":458.10000000149,"correct":true,"confidence":3},{"trial_n":79,"n_dots":2.55,"target":"right","response":"right","rt":364,"correct":true,"confidence":3},{"trial_n":80,"n_dots":2.55,"target":"left","response":"right","rt":587,"correct":false,"confidence":3},{"trial_n":81,"n_dots":2.65,"target":"left","response":"left","rt":776.80000000447,"correct":true,"confidence":4},{"trial_n":82,"n_dots":2.65,"target":"right","response":"right","rt":196.40000000596,"correct":true,"confidence":5},{"trial_n":83,"n_dots":2.55,"target":"right","response":"right","rt":420.29999999702,"correct":true,"confidence":5},{"trial_n":84,"n_dots":2.55,"target":"right","response":"right","rt":1027,"correct":true,"confidence":5},{"trial_n":85,"n_dots":2.45,"target":"right","response":"right","rt":994.89999999851,"correct":true,"confidence":5},{"trial_n":86,"n_dots":2.45,"target":"right","response":"right","rt":831.19999999553,"correct":true,"confidence":5},{"trial_n":87,"n_dots":2.35,"target":"left","response":"left","rt":1194.6999999955,"correct":true,"confidence":3},{"trial_n":88,"n_dots":2.35,"target":"right","response":"right","rt":703.10000000149,"correct":true,"confidence":4},{"trial_n":89,"n_dots":2.25,"target":"right","response":"left","rt":622.5,"correct":false,"confidence":4},{"trial_n":90,"n_dots":2.35,"target":"left","response":"left","rt":1050.3999999985,"correct":true,"confidence":4},{"trial_n":91,"n_dots":2.35,"target":"left","response":"right","rt":507,"correct":false,"confidence":5},{"trial_n":92,"n_dots":2.45,"target":"left","response":"right","rt":1152.5,"correct":false,"confidence":5},{"trial_n":93,"n_dots":2.55,"target":"right","response":"left","rt":804.29999999702,"correct":false,"confidence":5},{"trial_n":94,"n_dots":2.65,"target":"left","response":"right","rt":679.10000000149,"correct":false,"confidence":5},{"trial_n":95,"n_dots":2.75,"target":"right","response":"left","rt":438.19999999553,"correct":false,"confidence":5},{"trial_n":96,"n_dots":2.85,"target":"right","response":"left","rt":542.60000000149,"correct":false,"confidence":5},{"trial_n":97,"n_dots":2.95,"target":"left","response":"left","rt":375.5,"correct":true,"confidence":5},{"trial_n":98,"n_dots":2.95,"target":"left","response":"left","rt":757.29999999702,"correct":true,"confidence":5},{"trial_n":99,"n_dots":2.85,"target":"right","response":"right","rt":593.10000000149,"correct":true,"confidence":5},{"trial_n":100,"n_dots":2.85,"target":"left","response":"right","rt":663.19999999553,"correct":false,"confidence":5},{"trial_n":101,"n_dots":2.95,"target":"right","response":"left","rt":680.5,"correct":false,"confidence":4},{"trial_n":102,"n_dots":3.05,"target":"right","response":"right","rt":482,"correct":true,"confidence":4},{"trial_n":103,"n_dots":3.05,"target":"right","response":"right","rt":938.29999999702,"correct":true,"confidence":4},{"trial_n":104,"n_dots":2.95,"target":"left","response":"right","rt":974.60000000149,"correct":false,"confidence":2},{"trial_n":105,"n_dots":3.05,"target":"right","response":"right","rt":727.89999999851,"correct":true,"confidence":4},{"trial_n":106,"n_dots":3.05,"target":"left","response":"right","rt":493.10000000149,"correct":false,"confidence":4},{"trial_n":107,"n_dots":3.15,"target":"right","response":"right","rt":421,"correct":true,"confidence":4},{"trial_n":108,"n_dots":3.15,"target":"left","response":"right","rt":765,"correct":false,"confidence":4},{"trial_n":109,"n_dots":3.25,"target":"left","response":"left","rt":349.10000000149,"correct":true,"confidence":5},{"trial_n":110,"n_dots":3.25,"target":"left","response":"left","rt":290.89999999851,"correct":true,"confidence":5},{"trial_n":111,"n_dots":3.15,"target":"right","response":"left","rt":345.10000000149,"correct":false,"confidence":5},{"trial_n":112,"n_dots":3.25,"target":"left","response":"left","rt":470.40000000596,"correct":true,"confidence":5},{"trial_n":113,"n_dots":3.25,"target":"right","response":"right","rt":437.10000000149,"correct":true,"confidence":5},{"trial_n":114,"n_dots":3.15,"target":"left","response":"left","rt":581.20000000298,"correct":true,"confidence":5},{"trial_n":115,"n_dots":3.15,"target":"right","response":"right","rt":345,"correct":true,"confidence":5},{"trial_n":116,"n_dots":3.05,"target":"left","response":"left","rt":203.20000000298,"correct":true,"confidence":5},{"trial_n":117,"n_dots":3.05,"target":"right","response":"right","rt":503.10000000149,"correct":true,"confidence":5},{"trial_n":118,"n_dots":2.95,"target":"right","response":"right","rt":303.70000000298,"correct":true,"confidence":5},{"trial_n":119,"n_dots":2.95,"target":"left","response":"left","rt":316.30000000447,"correct":true,"confidence":5},{"trial_n":120,"n_dots":2.85,"target":"left","response":"left","rt":1194.8999999985,"correct":true,"confidence":2}]