[{"trial_n":1,"n_dots":4.25,"target":"left","response":"left","rt":4235,"correct":true,"confidence":-1},{"trial_n":2,"n_dots":4.25,"target":"right","response":"right","rt":2344,"correct":true,"confidence":-1},{"trial_n":3,"n_dots":3.85,"target":"left","response":"left","rt":1180,"correct":true,"confidence":-1},{"trial_n":4,"n_dots":3.85,"target":"right","response":"left","rt":1175,"correct":false,"confidence":-1},{"trial_n":5,"n_dots":4.25,"target":"right","response":"right","rt":3719,"correct":true,"confidence":-1},{"trial_n":6,"n_dots":4.25,"target":"left","response":"left","rt":396.99999999999,"correct":true,"confidence":-1},{"trial_n":7,"n_dots":3.85,"target":"left","response":"left","rt":490,"correct":true,"confidence":-1},{"trial_n":8,"n_dots":3.85,"target":"right","response":"right","rt":306,"correct":true,"confidence":-1},{"trial_n":9,"n_dots":3.65,"target":"left","response":"right","rt":734,"correct":false,"confidence":-1},{"trial_n":10,"n_dots":3.85,"target":"right","response":"right","rt":493,"correct":true,"confidence":-1},{"trial_n":11,"n_dots":3.85,"target":"left","response":"left","rt":465,"correct":true,"confidence":-1},{"trial_n":12,"n_dots":3.65,"target":"left","response":"right","rt":554,"correct":false,"confidence":-1},{"trial_n":13,"n_dots":3.75,"target":"right","response":"right","rt":644,"correct":true,"confidence":-1},{"trial_n":14,"n_dots":3.75,"target":"right","response":"right","rt":433,"correct":true,"confidence":-1},{"trial_n":15,"n_dots":3.65,"target":"right","response":"left","rt":635,"correct":false,"confidence":-1},{"trial_n":16,"n_dots":3.75,"target":"left","response":"left","rt":361,"correct":true,"confidence":-1},{"trial_n":17,"n_dots":3.75,"target":"right","response":"right","rt":393.99999999999,"correct":true,"confidence":-1},{"trial_n":18,"n_dots":3.65,"target":"left","response":"left","rt":871,"correct":true,"confidence":-1},{"trial_n":19,"n_dots":3.65,"target":"right","response":"right","rt":464.99999999999,"correct":true,"confidence":-1},{"trial_n":20,"n_dots":3.55,"target":"left","response":"left","rt":676,"correct":true,"confidence":-1},{"trial_n":21,"n_dots":3.55,"target":"right","response":"left","rt":1837,"correct":false,"confidence":2},{"trial_n":22,"n_dots":3.65,"target":"left","response":"left","rt":359.99999999997,"correct":true,"confidence":3},{"trial_n":23,"n_dots":3.65,"target":"left","response":"left","rt":839,"correct":true,"confidence":2},{"trial_n":24,"n_dots":3.55,"target":"left","response":"left","rt":1199,"correct":true,"confidence":3},{"trial_n":25,"n_dots":3.55,"target":"right","response":"right","rt":1281,"correct":true,"confidence":3},{"trial_n":26,"n_dots":3.45,"target":"left","response":"left","rt":1070,"correct":true,"confidence":2},{"trial_n":27,"n_dots":3.45,"target":"left","response":"right","rt":1725,"correct":false,"confidence":2},{"trial_n":28,"n_dots":3.55,"target":"left","response":"left","rt":1429,"correct":true,"confidence":2},{"trial_n":29,"n_dots":3.55,"target":"right","response":"right","rt":1758,"correct":true,"confidence":2},{"trial_n":30,"n_dots":3.45,"target":"right","response":"right","rt":1436,"correct":true,"confidence":2},{"trial_n":31,"n_dots":3.45,"target":"right","response":"right","rt":1300,"correct":true,"confidence":3},{"trial_n":32,"n_dots":3.35,"target":"right","response":"right","rt":1072,"correct":true,"confidence":2},{"trial_n":33,"n_dots":3.35,"target":"left","response":"left","rt":1023,"correct":true,"confidence":3},{"trial_n":34,"n_dots":3.25,"target":"right","response":"right","rt":1086,"correct":true,"confidence":2},{"trial_n":35,"n_dots":3.25,"target":"left","response":"left","rt":1854,"correct":true,"confidence":2},{"trial_n":36,"n_dots":3.15,"target":"right","response":"right","rt":1935,"correct":true,"confidence":2},{"trial_n":37,"n_dots":3.15,"target":"left","response":"left","rt":1289,"correct":true,"confidence":3},{"trial_n":38,"n_dots":3.05,"target":"left","response":"left","rt":1145,"correct":true,"confidence":2},{"trial_n":39,"n_dots":3.05,"target":"left","response":"left","rt":1347,"correct":true,"confidence":2},{"trial_n":40,"n_dots":2.95,"target":"right","response":"right","rt":992,"correct":true,"confidence":3},{"trial_n":41,"n_dots":2.95,"target":"left","response":"right","rt":1598,"correct":false,"confidence":1},{"trial_n":42,"n_dots":3.05,"target":"left","response":"left","rt":3341,"correct":true,"confidence":2},{"trial_n":43,"n_dots":3.05,"target":"left","response":"right","rt":1578,"correct":false,"confidence":1},{"trial_n":44,"n_dots":3.15,"target":"right","response":"left","rt":1291,"correct":false,"confidence":1},{"trial_n":45,"n_dots":3.25,"target":"left","response":"right","rt":1251,"correct":false,"confidence":1},{"trial_n":46,"n_dots":3.35,"target":"right","response":"right","rt":992,"correct":true,"confidence":2},{"trial_n":47,"n_dots":3.35,"target":"left","response":"left","rt":989.00000000006,"correct":true,"confidence":2},{"trial_n":48,"n_dots":3.25,"target":"left","response":"right","rt":1634.9999999999,"correct":false,"confidence":2},{"trial_n":49,"n_dots":3.35,"target":"left","response":"left","rt":1036,"correct":true,"confidence":2},{"trial_n":50,"n_dots":3.35,"target":"left","response":"left","rt":1238.0000000001,"correct":true,"confidence":2},{"trial_n":51,"n_dots":3.25,"target":"right","response":"right","rt":1076.9999999999,"correct":true,"confidence":2},{"trial_n":52,"n_dots":3.25,"target":"left","response":"left","rt":1036,"correct":true,"confidence":2},{"trial_n":53,"n_dots":3.15,"target":"right","response":"right","rt":1662,"correct":true,"confidence":1},{"trial_n":54,"n_dots":3.15,"target":"left","response":"left","rt":2156,"correct":true,"confidence":1},{"trial_n":55,"n_dots":3.05,"target":"left","response":"right","rt":1543.0000000001,"correct":false,"confidence":1},{"trial_n":56,"n_dots":3.15,"target":"right","response":"right","rt":1288,"correct":true,"confidence":1},{"trial_n":57,"n_dots":3.15,"target":"right","response":"right","rt":2170.0000000001,"correct":true,"confidence":1},{"trial_n":58,"n_dots":3.05,"target":"right","response":"right","rt":1632,"correct":true,"confidence":1},{"trial_n":59,"n_dots":3.05,"target":"right","response":"left","rt":909,"correct":false,"confidence":1},{"trial_n":60,"n_dots":3.15,"target":"left","response":"left","rt":1337,"correct":true,"confidence":2},{"trial_n":61,"n_dots":3.15,"target":"right","response":"left","rt":1416,"correct":false,"confidence":2},{"trial_n":62,"n_dots":3.25,"target":"right","response":"right","rt":999,"correct":true,"confidence":2},{"trial_n":63,"n_dots":3.25,"target":"right","response":"right","rt":849,"correct":true,"confidence":2},{"trial_n":64,"n_dots":3.15,"target":"left","response":"left","rt":1084,"correct":true,"confidence":2},{"trial_n":65,"n_dots":3.15,"target":"right","response":"right","rt":1215,"correct":true,"confidence":2},{"trial_n":66,"n_dots":3.05,"target":"right","response":"left","rt":1027,"correct":false,"confidence":2},{"trial_n":67,"n_dots":3.15,"target":"left","response":"left","rt":910,"correct":true,"confidence":2},{"trial_n":68,"n_dots":3.15,"target":"left","response":"right","rt":1090,"correct":false,"confidence":1},{"trial_n":69,"n_dots":3.25,"target":"right","response":"right","rt":2171,"correct":true,"confidence":2},{"trial_n":70,"n_dots":3.25,"target":"right","response":"right","rt":1379,"correct":true,"confidence":2},{"trial_n":71,"n_dots":3.15,"target":"right","response":"right","rt":863,"correct":true,"confidence":2},{"trial_n":72,"n_dots":3.15,"target":"left","response":"left","rt":841,"correct":true,"confidence":3},{"trial_n":73,"n_dots":3.05,"target":"left","response":"left","rt":986,"correct":true,"confidence":2},{"trial_n":74,"n_dots":3.05,"target":"right","response":"right","rt":833,"correct":true,"confidence":3},{"trial_n":75,"n_dots":2.95,"target":"right","response":"left","rt":972.00000000006,"correct":false,"confidence":2},{"trial_n":76,"n_dots":3.05,"target":"left","response":"left","rt":951,"correct":true,"confidence":2},{"trial_n":77,"n_dots":3.05,"target":"left","response":"right","rt":870,"correct":false,"confidence":1},{"trial_n":78,"n_dots":3.15,"target":"left","response":"left","rt":3771,"correct":true,"confidence":1},{"trial_n":79,"n_dots":3.15,"target":"left","response":"left","rt":915,"correct":true,"confidence":2},{"trial_n":80,"n_dots":3.05,"target":"right","response":"right","rt":928.99999999994,"correct":true,"confidence":2},{"trial_n":81,"n_dots":3.05,"target":"left","response":"left","rt":910,"correct":true,"confidence":1},{"trial_n":82,"n_dots":2.95,"target":"left","response":"left","rt":957,"correct":true,"confidence":2},{"trial_n":83,"n_dots":2.95,"target":"right","response":"right","rt":1774,"correct":true,"confidence":2},{"trial_n":84,"n_dots":2.85,"target":"right","response":"left","rt":950,"correct":false,"confidence":2},{"trial_n":85,"n_dots":2.95,"target":"left","response":"right","rt":1007,"correct":false,"confidence":1},{"trial_n":86,"n_dots":3.05,"target":"right","response":"right","rt":811.99999999994,"correct":true,"confidence":2},{"trial_n":87,"n_dots":3.05,"target":"right","response":"right","rt":1466,"correct":true,"confidence":2},{"trial_n":88,"n_dots":2.95,"target":"right","response":"right","rt":903.99999999994,"correct":true,"confidence":2},{"trial_n":89,"n_dots":2.95,"target":"left","response":"right","rt":1630.9999999999,"correct":false,"confidence":2},{"trial_n":90,"n_dots":3.05,"target":"left","response":"left","rt":1385,"correct":true,"confidence":1},{"trial_n":91,"n_dots":3.05,"target":"left","response":"left","rt":1073,"correct":true,"confidence":2},{"trial_n":92,"n_dots":2.95,"target":"right","response":"right","rt":934,"correct":true,"confidence":1},{"trial_n":93,"n_dots":2.95,"target":"right","response":"right","rt":1105,"correct":true,"confidence":2},{"trial_n":94,"n_dots":2.85,"target":"right","response":"left","rt":1269,"correct":false,"confidence":2},{"trial_n":95,"n_dots":2.95,"target":"left","response":"right","rt":1838,"correct":false,"confidence":2},{"trial_n":96,"n_dots":3.05,"target":"left","response":"left","rt":1444.9999999999,"correct":true,"confidence":1},{"trial_n":97,"n_dots":3.05,"target":"right","response":"right","rt":4160,"correct":true,"confidence":1},{"trial_n":98,"n_dots":2.95,"target":"left","response":"left","rt":1104,"correct":true,"confidence":1},{"trial_n":99,"n_dots":2.95,"target":"right","response":"right","rt":1119,"correct":true,"confidence":2},{"trial_n":100,"n_dots":2.85,"target":"right","response":"left","rt":1231,"correct":false,"confidence":1},{"trial_n":101,"n_dots":2.95,"target":"left","response":"left","rt":767,"correct":true,"confidence":3},{"trial_n":102,"n_dots":2.95,"target":"left","response":"right","rt":1160,"correct":false,"confidence":2},{"trial_n":103,"n_dots":3.05,"target":"right","response":"right","rt":1066,"correct":true,"confidence":3},{"trial_n":104,"n_dots":3.05,"target":"left","response":"left","rt":1274,"correct":true,"confidence":2},{"trial_n":105,"n_dots":2.95,"target":"right","response":"right","rt":856,"correct":true,"confidence":3},{"trial_n":106,"n_dots":2.95,"target":"left","response":"left","rt":859.99999999988,"correct":true,"confidence":3},{"trial_n":107,"n_dots":2.85,"target":"right","response":"right","rt":659,"correct":true,"confidence":3},{"trial_n":108,"n_dots":2.85,"target":"left","response":"left","rt":863.00000000012,"correct":true,"confidence":3},{"trial_n":109,"n_dots":2.75,"target":"right","response":"right","rt":945,"correct":true,"confidence":2},{"trial_n":110,"n_dots":2.75,"target":"right","response":"right","rt":1034,"correct":true,"confidence":2},{"trial_n":111,"n_dots":2.65,"target":"right","response":"left","rt":1312,"correct":false,"confidence":2},{"trial_n":112,"n_dots":2.75,"target":"left","response":"left","rt":1320,"correct":true,"confidence":2},{"trial_n":113,"n_dots":2.75,"target":"left","response":"left","rt":1562,"correct":true,"confidence":2},{"trial_n":114,"n_dots":2.65,"target":"right","response":"right","rt":693,"correct":true,"confidence":3},{"trial_n":115,"n_dots":2.65,"target":"right","response":"right","rt":832.99999999988,"correct":true,"confidence":2},{"trial_n":116,"n_dots":2.55,"target":"left","response":"left","rt":940,"correct":true,"confidence":2},{"trial_n":117,"n_dots":2.55,"target":"right","response":"right","rt":1204,"correct":true,"confidence":2},{"trial_n":118,"n_dots":2.45,"target":"right","response":"left","rt":997,"correct":false,"confidence":2},{"trial_n":119,"n_dots":2.55,"target":"right","response":"right","rt":767,"correct":true,"confidence":2},{"trial_n":120,"n_dots":2.55,"target":"left","response":"left","rt":1464,"correct":true,"confidence":3}]