[{"trial_n":1,"span":8,"encoder":"36036097","distractor":"36336097","target":"present","response":"present","rt":"5549","correct":true,"confidence":-1},{"trial_n":2,"span":8,"encoder":"85490723","distractor":"85490733","target":"present","response":"present","rt":"2271.1000000015","correct":true,"confidence":-1},{"trial_n":3,"span":10,"encoder":"1571516187","distractor":"1571116187","target":"absent","response":"absent","rt":"4538.8000000045","correct":true,"confidence":-1},{"trial_n":4,"span":10,"encoder":"6733103540","distractor":"6737103540","target":"absent","response":"absent","rt":"1481","correct":true,"confidence":-1},{"trial_n":5,"span":12,"encoder":"378932636760","distractor":"377932636760","target":"present","response":"present","rt":"3078.1000000015","correct":true,"confidence":-1},{"trial_n":6,"span":12,"encoder":"193974334810","distractor":"193974534810","target":"present","response":"present","rt":"2951.700000003","correct":true,"confidence":-1},{"trial_n":7,"span":14,"encoder":"01009262380345","distractor":"01009262380445","target":"present","response":"absent","rt":"4662.599999994","correct":false,"confidence":-1},{"trial_n":8,"span":12,"encoder":"533515898277","distractor":"533555898277","target":"absent","response":"absent","rt":"3700.700000003","correct":true,"confidence":-1},{"trial_n":9,"span":12,"encoder":"010377993938","distractor":"610377993938","target":"present","response":"present","rt":"1704.099999994","correct":true,"confidence":-1},{"trial_n":10,"span":14,"encoder":"41284719209426","distractor":"41884719209426","target":"present","response":"absent","rt":"2078.8999999985","correct":false,"confidence":-1},{"trial_n":11,"span":12,"encoder":"533497280048","distractor":"533490280048","target":"absent","response":"present","rt":"1211.1000000015","correct":false,"confidence":-1},{"trial_n":12,"span":11,"encoder":"87485566416","distractor":"17485566416","target":"absent","response":"present","rt":"2486.799999997","correct":false,"confidence":-1},{"trial_n":13,"span":10,"encoder":"2662870782","distractor":"2662870762","target":"present","response":"present","rt":"2561.299999997","correct":true,"confidence":-1},{"trial_n":14,"span":10,"encoder":"2839001802","distractor":"2839041802","target":"absent","response":"present","rt":"6891.799999997","correct":false,"confidence":-1},{"trial_n":15,"span":9,"encoder":"964056114","distractor":"968056114","target":"absent","response":"present","rt":"2673.3999999985","correct":false,"confidence":-1},{"trial_n":16,"span":8,"encoder":"28483019","distractor":"28483016","target":"absent","response":"absent","rt":"1848.400000006","correct":true,"confidence":-1},{"trial_n":17,"span":8,"encoder":"44879537","distractor":"42879537","target":"absent","response":"present","rt":"1577.299999997","correct":false,"confidence":-1},{"trial_n":18,"span":7,"encoder":"8491180","distractor":"8491187","target":"present","response":"present","rt":"1696.6999999955","correct":true,"confidence":-1},{"trial_n":19,"span":7,"encoder":"9185656","distractor":"1185656","target":"absent","response":"absent","rt":"1345.799999997","correct":true,"confidence":-1},{"trial_n":20,"span":8,"encoder":"97049325","distractor":"97041325","target":"present","response":"present","rt":"1414.8000000045","correct":true,"confidence":-1},{"trial_n":21,"span":8,"encoder":"15866296","distractor":"15866596","target":"absent","response":"absent","rt":"5983.5","correct":true,"confidence":3},{"trial_n":22,"span":9,"encoder":"065385117","distractor":"065381117","target":"present","response":"present","rt":"2106.5","correct":true,"confidence":4},{"trial_n":23,"span":9,"encoder":"169128351","distractor":"969128351","target":"present","response":"absent","rt":"1266.5","correct":false,"confidence":5},{"trial_n":24,"span":8,"encoder":"78437094","distractor":"78477094","target":"present","response":"present","rt":"2202.3000000045","correct":true,"confidence":4},{"trial_n":25,"span":8,"encoder":"71101364","distractor":"71101164","target":"present","response":"present","rt":"1797.8000000045","correct":true,"confidence":4},{"trial_n":26,"span":9,"encoder":"467917864","distractor":"467917866","target":"absent","response":"present","rt":"3904.200000003","correct":false,"confidence":3},{"trial_n":27,"span":8,"encoder":"45820128","distractor":"45820148","target":"present","response":"absent","rt":"1411.6000000015","correct":false,"confidence":4},{"trial_n":28,"span":7,"encoder":"4997836","distractor":"4997736","target":"present","response":"present","rt":"2848.299999997","correct":true,"confidence":4},{"trial_n":29,"span":7,"encoder":"6680724","distractor":"6580724","target":"absent","response":"absent","rt":"1526.3999999985","correct":true,"confidence":5},{"trial_n":30,"span":8,"encoder":"31106308","distractor":"61106308","target":"absent","response":"absent","rt":"1133.3999999985","correct":true,"confidence":5},{"trial_n":31,"span":8,"encoder":"97403301","distractor":"97413301","target":"absent","response":"present","rt":"3013","correct":false,"confidence":3},{"trial_n":32,"span":7,"encoder":"3916219","distractor":"3914219","target":"absent","response":"absent","rt":"1678.200000003","correct":true,"confidence":4},{"trial_n":33,"span":7,"encoder":"5207758","distractor":"5217758","target":"absent","response":"absent","rt":"1122.3999999985","correct":true,"confidence":5},{"trial_n":34,"span":8,"encoder":"38125778","distractor":"38155778","target":"present","response":"absent","rt":"2323.1000000015","correct":false,"confidence":4},{"trial_n":35,"span":7,"encoder":"4407020","distractor":"4307020","target":"present","response":"absent","rt":"2278.1000000015","correct":false,"confidence":5},{"trial_n":36,"span":6,"encoder":"707761","distractor":"707769","target":"present","response":"present","rt":"1604.1000000015","correct":true,"confidence":5},{"trial_n":37,"span":6,"encoder":"583109","distractor":"583509","target":"present","response":"present","rt":"1344.5","correct":true,"confidence":5},{"trial_n":38,"span":7,"encoder":"7742299","distractor":"7752299","target":"present","response":"present","rt":"2064.8999999985","correct":true,"confidence":5},{"trial_n":39,"span":7,"encoder":"4604224","distractor":"4634224","target":"absent","response":"absent","rt":"1201.6999999955","correct":true,"confidence":5},{"trial_n":40,"span":8,"encoder":"98356073","distractor":"98352073","target":"present","response":"absent","rt":"2323.3000000045","correct":false,"confidence":4},{"trial_n":41,"span":7,"encoder":"7421237","distractor":"7425237","target":"absent","response":"absent","rt":"1489.200000003","correct":true,"confidence":5},{"trial_n":42,"span":7,"encoder":"4916763","distractor":"4916768","target":"present","response":"absent","rt":"1764","correct":false,"confidence":2},{"trial_n":43,"span":6,"encoder":"397418","distractor":"387418","target":"present","response":"present","rt":"2144.1999999955","correct":true,"confidence":5},{"trial_n":44,"span":6,"encoder":"579462","distractor":"509462","target":"present","response":"present","rt":"1714.6000000015","correct":true,"confidence":5},{"trial_n":45,"span":7,"encoder":"7345363","distractor":"7345353","target":"present","response":"present","rt":"2155.5","correct":true,"confidence":5},{"trial_n":46,"span":7,"encoder":"4694337","distractor":"4894337","target":"present","response":"present","rt":"1744","correct":true,"confidence":5},{"trial_n":47,"span":8,"encoder":"96791337","distractor":"96391337","target":"present","response":"present","rt":"1957.8999999985","correct":true,"confidence":5},{"trial_n":48,"span":8,"encoder":"25680909","distractor":"29680909","target":"present","response":"present","rt":"1486.799999997","correct":true,"confidence":5},{"trial_n":49,"span":9,"encoder":"899667861","distractor":"899867861","target":"absent","response":"present","rt":"2569.6000000015","correct":false,"confidence":3},{"trial_n":50,"span":8,"encoder":"57383409","distractor":"57783409","target":"present","response":"present","rt":"2777.700000003","correct":true,"confidence":4},{"trial_n":51,"span":8,"encoder":"33974478","distractor":"33974978","target":"absent","response":"present","rt":"2932.3999999985","correct":false,"confidence":4},{"trial_n":52,"span":7,"encoder":"7195170","distractor":"7195178","target":"present","response":"present","rt":"4299.1000000015","correct":true,"confidence":3},{"trial_n":53,"span":7,"encoder":"0849274","distractor":"5849274","target":"absent","response":"absent","rt":"1216.8999999985","correct":true,"confidence":5},{"trial_n":54,"span":8,"encoder":"01375566","distractor":"01375066","target":"absent","response":"present","rt":"2521.799999997","correct":false,"confidence":5},{"trial_n":55,"span":7,"encoder":"2944153","distractor":"2944853","target":"absent","response":"absent","rt":"1888.200000003","correct":true,"confidence":5},{"trial_n":56,"span":7,"encoder":"7558636","distractor":"9558636","target":"absent","response":"absent","rt":"918.20000000298","correct":true,"confidence":5},{"trial_n":57,"span":8,"encoder":"45863488","distractor":"47863488","target":"present","response":"present","rt":"1663.700000003","correct":true,"confidence":4},{"trial_n":58,"span":8,"encoder":"85496877","distractor":"55496877","target":"absent","response":"absent","rt":"2685.799999997","correct":true,"confidence":5},{"trial_n":59,"span":9,"encoder":"052136858","distractor":"052139858","target":"present","response":"absent","rt":"3988.5","correct":false,"confidence":2},{"trial_n":60,"span":8,"encoder":"39359341","distractor":"38359341","target":"present","response":"present","rt":"10477.900000006","correct":true,"confidence":4},{"trial_n":61,"span":8,"encoder":"41367696","distractor":"31367696","target":"absent","response":"absent","rt":"1853.099999994","correct":true,"confidence":5},{"trial_n":62,"span":9,"encoder":"707677512","distractor":"707677514","target":"absent","response":"present","rt":"2673.6000000015","correct":false,"confidence":4},{"trial_n":63,"span":8,"encoder":"46625334","distractor":"36625334","target":"absent","response":"absent","rt":"1537.400000006","correct":true,"confidence":5},{"trial_n":64,"span":8,"encoder":"07949050","distractor":"47949050","target":"absent","response":"present","rt":"1896","correct":false,"confidence":4},{"trial_n":65,"span":7,"encoder":"1566681","distractor":"2566681","target":"present","response":"present","rt":"2009.200000003","correct":true,"confidence":5},{"trial_n":66,"span":7,"encoder":"5713045","distractor":"5713048","target":"absent","response":"present","rt":"2376","correct":false,"confidence":4},{"trial_n":67,"span":6,"encoder":"537277","distractor":"537267","target":"absent","response":"absent","rt":"1501.1000000015","correct":true,"confidence":5},{"trial_n":68,"span":6,"encoder":"944070","distractor":"444070","target":"absent","response":"absent","rt":"1141.6000000015","correct":true,"confidence":5},{"trial_n":69,"span":7,"encoder":"2931209","distractor":"2935209","target":"absent","response":"absent","rt":"1176","correct":true,"confidence":5},{"trial_n":70,"span":7,"encoder":"7191696","distractor":"7191698","target":"present","response":"present","rt":"1350.1000000015","correct":true,"confidence":4},{"trial_n":71,"span":8,"encoder":"78328184","distractor":"74328184","target":"present","response":"present","rt":"2518.1000000015","correct":true,"confidence":-1},{"trial_n":72,"span":8,"encoder":"30296217","distractor":"30296227","target":"present","response":"present","rt":"1781.099999994","correct":true,"confidence":-1},{"trial_n":73,"span":9,"encoder":"564843691","distractor":"564893691","target":"absent","response":"present","rt":"4350.6000000015","correct":false,"confidence":-1},{"trial_n":74,"span":8,"encoder":"14095050","distractor":"74095050","target":"absent","response":"absent","rt":"1088.700000003","correct":true,"confidence":-1},{"trial_n":75,"span":8,"encoder":"70607713","distractor":"72607713","target":"present","response":"present","rt":"2360.8999999985","correct":true,"confidence":-1},{"trial_n":76,"span":9,"encoder":"261583862","distractor":"261583462","target":"absent","response":"absent","rt":"2964.900000006","correct":true,"confidence":-1},{"trial_n":77,"span":9,"encoder":"255104604","distractor":"455104604","target":"absent","response":"absent","rt":"5047.299999997","correct":true,"confidence":-1},{"trial_n":78,"span":10,"encoder":"9802916293","distractor":"9800916293","target":"present","response":"present","rt":"3088.3000000045","correct":true,"confidence":-1},{"trial_n":79,"span":10,"encoder":"3397982959","distractor":"3397982939","target":"absent","response":"present","rt":"4635.3000000045","correct":false,"confidence":-1},{"trial_n":80,"span":9,"encoder":"022230031","distractor":"022234031","target":"present","response":"present","rt":"2447.700000003","correct":true,"confidence":-1},{"trial_n":81,"span":9,"encoder":"494935444","distractor":"494935443","target":"absent","response":"present","rt":"2616.1999999955","correct":false,"confidence":-1},{"trial_n":82,"span":8,"encoder":"76472937","distractor":"76422937","target":"present","response":"present","rt":"4362.299999997","correct":true,"confidence":-1},{"trial_n":83,"span":8,"encoder":"03623246","distractor":"03627246","target":"present","response":"absent","rt":"1991.6000000015","correct":false,"confidence":-1},{"trial_n":84,"span":7,"encoder":"5198505","distractor":"5198605","target":"present","response":"present","rt":"1453.200000003","correct":true,"confidence":-1},{"trial_n":85,"span":7,"encoder":"0331744","distractor":"0335744","target":"present","response":"present","rt":"3849.3999999985","correct":true,"confidence":-1},{"trial_n":86,"span":8,"encoder":"28323198","distractor":"28313198","target":"present","response":"present","rt":"3095.099999994","correct":true,"confidence":-1},{"trial_n":87,"span":8,"encoder":"75588071","distractor":"75568071","target":"present","response":"present","rt":"3810.299999997","correct":true,"confidence":-1},{"trial_n":88,"span":9,"encoder":"784508253","distractor":"784508254","target":"absent","response":"absent","rt":"1799.099999994","correct":true,"confidence":-1},{"trial_n":89,"span":9,"encoder":"204925023","distractor":"204924023","target":"present","response":"present","rt":"5334.200000003","correct":true,"confidence":-1},{"trial_n":90,"span":10,"encoder":"5869489014","distractor":"5867489014","target":"absent","response":"absent","rt":"3594.8999999985","correct":true,"confidence":-1},{"trial_n":91,"span":10,"encoder":"1675001559","distractor":"1675001659","target":"absent","response":"absent","rt":"2680.6999999955","correct":true,"confidence":5},{"trial_n":92,"span":11,"encoder":"92588975138","distractor":"92588975137","target":"absent","response":"absent","rt":"1985.1999999955","correct":true,"confidence":5},{"trial_n":93,"span":11,"encoder":"93903027558","distractor":"93903027559","target":"present","response":"present","rt":"1558","correct":true,"confidence":5},{"trial_n":94,"span":12,"encoder":"142240323467","distractor":"142270323467","target":"absent","response":"present","rt":"6001.1000000015","correct":false,"confidence":5},{"trial_n":95,"span":11,"encoder":"87263782834","distractor":"87273782834","target":"present","response":"present","rt":"6103.5","correct":true,"confidence":2},{"trial_n":96,"span":11,"encoder":"42522553110","distractor":"62522553110","target":"present","response":"present","rt":"3343.099999994","correct":true,"confidence":2},{"trial_n":97,"span":12,"encoder":"777009688404","distractor":"777009682404","target":"absent","response":"present","rt":"4230.5","correct":false,"confidence":2},{"trial_n":98,"span":11,"encoder":"25203960793","distractor":"25203960743","target":"present","response":"present","rt":"1422.1000000015","correct":true,"confidence":5},{"trial_n":99,"span":11,"encoder":"74503907122","distractor":"74503307122","target":"present","response":"present","rt":"3237.799999997","correct":true,"confidence":5},{"trial_n":100,"span":12,"encoder":"875659818071","distractor":"875659813071","target":"absent","response":"absent","rt":"5960.200000003","correct":true,"confidence":4},{"trial_n":101,"span":12,"encoder":"980306136649","distractor":"080306136649","target":"absent","response":"absent","rt":"1324","correct":true,"confidence":5},{"trial_n":102,"span":13,"encoder":"4544963095968","distractor":"4544963095961","target":"present","response":"present","rt":"2250.299999997","correct":true,"confidence":5},{"trial_n":103,"span":13,"encoder":"2970778055542","distractor":"2970778058542","target":"present","response":"present","rt":"2328.8999999985","correct":true,"confidence":5},{"trial_n":104,"span":14,"encoder":"12134824210130","distractor":"12134824210230","target":"absent","response":"present","rt":"10280","correct":false,"confidence":2},{"trial_n":105,"span":13,"encoder":"8904923554577","distractor":"8909923554577","target":"absent","response":"present","rt":"4321.799999997","correct":false,"confidence":1},{"trial_n":106,"span":12,"encoder":"024255498443","distractor":"021255498443","target":"absent","response":"absent","rt":"1653.8000000045","correct":true,"confidence":5},{"trial_n":107,"span":12,"encoder":"064181487044","distractor":"044181487044","target":"present","response":"absent","rt":"5068","correct":false,"confidence":4},{"trial_n":108,"span":11,"encoder":"57834385855","distractor":"57834383855","target":"present","response":"present","rt":"9323","correct":true,"confidence":3},{"trial_n":109,"span":11,"encoder":"82057799899","distractor":"82057799895","target":"present","response":"absent","rt":"2791","correct":false,"confidence":5},{"trial_n":110,"span":10,"encoder":"4768881104","distractor":"4768981104","target":"present","response":"present","rt":"3300","correct":true,"confidence":4},{"trial_n":111,"span":10,"encoder":"0980134653","distractor":"0980334653","target":"absent","response":"absent","rt":"3138.8999999985","correct":true,"confidence":5},{"trial_n":112,"span":11,"encoder":"90209511013","distractor":"90209511012","target":"absent","response":"absent","rt":"1477.1999999955","correct":true,"confidence":5},{"trial_n":113,"span":11,"encoder":"53462493163","distractor":"58462493163","target":"absent","response":"absent","rt":"1168.200000003","correct":true,"confidence":5},{"trial_n":114,"span":12,"encoder":"064682817199","distractor":"164682817199","target":"present","response":"present","rt":"3844.6000000015","correct":true,"confidence":5},{"trial_n":115,"span":12,"encoder":"736880905342","distractor":"736880965342","target":"present","response":"present","rt":"4157.5","correct":true,"confidence":5},{"trial_n":116,"span":13,"encoder":"7741769995221","distractor":"7741469995221","target":"absent","response":"absent","rt":"5710.8000000045","correct":true,"confidence":2},{"trial_n":117,"span":13,"encoder":"9871235202441","distractor":"9371235202441","target":"absent","response":"absent","rt":"1660.8999999985","correct":true,"confidence":5},{"trial_n":118,"span":14,"encoder":"77222949123714","distractor":"77222949143714","target":"absent","response":"absent","rt":"6479.8999999985","correct":true,"confidence":2},{"trial_n":119,"span":14,"encoder":"48417898652560","distractor":"41417898652560","target":"absent","response":"absent","rt":"5851.3000000045","correct":true,"confidence":3},{"trial_n":120,"span":15,"encoder":"663453696586351","distractor":"663453694586351","target":"present","response":"present","rt":"6349.799999997","correct":true,"confidence":2},{"trial_n":121,"span":15,"encoder":"990571286323628","distractor":"690571286323628","target":"present","response":"absent","rt":"8101.8999999985","correct":false,"confidence":2},{"trial_n":122,"span":14,"encoder":"01269564384697","distractor":"01269564384997","target":"absent","response":"absent","rt":"6108.3999999985","correct":true,"confidence":3},{"trial_n":123,"span":14,"encoder":"10747723903939","distractor":"10747720903939","target":"present","response":"present","rt":"1497.299999997","correct":true,"confidence":2},{"trial_n":124,"span":15,"encoder":"947046268674386","distractor":"947046268574386","target":"absent","response":"present","rt":"2834.6999999955","correct":false,"confidence":2},{"trial_n":125,"span":14,"encoder":"34682304128827","distractor":"31682304128827","target":"absent","response":"absent","rt":"5121.6000000015","correct":true,"confidence":3},{"trial_n":126,"span":14,"encoder":"13586289104472","distractor":"19586289104472","target":"present","response":"present","rt":"2712.799999997","correct":true,"confidence":5},{"trial_n":127,"span":15,"encoder":"669654268822057","distractor":"669654268822055","target":"absent","response":"present","rt":"14876.899999999","correct":false,"confidence":3},{"trial_n":128,"span":14,"encoder":"30065235573202","distractor":"30065235573242","target":"absent","response":"present","rt":"5836.799999997","correct":false,"confidence":1},{"trial_n":129,"span":13,"encoder":"6255288707429","distractor":"6255288707426","target":"present","response":"present","rt":"3948","correct":true,"confidence":1},{"trial_n":130,"span":13,"encoder":"1436574734326","distractor":"1436574734316","target":"absent","response":"absent","rt":"4935.700000003","correct":true,"confidence":5},{"trial_n":131,"span":14,"encoder":"02802670849231","distractor":"02892670849231","target":"absent","response":"absent","rt":"3621.1999999955","correct":true,"confidence":3},{"trial_n":132,"span":14,"encoder":"76729679183355","distractor":"76729679183358","target":"present","response":"present","rt":"8669.799999997","correct":true,"confidence":3},{"trial_n":133,"span":15,"encoder":"334387523157642","distractor":"334387523157942","target":"absent","response":"present","rt":"26082.300000004","correct":false,"confidence":1},{"trial_n":134,"span":14,"encoder":"34016369597873","distractor":"34016369597870","target":"absent","response":"absent","rt":"1562.1000000015","correct":true,"confidence":5},{"trial_n":135,"span":14,"encoder":"88234604378990","distractor":"88234604348990","target":"present","response":"present","rt":"6061.799999997","correct":true,"confidence":3},{"trial_n":136,"span":15,"encoder":"308778684409871","distractor":"309778684409871","target":"present","response":"absent","rt":"5740.3000000045","correct":false,"confidence":4},{"trial_n":137,"span":14,"encoder":"42533076911589","distractor":"42503076911589","target":"present","response":"present","rt":"5615.1000000015","correct":true,"confidence":2},{"trial_n":138,"span":14,"encoder":"41410018870234","distractor":"41410018870534","target":"present","response":"present","rt":"1695.5","correct":true,"confidence":4},{"trial_n":139,"span":15,"encoder":"342715538582773","distractor":"342715539582773","target":"present","response":"present","rt":"2149.099999994","correct":true,"confidence":2},{"trial_n":140,"span":15,"encoder":"087087144876717","distractor":"027087144876717","target":"absent","response":"absent","rt":"1701.900000006","correct":true,"confidence":5}]