[{"trial_n":1,"span":8,"encoder":"69922284","distractor":"69924284","target":"present","response":"absent","rt":"3469","correct":false,"confidence":-1},{"trial_n":2,"span":6,"encoder":"397600","distractor":"397603","target":"present","response":"present","rt":"1623","correct":true,"confidence":-1},{"trial_n":3,"span":6,"encoder":"405009","distractor":"445009","target":"absent","response":"present","rt":"1591","correct":false,"confidence":-1},{"trial_n":4,"span":4,"encoder":"7735","distractor":"8735","target":"absent","response":"present","rt":"2194","correct":false,"confidence":-1},{"trial_n":5,"span":2,"encoder":"49","distractor":"99","target":"present","response":"absent","rt":"1932","correct":false,"confidence":-1},{"trial_n":6,"span":2,"encoder":"53","distractor":"50","target":"absent","response":"absent","rt":"2126","correct":true,"confidence":-1},{"trial_n":7,"span":2,"encoder":"29","distractor":"27","target":"absent","response":"absent","rt":"1780","correct":true,"confidence":-1},{"trial_n":8,"span":4,"encoder":"4661","distractor":"4631","target":"absent","response":"absent","rt":"1563","correct":true,"confidence":-1},{"trial_n":9,"span":4,"encoder":"3479","distractor":"7479","target":"present","response":"present","rt":"1362","correct":true,"confidence":-1},{"trial_n":10,"span":6,"encoder":"011277","distractor":"211277","target":"present","response":"absent","rt":"1663","correct":false,"confidence":-1},{"trial_n":11,"span":4,"encoder":"9371","distractor":"9370","target":"absent","response":"present","rt":"1922","correct":false,"confidence":-1},{"trial_n":12,"span":3,"encoder":"214","distractor":"211","target":"absent","response":"absent","rt":"1409","correct":true,"confidence":-1},{"trial_n":13,"span":3,"encoder":"956","distractor":"959","target":"present","response":"present","rt":"1412","correct":true,"confidence":-1},{"trial_n":14,"span":4,"encoder":"7320","distractor":"7220","target":"absent","response":"absent","rt":"1417","correct":true,"confidence":-1},{"trial_n":15,"span":4,"encoder":"8825","distractor":"9825","target":"absent","response":"absent","rt":"1660","correct":true,"confidence":-1},{"trial_n":16,"span":5,"encoder":"49349","distractor":"45349","target":"present","response":"present","rt":"1499","correct":true,"confidence":-1},{"trial_n":17,"span":5,"encoder":"53530","distractor":"73530","target":"present","response":"absent","rt":"1295","correct":false,"confidence":-1},{"trial_n":18,"span":4,"encoder":"9343","distractor":"9353","target":"present","response":"absent","rt":"1333","correct":false,"confidence":-1},{"trial_n":19,"span":3,"encoder":"402","distractor":"401","target":"absent","response":"absent","rt":"1252","correct":true,"confidence":-1},{"trial_n":20,"span":3,"encoder":"329","distractor":"325","target":"present","response":"present","rt":"745","correct":true,"confidence":-1},{"trial_n":21,"span":4,"encoder":"1814","distractor":"1804","target":"absent","response":"absent","rt":"1858","correct":true,"confidence":4},{"trial_n":22,"span":4,"encoder":"1624","distractor":"1694","target":"present","response":"absent","rt":"27809","correct":false,"confidence":1},{"trial_n":23,"span":3,"encoder":"792","distractor":"732","target":"absent","response":"absent","rt":"1270","correct":true,"confidence":5},{"trial_n":24,"span":3,"encoder":"518","distractor":"418","target":"present","response":"present","rt":"1014","correct":true,"confidence":5},{"trial_n":25,"span":4,"encoder":"0830","distractor":"0870","target":"absent","response":"absent","rt":"1064","correct":true,"confidence":5},{"trial_n":26,"span":4,"encoder":"0479","distractor":"8479","target":"absent","response":"absent","rt":"2020","correct":true,"confidence":5},{"trial_n":27,"span":5,"encoder":"49001","distractor":"09001","target":"present","response":"present","rt":"1556","correct":true,"confidence":5},{"trial_n":28,"span":5,"encoder":"86741","distractor":"86749","target":"present","response":"present","rt":"2128","correct":true,"confidence":4},{"trial_n":29,"span":6,"encoder":"286481","distractor":"986481","target":"absent","response":"absent","rt":"1209","correct":true,"confidence":5},{"trial_n":30,"span":6,"encoder":"335313","distractor":"335310","target":"present","response":"present","rt":"2504","correct":true,"confidence":4},{"trial_n":31,"span":7,"encoder":"1324059","distractor":"1327059","target":"absent","response":"absent","rt":"1541","correct":true,"confidence":5},{"trial_n":32,"span":7,"encoder":"1885936","distractor":"6885936","target":"absent","response":"absent","rt":"1313","correct":true,"confidence":5},{"trial_n":33,"span":8,"encoder":"62339805","distractor":"69339805","target":"absent","response":"absent","rt":"3729","correct":true,"confidence":3},{"trial_n":34,"span":8,"encoder":"71538398","distractor":"71534398","target":"present","response":"absent","rt":"3803","correct":false,"confidence":3},{"trial_n":35,"span":7,"encoder":"3568771","distractor":"3568777","target":"absent","response":"absent","rt":"2165","correct":true,"confidence":5},{"trial_n":36,"span":7,"encoder":"2508985","distractor":"2508185","target":"present","response":"present","rt":"1856","correct":true,"confidence":4},{"trial_n":37,"span":8,"encoder":"57493338","distractor":"57493388","target":"absent","response":"absent","rt":"32480","correct":true,"confidence":3},{"trial_n":38,"span":8,"encoder":"95915902","distractor":"35915902","target":"absent","response":"present","rt":"3192","correct":false,"confidence":3},{"trial_n":39,"span":7,"encoder":"7585869","distractor":"7581869","target":"absent","response":"present","rt":"2697","correct":false,"confidence":4},{"trial_n":40,"span":6,"encoder":"281879","distractor":"481879","target":"absent","response":"absent","rt":"1604","correct":true,"confidence":5},{"trial_n":41,"span":6,"encoder":"088098","distractor":"088498","target":"present","response":"present","rt":"1968.0000000001","correct":true,"confidence":3},{"trial_n":42,"span":7,"encoder":"3469838","distractor":"3469839","target":"present","response":"present","rt":"58250","correct":true,"confidence":1},{"trial_n":43,"span":7,"encoder":"1745091","distractor":"1747091","target":"present","response":"present","rt":"1416.9999999999","correct":true,"confidence":2},{"trial_n":44,"span":8,"encoder":"65302987","distractor":"65322987","target":"absent","response":"absent","rt":"46806","correct":true,"confidence":1},{"trial_n":45,"span":8,"encoder":"88182345","distractor":"88082345","target":"present","response":"absent","rt":"37153","correct":false,"confidence":1},{"trial_n":46,"span":7,"encoder":"6688370","distractor":"6688372","target":"present","response":"present","rt":"1890.0000000001","correct":true,"confidence":3},{"trial_n":47,"span":7,"encoder":"0013220","distractor":"0813220","target":"absent","response":"absent","rt":"1753","correct":true,"confidence":4},{"trial_n":48,"span":8,"encoder":"37568528","distractor":"47568528","target":"present","response":"present","rt":"3611","correct":true,"confidence":3},{"trial_n":49,"span":8,"encoder":"21733300","distractor":"21733303","target":"absent","response":"present","rt":"2589.0000000001","correct":false,"confidence":1},{"trial_n":50,"span":7,"encoder":"8054733","distractor":"8054703","target":"present","response":"present","rt":"3263","correct":true,"confidence":2},{"trial_n":51,"span":7,"encoder":"6692034","distractor":"1692034","target":"present","response":"present","rt":"2878.0000000002","correct":true,"confidence":4},{"trial_n":52,"span":8,"encoder":"25206725","distractor":"25236725","target":"absent","response":"absent","rt":"1444","correct":true,"confidence":3},{"trial_n":53,"span":8,"encoder":"51974528","distractor":"51974520","target":"absent","response":"present","rt":"2241","correct":false,"confidence":3},{"trial_n":54,"span":7,"encoder":"8661206","distractor":"8661236","target":"present","response":"present","rt":"3662.0000000002","correct":true,"confidence":3},{"trial_n":55,"span":7,"encoder":"6078469","distractor":"6074469","target":"absent","response":"absent","rt":"3897","correct":true,"confidence":3},{"trial_n":56,"span":8,"encoder":"02911475","distractor":"02511475","target":"present","response":"present","rt":"2287","correct":true,"confidence":3},{"trial_n":57,"span":8,"encoder":"82683881","distractor":"82983881","target":"present","response":"present","rt":"2748","correct":true,"confidence":3},{"trial_n":58,"span":9,"encoder":"302049031","distractor":"304049031","target":"present","response":"present","rt":"1927","correct":true,"confidence":1},{"trial_n":59,"span":9,"encoder":"397165831","distractor":"397163831","target":"present","response":"present","rt":"5417","correct":true,"confidence":2},{"trial_n":60,"span":10,"encoder":"2357078232","distractor":"2357078252","target":"present","response":"absent","rt":"3290.9999999998","correct":false,"confidence":1},{"trial_n":61,"span":9,"encoder":"069909813","distractor":"069901813","target":"absent","response":"present","rt":"2556","correct":false,"confidence":1},{"trial_n":62,"span":8,"encoder":"07010780","distractor":"47010780","target":"absent","response":"present","rt":"2209","correct":false,"confidence":3},{"trial_n":63,"span":7,"encoder":"1647855","distractor":"1647455","target":"present","response":"present","rt":"1662","correct":true,"confidence":2},{"trial_n":64,"span":7,"encoder":"8414435","distractor":"1414435","target":"present","response":"present","rt":"5012","correct":true,"confidence":1},{"trial_n":65,"span":8,"encoder":"41102760","distractor":"41106760","target":"absent","response":"absent","rt":"1934","correct":true,"confidence":4},{"trial_n":66,"span":8,"encoder":"42579490","distractor":"42576490","target":"present","response":"absent","rt":"7400","correct":false,"confidence":2},{"trial_n":67,"span":7,"encoder":"8163194","distractor":"8153194","target":"absent","response":"present","rt":"1923","correct":false,"confidence":2},{"trial_n":68,"span":6,"encoder":"029741","distractor":"028741","target":"present","response":"absent","rt":"10803","correct":false,"confidence":1},{"trial_n":69,"span":5,"encoder":"78415","distractor":"78413","target":"present","response":"present","rt":"2690","correct":true,"confidence":5},{"trial_n":70,"span":5,"encoder":"03102","distractor":"03108","target":"absent","response":"absent","rt":"1729.0000000002","correct":true,"confidence":5},{"trial_n":71,"span":8,"encoder":"65740505","distractor":"68740505","target":"present","response":"absent","rt":"7698.9999999998","correct":false,"confidence":-1},{"trial_n":72,"span":7,"encoder":"6796139","distractor":"6796133","target":"present","response":"present","rt":"5863","correct":true,"confidence":-1},{"trial_n":73,"span":7,"encoder":"2366294","distractor":"2366594","target":"absent","response":"absent","rt":"6146","correct":true,"confidence":-1},{"trial_n":74,"span":8,"encoder":"44891670","distractor":"44811670","target":"absent","response":"absent","rt":"3842.0000000002","correct":true,"confidence":-1},{"trial_n":75,"span":8,"encoder":"86290296","distractor":"86295296","target":"present","response":"present","rt":"3921","correct":true,"confidence":-1},{"trial_n":76,"span":9,"encoder":"533837443","distractor":"543837443","target":"absent","response":"present","rt":"5108.9999999998","correct":false,"confidence":-1},{"trial_n":77,"span":8,"encoder":"42771850","distractor":"52771850","target":"absent","response":"absent","rt":"3431","correct":true,"confidence":-1},{"trial_n":78,"span":8,"encoder":"99531653","distractor":"99531663","target":"absent","response":"absent","rt":"9007","correct":true,"confidence":-1},{"trial_n":79,"span":9,"encoder":"986639456","distractor":"986632456","target":"present","response":"present","rt":"8418","correct":true,"confidence":-1},{"trial_n":80,"span":9,"encoder":"984893034","distractor":"984993034","target":"present","response":"present","rt":"4593","correct":true,"confidence":-1},{"trial_n":81,"span":10,"encoder":"0702759084","distractor":"0707759084","target":"absent","response":"absent","rt":"2856","correct":true,"confidence":-1},{"trial_n":82,"span":10,"encoder":"6715545602","distractor":"6715545662","target":"absent","response":"absent","rt":"3612","correct":true,"confidence":-1},{"trial_n":83,"span":11,"encoder":"21885957400","distractor":"20885957400","target":"absent","response":"absent","rt":"3221","correct":true,"confidence":-1},{"trial_n":84,"span":11,"encoder":"61011391311","distractor":"61011331311","target":"absent","response":"absent","rt":"4620.0000000002","correct":true,"confidence":-1},{"trial_n":85,"span":12,"encoder":"832332103056","distractor":"832332103256","target":"present","response":"present","rt":"4900","correct":true,"confidence":-1},{"trial_n":86,"span":12,"encoder":"959904189682","distractor":"959904189382","target":"absent","response":"present","rt":"5796","correct":false,"confidence":-1},{"trial_n":87,"span":11,"encoder":"87857983063","distractor":"87857983763","target":"present","response":"present","rt":"2080","correct":true,"confidence":-1},{"trial_n":88,"span":11,"encoder":"63482523222","distractor":"63484523222","target":"present","response":"present","rt":"6944","correct":true,"confidence":-1},{"trial_n":89,"span":12,"encoder":"243507978006","distractor":"243508978006","target":"present","response":"present","rt":"7367","correct":true,"confidence":-1},{"trial_n":90,"span":12,"encoder":"880228845627","distractor":"880220845627","target":"absent","response":"present","rt":"3720","correct":false,"confidence":-1},{"trial_n":91,"span":11,"encoder":"66525684339","distractor":"66521684339","target":"present","response":"present","rt":"7790.0000000002","correct":true,"confidence":2},{"trial_n":92,"span":11,"encoder":"54489614410","distractor":"54489014410","target":"present","response":"present","rt":"4640.0000000002","correct":true,"confidence":5},{"trial_n":93,"span":12,"encoder":"158895945091","distractor":"958895945091","target":"absent","response":"present","rt":"4908","correct":false,"confidence":3},{"trial_n":94,"span":11,"encoder":"09825001349","distractor":"09865001349","target":"absent","response":"absent","rt":"3590","correct":true,"confidence":5},{"trial_n":95,"span":11,"encoder":"20966850336","distractor":"20966850396","target":"absent","response":"absent","rt":"2572.9999999998","correct":true,"confidence":5},{"trial_n":96,"span":12,"encoder":"927021010466","distractor":"627021010466","target":"present","response":"present","rt":"6675.9999999998","correct":true,"confidence":4},{"trial_n":97,"span":12,"encoder":"365839632644","distractor":"365836632644","target":"absent","response":"absent","rt":"6199","correct":true,"confidence":3},{"trial_n":98,"span":13,"encoder":"6087331281875","distractor":"6087331281873","target":"absent","response":"present","rt":"20794","correct":false,"confidence":1},{"trial_n":99,"span":12,"encoder":"159780497153","distractor":"159780497053","target":"present","response":"present","rt":"4306","correct":true,"confidence":4},{"trial_n":100,"span":12,"encoder":"744942144832","distractor":"742942144832","target":"present","response":"absent","rt":"8346","correct":false,"confidence":3},{"trial_n":101,"span":11,"encoder":"74385584122","distractor":"74365584122","target":"present","response":"present","rt":"16163","correct":true,"confidence":3},{"trial_n":102,"span":11,"encoder":"48269444619","distractor":"48269447619","target":"absent","response":"present","rt":"16704","correct":false,"confidence":3},{"trial_n":103,"span":10,"encoder":"5704971308","distractor":"5704771308","target":"present","response":"present","rt":"3459","correct":true,"confidence":3},{"trial_n":104,"span":10,"encoder":"9023732010","distractor":"9025732010","target":"present","response":"present","rt":"11017","correct":true,"confidence":2},{"trial_n":105,"span":11,"encoder":"01686789874","distractor":"07686789874","target":"present","response":"absent","rt":"8929","correct":false,"confidence":3},{"trial_n":106,"span":10,"encoder":"7074607708","distractor":"7874607708","target":"present","response":"present","rt":"2425.9999999995","correct":true,"confidence":2},{"trial_n":107,"span":10,"encoder":"0187983483","distractor":"0157983483","target":"absent","response":"absent","rt":"5049.9999999995","correct":true,"confidence":4},{"trial_n":108,"span":11,"encoder":"22900055899","distractor":"02900055899","target":"present","response":"present","rt":"3730","correct":true,"confidence":5},{"trial_n":109,"span":11,"encoder":"94515418148","distractor":"94513418148","target":"absent","response":"absent","rt":"5883","correct":true,"confidence":1},{"trial_n":110,"span":12,"encoder":"302892681733","distractor":"302892881733","target":"present","response":"absent","rt":"5979","correct":false,"confidence":1},{"trial_n":111,"span":11,"encoder":"11350968463","distractor":"10350968463","target":"present","response":"present","rt":"4726","correct":true,"confidence":5},{"trial_n":112,"span":11,"encoder":"32115932136","distractor":"32115932336","target":"absent","response":"absent","rt":"5091","correct":true,"confidence":4},{"trial_n":113,"span":12,"encoder":"717230323491","distractor":"717230373491","target":"absent","response":"present","rt":"10172","correct":false,"confidence":2},{"trial_n":114,"span":11,"encoder":"73288942010","distractor":"73208942010","target":"absent","response":"absent","rt":"2237","correct":true,"confidence":5},{"trial_n":115,"span":11,"encoder":"41332480779","distractor":"01332480779","target":"present","response":"present","rt":"8489","correct":true,"confidence":3},{"trial_n":116,"span":12,"encoder":"242934781478","distractor":"442934781478","target":"absent","response":"absent","rt":"11275","correct":true,"confidence":3},{"trial_n":117,"span":12,"encoder":"151934626549","distractor":"151974626549","target":"absent","response":"absent","rt":"5788","correct":true,"confidence":3},{"trial_n":118,"span":13,"encoder":"2021323586048","distractor":"2071323586048","target":"present","response":"present","rt":"8226","correct":true,"confidence":3},{"trial_n":119,"span":13,"encoder":"1130319990943","distractor":"1130319993943","target":"present","response":"absent","rt":"8768.9999999995","correct":false,"confidence":1},{"trial_n":120,"span":12,"encoder":"816280570390","distractor":"816280570350","target":"present","response":"present","rt":"3244","correct":true,"confidence":3},{"trial_n":121,"span":12,"encoder":"381574411113","distractor":"381572411113","target":"present","response":"present","rt":"8583.0000000005","correct":true,"confidence":3},{"trial_n":122,"span":13,"encoder":"1939275966744","distractor":"1939275916744","target":"present","response":"present","rt":"9873","correct":true,"confidence":4},{"trial_n":123,"span":13,"encoder":"7558593532167","distractor":"7558593632167","target":"absent","response":"absent","rt":"5095","correct":true,"confidence":4},{"trial_n":124,"span":14,"encoder":"30841204908770","distractor":"30841304908770","target":"present","response":"present","rt":"11138","correct":true,"confidence":3},{"trial_n":125,"span":14,"encoder":"44342172772549","distractor":"44342174772549","target":"absent","response":"absent","rt":"6877","correct":true,"confidence":3},{"trial_n":126,"span":15,"encoder":"004416501929092","distractor":"005416501929092","target":"present","response":"absent","rt":"9888","correct":false,"confidence":1},{"trial_n":127,"span":14,"encoder":"39832038036365","distractor":"39832038031365","target":"present","response":"present","rt":"2206","correct":true,"confidence":5},{"trial_n":128,"span":14,"encoder":"10075776330798","distractor":"60075776330798","target":"absent","response":"present","rt":"5024.0000000005","correct":false,"confidence":1},{"trial_n":129,"span":13,"encoder":"4669677249055","distractor":"4669677249455","target":"present","response":"present","rt":"14792","correct":true,"confidence":3},{"trial_n":130,"span":13,"encoder":"2083697393788","distractor":"2088697393788","target":"present","response":"absent","rt":"10359","correct":false,"confidence":1},{"trial_n":131,"span":12,"encoder":"318077913101","distractor":"318070913101","target":"absent","response":"absent","rt":"9302","correct":true,"confidence":1},{"trial_n":132,"span":12,"encoder":"896745028627","distractor":"896765028627","target":"present","response":"absent","rt":"4617","correct":false,"confidence":4},{"trial_n":133,"span":11,"encoder":"00090797343","distractor":"00790797343","target":"absent","response":"absent","rt":"4280.0000000005","correct":true,"confidence":4},{"trial_n":134,"span":11,"encoder":"94923762407","distractor":"94923763407","target":"absent","response":"present","rt":"5960.9999999995","correct":false,"confidence":1},{"trial_n":135,"span":10,"encoder":"0775750334","distractor":"0775751334","target":"present","response":"present","rt":"6964","correct":true,"confidence":2},{"trial_n":136,"span":10,"encoder":"5357374649","distractor":"5358374649","target":"absent","response":"absent","rt":"10233","correct":true,"confidence":3},{"trial_n":137,"span":11,"encoder":"38325056425","distractor":"38325036425","target":"absent","response":"absent","rt":"7375.9999999995","correct":true,"confidence":1},{"trial_n":138,"span":11,"encoder":"33736698163","distractor":"33733698163","target":"present","response":"present","rt":"7611","correct":true,"confidence":1},{"trial_n":139,"span":12,"encoder":"973439138937","distractor":"973439138997","target":"absent","response":"absent","rt":"6387","correct":true,"confidence":1},{"trial_n":140,"span":12,"encoder":"790637887942","distractor":"790637817942","target":"absent","response":"absent","rt":"2475","correct":true,"confidence":1}]