[{"trial_n":1,"n_dots":4.25,"target":"right","response":"left","rt":23782,"correct":false,"confidence":-1},{"trial_n":2,"n_dots":4.25,"target":"left","response":"right","rt":2489,"correct":false,"confidence":-1},{"trial_n":3,"n_dots":4.65,"target":"left","response":"right","rt":1614,"correct":false,"confidence":-1},{"trial_n":4,"n_dots":5.05,"target":"right","response":"right","rt":1467,"correct":true,"confidence":-1},{"trial_n":5,"n_dots":5.05,"target":"right","response":"right","rt":1225,"correct":true,"confidence":-1},{"trial_n":6,"n_dots":4.65,"target":"left","response":"right","rt":1250,"correct":false,"confidence":-1},{"trial_n":7,"n_dots":5.05,"target":"left","response":"right","rt":1147,"correct":false,"confidence":-1},{"trial_n":8,"n_dots":5.25,"target":"left","response":"left","rt":1004,"correct":true,"confidence":-1},{"trial_n":9,"n_dots":5.25,"target":"right","response":"right","rt":1109,"correct":true,"confidence":-1},{"trial_n":10,"n_dots":5.05,"target":"left","response":"left","rt":1253,"correct":true,"confidence":-1},{"trial_n":11,"n_dots":5.05,"target":"right","response":"right","rt":1373,"correct":true,"confidence":-1},{"trial_n":12,"n_dots":4.85,"target":"left","response":"right","rt":1150,"correct":false,"confidence":-1},{"trial_n":13,"n_dots":4.95,"target":"left","response":"right","rt":2068,"correct":false,"confidence":-1},{"trial_n":14,"n_dots":5.05,"target":"left","response":"left","rt":956,"correct":true,"confidence":-1},{"trial_n":15,"n_dots":5.05,"target":"right","response":"left","rt":1151,"correct":false,"confidence":-1},{"trial_n":16,"n_dots":5.15,"target":"right","response":"right","rt":902,"correct":true,"confidence":-1},{"trial_n":17,"n_dots":5.15,"target":"right","response":"right","rt":2570,"correct":true,"confidence":-1},{"trial_n":18,"n_dots":5.05,"target":"right","response":"right","rt":860,"correct":true,"confidence":-1},{"trial_n":19,"n_dots":5.05,"target":"right","response":"left","rt":1179,"correct":false,"confidence":-1},{"trial_n":20,"n_dots":5.15,"target":"left","response":"left","rt":906.00000000001,"correct":true,"confidence":-1},{"trial_n":21,"n_dots":5.15,"target":"left","response":"right","rt":1502,"correct":false,"confidence":3},{"trial_n":22,"n_dots":5.25,"target":"right","response":"right","rt":1881,"correct":true,"confidence":3},{"trial_n":23,"n_dots":5.25,"target":"right","response":"left","rt":1225,"correct":false,"confidence":3},{"trial_n":24,"n_dots":5.35,"target":"right","response":"right","rt":2564,"correct":true,"confidence":2},{"trial_n":25,"n_dots":5.35,"target":"right","response":"left","rt":1022,"correct":false,"confidence":3},{"trial_n":26,"n_dots":5.45,"target":"right","response":"left","rt":1099,"correct":false,"confidence":3},{"trial_n":27,"n_dots":5.55,"target":"left","response":"right","rt":1193,"correct":false,"confidence":3},{"trial_n":28,"n_dots":5.65,"target":"left","response":"left","rt":3274,"correct":true,"confidence":2},{"trial_n":29,"n_dots":5.65,"target":"left","response":"right","rt":1023,"correct":false,"confidence":3},{"trial_n":30,"n_dots":5.743,"target":"left","response":"right","rt":1007,"correct":false,"confidence":3},{"trial_n":31,"n_dots":5.743,"target":"right","response":"left","rt":736,"correct":false,"confidence":5},{"trial_n":32,"n_dots":5.743,"target":"right","response":"left","rt":768,"correct":false,"confidence":5},{"trial_n":33,"n_dots":5.743,"target":"left","response":"right","rt":1074,"correct":false,"confidence":5},{"trial_n":34,"n_dots":5.743,"target":"left","response":"right","rt":1173,"correct":false,"confidence":5},{"trial_n":35,"n_dots":5.743,"target":"left","response":"right","rt":997,"correct":false,"confidence":5},{"trial_n":36,"n_dots":5.743,"target":"right","response":"left","rt":1110,"correct":false,"confidence":5},{"trial_n":37,"n_dots":5.743,"target":"right","response":"left","rt":1513,"correct":false,"confidence":5},{"trial_n":38,"n_dots":5.743,"target":"right","response":"left","rt":776,"correct":false,"confidence":5},{"trial_n":39,"n_dots":5.743,"target":"right","response":"left","rt":1266,"correct":false,"confidence":5},{"trial_n":40,"n_dots":5.743,"target":"left","response":"right","rt":1013,"correct":false,"confidence":5},{"trial_n":41,"n_dots":5.743,"target":"left","response":"right","rt":3459,"correct":false,"confidence":3},{"trial_n":42,"n_dots":5.743,"target":"left","response":"right","rt":781,"correct":false,"confidence":5},{"trial_n":43,"n_dots":5.743,"target":"right","response":"left","rt":849,"correct":false,"confidence":4},{"trial_n":44,"n_dots":5.743,"target":"left","response":"right","rt":825,"correct":false,"confidence":4},{"trial_n":45,"n_dots":5.743,"target":"right","response":"left","rt":2360,"correct":false,"confidence":4},{"trial_n":46,"n_dots":5.743,"target":"right","response":"left","rt":1198,"correct":false,"confidence":5},{"trial_n":47,"n_dots":5.743,"target":"right","response":"left","rt":672,"correct":false,"confidence":5},{"trial_n":48,"n_dots":5.743,"target":"right","response":"left","rt":1231,"correct":false,"confidence":5},{"trial_n":49,"n_dots":5.743,"target":"left","response":"right","rt":1727,"correct":false,"confidence":5},{"trial_n":50,"n_dots":5.743,"target":"left","response":"right","rt":877,"correct":false,"confidence":5},{"trial_n":51,"n_dots":5.743,"target":"right","response":"left","rt":826,"correct":false,"confidence":5},{"trial_n":52,"n_dots":5.743,"target":"right","response":"left","rt":500,"correct":false,"confidence":5},{"trial_n":53,"n_dots":5.743,"target":"right","response":"left","rt":191,"correct":false,"confidence":5},{"trial_n":54,"n_dots":5.743,"target":"left","response":"right","rt":198,"correct":false,"confidence":5},{"trial_n":55,"n_dots":5.743,"target":"right","response":"left","rt":1288,"correct":false,"confidence":5},{"trial_n":56,"n_dots":5.743,"target":"right","response":"left","rt":1112,"correct":false,"confidence":5},{"trial_n":57,"n_dots":5.743,"target":"right","response":"left","rt":1054,"correct":false,"confidence":5},{"trial_n":58,"n_dots":5.743,"target":"right","response":"left","rt":4300,"correct":false,"confidence":2},{"trial_n":59,"n_dots":5.743,"target":"left","response":"right","rt":1127,"correct":false,"confidence":3},{"trial_n":60,"n_dots":5.743,"target":"left","response":"right","rt":468,"correct":false,"confidence":4},{"trial_n":61,"n_dots":5.743,"target":"right","response":"left","rt":1813,"correct":false,"confidence":4},{"trial_n":62,"n_dots":5.743,"target":"left","response":"right","rt":492,"correct":false,"confidence":4},{"trial_n":63,"n_dots":5.743,"target":"right","response":"left","rt":593,"correct":false,"confidence":4},{"trial_n":64,"n_dots":5.743,"target":"left","response":"right","rt":772,"correct":false,"confidence":4},{"trial_n":65,"n_dots":5.743,"target":"right","response":"left","rt":501,"correct":false,"confidence":5},{"trial_n":66,"n_dots":5.743,"target":"left","response":"right","rt":559,"correct":false,"confidence":5},{"trial_n":67,"n_dots":5.743,"target":"right","response":"left","rt":509.00000000012,"correct":false,"confidence":5},{"trial_n":68,"n_dots":5.743,"target":"right","response":"left","rt":294,"correct":false,"confidence":5},{"trial_n":69,"n_dots":5.743,"target":"right","response":"left","rt":743,"correct":false,"confidence":5},{"trial_n":70,"n_dots":5.743,"target":"right","response":"left","rt":966,"correct":false,"confidence":5},{"trial_n":71,"n_dots":5.743,"target":"right","response":"left","rt":371,"correct":false,"confidence":5},{"trial_n":72,"n_dots":5.743,"target":"right","response":"left","rt":581,"correct":false,"confidence":5},{"trial_n":73,"n_dots":5.743,"target":"right","response":"left","rt":1755.9999999999,"correct":false,"confidence":3},{"trial_n":74,"n_dots":5.743,"target":"left","response":"right","rt":982,"correct":false,"confidence":5},{"trial_n":75,"n_dots":5.743,"target":"left","response":"right","rt":527,"correct":false,"confidence":5},{"trial_n":76,"n_dots":5.743,"target":"left","response":"right","rt":566,"correct":false,"confidence":5},{"trial_n":77,"n_dots":5.743,"target":"right","response":"left","rt":607,"correct":false,"confidence":5},{"trial_n":78,"n_dots":5.743,"target":"left","response":"right","rt":387,"correct":false,"confidence":5},{"trial_n":79,"n_dots":5.743,"target":"right","response":"left","rt":622,"correct":false,"confidence":5},{"trial_n":80,"n_dots":5.743,"target":"left","response":"right","rt":776,"correct":false,"confidence":5},{"trial_n":81,"n_dots":5.743,"target":"left","response":"right","rt":1030,"correct":false,"confidence":5},{"trial_n":82,"n_dots":5.743,"target":"left","response":"right","rt":84,"correct":false,"confidence":5},{"trial_n":83,"n_dots":5.743,"target":"right","response":"left","rt":310,"correct":false,"confidence":5},{"trial_n":84,"n_dots":5.743,"target":"left","response":"right","rt":434,"correct":false,"confidence":5},{"trial_n":85,"n_dots":5.743,"target":"right","response":"left","rt":481,"correct":false,"confidence":5},{"trial_n":86,"n_dots":5.743,"target":"right","response":"left","rt":1927,"correct":false,"confidence":5},{"trial_n":87,"n_dots":5.743,"target":"left","response":"right","rt":356,"correct":false,"confidence":5},{"trial_n":88,"n_dots":5.743,"target":"left","response":"right","rt":590,"correct":false,"confidence":5},{"trial_n":89,"n_dots":5.743,"target":"right","response":"left","rt":494,"correct":false,"confidence":5},{"trial_n":90,"n_dots":5.743,"target":"right","response":"left","rt":514,"correct":false,"confidence":2},{"trial_n":91,"n_dots":5.743,"target":"right","response":"left","rt":1302,"correct":false,"confidence":1},{"trial_n":92,"n_dots":5.743,"target":"left","response":"right","rt":822,"correct":false,"confidence":3},{"trial_n":93,"n_dots":5.743,"target":"left","response":"right","rt":423,"correct":false,"confidence":3},{"trial_n":94,"n_dots":5.743,"target":"left","response":"right","rt":1081.0000000001,"correct":false,"confidence":3},{"trial_n":95,"n_dots":5.743,"target":"left","response":"right","rt":539,"correct":false,"confidence":3},{"trial_n":96,"n_dots":5.743,"target":"left","response":"right","rt":621.99999999988,"correct":false,"confidence":3},{"trial_n":97,"n_dots":5.743,"target":"right","response":"left","rt":514,"correct":false,"confidence":3},{"trial_n":98,"n_dots":5.743,"target":"left","response":"right","rt":534,"correct":false,"confidence":4},{"trial_n":99,"n_dots":5.743,"target":"left","response":"right","rt":1072,"correct":false,"confidence":4},{"trial_n":100,"n_dots":5.743,"target":"left","response":"right","rt":699.00000000012,"correct":false,"confidence":5},{"trial_n":101,"n_dots":5.743,"target":"left","response":"right","rt":1202,"correct":false,"confidence":5},{"trial_n":102,"n_dots":5.743,"target":"left","response":"right","rt":518,"correct":false,"confidence":5},{"trial_n":103,"n_dots":5.743,"target":"left","response":"right","rt":878,"correct":false,"confidence":5},{"trial_n":104,"n_dots":5.743,"target":"right","response":"left","rt":473,"correct":false,"confidence":5},{"trial_n":105,"n_dots":5.743,"target":"left","response":"right","rt":733,"correct":false,"confidence":5},{"trial_n":106,"n_dots":5.743,"target":"right","response":"left","rt":695,"correct":false,"confidence":5},{"trial_n":107,"n_dots":5.743,"target":"right","response":"left","rt":714,"correct":false,"confidence":5},{"trial_n":108,"n_dots":5.743,"target":"left","response":"right","rt":418.99999999988,"correct":false,"confidence":5},{"trial_n":109,"n_dots":5.743,"target":"left","response":"right","rt":498.99999999988,"correct":false,"confidence":5},{"trial_n":110,"n_dots":5.743,"target":"left","response":"right","rt":396.99999999988,"correct":false,"confidence":5},{"trial_n":111,"n_dots":5.743,"target":"right","response":"left","rt":303,"correct":false,"confidence":5},{"trial_n":112,"n_dots":5.743,"target":"right","response":"left","rt":839,"correct":false,"confidence":5},{"trial_n":113,"n_dots":5.743,"target":"right","response":"left","rt":489.00000000012,"correct":false,"confidence":5},{"trial_n":114,"n_dots":5.743,"target":"left","response":"right","rt":448,"correct":false,"confidence":5},{"trial_n":115,"n_dots":5.743,"target":"left","response":"right","rt":242,"correct":false,"confidence":5},{"trial_n":116,"n_dots":5.743,"target":"left","response":"right","rt":386,"correct":false,"confidence":5},{"trial_n":117,"n_dots":5.743,"target":"right","response":"left","rt":532,"correct":false,"confidence":5},{"trial_n":118,"n_dots":5.743,"target":"left","response":"right","rt":417.00000000012,"correct":false,"confidence":5},{"trial_n":119,"n_dots":5.743,"target":"left","response":"right","rt":399,"correct":false,"confidence":5},{"trial_n":120,"n_dots":5.743,"target":"right","response":"left","rt":540.99999999988,"correct":false,"confidence":5}]