[{"trial_n":1,"min":25,"max":230,"target":"present","response":"present","rt":4147.6999999955,"correct":true,"confidence":-1},{"trial_n":2,"min":25,"max":230,"target":"present","response":"present","rt":781.79999999702,"correct":true,"confidence":-1},{"trial_n":3,"min":41,"max":214,"target":"absent","response":"absent","rt":3424.3000000045,"correct":true,"confidence":-1},{"trial_n":4,"min":41,"max":214,"target":"absent","response":"absent","rt":764.30000000447,"correct":true,"confidence":-1},{"trial_n":5,"min":57,"max":198,"target":"present","response":"present","rt":755.89999999851,"correct":true,"confidence":-1},{"trial_n":6,"min":57,"max":198,"target":"absent","response":"absent","rt":590.89999999851,"correct":true,"confidence":-1},{"trial_n":7,"min":73,"max":182,"target":"present","response":"absent","rt":346.90000000596,"correct":false,"confidence":-1},{"trial_n":8,"min":57,"max":198,"target":"absent","response":"present","rt":656,"correct":false,"confidence":-1},{"trial_n":9,"min":41,"max":214,"target":"absent","response":"absent","rt":513.20000000298,"correct":true,"confidence":-1},{"trial_n":10,"min":41,"max":214,"target":"present","response":"present","rt":597.79999999702,"correct":true,"confidence":-1},{"trial_n":11,"min":49,"max":206,"target":"present","response":"present","rt":1093.6000000015,"correct":true,"confidence":-1},{"trial_n":12,"min":49,"max":206,"target":"absent","response":"absent","rt":437,"correct":true,"confidence":-1},{"trial_n":13,"min":57,"max":198,"target":"present","response":"present","rt":508.69999999553,"correct":true,"confidence":-1},{"trial_n":14,"min":57,"max":198,"target":"present","response":"present","rt":913.10000000149,"correct":true,"confidence":-1},{"trial_n":15,"min":65,"max":190,"target":"absent","response":"present","rt":1136.200000003,"correct":false,"confidence":-1},{"trial_n":16,"min":57,"max":198,"target":"present","response":"present","rt":886.89999999851,"correct":true,"confidence":-1},{"trial_n":17,"min":57,"max":198,"target":"absent","response":"absent","rt":555.10000000149,"correct":true,"confidence":-1},{"trial_n":18,"min":65,"max":190,"target":"present","response":"present","rt":696.5,"correct":true,"confidence":-1},{"trial_n":19,"min":65,"max":190,"target":"absent","response":"absent","rt":536.5,"correct":true,"confidence":-1},{"trial_n":20,"min":73,"max":182,"target":"absent","response":"present","rt":1117.6999999955,"correct":false,"confidence":-1},{"trial_n":21,"min":69,"max":186,"target":"absent","response":"absent","rt":1066.1000000015,"correct":true,"confidence":5},{"trial_n":22,"min":69,"max":186,"target":"present","response":"absent","rt":784.29999999702,"correct":false,"confidence":5},{"trial_n":23,"min":65,"max":190,"target":"present","response":"present","rt":1043.3000000045,"correct":true,"confidence":4},{"trial_n":24,"min":65,"max":190,"target":"present","response":"present","rt":1787.6999999955,"correct":true,"confidence":3},{"trial_n":25,"min":69,"max":186,"target":"present","response":"absent","rt":723.70000000298,"correct":false,"confidence":3},{"trial_n":26,"min":65,"max":190,"target":"absent","response":"absent","rt":1780.3999999985,"correct":true,"confidence":5},{"trial_n":27,"min":65,"max":190,"target":"absent","response":"absent","rt":882.70000000298,"correct":true,"confidence":5},{"trial_n":28,"min":69,"max":186,"target":"absent","response":"absent","rt":1306.200000003,"correct":true,"confidence":5},{"trial_n":29,"min":69,"max":186,"target":"present","response":"present","rt":1061,"correct":true,"confidence":4},{"trial_n":30,"min":73,"max":182,"target":"present","response":"present","rt":1001.8999999985,"correct":true,"confidence":4},{"trial_n":31,"min":73,"max":182,"target":"present","response":"absent","rt":735.69999999553,"correct":false,"confidence":5},{"trial_n":32,"min":71,"max":184,"target":"absent","response":"absent","rt":722.89999999851,"correct":true,"confidence":5},{"trial_n":33,"min":71,"max":184,"target":"present","response":"present","rt":987.19999999553,"correct":true,"confidence":3},{"trial_n":34,"min":73,"max":182,"target":"absent","response":"present","rt":789.10000000149,"correct":false,"confidence":3},{"trial_n":35,"min":71,"max":184,"target":"absent","response":"absent","rt":927.29999999702,"correct":true,"confidence":5},{"trial_n":36,"min":71,"max":184,"target":"absent","response":"absent","rt":1232,"correct":true,"confidence":5},{"trial_n":37,"min":73,"max":182,"target":"present","response":"present","rt":866.10000000149,"correct":true,"confidence":3},{"trial_n":38,"min":73,"max":182,"target":"absent","response":"absent","rt":678.19999999553,"correct":true,"confidence":5},{"trial_n":39,"min":75,"max":180,"target":"absent","response":"absent","rt":1815.900000006,"correct":true,"confidence":5},{"trial_n":40,"min":75,"max":180,"target":"absent","response":"absent","rt":702.90000000596,"correct":true,"confidence":5},{"trial_n":41,"min":76,"max":179,"target":"present","response":"present","rt":760.79999999702,"correct":true,"confidence":4},{"trial_n":42,"min":76,"max":179,"target":"present","response":"present","rt":627,"correct":true,"confidence":4},{"trial_n":43,"min":77,"max":178,"target":"present","response":"absent","rt":1285.900000006,"correct":false,"confidence":5},{"trial_n":44,"min":76,"max":179,"target":"absent","response":"absent","rt":641.10000000149,"correct":true,"confidence":5},{"trial_n":45,"min":76,"max":179,"target":"absent","response":"absent","rt":1689.299999997,"correct":true,"confidence":5},{"trial_n":46,"min":77,"max":178,"target":"present","response":"absent","rt":1108.400000006,"correct":false,"confidence":5},{"trial_n":47,"min":76,"max":179,"target":"present","response":"present","rt":843.70000000298,"correct":true,"confidence":3},{"trial_n":48,"min":76,"max":179,"target":"absent","response":"absent","rt":588.20000000298,"correct":true,"confidence":5},{"trial_n":49,"min":77,"max":178,"target":"present","response":"absent","rt":967.30000000447,"correct":false,"confidence":5},{"trial_n":50,"min":76,"max":179,"target":"present","response":"absent","rt":663.10000000149,"correct":false,"confidence":5},{"trial_n":51,"min":75,"max":180,"target":"absent","response":"present","rt":1439.099999994,"correct":false,"confidence":3},{"trial_n":52,"min":74,"max":181,"target":"present","response":"present","rt":807.79999999702,"correct":true,"confidence":3},{"trial_n":53,"min":74,"max":181,"target":"present","response":"absent","rt":636.80000000447,"correct":false,"confidence":5},{"trial_n":54,"min":73,"max":182,"target":"present","response":"present","rt":1602.400000006,"correct":true,"confidence":5},{"trial_n":55,"min":73,"max":182,"target":"present","response":"present","rt":588.10000000149,"correct":true,"confidence":4},{"trial_n":56,"min":74,"max":181,"target":"absent","response":"absent","rt":720.60000000149,"correct":true,"confidence":5},{"trial_n":57,"min":74,"max":181,"target":"absent","response":"absent","rt":661.79999999702,"correct":true,"confidence":5},{"trial_n":58,"min":75,"max":180,"target":"absent","response":"absent","rt":526.70000000298,"correct":true,"confidence":5},{"trial_n":59,"min":75,"max":180,"target":"present","response":"present","rt":977.70000000298,"correct":true,"confidence":4},{"trial_n":60,"min":76,"max":179,"target":"absent","response":"absent","rt":884,"correct":true,"confidence":5},{"trial_n":61,"min":76,"max":179,"target":"present","response":"absent","rt":1037.700000003,"correct":false,"confidence":2},{"trial_n":62,"min":75,"max":180,"target":"absent","response":"absent","rt":608.5,"correct":true,"confidence":5},{"trial_n":63,"min":75,"max":180,"target":"present","response":"present","rt":747.39999999851,"correct":true,"confidence":3},{"trial_n":64,"min":76,"max":179,"target":"present","response":"present","rt":948.89999999851,"correct":true,"confidence":3},{"trial_n":65,"min":76,"max":179,"target":"absent","response":"absent","rt":1574.1000000015,"correct":true,"confidence":5},{"trial_n":66,"min":77,"max":178,"target":"absent","response":"present","rt":1155.3999999985,"correct":false,"confidence":3},{"trial_n":67,"min":76,"max":179,"target":"absent","response":"absent","rt":539.70000000298,"correct":true,"confidence":5},{"trial_n":68,"min":76,"max":179,"target":"present","response":"absent","rt":963,"correct":false,"confidence":5},{"trial_n":69,"min":75,"max":180,"target":"absent","response":"absent","rt":534.29999999702,"correct":true,"confidence":5},{"trial_n":70,"min":75,"max":180,"target":"present","response":"present","rt":578.09999999404,"correct":true,"confidence":4},{"trial_n":71,"min":41,"max":214,"target":"present","response":"absent","rt":2799.200000003,"correct":false,"confidence":-1},{"trial_n":72,"min":41,"max":214,"target":"present","response":"present","rt":1943.8999999985,"correct":true,"confidence":-1},{"trial_n":73,"min":41,"max":214,"target":"absent","response":"present","rt":525,"correct":false,"confidence":-1},{"trial_n":74,"min":25,"max":230,"target":"absent","response":"present","rt":319.30000000447,"correct":false,"confidence":-1},{"trial_n":75,"min":9,"max":246,"target":"present","response":"present","rt":2940.299999997,"correct":true,"confidence":-1},{"trial_n":76,"min":9,"max":246,"target":"present","response":"present","rt":364.59999999404,"correct":true,"confidence":-1},{"trial_n":77,"min":25,"max":230,"target":"absent","response":"present","rt":314.09999999404,"correct":false,"confidence":-1},{"trial_n":78,"min":9,"max":246,"target":"absent","response":"present","rt":4575.099999994,"correct":false,"confidence":-1},{"trial_n":79,"min":0,"max":255,"target":"present","response":"present","rt":368.29999999702,"correct":true,"confidence":-1},{"trial_n":80,"min":0,"max":255,"target":"present","response":"present","rt":483,"correct":true,"confidence":-1},{"trial_n":81,"min":8,"max":247,"target":"present","response":"present","rt":378.79999999702,"correct":true,"confidence":-1},{"trial_n":82,"min":8,"max":247,"target":"present","response":"present","rt":361.79999999702,"correct":true,"confidence":-1},{"trial_n":83,"min":16,"max":239,"target":"absent","response":"absent","rt":723.90000000596,"correct":true,"confidence":-1},{"trial_n":84,"min":16,"max":239,"target":"present","response":"present","rt":456.69999999553,"correct":true,"confidence":-1},{"trial_n":85,"min":24,"max":231,"target":"absent","response":"absent","rt":516.69999999553,"correct":true,"confidence":-1},{"trial_n":86,"min":24,"max":231,"target":"absent","response":"absent","rt":666,"correct":true,"confidence":-1},{"trial_n":87,"min":32,"max":223,"target":"absent","response":"absent","rt":406.10000000149,"correct":true,"confidence":-1},{"trial_n":88,"min":32,"max":223,"target":"absent","response":"absent","rt":414.19999999553,"correct":true,"confidence":-1},{"trial_n":89,"min":40,"max":215,"target":"present","response":"present","rt":582.59999999404,"correct":true,"confidence":-1},{"trial_n":90,"min":40,"max":215,"target":"present","response":"present","rt":628.5,"correct":true,"confidence":-1},{"trial_n":91,"min":44,"max":211,"target":"present","response":"present","rt":1590.299999997,"correct":true,"confidence":4},{"trial_n":92,"min":44,"max":211,"target":"absent","response":"absent","rt":592.89999999851,"correct":true,"confidence":5},{"trial_n":93,"min":48,"max":207,"target":"present","response":"present","rt":976.09999999404,"correct":true,"confidence":5},{"trial_n":94,"min":48,"max":207,"target":"absent","response":"absent","rt":768.69999999553,"correct":true,"confidence":5},{"trial_n":95,"min":52,"max":203,"target":"present","response":"present","rt":1764.5,"correct":true,"confidence":5},{"trial_n":96,"min":52,"max":203,"target":"absent","response":"absent","rt":564.80000000447,"correct":true,"confidence":5},{"trial_n":97,"min":56,"max":199,"target":"absent","response":"absent","rt":552.10000000149,"correct":true,"confidence":5},{"trial_n":98,"min":56,"max":199,"target":"present","response":"present","rt":2019.099999994,"correct":true,"confidence":5},{"trial_n":99,"min":60,"max":195,"target":"present","response":"present","rt":739.89999999851,"correct":true,"confidence":5},{"trial_n":100,"min":60,"max":195,"target":"absent","response":"absent","rt":714.19999999553,"correct":true,"confidence":5},{"trial_n":101,"min":62,"max":193,"target":"absent","response":"absent","rt":612,"correct":true,"confidence":5},{"trial_n":102,"min":62,"max":193,"target":"absent","response":"absent","rt":652.19999999553,"correct":true,"confidence":3},{"trial_n":103,"min":64,"max":191,"target":"absent","response":"absent","rt":709.69999999553,"correct":true,"confidence":3},{"trial_n":104,"min":64,"max":191,"target":"absent","response":"absent","rt":1748.299999997,"correct":true,"confidence":5},{"trial_n":105,"min":66,"max":189,"target":"present","response":"present","rt":762.30000000447,"correct":true,"confidence":5},{"trial_n":106,"min":66,"max":189,"target":"present","response":"present","rt":907.79999999702,"correct":true,"confidence":5},{"trial_n":107,"min":68,"max":187,"target":"absent","response":"present","rt":831,"correct":false,"confidence":2},{"trial_n":108,"min":66,"max":189,"target":"present","response":"present","rt":796.69999999553,"correct":true,"confidence":5},{"trial_n":109,"min":66,"max":189,"target":"absent","response":"absent","rt":596.79999999702,"correct":true,"confidence":5},{"trial_n":110,"min":68,"max":187,"target":"present","response":"present","rt":2213.5,"correct":true,"confidence":5},{"trial_n":111,"min":68,"max":187,"target":"absent","response":"absent","rt":794.19999999553,"correct":true,"confidence":5},{"trial_n":112,"min":69,"max":186,"target":"present","response":"present","rt":681.20000000298,"correct":true,"confidence":4},{"trial_n":113,"min":69,"max":186,"target":"absent","response":"absent","rt":516.70000000298,"correct":true,"confidence":5},{"trial_n":114,"min":70,"max":185,"target":"present","response":"present","rt":715.40000000596,"correct":true,"confidence":5},{"trial_n":115,"min":70,"max":185,"target":"present","response":"present","rt":1254.6000000015,"correct":true,"confidence":3},{"trial_n":116,"min":71,"max":184,"target":"absent","response":"absent","rt":538.30000000447,"correct":true,"confidence":3},{"trial_n":117,"min":71,"max":184,"target":"present","response":"present","rt":462.10000000149,"correct":true,"confidence":3},{"trial_n":118,"min":72,"max":183,"target":"absent","response":"absent","rt":677.79999999702,"correct":true,"confidence":5},{"trial_n":119,"min":72,"max":183,"target":"absent","response":"absent","rt":409.79999999702,"correct":true,"confidence":5},{"trial_n":120,"min":73,"max":182,"target":"present","response":"present","rt":337.5,"correct":true,"confidence":5},{"trial_n":121,"min":73,"max":182,"target":"present","response":"present","rt":478.5,"correct":true,"confidence":5},{"trial_n":122,"min":74,"max":181,"target":"absent","response":"absent","rt":1741.8999999985,"correct":true,"confidence":2},{"trial_n":123,"min":74,"max":181,"target":"present","response":"present","rt":550.80000000447,"correct":true,"confidence":5},{"trial_n":124,"min":75,"max":180,"target":"present","response":"present","rt":440.5,"correct":true,"confidence":5},{"trial_n":125,"min":75,"max":180,"target":"present","response":"present","rt":328.10000000149,"correct":true,"confidence":5},{"trial_n":126,"min":76,"max":179,"target":"absent","response":"present","rt":1172.3000000045,"correct":false,"confidence":2},{"trial_n":127,"min":75,"max":180,"target":"absent","response":"absent","rt":511,"correct":true,"confidence":2},{"trial_n":128,"min":75,"max":180,"target":"absent","response":"absent","rt":702,"correct":true,"confidence":4},{"trial_n":129,"min":76,"max":179,"target":"present","response":"present","rt":577.20000000298,"correct":true,"confidence":4},{"trial_n":130,"min":76,"max":179,"target":"absent","response":"present","rt":709.60000000149,"correct":false,"confidence":4},{"trial_n":131,"min":75,"max":180,"target":"absent","response":"absent","rt":657.5,"correct":true,"confidence":4},{"trial_n":132,"min":75,"max":180,"target":"present","response":"present","rt":558.29999999702,"correct":true,"confidence":4},{"trial_n":133,"min":76,"max":179,"target":"absent","response":"absent","rt":385.10000000149,"correct":true,"confidence":4},{"trial_n":134,"min":76,"max":179,"target":"present","response":"present","rt":464.5,"correct":true,"confidence":4},{"trial_n":135,"min":77,"max":178,"target":"absent","response":"absent","rt":588.89999999851,"correct":true,"confidence":4},{"trial_n":136,"min":77,"max":178,"target":"present","response":"present","rt":362,"correct":true,"confidence":5},{"trial_n":137,"min":78,"max":177,"target":"absent","response":"present","rt":638.39999999851,"correct":false,"confidence":5},{"trial_n":138,"min":77,"max":178,"target":"present","response":"present","rt":496.89999999851,"correct":true,"confidence":5},{"trial_n":139,"min":77,"max":178,"target":"present","response":"present","rt":344.70000000298,"correct":true,"confidence":5},{"trial_n":140,"min":78,"max":177,"target":"present","response":"present","rt":714.40000000596,"correct":true,"confidence":1}]