[{"trial_n":1,"min":25,"max":230,"target":"present","response":"present","rt":6944,"correct":true,"confidence":-1},{"trial_n":2,"min":25,"max":230,"target":"present","response":"present","rt":1266,"correct":true,"confidence":-1},{"trial_n":3,"min":41,"max":214,"target":"absent","response":"absent","rt":3618,"correct":true,"confidence":-1},{"trial_n":4,"min":41,"max":214,"target":"absent","response":"absent","rt":1548,"correct":true,"confidence":-1},{"trial_n":5,"min":57,"max":198,"target":"present","response":"present","rt":992,"correct":true,"confidence":-1},{"trial_n":6,"min":57,"max":198,"target":"absent","response":"absent","rt":804,"correct":true,"confidence":-1},{"trial_n":7,"min":73,"max":182,"target":"present","response":"absent","rt":590,"correct":false,"confidence":-1},{"trial_n":8,"min":57,"max":198,"target":"absent","response":"absent","rt":1385,"correct":true,"confidence":-1},{"trial_n":9,"min":57,"max":198,"target":"present","response":"present","rt":707,"correct":true,"confidence":-1},{"trial_n":10,"min":73,"max":182,"target":"absent","response":"absent","rt":751.99999999999,"correct":true,"confidence":-1},{"trial_n":11,"min":73,"max":182,"target":"present","response":"present","rt":606,"correct":true,"confidence":-1},{"trial_n":12,"min":81,"max":174,"target":"present","response":"absent","rt":594,"correct":false,"confidence":-1},{"trial_n":13,"min":73,"max":182,"target":"absent","response":"absent","rt":817,"correct":true,"confidence":-1},{"trial_n":14,"min":73,"max":182,"target":"present","response":"present","rt":743.00000000001,"correct":true,"confidence":-1},{"trial_n":15,"min":81,"max":174,"target":"present","response":"present","rt":826.99999999999,"correct":true,"confidence":-1},{"trial_n":16,"min":81,"max":174,"target":"present","response":"present","rt":1277,"correct":true,"confidence":-1},{"trial_n":17,"min":89,"max":166,"target":"present","response":"absent","rt":988,"correct":false,"confidence":-1},{"trial_n":18,"min":81,"max":174,"target":"present","response":"present","rt":1019,"correct":true,"confidence":-1},{"trial_n":19,"min":81,"max":174,"target":"absent","response":"absent","rt":1174,"correct":true,"confidence":-1},{"trial_n":20,"min":89,"max":166,"target":"present","response":"present","rt":923,"correct":true,"confidence":-1},{"trial_n":21,"min":89,"max":166,"target":"absent","response":"present","rt":636,"correct":false,"confidence":3},{"trial_n":22,"min":85,"max":170,"target":"present","response":"present","rt":1158,"correct":true,"confidence":2},{"trial_n":23,"min":85,"max":170,"target":"present","response":"present","rt":1398,"correct":true,"confidence":2},{"trial_n":24,"min":89,"max":166,"target":"present","response":"absent","rt":1567,"correct":false,"confidence":3},{"trial_n":25,"min":85,"max":170,"target":"absent","response":"present","rt":936,"correct":false,"confidence":3},{"trial_n":26,"min":81,"max":174,"target":"absent","response":"present","rt":1042,"correct":false,"confidence":3},{"trial_n":27,"min":77,"max":178,"target":"present","response":"present","rt":997,"correct":true,"confidence":3},{"trial_n":28,"min":77,"max":178,"target":"present","response":"present","rt":1316,"correct":true,"confidence":2},{"trial_n":29,"min":81,"max":174,"target":"absent","response":"present","rt":1116,"correct":false,"confidence":3},{"trial_n":30,"min":77,"max":178,"target":"present","response":"present","rt":837.00000000003,"correct":true,"confidence":3},{"trial_n":31,"min":77,"max":178,"target":"absent","response":"present","rt":800,"correct":false,"confidence":3},{"trial_n":32,"min":75,"max":180,"target":"present","response":"present","rt":499,"correct":true,"confidence":4},{"trial_n":33,"min":75,"max":180,"target":"present","response":"present","rt":887,"correct":true,"confidence":5},{"trial_n":34,"min":77,"max":178,"target":"present","response":"present","rt":1463,"correct":true,"confidence":3},{"trial_n":35,"min":77,"max":178,"target":"present","response":"present","rt":1007,"correct":true,"confidence":2},{"trial_n":36,"min":79,"max":176,"target":"present","response":"absent","rt":787,"correct":false,"confidence":2},{"trial_n":37,"min":77,"max":178,"target":"present","response":"present","rt":912.99999999997,"correct":true,"confidence":4},{"trial_n":38,"min":77,"max":178,"target":"absent","response":"absent","rt":789,"correct":true,"confidence":3},{"trial_n":39,"min":79,"max":176,"target":"present","response":"present","rt":944,"correct":true,"confidence":3},{"trial_n":40,"min":79,"max":176,"target":"absent","response":"present","rt":5431,"correct":false,"confidence":1},{"trial_n":41,"min":78,"max":177,"target":"absent","response":"absent","rt":1011,"correct":true,"confidence":1},{"trial_n":42,"min":78,"max":177,"target":"absent","response":"absent","rt":787.00000000003,"correct":true,"confidence":3},{"trial_n":43,"min":79,"max":176,"target":"absent","response":"absent","rt":786,"correct":true,"confidence":3},{"trial_n":44,"min":79,"max":176,"target":"absent","response":"present","rt":1102,"correct":false,"confidence":2},{"trial_n":45,"min":78,"max":177,"target":"present","response":"present","rt":1644,"correct":true,"confidence":2},{"trial_n":46,"min":78,"max":177,"target":"absent","response":"absent","rt":891,"correct":true,"confidence":1},{"trial_n":47,"min":79,"max":176,"target":"absent","response":"absent","rt":997,"correct":true,"confidence":3},{"trial_n":48,"min":79,"max":176,"target":"absent","response":"present","rt":1200,"correct":false,"confidence":1},{"trial_n":49,"min":78,"max":177,"target":"present","response":"absent","rt":1410,"correct":false,"confidence":1},{"trial_n":50,"min":77,"max":178,"target":"absent","response":"absent","rt":1711,"correct":true,"confidence":2},{"trial_n":51,"min":77,"max":178,"target":"present","response":"absent","rt":4258,"correct":false,"confidence":1},{"trial_n":52,"min":76,"max":179,"target":"present","response":"present","rt":1466,"correct":true,"confidence":3},{"trial_n":53,"min":76,"max":179,"target":"absent","response":"absent","rt":1012,"correct":true,"confidence":2},{"trial_n":54,"min":77,"max":178,"target":"absent","response":"present","rt":1008,"correct":false,"confidence":1},{"trial_n":55,"min":76,"max":179,"target":"present","response":"absent","rt":1614,"correct":false,"confidence":1},{"trial_n":56,"min":75,"max":180,"target":"absent","response":"absent","rt":1174,"correct":true,"confidence":1},{"trial_n":57,"min":75,"max":180,"target":"absent","response":"absent","rt":1264,"correct":true,"confidence":3},{"trial_n":58,"min":76,"max":179,"target":"absent","response":"absent","rt":909,"correct":true,"confidence":3},{"trial_n":59,"min":76,"max":179,"target":"absent","response":"absent","rt":1040.0000000001,"correct":true,"confidence":1},{"trial_n":60,"min":77,"max":178,"target":"absent","response":"absent","rt":1051,"correct":true,"confidence":1},{"trial_n":61,"min":77,"max":178,"target":"present","response":"present","rt":1394,"correct":true,"confidence":2},{"trial_n":62,"min":78,"max":177,"target":"absent","response":"present","rt":1593,"correct":false,"confidence":2},{"trial_n":63,"min":77,"max":178,"target":"absent","response":"absent","rt":1736,"correct":true,"confidence":3},{"trial_n":64,"min":77,"max":178,"target":"present","response":"absent","rt":1824,"correct":false,"confidence":3},{"trial_n":65,"min":76,"max":179,"target":"absent","response":"absent","rt":1435,"correct":true,"confidence":1},{"trial_n":66,"min":76,"max":179,"target":"present","response":"present","rt":1213,"correct":true,"confidence":2},{"trial_n":67,"min":77,"max":178,"target":"absent","response":"present","rt":1328.9999999999,"correct":false,"confidence":2},{"trial_n":68,"min":76,"max":179,"target":"present","response":"present","rt":1260,"correct":true,"confidence":2},{"trial_n":69,"min":76,"max":179,"target":"absent","response":"present","rt":953,"correct":false,"confidence":2},{"trial_n":70,"min":75,"max":180,"target":"present","response":"absent","rt":1060,"correct":false,"confidence":3},{"trial_n":71,"min":41,"max":214,"target":"present","response":"present","rt":3501,"correct":true,"confidence":-1},{"trial_n":72,"min":41,"max":214,"target":"present","response":"present","rt":281.99999999994,"correct":true,"confidence":-1},{"trial_n":73,"min":57,"max":198,"target":"absent","response":"absent","rt":851,"correct":true,"confidence":-1},{"trial_n":74,"min":57,"max":198,"target":"absent","response":"absent","rt":526,"correct":true,"confidence":-1},{"trial_n":75,"min":73,"max":182,"target":"present","response":"present","rt":419.00000000006,"correct":true,"confidence":-1},{"trial_n":76,"min":73,"max":182,"target":"absent","response":"present","rt":605,"correct":false,"confidence":-1},{"trial_n":77,"min":57,"max":198,"target":"absent","response":"absent","rt":549.99999999994,"correct":true,"confidence":-1},{"trial_n":78,"min":57,"max":198,"target":"present","response":"present","rt":697,"correct":true,"confidence":-1},{"trial_n":79,"min":73,"max":182,"target":"present","response":"present","rt":494,"correct":true,"confidence":-1},{"trial_n":80,"min":73,"max":182,"target":"present","response":"present","rt":767,"correct":true,"confidence":-1},{"trial_n":81,"min":81,"max":174,"target":"present","response":"present","rt":609,"correct":true,"confidence":-1},{"trial_n":82,"min":81,"max":174,"target":"present","response":"present","rt":565,"correct":true,"confidence":-1},{"trial_n":83,"min":89,"max":166,"target":"absent","response":"absent","rt":530,"correct":true,"confidence":-1},{"trial_n":84,"min":89,"max":166,"target":"present","response":"present","rt":490,"correct":true,"confidence":-1},{"trial_n":85,"min":97,"max":158,"target":"present","response":"present","rt":659,"correct":true,"confidence":-1},{"trial_n":86,"min":97,"max":158,"target":"absent","response":"present","rt":873,"correct":false,"confidence":-1},{"trial_n":87,"min":89,"max":166,"target":"present","response":"absent","rt":1392,"correct":false,"confidence":-1},{"trial_n":88,"min":81,"max":174,"target":"absent","response":"absent","rt":690,"correct":true,"confidence":-1},{"trial_n":89,"min":81,"max":174,"target":"present","response":"present","rt":263,"correct":true,"confidence":-1},{"trial_n":90,"min":89,"max":166,"target":"present","response":"present","rt":579.00000000006,"correct":true,"confidence":-1},{"trial_n":91,"min":89,"max":166,"target":"absent","response":"present","rt":569,"correct":false,"confidence":3},{"trial_n":92,"min":85,"max":170,"target":"absent","response":"present","rt":857,"correct":false,"confidence":3},{"trial_n":93,"min":81,"max":174,"target":"absent","response":"absent","rt":1061.0000000001,"correct":true,"confidence":3},{"trial_n":94,"min":81,"max":174,"target":"absent","response":"present","rt":524,"correct":false,"confidence":4},{"trial_n":95,"min":77,"max":178,"target":"absent","response":"present","rt":894,"correct":false,"confidence":5},{"trial_n":96,"min":73,"max":182,"target":"absent","response":"absent","rt":1162,"correct":true,"confidence":5},{"trial_n":97,"min":73,"max":182,"target":"absent","response":"absent","rt":1207,"correct":true,"confidence":4},{"trial_n":98,"min":77,"max":178,"target":"present","response":"present","rt":483,"correct":true,"confidence":5},{"trial_n":99,"min":77,"max":178,"target":"present","response":"present","rt":887,"correct":true,"confidence":5},{"trial_n":100,"min":81,"max":174,"target":"present","response":"present","rt":228,"correct":true,"confidence":5},{"trial_n":101,"min":81,"max":174,"target":"absent","response":"absent","rt":713,"correct":true,"confidence":4},{"trial_n":102,"min":83,"max":172,"target":"absent","response":"absent","rt":795,"correct":true,"confidence":3},{"trial_n":103,"min":83,"max":172,"target":"present","response":"present","rt":1264,"correct":true,"confidence":5},{"trial_n":104,"min":85,"max":170,"target":"present","response":"present","rt":688.00000000006,"correct":true,"confidence":4},{"trial_n":105,"min":85,"max":170,"target":"present","response":"present","rt":444,"correct":true,"confidence":5},{"trial_n":106,"min":87,"max":168,"target":"present","response":"present","rt":1323,"correct":true,"confidence":5},{"trial_n":107,"min":87,"max":168,"target":"present","response":"present","rt":372.99999999994,"correct":true,"confidence":5},{"trial_n":108,"min":89,"max":166,"target":"present","response":"present","rt":1111,"correct":true,"confidence":3},{"trial_n":109,"min":89,"max":166,"target":"absent","response":"absent","rt":870,"correct":true,"confidence":4},{"trial_n":110,"min":91,"max":164,"target":"absent","response":"present","rt":402.00000000006,"correct":false,"confidence":4},{"trial_n":111,"min":90,"max":165,"target":"absent","response":"present","rt":615,"correct":false,"confidence":3},{"trial_n":112,"min":89,"max":166,"target":"absent","response":"present","rt":1209.0000000001,"correct":false,"confidence":1},{"trial_n":113,"min":88,"max":167,"target":"present","response":"present","rt":661,"correct":true,"confidence":4},{"trial_n":114,"min":88,"max":167,"target":"absent","response":"absent","rt":1017,"correct":true,"confidence":1},{"trial_n":115,"min":89,"max":166,"target":"present","response":"present","rt":485,"correct":true,"confidence":4},{"trial_n":116,"min":89,"max":166,"target":"present","response":"present","rt":431,"correct":true,"confidence":5},{"trial_n":117,"min":90,"max":165,"target":"present","response":"present","rt":851,"correct":true,"confidence":5},{"trial_n":118,"min":90,"max":165,"target":"absent","response":"absent","rt":1505,"correct":true,"confidence":1},{"trial_n":119,"min":91,"max":164,"target":"present","response":"present","rt":728.00000000012,"correct":true,"confidence":4},{"trial_n":120,"min":91,"max":164,"target":"present","response":"present","rt":311,"correct":true,"confidence":5},{"trial_n":121,"min":92,"max":163,"target":"absent","response":"present","rt":422,"correct":false,"confidence":4},{"trial_n":122,"min":91,"max":164,"target":"absent","response":"present","rt":644,"correct":false,"confidence":1},{"trial_n":123,"min":90,"max":165,"target":"absent","response":"present","rt":1259,"correct":false,"confidence":1},{"trial_n":124,"min":89,"max":166,"target":"present","response":"present","rt":435,"correct":true,"confidence":4},{"trial_n":125,"min":89,"max":166,"target":"absent","response":"present","rt":840,"correct":false,"confidence":2},{"trial_n":126,"min":88,"max":167,"target":"present","response":"present","rt":740.99999999988,"correct":true,"confidence":3},{"trial_n":127,"min":88,"max":167,"target":"absent","response":"present","rt":898,"correct":false,"confidence":4},{"trial_n":128,"min":87,"max":168,"target":"absent","response":"absent","rt":1298,"correct":true,"confidence":1},{"trial_n":129,"min":87,"max":168,"target":"absent","response":"present","rt":576,"correct":false,"confidence":4},{"trial_n":130,"min":86,"max":169,"target":"absent","response":"present","rt":1000,"correct":false,"confidence":3},{"trial_n":131,"min":85,"max":170,"target":"present","response":"present","rt":636,"correct":true,"confidence":3},{"trial_n":132,"min":85,"max":170,"target":"absent","response":"absent","rt":1683,"correct":true,"confidence":1},{"trial_n":133,"min":86,"max":169,"target":"present","response":"present","rt":600.99999999988,"correct":true,"confidence":5},{"trial_n":134,"min":86,"max":169,"target":"present","response":"present","rt":584,"correct":true,"confidence":4},{"trial_n":135,"min":87,"max":168,"target":"absent","response":"absent","rt":1031,"correct":true,"confidence":1},{"trial_n":136,"min":87,"max":168,"target":"present","response":"present","rt":525.00000000012,"correct":true,"confidence":4},{"trial_n":137,"min":88,"max":167,"target":"present","response":"present","rt":422,"correct":true,"confidence":4},{"trial_n":138,"min":88,"max":167,"target":"absent","response":"absent","rt":1104,"correct":true,"confidence":1},{"trial_n":139,"min":89,"max":166,"target":"absent","response":"present","rt":764,"correct":false,"confidence":3},{"trial_n":140,"min":88,"max":167,"target":"present","response":"present","rt":455,"correct":true,"confidence":4}]