[{"trial_n":1,"span":8,"encoder":"17250420","distractor":"17250490","target":"present","response":"present","rt":"3868","correct":true,"confidence":-1},{"trial_n":2,"span":8,"encoder":"53697988","distractor":"63697988","target":"present","response":"absent","rt":"3476","correct":false,"confidence":-1},{"trial_n":3,"span":6,"encoder":"741139","distractor":"241139","target":"absent","response":"present","rt":"3215","correct":false,"confidence":-1},{"trial_n":4,"span":4,"encoder":"9439","distractor":"9449","target":"absent","response":"absent","rt":"2439","correct":true,"confidence":-1},{"trial_n":5,"span":4,"encoder":"8615","distractor":"8645","target":"present","response":"present","rt":"1855","correct":true,"confidence":-1},{"trial_n":6,"span":6,"encoder":"736886","distractor":"736866","target":"present","response":"present","rt":"2945","correct":true,"confidence":-1},{"trial_n":7,"span":6,"encoder":"338926","distractor":"388926","target":"present","response":"absent","rt":"2512","correct":false,"confidence":-1},{"trial_n":8,"span":4,"encoder":"2272","distractor":"2872","target":"absent","response":"absent","rt":"3052","correct":true,"confidence":-1},{"trial_n":9,"span":4,"encoder":"0945","distractor":"0965","target":"present","response":"present","rt":"1782","correct":true,"confidence":-1},{"trial_n":10,"span":6,"encoder":"275325","distractor":"275326","target":"present","response":"present","rt":"2691","correct":true,"confidence":-1},{"trial_n":11,"span":6,"encoder":"108563","distractor":"108763","target":"present","response":"present","rt":"3284","correct":true,"confidence":-1},{"trial_n":12,"span":7,"encoder":"2955330","distractor":"2955320","target":"present","response":"present","rt":"2405","correct":true,"confidence":-1},{"trial_n":13,"span":7,"encoder":"7988441","distractor":"7988440","target":"present","response":"absent","rt":"3475","correct":false,"confidence":-1},{"trial_n":14,"span":6,"encoder":"337277","distractor":"337271","target":"present","response":"present","rt":"3093","correct":true,"confidence":-1},{"trial_n":15,"span":6,"encoder":"862345","distractor":"832345","target":"absent","response":"absent","rt":"3189","correct":true,"confidence":-1},{"trial_n":16,"span":7,"encoder":"5789690","distractor":"5709690","target":"absent","response":"absent","rt":"51081","correct":true,"confidence":-1},{"trial_n":17,"span":7,"encoder":"1315100","distractor":"8315100","target":"absent","response":"present","rt":"2257","correct":false,"confidence":-1},{"trial_n":18,"span":6,"encoder":"853535","distractor":"850535","target":"present","response":"present","rt":"2297","correct":true,"confidence":-1},{"trial_n":19,"span":6,"encoder":"758218","distractor":"758248","target":"absent","response":"absent","rt":"2768","correct":true,"confidence":-1},{"trial_n":20,"span":7,"encoder":"6028636","distractor":"6028236","target":"absent","response":"absent","rt":"3372","correct":true,"confidence":-1},{"trial_n":21,"span":7,"encoder":"3175953","distractor":"3175952","target":"absent","response":"absent","rt":"3519","correct":true,"confidence":4},{"trial_n":22,"span":8,"encoder":"36303213","distractor":"36303273","target":"present","response":"present","rt":"6792","correct":true,"confidence":2},{"trial_n":23,"span":8,"encoder":"77257412","distractor":"87257412","target":"absent","response":"absent","rt":"2415","correct":true,"confidence":4},{"trial_n":24,"span":9,"encoder":"809409401","distractor":"859409401","target":"present","response":"present","rt":"4839","correct":true,"confidence":3},{"trial_n":25,"span":9,"encoder":"310630079","distractor":"510630079","target":"absent","response":"absent","rt":"3578","correct":true,"confidence":3},{"trial_n":26,"span":10,"encoder":"1809720977","distractor":"1809720971","target":"absent","response":"present","rt":"9083","correct":false,"confidence":2},{"trial_n":27,"span":9,"encoder":"354333140","distractor":"354333141","target":"absent","response":"present","rt":"8311","correct":false,"confidence":2},{"trial_n":28,"span":8,"encoder":"49530338","distractor":"49330338","target":"absent","response":"absent","rt":"3834","correct":true,"confidence":3},{"trial_n":29,"span":8,"encoder":"31459515","distractor":"31659515","target":"present","response":"present","rt":"4308","correct":true,"confidence":3},{"trial_n":30,"span":9,"encoder":"354808389","distractor":"304808389","target":"absent","response":"present","rt":"5097","correct":false,"confidence":2},{"trial_n":31,"span":8,"encoder":"40323130","distractor":"50323130","target":"absent","response":"absent","rt":"2361","correct":true,"confidence":2},{"trial_n":32,"span":8,"encoder":"47558866","distractor":"47258866","target":"present","response":"present","rt":"2900","correct":true,"confidence":3},{"trial_n":33,"span":9,"encoder":"595687631","distractor":"594687631","target":"present","response":"present","rt":"4191","correct":true,"confidence":3},{"trial_n":34,"span":9,"encoder":"018886821","distractor":"018886921","target":"absent","response":"absent","rt":"4649","correct":true,"confidence":3},{"trial_n":35,"span":10,"encoder":"6669293448","distractor":"6669293548","target":"absent","response":"absent","rt":"4387","correct":true,"confidence":3},{"trial_n":36,"span":10,"encoder":"7588060040","distractor":"7588066040","target":"present","response":"present","rt":"3461","correct":true,"confidence":3},{"trial_n":37,"span":11,"encoder":"34787084450","distractor":"34787084850","target":"absent","response":"absent","rt":"4013.0000000001","correct":true,"confidence":3},{"trial_n":38,"span":11,"encoder":"78618608688","distractor":"78518608688","target":"absent","response":"present","rt":"4935","correct":false,"confidence":1},{"trial_n":39,"span":10,"encoder":"1576276624","distractor":"1576296624","target":"absent","response":"absent","rt":"3587.0000000001","correct":true,"confidence":2},{"trial_n":40,"span":10,"encoder":"1308790503","distractor":"1308790505","target":"present","response":"present","rt":"3830.0000000001","correct":true,"confidence":3},{"trial_n":41,"span":11,"encoder":"99100649296","distractor":"99100649293","target":"absent","response":"absent","rt":"4244","correct":true,"confidence":2},{"trial_n":42,"span":11,"encoder":"55582508132","distractor":"55382508132","target":"present","response":"present","rt":"3168","correct":true,"confidence":3},{"trial_n":43,"span":12,"encoder":"074592232199","distractor":"074542232199","target":"present","response":"present","rt":"5060","correct":true,"confidence":3},{"trial_n":44,"span":12,"encoder":"034578516984","distractor":"034578516964","target":"present","response":"absent","rt":"4301","correct":false,"confidence":2},{"trial_n":45,"span":11,"encoder":"84593848251","distractor":"84543848251","target":"present","response":"present","rt":"5914","correct":true,"confidence":3},{"trial_n":46,"span":11,"encoder":"63479984577","distractor":"33479984577","target":"absent","response":"absent","rt":"2206","correct":true,"confidence":1},{"trial_n":47,"span":12,"encoder":"015811110802","distractor":"015811130802","target":"present","response":"present","rt":"3948","correct":true,"confidence":2},{"trial_n":48,"span":12,"encoder":"987869529406","distractor":"987869529606","target":"present","response":"present","rt":"9304","correct":true,"confidence":2},{"trial_n":49,"span":13,"encoder":"9023361506580","distractor":"9023361516580","target":"present","response":"absent","rt":"4164","correct":false,"confidence":1},{"trial_n":50,"span":12,"encoder":"248110045867","distractor":"248130045867","target":"absent","response":"absent","rt":"5671","correct":true,"confidence":1},{"trial_n":51,"span":12,"encoder":"399755018981","distractor":"359755018981","target":"absent","response":"absent","rt":"3860","correct":true,"confidence":2},{"trial_n":52,"span":13,"encoder":"0057792472144","distractor":"0057794472144","target":"present","response":"absent","rt":"3559","correct":false,"confidence":2},{"trial_n":53,"span":12,"encoder":"991913811516","distractor":"991913811536","target":"present","response":"present","rt":"4250.9999999999","correct":true,"confidence":3},{"trial_n":54,"span":12,"encoder":"577269251203","distractor":"557269251203","target":"present","response":"present","rt":"5161.0000000001","correct":true,"confidence":2},{"trial_n":55,"span":13,"encoder":"0380310712946","distractor":"0980310712946","target":"absent","response":"absent","rt":"5014","correct":true,"confidence":3},{"trial_n":56,"span":13,"encoder":"3871423172920","distractor":"3871423172220","target":"present","response":"absent","rt":"6371","correct":false,"confidence":2},{"trial_n":57,"span":12,"encoder":"881932301016","distractor":"881932301013","target":"absent","response":"present","rt":"6658","correct":false,"confidence":2},{"trial_n":58,"span":11,"encoder":"52920848270","distractor":"52920888270","target":"absent","response":"absent","rt":"2630","correct":true,"confidence":1},{"trial_n":59,"span":11,"encoder":"22124978470","distractor":"22124978471","target":"present","response":"present","rt":"5320","correct":true,"confidence":2},{"trial_n":60,"span":12,"encoder":"944355009708","distractor":"934355009708","target":"absent","response":"absent","rt":"4013","correct":true,"confidence":1},{"trial_n":61,"span":12,"encoder":"448285599079","distractor":"448285599679","target":"present","response":"present","rt":"3675","correct":true,"confidence":3},{"trial_n":62,"span":13,"encoder":"9902427665532","distractor":"9902427565532","target":"present","response":"present","rt":"6757","correct":true,"confidence":3},{"trial_n":63,"span":13,"encoder":"6622465118405","distractor":"6622465118205","target":"absent","response":"present","rt":"5312","correct":false,"confidence":3},{"trial_n":64,"span":12,"encoder":"928830426622","distractor":"928030426622","target":"absent","response":"absent","rt":"6778","correct":true,"confidence":3},{"trial_n":65,"span":12,"encoder":"700598256515","distractor":"700898256515","target":"present","response":"present","rt":"9092","correct":true,"confidence":1},{"trial_n":66,"span":13,"encoder":"3237668487405","distractor":"3237668887405","target":"absent","response":"absent","rt":"4279","correct":true,"confidence":2},{"trial_n":67,"span":13,"encoder":"8064060197122","distractor":"8064060197127","target":"present","response":"present","rt":"3017","correct":true,"confidence":3},{"trial_n":68,"span":14,"encoder":"87610378878882","distractor":"87610378978882","target":"absent","response":"present","rt":"3399","correct":false,"confidence":2},{"trial_n":69,"span":13,"encoder":"9786773338644","distractor":"9786773238644","target":"absent","response":"absent","rt":"2457","correct":true,"confidence":1},{"trial_n":70,"span":13,"encoder":"4031360541919","distractor":"4031360521919","target":"present","response":"present","rt":"5257","correct":true,"confidence":2},{"trial_n":71,"span":8,"encoder":"18367325","distractor":"18369325","target":"present","response":"present","rt":"10279","correct":true,"confidence":-1},{"trial_n":72,"span":8,"encoder":"21020290","distractor":"11020290","target":"present","response":"present","rt":"4819","correct":true,"confidence":-1},{"trial_n":73,"span":9,"encoder":"382362822","distractor":"381362822","target":"absent","response":"absent","rt":"6677.0000000002","correct":true,"confidence":-1},{"trial_n":74,"span":9,"encoder":"738870809","distractor":"738880809","target":"absent","response":"absent","rt":"4693","correct":true,"confidence":-1},{"trial_n":75,"span":10,"encoder":"7258618316","distractor":"7258617316","target":"present","response":"absent","rt":"5409.0000000002","correct":false,"confidence":-1},{"trial_n":76,"span":9,"encoder":"667787547","distractor":"667787545","target":"absent","response":"absent","rt":"22178","correct":true,"confidence":-1},{"trial_n":77,"span":9,"encoder":"860769390","distractor":"860799390","target":"absent","response":"absent","rt":"3375","correct":true,"confidence":-1},{"trial_n":78,"span":10,"encoder":"5390286570","distractor":"0390286570","target":"present","response":"present","rt":"3790","correct":true,"confidence":-1},{"trial_n":79,"span":10,"encoder":"9943584866","distractor":"9933584866","target":"present","response":"present","rt":"2940","correct":true,"confidence":-1},{"trial_n":80,"span":11,"encoder":"88971156579","distractor":"88971153579","target":"present","response":"present","rt":"4455","correct":true,"confidence":-1},{"trial_n":81,"span":11,"encoder":"08693603615","distractor":"08693633615","target":"absent","response":"absent","rt":"1089","correct":true,"confidence":-1},{"trial_n":82,"span":12,"encoder":"834207916052","distractor":"834207966052","target":"absent","response":"absent","rt":"52309","correct":true,"confidence":-1},{"trial_n":83,"span":12,"encoder":"672425529114","distractor":"672225529114","target":"absent","response":"absent","rt":"4702","correct":true,"confidence":-1},{"trial_n":84,"span":13,"encoder":"3417797429119","distractor":"3417597429119","target":"present","response":"present","rt":"19408","correct":true,"confidence":-1},{"trial_n":85,"span":13,"encoder":"3513991126711","distractor":"3516991126711","target":"present","response":"present","rt":"5225","correct":true,"confidence":-1},{"trial_n":86,"span":14,"encoder":"02545386612793","distractor":"02545386618793","target":"present","response":"present","rt":"36118","correct":true,"confidence":-1},{"trial_n":87,"span":14,"encoder":"16645648537610","distractor":"16645648537620","target":"present","response":"present","rt":"9102","correct":true,"confidence":-1},{"trial_n":88,"span":15,"encoder":"488580363359292","distractor":"688580363359292","target":"present","response":"absent","rt":"16931","correct":false,"confidence":-1},{"trial_n":89,"span":14,"encoder":"66413635258902","distractor":"66413675258902","target":"absent","response":"present","rt":"9046.0000000002","correct":false,"confidence":-1},{"trial_n":90,"span":13,"encoder":"0676218529693","distractor":"0676218529683","target":"present","response":"absent","rt":"2242","correct":false,"confidence":-1},{"trial_n":91,"span":12,"encoder":"602273415758","distractor":"602273475758","target":"absent","response":"absent","rt":"5800","correct":true,"confidence":3},{"trial_n":92,"span":12,"encoder":"552614097741","distractor":"252614097741","target":"absent","response":"absent","rt":"4613.0000000005","correct":true,"confidence":3},{"trial_n":93,"span":13,"encoder":"9792647675020","distractor":"9592647675020","target":"absent","response":"present","rt":"6097","correct":false,"confidence":3},{"trial_n":94,"span":12,"encoder":"667556751242","distractor":"668556751242","target":"present","response":"present","rt":"5814","correct":true,"confidence":4},{"trial_n":95,"span":12,"encoder":"897016670793","distractor":"897016672793","target":"absent","response":"absent","rt":"8573.9999999995","correct":true,"confidence":3},{"trial_n":96,"span":13,"encoder":"5721989673709","distractor":"5721939673709","target":"present","response":"absent","rt":"12860","correct":false,"confidence":3},{"trial_n":97,"span":12,"encoder":"446285858937","distractor":"444285858937","target":"absent","response":"absent","rt":"4258","correct":true,"confidence":4},{"trial_n":98,"span":12,"encoder":"258015967309","distractor":"258015967359","target":"present","response":"present","rt":"4317","correct":true,"confidence":3},{"trial_n":99,"span":13,"encoder":"1149821781985","distractor":"1149871781985","target":"absent","response":"absent","rt":"7191","correct":true,"confidence":2},{"trial_n":100,"span":13,"encoder":"8495226660027","distractor":"8495226660057","target":"absent","response":"absent","rt":"7279","correct":true,"confidence":4},{"trial_n":101,"span":14,"encoder":"21422154228288","distractor":"21222154228288","target":"absent","response":"absent","rt":"11539","correct":true,"confidence":3},{"trial_n":102,"span":14,"encoder":"54535666923719","distractor":"54535666993719","target":"absent","response":"absent","rt":"12357","correct":true,"confidence":2},{"trial_n":103,"span":15,"encoder":"289091637084220","distractor":"289091637084520","target":"present","response":"present","rt":"6863","correct":true,"confidence":3},{"trial_n":104,"span":15,"encoder":"653479139494175","distractor":"653479119494175","target":"present","response":"present","rt":"11940","correct":true,"confidence":4},{"trial_n":105,"span":16,"encoder":"1125088537087180","distractor":"1125088537087110","target":"absent","response":"absent","rt":"15577","correct":true,"confidence":4},{"trial_n":106,"span":16,"encoder":"9078862778260171","distractor":"9078862778290171","target":"present","response":"absent","rt":"15338","correct":false,"confidence":3},{"trial_n":107,"span":15,"encoder":"686425855494418","distractor":"686425855194418","target":"absent","response":"present","rt":"19117","correct":false,"confidence":3},{"trial_n":108,"span":14,"encoder":"09638106266766","distractor":"09638206266766","target":"present","response":"absent","rt":"8582","correct":false,"confidence":3},{"trial_n":109,"span":13,"encoder":"5960986412886","distractor":"5960986413886","target":"absent","response":"absent","rt":"7356","correct":true,"confidence":4},{"trial_n":110,"span":13,"encoder":"1639806839451","distractor":"1639806839452","target":"present","response":"present","rt":"4137","correct":true,"confidence":4},{"trial_n":111,"span":14,"encoder":"90417976554451","distractor":"90417976554351","target":"present","response":"present","rt":"7177","correct":true,"confidence":4},{"trial_n":112,"span":14,"encoder":"82406063557692","distractor":"02406063557692","target":"present","response":"present","rt":"8213","correct":true,"confidence":4},{"trial_n":113,"span":15,"encoder":"859478016768107","distractor":"859458016768107","target":"absent","response":"absent","rt":"12154","correct":true,"confidence":4},{"trial_n":114,"span":15,"encoder":"922605232623462","distractor":"922605232723462","target":"present","response":"present","rt":"16274","correct":true,"confidence":3},{"trial_n":115,"span":16,"encoder":"5347374792920780","distractor":"4347374792920780","target":"present","response":"present","rt":"10894","correct":true,"confidence":4},{"trial_n":116,"span":16,"encoder":"5365596010253189","distractor":"5365596010953189","target":"absent","response":"present","rt":"15979","correct":false,"confidence":2},{"trial_n":117,"span":15,"encoder":"666949101972200","distractor":"666949101972203","target":"present","response":"present","rt":"2708","correct":true,"confidence":4},{"trial_n":118,"span":15,"encoder":"630325182588317","distractor":"638325182588317","target":"present","response":"present","rt":"11075","correct":true,"confidence":4},{"trial_n":119,"span":16,"encoder":"8978805533068255","distractor":"8978805533068235","target":"present","response":"absent","rt":"8762","correct":false,"confidence":4},{"trial_n":120,"span":15,"encoder":"289089543540426","distractor":"289084543540426","target":"present","response":"present","rt":"7874","correct":true,"confidence":4},{"trial_n":121,"span":15,"encoder":"697304958167498","distractor":"697304958167438","target":"present","response":"present","rt":"9181","correct":true,"confidence":4},{"trial_n":122,"span":16,"encoder":"3608621820790112","distractor":"3608691820790112","target":"absent","response":"present","rt":"38012","correct":false,"confidence":4},{"trial_n":123,"span":15,"encoder":"423806242704946","distractor":"493806242704946","target":"present","response":"present","rt":"9039.0000000005","correct":true,"confidence":4},{"trial_n":124,"span":15,"encoder":"429484099260005","distractor":"429484099260008","target":"absent","response":"absent","rt":"2504","correct":true,"confidence":5},{"trial_n":125,"span":16,"encoder":"8093416924422446","distractor":"8093416224422446","target":"absent","response":"absent","rt":"46011","correct":true,"confidence":3},{"trial_n":126,"span":16,"encoder":"3912597529696317","distractor":"3512597529696317","target":"present","response":"present","rt":"14836","correct":true,"confidence":4},{"trial_n":127,"span":17,"encoder":"69000415512783036","distractor":"69000315512783036","target":"present","response":"absent","rt":"18933","correct":false,"confidence":4},{"trial_n":128,"span":16,"encoder":"1071936274833808","distractor":"1071936274893808","target":"absent","response":"absent","rt":"3393","correct":true,"confidence":3},{"trial_n":129,"span":16,"encoder":"3480790997193439","distractor":"3480798997193439","target":"absent","response":"absent","rt":"20947","correct":true,"confidence":5},{"trial_n":130,"span":17,"encoder":"11015371878445720","distractor":"12015371878445720","target":"present","response":"present","rt":"6936","correct":true,"confidence":5},{"trial_n":131,"span":17,"encoder":"23551269520074966","distractor":"23551269520094966","target":"absent","response":"present","rt":"25204","correct":false,"confidence":3},{"trial_n":132,"span":16,"encoder":"1138713108627618","distractor":"1138713108627619","target":"absent","response":"absent","rt":"1681","correct":true,"confidence":5},{"trial_n":133,"span":16,"encoder":"1275048890658480","distractor":"1275041890658480","target":"present","response":"absent","rt":"7558","correct":false,"confidence":5},{"trial_n":134,"span":15,"encoder":"941241845199403","distractor":"941241845179403","target":"present","response":"absent","rt":"8398","correct":false,"confidence":5},{"trial_n":135,"span":14,"encoder":"11336929239054","distractor":"11336949239054","target":"present","response":"present","rt":"48452","correct":true,"confidence":5},{"trial_n":136,"span":14,"encoder":"50019506307460","distractor":"50019502307460","target":"absent","response":"absent","rt":"15772","correct":true,"confidence":5},{"trial_n":137,"span":15,"encoder":"434992210398845","distractor":"434992210398815","target":"absent","response":"absent","rt":"4617","correct":true,"confidence":5},{"trial_n":138,"span":15,"encoder":"242659368023473","distractor":"243659368023473","target":"absent","response":"absent","rt":"10172","correct":true,"confidence":5},{"trial_n":139,"span":16,"encoder":"6753885367195855","distractor":"6353885367195855","target":"absent","response":"absent","rt":"7243","correct":true,"confidence":3},{"trial_n":140,"span":16,"encoder":"9693566051780146","distractor":"9693566041780146","target":"absent","response":"present","rt":"17003","correct":false,"confidence":2}]