[{"trial_n":1,"min":25,"max":230,"target":"present","response":"present","rt":9956,"correct":true,"confidence":-1},{"trial_n":2,"min":25,"max":230,"target":"present","response":"present","rt":1932,"correct":true,"confidence":-1},{"trial_n":3,"min":41,"max":214,"target":"absent","response":"present","rt":1204,"correct":false,"confidence":-1},{"trial_n":4,"min":25,"max":230,"target":"absent","response":"present","rt":647,"correct":false,"confidence":-1},{"trial_n":5,"min":9,"max":246,"target":"present","response":"absent","rt":4236,"correct":false,"confidence":-1},{"trial_n":6,"min":0,"max":255,"target":"present","response":"present","rt":623.00000000001,"correct":true,"confidence":-1},{"trial_n":7,"min":0,"max":255,"target":"present","response":"present","rt":1241,"correct":true,"confidence":-1},{"trial_n":8,"min":16,"max":239,"target":"absent","response":"present","rt":696,"correct":false,"confidence":-1},{"trial_n":9,"min":0,"max":255,"target":"absent","response":"present","rt":1561,"correct":false,"confidence":-1},{"trial_n":10,"min":0,"max":255,"target":"present","response":"present","rt":784.00000000001,"correct":true,"confidence":-1},{"trial_n":11,"min":0,"max":255,"target":"present","response":"present","rt":542,"correct":true,"confidence":-1},{"trial_n":12,"min":8,"max":247,"target":"absent","response":"present","rt":535,"correct":false,"confidence":-1},{"trial_n":13,"min":0,"max":255,"target":"absent","response":"present","rt":385.00000000001,"correct":false,"confidence":-1},{"trial_n":14,"min":0,"max":255,"target":"present","response":"present","rt":721,"correct":true,"confidence":-1},{"trial_n":15,"min":0,"max":255,"target":"present","response":"present","rt":870,"correct":true,"confidence":-1},{"trial_n":16,"min":8,"max":247,"target":"present","response":"present","rt":1644,"correct":true,"confidence":-1},{"trial_n":17,"min":8,"max":247,"target":"present","response":"present","rt":2726,"correct":true,"confidence":-1},{"trial_n":18,"min":16,"max":239,"target":"absent","response":"present","rt":599.99999999999,"correct":false,"confidence":-1},{"trial_n":19,"min":8,"max":247,"target":"present","response":"present","rt":546,"correct":true,"confidence":-1},{"trial_n":20,"min":8,"max":247,"target":"present","response":"present","rt":476,"correct":true,"confidence":-1},{"trial_n":21,"min":12,"max":243,"target":"present","response":"present","rt":2130,"correct":true,"confidence":3},{"trial_n":22,"min":12,"max":243,"target":"present","response":"present","rt":4647,"correct":true,"confidence":4},{"trial_n":23,"min":16,"max":239,"target":"present","response":"present","rt":914,"correct":true,"confidence":4},{"trial_n":24,"min":16,"max":239,"target":"present","response":"present","rt":2911,"correct":true,"confidence":4},{"trial_n":25,"min":20,"max":235,"target":"present","response":"present","rt":1950,"correct":true,"confidence":3},{"trial_n":26,"min":20,"max":235,"target":"present","response":"present","rt":1317,"correct":true,"confidence":3},{"trial_n":27,"min":24,"max":231,"target":"present","response":"present","rt":2338,"correct":true,"confidence":3},{"trial_n":28,"min":24,"max":231,"target":"present","response":"present","rt":22187,"correct":true,"confidence":3},{"trial_n":29,"min":28,"max":227,"target":"present","response":"present","rt":450.00000000003,"correct":true,"confidence":3},{"trial_n":30,"min":28,"max":227,"target":"present","response":"present","rt":1309,"correct":true,"confidence":2},{"trial_n":31,"min":30,"max":225,"target":"present","response":"absent","rt":7789,"correct":false,"confidence":2},{"trial_n":32,"min":28,"max":227,"target":"absent","response":"absent","rt":200.99999999997,"correct":true,"confidence":2},{"trial_n":33,"min":28,"max":227,"target":"absent","response":"absent","rt":394.99999999997,"correct":true,"confidence":2},{"trial_n":34,"min":30,"max":225,"target":"absent","response":"absent","rt":623,"correct":true,"confidence":2},{"trial_n":35,"min":30,"max":225,"target":"absent","response":"absent","rt":409,"correct":true,"confidence":2},{"trial_n":36,"min":32,"max":223,"target":"absent","response":"absent","rt":3029,"correct":true,"confidence":2},{"trial_n":37,"min":32,"max":223,"target":"absent","response":"absent","rt":799,"correct":true,"confidence":2},{"trial_n":38,"min":34,"max":221,"target":"absent","response":"absent","rt":727.00000000003,"correct":true,"confidence":2},{"trial_n":39,"min":34,"max":221,"target":"absent","response":"absent","rt":1732,"correct":true,"confidence":1},{"trial_n":40,"min":36,"max":219,"target":"present","response":"absent","rt":446,"correct":false,"confidence":2},{"trial_n":41,"min":35,"max":220,"target":"absent","response":"present","rt":3853,"correct":false,"confidence":2},{"trial_n":42,"min":34,"max":221,"target":"absent","response":"present","rt":416,"correct":false,"confidence":2},{"trial_n":43,"min":33,"max":222,"target":"absent","response":"present","rt":350.00000000003,"correct":false,"confidence":2},{"trial_n":44,"min":32,"max":223,"target":"absent","response":"present","rt":259.99999999997,"correct":false,"confidence":2},{"trial_n":45,"min":31,"max":224,"target":"present","response":"present","rt":728,"correct":true,"confidence":2},{"trial_n":46,"min":31,"max":224,"target":"absent","response":"absent","rt":441.99999999997,"correct":true,"confidence":1},{"trial_n":47,"min":32,"max":223,"target":"absent","response":"absent","rt":1846,"correct":true,"confidence":1},{"trial_n":48,"min":32,"max":223,"target":"present","response":"present","rt":393.00000000003,"correct":true,"confidence":2},{"trial_n":49,"min":33,"max":222,"target":"present","response":"present","rt":1163,"correct":true,"confidence":2},{"trial_n":50,"min":33,"max":222,"target":"absent","response":"present","rt":385,"correct":false,"confidence":2},{"trial_n":51,"min":32,"max":223,"target":"present","response":"absent","rt":4013,"correct":false,"confidence":1},{"trial_n":52,"min":31,"max":224,"target":"absent","response":"absent","rt":708,"correct":true,"confidence":1},{"trial_n":53,"min":31,"max":224,"target":"absent","response":"absent","rt":388.00000000006,"correct":true,"confidence":1},{"trial_n":54,"min":32,"max":223,"target":"present","response":"absent","rt":365,"correct":false,"confidence":1},{"trial_n":55,"min":31,"max":224,"target":"present","response":"absent","rt":349,"correct":false,"confidence":1},{"trial_n":56,"min":30,"max":225,"target":"absent","response":"absent","rt":345,"correct":true,"confidence":1},{"trial_n":57,"min":30,"max":225,"target":"present","response":"absent","rt":368,"correct":false,"confidence":1},{"trial_n":58,"min":29,"max":226,"target":"absent","response":"absent","rt":321,"correct":true,"confidence":1},{"trial_n":59,"min":29,"max":226,"target":"absent","response":"absent","rt":360.99999999994,"correct":true,"confidence":1},{"trial_n":60,"min":30,"max":225,"target":"absent","response":"absent","rt":288.00000000006,"correct":true,"confidence":1},{"trial_n":61,"min":30,"max":225,"target":"present","response":"present","rt":851,"correct":true,"confidence":1},{"trial_n":62,"min":31,"max":224,"target":"present","response":"present","rt":403,"correct":true,"confidence":1},{"trial_n":63,"min":31,"max":224,"target":"absent","response":"present","rt":334,"correct":false,"confidence":1},{"trial_n":64,"min":30,"max":225,"target":"present","response":"present","rt":323,"correct":true,"confidence":1},{"trial_n":65,"min":30,"max":225,"target":"absent","response":"present","rt":329,"correct":false,"confidence":1},{"trial_n":66,"min":29,"max":226,"target":"present","response":"present","rt":353,"correct":true,"confidence":1},{"trial_n":67,"min":29,"max":226,"target":"absent","response":"present","rt":379,"correct":false,"confidence":1},{"trial_n":68,"min":28,"max":227,"target":"absent","response":"present","rt":370,"correct":false,"confidence":1},{"trial_n":69,"min":27,"max":228,"target":"absent","response":"present","rt":401,"correct":false,"confidence":1},{"trial_n":70,"min":26,"max":229,"target":"absent","response":"present","rt":367,"correct":false,"confidence":1},{"trial_n":71,"min":41,"max":214,"target":"present","response":"present","rt":39503,"correct":true,"confidence":-1},{"trial_n":72,"min":41,"max":214,"target":"present","response":"absent","rt":7294,"correct":false,"confidence":-1},{"trial_n":73,"min":25,"max":230,"target":"absent","response":"present","rt":706,"correct":false,"confidence":-1},{"trial_n":74,"min":9,"max":246,"target":"absent","response":"present","rt":530,"correct":false,"confidence":-1},{"trial_n":75,"min":0,"max":255,"target":"present","response":"present","rt":704.99999999994,"correct":true,"confidence":-1},{"trial_n":76,"min":0,"max":255,"target":"absent","response":"present","rt":1184,"correct":false,"confidence":-1},{"trial_n":77,"min":0,"max":255,"target":"present","response":"present","rt":1090.0000000001,"correct":true,"confidence":-1},{"trial_n":78,"min":0,"max":255,"target":"present","response":"present","rt":568,"correct":true,"confidence":-1},{"trial_n":79,"min":16,"max":239,"target":"absent","response":"present","rt":2614,"correct":false,"confidence":-1},{"trial_n":80,"min":0,"max":255,"target":"absent","response":"present","rt":419,"correct":false,"confidence":-1},{"trial_n":81,"min":0,"max":255,"target":"absent","response":"present","rt":488,"correct":false,"confidence":-1},{"trial_n":82,"min":0,"max":255,"target":"absent","response":"present","rt":432,"correct":false,"confidence":-1},{"trial_n":83,"min":0,"max":255,"target":"absent","response":"absent","rt":741,"correct":true,"confidence":-1},{"trial_n":84,"min":0,"max":255,"target":"present","response":"absent","rt":635,"correct":false,"confidence":-1},{"trial_n":85,"min":0,"max":255,"target":"present","response":"present","rt":481,"correct":true,"confidence":-1},{"trial_n":86,"min":0,"max":255,"target":"present","response":"absent","rt":449,"correct":false,"confidence":-1},{"trial_n":87,"min":0,"max":255,"target":"present","response":"present","rt":200,"correct":true,"confidence":-1},{"trial_n":88,"min":0,"max":255,"target":"absent","response":"present","rt":340,"correct":false,"confidence":-1},{"trial_n":89,"min":0,"max":255,"target":"present","response":"present","rt":274,"correct":true,"confidence":-1},{"trial_n":90,"min":0,"max":255,"target":"present","response":"absent","rt":469,"correct":false,"confidence":-1},{"trial_n":91,"min":0,"max":255,"target":"present","response":"absent","rt":3812,"correct":false,"confidence":1},{"trial_n":92,"min":0,"max":255,"target":"present","response":"present","rt":416,"correct":true,"confidence":1},{"trial_n":93,"min":0,"max":255,"target":"absent","response":"present","rt":139,"correct":false,"confidence":1},{"trial_n":94,"min":0,"max":255,"target":"absent","response":"absent","rt":1072,"correct":true,"confidence":1},{"trial_n":95,"min":0,"max":255,"target":"present","response":"absent","rt":449.00000000006,"correct":false,"confidence":1},{"trial_n":96,"min":0,"max":255,"target":"present","response":"present","rt":300,"correct":true,"confidence":1},{"trial_n":97,"min":0,"max":255,"target":"absent","response":"present","rt":401,"correct":false,"confidence":1},{"trial_n":98,"min":0,"max":255,"target":"absent","response":"absent","rt":417,"correct":true,"confidence":1},{"trial_n":99,"min":0,"max":255,"target":"absent","response":"absent","rt":408,"correct":true,"confidence":1},{"trial_n":100,"min":4,"max":251,"target":"present","response":"absent","rt":411,"correct":false,"confidence":1},{"trial_n":101,"min":2,"max":253,"target":"present","response":"present","rt":866,"correct":true,"confidence":1},{"trial_n":102,"min":2,"max":253,"target":"present","response":"absent","rt":820,"correct":false,"confidence":1},{"trial_n":103,"min":0,"max":255,"target":"present","response":"present","rt":8795.0000000001,"correct":true,"confidence":1},{"trial_n":104,"min":0,"max":255,"target":"present","response":"present","rt":1233,"correct":true,"confidence":1},{"trial_n":105,"min":2,"max":253,"target":"absent","response":"absent","rt":414,"correct":true,"confidence":1},{"trial_n":106,"min":2,"max":253,"target":"absent","response":"absent","rt":1832,"correct":true,"confidence":1},{"trial_n":107,"min":4,"max":251,"target":"present","response":"absent","rt":832,"correct":false,"confidence":1},{"trial_n":108,"min":2,"max":253,"target":"absent","response":"absent","rt":351,"correct":true,"confidence":1},{"trial_n":109,"min":2,"max":253,"target":"present","response":"absent","rt":412,"correct":false,"confidence":1},{"trial_n":110,"min":0,"max":255,"target":"absent","response":"absent","rt":202,"correct":true,"confidence":1},{"trial_n":111,"min":0,"max":255,"target":"absent","response":"present","rt":1281,"correct":false,"confidence":1},{"trial_n":112,"min":0,"max":255,"target":"present","response":"present","rt":364.00000000006,"correct":true,"confidence":1},{"trial_n":113,"min":0,"max":255,"target":"present","response":"present","rt":364.00000000006,"correct":true,"confidence":1},{"trial_n":114,"min":1,"max":254,"target":"present","response":"absent","rt":254.99999999994,"correct":false,"confidence":1},{"trial_n":115,"min":0,"max":255,"target":"absent","response":"absent","rt":270,"correct":true,"confidence":1},{"trial_n":116,"min":0,"max":255,"target":"absent","response":"absent","rt":429,"correct":true,"confidence":1},{"trial_n":117,"min":1,"max":254,"target":"absent","response":"absent","rt":321,"correct":true,"confidence":1},{"trial_n":118,"min":1,"max":254,"target":"absent","response":"present","rt":500,"correct":false,"confidence":1},{"trial_n":119,"min":0,"max":255,"target":"present","response":"present","rt":1441.0000000001,"correct":true,"confidence":1},{"trial_n":120,"min":0,"max":255,"target":"absent","response":"present","rt":443,"correct":false,"confidence":1},{"trial_n":121,"min":0,"max":255,"target":"present","response":"absent","rt":5369,"correct":false,"confidence":1},{"trial_n":122,"min":0,"max":255,"target":"absent","response":"absent","rt":2355,"correct":true,"confidence":1},{"trial_n":123,"min":0,"max":255,"target":"present","response":"absent","rt":366,"correct":false,"confidence":1},{"trial_n":124,"min":0,"max":255,"target":"absent","response":"absent","rt":353,"correct":true,"confidence":1},{"trial_n":125,"min":0,"max":255,"target":"absent","response":"absent","rt":400.00000000012,"correct":true,"confidence":1},{"trial_n":126,"min":1,"max":254,"target":"present","response":"present","rt":354,"correct":true,"confidence":1},{"trial_n":127,"min":1,"max":254,"target":"absent","response":"present","rt":344,"correct":false,"confidence":1},{"trial_n":128,"min":0,"max":255,"target":"absent","response":"absent","rt":463,"correct":true,"confidence":1},{"trial_n":129,"min":0,"max":255,"target":"absent","response":"present","rt":355,"correct":false,"confidence":1},{"trial_n":130,"min":0,"max":255,"target":"present","response":"absent","rt":194,"correct":false,"confidence":1},{"trial_n":131,"min":0,"max":255,"target":"present","response":"absent","rt":1857,"correct":false,"confidence":1},{"trial_n":132,"min":0,"max":255,"target":"present","response":"absent","rt":1175,"correct":false,"confidence":1},{"trial_n":133,"min":0,"max":255,"target":"absent","response":"absent","rt":367,"correct":true,"confidence":1},{"trial_n":134,"min":0,"max":255,"target":"present","response":"present","rt":482,"correct":true,"confidence":1},{"trial_n":135,"min":1,"max":254,"target":"absent","response":"present","rt":182,"correct":false,"confidence":1},{"trial_n":136,"min":0,"max":255,"target":"absent","response":"absent","rt":350,"correct":true,"confidence":1},{"trial_n":137,"min":0,"max":255,"target":"absent","response":"absent","rt":183,"correct":true,"confidence":1},{"trial_n":138,"min":1,"max":254,"target":"present","response":"present","rt":333,"correct":true,"confidence":1},{"trial_n":139,"min":1,"max":254,"target":"present","response":"absent","rt":1236,"correct":false,"confidence":1},{"trial_n":140,"min":0,"max":255,"target":"present","response":"present","rt":363,"correct":true,"confidence":1}]