[{"trial_n":1,"min":25,"max":230,"target":"present","response":"absent","rt":4299,"correct":false,"confidence":-1},{"trial_n":2,"min":25,"max":230,"target":"present","response":"present","rt":1243,"correct":true,"confidence":-1},{"trial_n":3,"min":25,"max":230,"target":"absent","response":"absent","rt":1014,"correct":true,"confidence":-1},{"trial_n":4,"min":41,"max":214,"target":"absent","response":"absent","rt":903,"correct":true,"confidence":-1},{"trial_n":5,"min":41,"max":214,"target":"present","response":"present","rt":838.99999999999,"correct":true,"confidence":-1},{"trial_n":6,"min":57,"max":198,"target":"present","response":"present","rt":1168,"correct":true,"confidence":-1},{"trial_n":7,"min":57,"max":198,"target":"present","response":"present","rt":742,"correct":true,"confidence":-1},{"trial_n":8,"min":73,"max":182,"target":"absent","response":"absent","rt":956,"correct":true,"confidence":-1},{"trial_n":9,"min":73,"max":182,"target":"absent","response":"absent","rt":667.99999999999,"correct":true,"confidence":-1},{"trial_n":10,"min":89,"max":166,"target":"present","response":"absent","rt":542,"correct":false,"confidence":-1},{"trial_n":11,"min":81,"max":174,"target":"present","response":"present","rt":1117,"correct":true,"confidence":-1},{"trial_n":12,"min":81,"max":174,"target":"absent","response":"present","rt":727,"correct":false,"confidence":-1},{"trial_n":13,"min":73,"max":182,"target":"present","response":"present","rt":1210,"correct":true,"confidence":-1},{"trial_n":14,"min":73,"max":182,"target":"present","response":"present","rt":993.99999999999,"correct":true,"confidence":-1},{"trial_n":15,"min":81,"max":174,"target":"present","response":"present","rt":1323,"correct":true,"confidence":-1},{"trial_n":16,"min":81,"max":174,"target":"present","response":"absent","rt":1776,"correct":false,"confidence":-1},{"trial_n":17,"min":73,"max":182,"target":"absent","response":"absent","rt":1832,"correct":true,"confidence":-1},{"trial_n":18,"min":73,"max":182,"target":"absent","response":"present","rt":1519,"correct":false,"confidence":-1},{"trial_n":19,"min":65,"max":190,"target":"present","response":"present","rt":803.00000000001,"correct":true,"confidence":-1},{"trial_n":20,"min":65,"max":190,"target":"absent","response":"absent","rt":1170,"correct":true,"confidence":-1},{"trial_n":21,"min":69,"max":186,"target":"present","response":"present","rt":2229,"correct":true,"confidence":2},{"trial_n":22,"min":69,"max":186,"target":"present","response":"present","rt":853,"correct":true,"confidence":2},{"trial_n":23,"min":73,"max":182,"target":"absent","response":"absent","rt":1006,"correct":true,"confidence":1},{"trial_n":24,"min":73,"max":182,"target":"present","response":"present","rt":864.99999999999,"correct":true,"confidence":2},{"trial_n":25,"min":77,"max":178,"target":"present","response":"present","rt":877,"correct":true,"confidence":3},{"trial_n":26,"min":77,"max":178,"target":"present","response":"present","rt":968.00000000001,"correct":true,"confidence":3},{"trial_n":27,"min":81,"max":174,"target":"present","response":"absent","rt":1018,"correct":false,"confidence":2},{"trial_n":28,"min":77,"max":178,"target":"absent","response":"absent","rt":825.00000000001,"correct":true,"confidence":2},{"trial_n":29,"min":77,"max":178,"target":"present","response":"present","rt":842.99999999999,"correct":true,"confidence":3},{"trial_n":30,"min":81,"max":174,"target":"absent","response":"absent","rt":1628,"correct":true,"confidence":1},{"trial_n":31,"min":81,"max":174,"target":"absent","response":"present","rt":866,"correct":false,"confidence":2},{"trial_n":32,"min":79,"max":176,"target":"absent","response":"absent","rt":970,"correct":true,"confidence":2},{"trial_n":33,"min":79,"max":176,"target":"absent","response":"absent","rt":1105,"correct":true,"confidence":3},{"trial_n":34,"min":81,"max":174,"target":"absent","response":"absent","rt":1179,"correct":true,"confidence":2},{"trial_n":35,"min":81,"max":174,"target":"absent","response":"absent","rt":1014,"correct":true,"confidence":2},{"trial_n":36,"min":83,"max":172,"target":"absent","response":"absent","rt":4981,"correct":true,"confidence":1},{"trial_n":37,"min":83,"max":172,"target":"absent","response":"absent","rt":1499,"correct":true,"confidence":3},{"trial_n":38,"min":85,"max":170,"target":"absent","response":"absent","rt":4577,"correct":true,"confidence":1},{"trial_n":39,"min":85,"max":170,"target":"present","response":"present","rt":1403,"correct":true,"confidence":2},{"trial_n":40,"min":87,"max":168,"target":"present","response":"present","rt":940,"correct":true,"confidence":2},{"trial_n":41,"min":87,"max":168,"target":"present","response":"present","rt":1132,"correct":true,"confidence":2},{"trial_n":42,"min":88,"max":167,"target":"absent","response":"absent","rt":2290,"correct":true,"confidence":2},{"trial_n":43,"min":88,"max":167,"target":"present","response":"absent","rt":1904,"correct":false,"confidence":2},{"trial_n":44,"min":87,"max":168,"target":"absent","response":"absent","rt":1614,"correct":true,"confidence":3},{"trial_n":45,"min":87,"max":168,"target":"absent","response":"absent","rt":1540,"correct":true,"confidence":2},{"trial_n":46,"min":88,"max":167,"target":"present","response":"present","rt":1175,"correct":true,"confidence":1},{"trial_n":47,"min":88,"max":167,"target":"absent","response":"absent","rt":1125,"correct":true,"confidence":2},{"trial_n":48,"min":89,"max":166,"target":"present","response":"present","rt":907,"correct":true,"confidence":3},{"trial_n":49,"min":89,"max":166,"target":"present","response":"absent","rt":1097,"correct":false,"confidence":2},{"trial_n":50,"min":88,"max":167,"target":"absent","response":"absent","rt":3820,"correct":true,"confidence":1},{"trial_n":51,"min":88,"max":167,"target":"present","response":"absent","rt":1802,"correct":false,"confidence":2},{"trial_n":52,"min":87,"max":168,"target":"absent","response":"absent","rt":1819,"correct":true,"confidence":1},{"trial_n":53,"min":87,"max":168,"target":"absent","response":"absent","rt":1321,"correct":true,"confidence":1},{"trial_n":54,"min":88,"max":167,"target":"present","response":"present","rt":1147,"correct":true,"confidence":2},{"trial_n":55,"min":88,"max":167,"target":"absent","response":"present","rt":874.00000000003,"correct":false,"confidence":2},{"trial_n":56,"min":87,"max":168,"target":"present","response":"absent","rt":850,"correct":false,"confidence":1},{"trial_n":57,"min":86,"max":169,"target":"absent","response":"absent","rt":1243,"correct":true,"confidence":3},{"trial_n":58,"min":86,"max":169,"target":"present","response":"present","rt":1552,"correct":true,"confidence":2},{"trial_n":59,"min":87,"max":168,"target":"absent","response":"absent","rt":1025,"correct":true,"confidence":3},{"trial_n":60,"min":87,"max":168,"target":"absent","response":"present","rt":1473,"correct":false,"confidence":3},{"trial_n":61,"min":86,"max":169,"target":"present","response":"present","rt":1443,"correct":true,"confidence":3},{"trial_n":62,"min":86,"max":169,"target":"present","response":"present","rt":1139,"correct":true,"confidence":3},{"trial_n":63,"min":87,"max":168,"target":"present","response":"absent","rt":897.00000000006,"correct":false,"confidence":2},{"trial_n":64,"min":86,"max":169,"target":"present","response":"absent","rt":2293,"correct":false,"confidence":2},{"trial_n":65,"min":85,"max":170,"target":"absent","response":"absent","rt":1259.0000000001,"correct":true,"confidence":3},{"trial_n":66,"min":85,"max":170,"target":"absent","response":"present","rt":1370,"correct":false,"confidence":2},{"trial_n":67,"min":84,"max":171,"target":"absent","response":"absent","rt":1436,"correct":true,"confidence":1},{"trial_n":68,"min":84,"max":171,"target":"absent","response":"absent","rt":2871,"correct":true,"confidence":3},{"trial_n":69,"min":85,"max":170,"target":"present","response":"present","rt":1442,"correct":true,"confidence":2},{"trial_n":70,"min":85,"max":170,"target":"present","response":"present","rt":2082,"correct":true,"confidence":2},{"trial_n":71,"min":41,"max":214,"target":"present","response":"present","rt":6467,"correct":true,"confidence":-1},{"trial_n":72,"min":41,"max":214,"target":"present","response":"present","rt":975.00000000006,"correct":true,"confidence":-1},{"trial_n":73,"min":57,"max":198,"target":"absent","response":"absent","rt":1869,"correct":true,"confidence":-1},{"trial_n":74,"min":57,"max":198,"target":"absent","response":"present","rt":1042.0000000001,"correct":false,"confidence":-1},{"trial_n":75,"min":41,"max":214,"target":"present","response":"present","rt":501,"correct":true,"confidence":-1},{"trial_n":76,"min":41,"max":214,"target":"absent","response":"absent","rt":345,"correct":true,"confidence":-1},{"trial_n":77,"min":57,"max":198,"target":"present","response":"absent","rt":399,"correct":false,"confidence":-1},{"trial_n":78,"min":41,"max":214,"target":"absent","response":"absent","rt":460.99999999994,"correct":true,"confidence":-1},{"trial_n":79,"min":41,"max":214,"target":"present","response":"present","rt":197,"correct":true,"confidence":-1},{"trial_n":80,"min":57,"max":198,"target":"present","response":"present","rt":479,"correct":true,"confidence":-1},{"trial_n":81,"min":57,"max":198,"target":"absent","response":"absent","rt":485,"correct":true,"confidence":-1},{"trial_n":82,"min":65,"max":190,"target":"present","response":"present","rt":391,"correct":true,"confidence":-1},{"trial_n":83,"min":65,"max":190,"target":"absent","response":"absent","rt":692,"correct":true,"confidence":-1},{"trial_n":84,"min":73,"max":182,"target":"absent","response":"absent","rt":489,"correct":true,"confidence":-1},{"trial_n":85,"min":73,"max":182,"target":"present","response":"absent","rt":375,"correct":false,"confidence":-1},{"trial_n":86,"min":65,"max":190,"target":"absent","response":"absent","rt":629,"correct":true,"confidence":-1},{"trial_n":87,"min":65,"max":190,"target":"present","response":"present","rt":248,"correct":true,"confidence":-1},{"trial_n":88,"min":73,"max":182,"target":"present","response":"present","rt":381,"correct":true,"confidence":-1},{"trial_n":89,"min":73,"max":182,"target":"absent","response":"absent","rt":418,"correct":true,"confidence":-1},{"trial_n":90,"min":81,"max":174,"target":"absent","response":"absent","rt":703.00000000006,"correct":true,"confidence":-1},{"trial_n":91,"min":81,"max":174,"target":"present","response":"present","rt":1017,"correct":true,"confidence":2},{"trial_n":92,"min":85,"max":170,"target":"present","response":"present","rt":343.00000000006,"correct":true,"confidence":3},{"trial_n":93,"min":85,"max":170,"target":"present","response":"present","rt":359,"correct":true,"confidence":4},{"trial_n":94,"min":89,"max":166,"target":"absent","response":"absent","rt":435,"correct":true,"confidence":3},{"trial_n":95,"min":89,"max":166,"target":"present","response":"present","rt":530,"correct":true,"confidence":2},{"trial_n":96,"min":93,"max":162,"target":"present","response":"present","rt":610,"correct":true,"confidence":2},{"trial_n":97,"min":93,"max":162,"target":"absent","response":"present","rt":3206,"correct":false,"confidence":2},{"trial_n":98,"min":89,"max":166,"target":"absent","response":"absent","rt":660,"correct":true,"confidence":2},{"trial_n":99,"min":89,"max":166,"target":"present","response":"present","rt":1352.0000000001,"correct":true,"confidence":1},{"trial_n":100,"min":93,"max":162,"target":"present","response":"present","rt":2152,"correct":true,"confidence":1},{"trial_n":101,"min":93,"max":162,"target":"absent","response":"absent","rt":2608,"correct":true,"confidence":1},{"trial_n":102,"min":95,"max":160,"target":"absent","response":"present","rt":403.00000000006,"correct":false,"confidence":3},{"trial_n":103,"min":93,"max":162,"target":"present","response":"present","rt":1154,"correct":true,"confidence":2},{"trial_n":104,"min":93,"max":162,"target":"absent","response":"absent","rt":1498,"correct":true,"confidence":1},{"trial_n":105,"min":95,"max":160,"target":"present","response":"present","rt":326,"correct":true,"confidence":3},{"trial_n":106,"min":95,"max":160,"target":"absent","response":"absent","rt":768,"correct":true,"confidence":3},{"trial_n":107,"min":97,"max":158,"target":"present","response":"present","rt":1050.0000000001,"correct":true,"confidence":1},{"trial_n":108,"min":97,"max":158,"target":"present","response":"present","rt":765,"correct":true,"confidence":2},{"trial_n":109,"min":99,"max":156,"target":"absent","response":"present","rt":509.00000000006,"correct":false,"confidence":2},{"trial_n":110,"min":97,"max":158,"target":"absent","response":"present","rt":1569.9999999999,"correct":false,"confidence":1},{"trial_n":111,"min":96,"max":159,"target":"absent","response":"absent","rt":516.00000000006,"correct":true,"confidence":2},{"trial_n":112,"min":96,"max":159,"target":"absent","response":"present","rt":320.99999999994,"correct":false,"confidence":2},{"trial_n":113,"min":95,"max":160,"target":"present","response":"present","rt":1769.0000000001,"correct":true,"confidence":1},{"trial_n":114,"min":95,"max":160,"target":"present","response":"present","rt":694,"correct":true,"confidence":2},{"trial_n":115,"min":96,"max":159,"target":"absent","response":"absent","rt":585,"correct":true,"confidence":2},{"trial_n":116,"min":96,"max":159,"target":"present","response":"present","rt":277.99999999994,"correct":true,"confidence":3},{"trial_n":117,"min":97,"max":158,"target":"present","response":"present","rt":1002.0000000001,"correct":true,"confidence":1},{"trial_n":118,"min":97,"max":158,"target":"absent","response":"present","rt":789,"correct":false,"confidence":1},{"trial_n":119,"min":96,"max":159,"target":"absent","response":"present","rt":603,"correct":false,"confidence":2},{"trial_n":120,"min":95,"max":160,"target":"absent","response":"absent","rt":1621,"correct":true,"confidence":1},{"trial_n":121,"min":95,"max":160,"target":"present","response":"present","rt":313,"correct":true,"confidence":3},{"trial_n":122,"min":96,"max":159,"target":"present","response":"absent","rt":722,"correct":false,"confidence":2},{"trial_n":123,"min":95,"max":160,"target":"absent","response":"present","rt":417,"correct":false,"confidence":2},{"trial_n":124,"min":94,"max":161,"target":"absent","response":"present","rt":577.99999999994,"correct":false,"confidence":2},{"trial_n":125,"min":93,"max":162,"target":"absent","response":"present","rt":959,"correct":false,"confidence":2},{"trial_n":126,"min":92,"max":163,"target":"absent","response":"absent","rt":422.00000000006,"correct":true,"confidence":2},{"trial_n":127,"min":92,"max":163,"target":"absent","response":"absent","rt":619,"correct":true,"confidence":2},{"trial_n":128,"min":93,"max":162,"target":"absent","response":"present","rt":771.99999999994,"correct":false,"confidence":1},{"trial_n":129,"min":92,"max":163,"target":"absent","response":"present","rt":924,"correct":false,"confidence":1},{"trial_n":130,"min":91,"max":164,"target":"absent","response":"absent","rt":1552,"correct":true,"confidence":1},{"trial_n":131,"min":91,"max":164,"target":"present","response":"present","rt":789.00000000012,"correct":true,"confidence":2},{"trial_n":132,"min":92,"max":163,"target":"present","response":"absent","rt":1607,"correct":false,"confidence":1},{"trial_n":133,"min":91,"max":164,"target":"present","response":"present","rt":409,"correct":true,"confidence":3},{"trial_n":134,"min":91,"max":164,"target":"present","response":"present","rt":1901.0000000001,"correct":true,"confidence":1},{"trial_n":135,"min":92,"max":163,"target":"present","response":"present","rt":1112,"correct":true,"confidence":2},{"trial_n":136,"min":92,"max":163,"target":"present","response":"present","rt":1760.0000000001,"correct":true,"confidence":2},{"trial_n":137,"min":93,"max":162,"target":"present","response":"present","rt":1805,"correct":true,"confidence":2},{"trial_n":138,"min":93,"max":162,"target":"present","response":"present","rt":966,"correct":true,"confidence":2},{"trial_n":139,"min":94,"max":161,"target":"present","response":"absent","rt":1286,"correct":false,"confidence":1},{"trial_n":140,"min":93,"max":162,"target":"absent","response":"absent","rt":1293.9999999999,"correct":true,"confidence":2}]