[{"trial_n":1,"span":8,"encoder":"62354603","distractor":"62254603","target":"present","response":"absent","rt":"11340","correct":false,"confidence":-1},{"trial_n":2,"span":6,"encoder":"005581","distractor":"005589","target":"present","response":"absent","rt":"3182","correct":false,"confidence":-1},{"trial_n":3,"span":4,"encoder":"0197","distractor":"0697","target":"absent","response":"absent","rt":"1973","correct":true,"confidence":-1},{"trial_n":4,"span":4,"encoder":"3480","distractor":"3470","target":"absent","response":"present","rt":"1480","correct":false,"confidence":-1},{"trial_n":5,"span":2,"encoder":"94","distractor":"74","target":"present","response":"present","rt":"2278","correct":true,"confidence":-1},{"trial_n":6,"span":2,"encoder":"31","distractor":"32","target":"present","response":"present","rt":"1541","correct":true,"confidence":-1},{"trial_n":7,"span":4,"encoder":"3514","distractor":"3414","target":"present","response":"present","rt":"2048","correct":true,"confidence":-1},{"trial_n":8,"span":4,"encoder":"6111","distractor":"6511","target":"absent","response":"absent","rt":"1888","correct":true,"confidence":-1},{"trial_n":9,"span":6,"encoder":"777450","distractor":"787450","target":"absent","response":"absent","rt":"2419","correct":true,"confidence":-1},{"trial_n":10,"span":6,"encoder":"190502","distractor":"190508","target":"absent","response":"absent","rt":"2704","correct":true,"confidence":-1},{"trial_n":11,"span":8,"encoder":"85595991","distractor":"85599991","target":"present","response":"absent","rt":"2105","correct":false,"confidence":-1},{"trial_n":12,"span":7,"encoder":"2062765","distractor":"2068765","target":"present","response":"present","rt":"2591","correct":true,"confidence":-1},{"trial_n":13,"span":7,"encoder":"8320007","distractor":"8320087","target":"present","response":"absent","rt":"1686","correct":false,"confidence":-1},{"trial_n":14,"span":6,"encoder":"675078","distractor":"675075","target":"absent","response":"absent","rt":"1397","correct":true,"confidence":-1},{"trial_n":15,"span":6,"encoder":"455306","distractor":"555306","target":"absent","response":"absent","rt":"2005","correct":true,"confidence":-1},{"trial_n":16,"span":7,"encoder":"8390493","distractor":"8398493","target":"present","response":"present","rt":"2921","correct":true,"confidence":-1},{"trial_n":17,"span":7,"encoder":"9078121","distractor":"9078191","target":"present","response":"present","rt":"3301","correct":true,"confidence":-1},{"trial_n":18,"span":8,"encoder":"64215871","distractor":"64215891","target":"absent","response":"absent","rt":"2073","correct":true,"confidence":-1},{"trial_n":19,"span":8,"encoder":"15762104","distractor":"19762104","target":"absent","response":"absent","rt":"2163","correct":true,"confidence":-1},{"trial_n":20,"span":9,"encoder":"154686193","distractor":"150686193","target":"present","response":"present","rt":"2804","correct":true,"confidence":-1},{"trial_n":21,"span":9,"encoder":"620016507","distractor":"620016577","target":"absent","response":"absent","rt":"3163","correct":true,"confidence":3},{"trial_n":22,"span":10,"encoder":"4720255122","distractor":"1720255122","target":"absent","response":"present","rt":"5337","correct":false,"confidence":2},{"trial_n":23,"span":9,"encoder":"536739862","distractor":"534739862","target":"present","response":"present","rt":"3693","correct":true,"confidence":2},{"trial_n":24,"span":9,"encoder":"598661673","distractor":"598261673","target":"present","response":"present","rt":"2849","correct":true,"confidence":3},{"trial_n":25,"span":10,"encoder":"3744088195","distractor":"3744088198","target":"absent","response":"absent","rt":"2244","correct":true,"confidence":3},{"trial_n":26,"span":10,"encoder":"9565096063","distractor":"9565096068","target":"present","response":"present","rt":"1753","correct":true,"confidence":3},{"trial_n":27,"span":11,"encoder":"61623136237","distractor":"61623137237","target":"absent","response":"present","rt":"2226","correct":false,"confidence":4},{"trial_n":28,"span":10,"encoder":"6482392370","distractor":"6482092370","target":"present","response":"present","rt":"4172","correct":true,"confidence":3},{"trial_n":29,"span":10,"encoder":"5912900652","distractor":"5912910652","target":"absent","response":"absent","rt":"2341","correct":true,"confidence":3},{"trial_n":30,"span":11,"encoder":"97354180484","distractor":"97354180494","target":"absent","response":"absent","rt":"2103","correct":true,"confidence":4},{"trial_n":31,"span":11,"encoder":"72517625309","distractor":"72517625509","target":"absent","response":"absent","rt":"5002","correct":true,"confidence":4},{"trial_n":32,"span":12,"encoder":"513858426029","distractor":"513858426329","target":"present","response":"present","rt":"2247","correct":true,"confidence":3},{"trial_n":33,"span":12,"encoder":"855766753018","distractor":"855706753018","target":"absent","response":"present","rt":"3741","correct":false,"confidence":2},{"trial_n":34,"span":11,"encoder":"78727222744","distractor":"98727222744","target":"present","response":"absent","rt":"4438","correct":false,"confidence":4},{"trial_n":35,"span":10,"encoder":"0284521873","distractor":"0284521773","target":"present","response":"present","rt":"2539.9999999999","correct":true,"confidence":3},{"trial_n":36,"span":10,"encoder":"7035997812","distractor":"7035997712","target":"present","response":"present","rt":"2009","correct":true,"confidence":3},{"trial_n":37,"span":11,"encoder":"49684192615","distractor":"49584192615","target":"absent","response":"present","rt":"1877","correct":false,"confidence":3},{"trial_n":38,"span":10,"encoder":"5041330493","distractor":"5741330493","target":"absent","response":"absent","rt":"7607.0000000001","correct":true,"confidence":2},{"trial_n":39,"span":10,"encoder":"1562848173","distractor":"1563848173","target":"absent","response":"present","rt":"3650","correct":false,"confidence":2},{"trial_n":40,"span":9,"encoder":"660051711","distractor":"560051711","target":"absent","response":"present","rt":"2477","correct":false,"confidence":4},{"trial_n":41,"span":8,"encoder":"73131698","distractor":"78131698","target":"absent","response":"present","rt":"1900","correct":false,"confidence":3},{"trial_n":42,"span":7,"encoder":"2344643","distractor":"2744643","target":"present","response":"present","rt":"2807.0000000001","correct":true,"confidence":4},{"trial_n":43,"span":7,"encoder":"8867204","distractor":"8867244","target":"present","response":"present","rt":"2969.9999999999","correct":true,"confidence":4},{"trial_n":44,"span":8,"encoder":"94069592","distractor":"94069092","target":"present","response":"present","rt":"3603","correct":true,"confidence":4},{"trial_n":45,"span":8,"encoder":"72562003","distractor":"62562003","target":"present","response":"present","rt":"4400","correct":true,"confidence":4},{"trial_n":46,"span":9,"encoder":"319672537","distractor":"719672537","target":"present","response":"present","rt":"4478","correct":true,"confidence":3},{"trial_n":47,"span":9,"encoder":"120801002","distractor":"121801002","target":"absent","response":"absent","rt":"3925.9999999999","correct":true,"confidence":2},{"trial_n":48,"span":10,"encoder":"6479051516","distractor":"6471051516","target":"absent","response":"absent","rt":"6005","correct":true,"confidence":1},{"trial_n":49,"span":10,"encoder":"7633876430","distractor":"7663876430","target":"present","response":"present","rt":"1729","correct":true,"confidence":2},{"trial_n":50,"span":11,"encoder":"14444150509","distractor":"14484150509","target":"absent","response":"absent","rt":"3440","correct":true,"confidence":3},{"trial_n":51,"span":11,"encoder":"44266770982","distractor":"44266770882","target":"present","response":"present","rt":"2637.9999999999","correct":true,"confidence":3},{"trial_n":52,"span":12,"encoder":"168374433764","distractor":"168374435764","target":"absent","response":"absent","rt":"4249.0000000001","correct":true,"confidence":3},{"trial_n":53,"span":12,"encoder":"892486424835","distractor":"802486424835","target":"absent","response":"absent","rt":"3293","correct":true,"confidence":2},{"trial_n":54,"span":13,"encoder":"1790148864040","distractor":"1740148864040","target":"absent","response":"absent","rt":"3820.0000000001","correct":true,"confidence":1},{"trial_n":55,"span":13,"encoder":"1873444254311","distractor":"1873444254011","target":"present","response":"absent","rt":"2892","correct":false,"confidence":2},{"trial_n":56,"span":12,"encoder":"125409661344","distractor":"126409661344","target":"present","response":"present","rt":"6974.9999999999","correct":true,"confidence":2},{"trial_n":57,"span":12,"encoder":"556874754654","distractor":"556894754654","target":"absent","response":"present","rt":"2632","correct":false,"confidence":3},{"trial_n":58,"span":11,"encoder":"33073991110","distractor":"33873991110","target":"present","response":"absent","rt":"5498","correct":false,"confidence":2},{"trial_n":59,"span":10,"encoder":"1829842607","distractor":"1829812607","target":"present","response":"present","rt":"1936","correct":true,"confidence":3},{"trial_n":60,"span":10,"encoder":"9395937789","distractor":"0395937789","target":"absent","response":"absent","rt":"6100","correct":true,"confidence":3},{"trial_n":61,"span":11,"encoder":"64466921830","distractor":"64436921830","target":"present","response":"absent","rt":"3295","correct":false,"confidence":2},{"trial_n":62,"span":10,"encoder":"3332787806","distractor":"3332887806","target":"present","response":"present","rt":"1841","correct":true,"confidence":3},{"trial_n":63,"span":10,"encoder":"9893523451","distractor":"8893523451","target":"present","response":"present","rt":"2209.0000000001","correct":true,"confidence":3},{"trial_n":64,"span":11,"encoder":"15607983503","distractor":"15607980503","target":"absent","response":"present","rt":"3641.0000000001","correct":false,"confidence":2},{"trial_n":65,"span":10,"encoder":"3868870296","distractor":"8868870296","target":"present","response":"present","rt":"2342","correct":true,"confidence":3},{"trial_n":66,"span":10,"encoder":"7459698931","distractor":"7459668931","target":"absent","response":"absent","rt":"3477","correct":true,"confidence":3},{"trial_n":67,"span":11,"encoder":"27900610157","distractor":"27900610957","target":"present","response":"present","rt":"1922","correct":true,"confidence":2},{"trial_n":68,"span":11,"encoder":"83435551422","distractor":"86435551422","target":"absent","response":"absent","rt":"4681","correct":true,"confidence":2},{"trial_n":69,"span":12,"encoder":"062582005643","distractor":"062582005143","target":"present","response":"present","rt":"2355","correct":true,"confidence":2},{"trial_n":70,"span":12,"encoder":"609397477281","distractor":"669397477281","target":"absent","response":"present","rt":"2931","correct":false,"confidence":2},{"trial_n":71,"span":8,"encoder":"18874825","distractor":"18878825","target":"present","response":"absent","rt":"4214","correct":false,"confidence":-1},{"trial_n":72,"span":7,"encoder":"1067402","distractor":"1067702","target":"present","response":"present","rt":"3116","correct":true,"confidence":-1},{"trial_n":73,"span":7,"encoder":"4082422","distractor":"4089422","target":"absent","response":"absent","rt":"2711","correct":true,"confidence":-1},{"trial_n":74,"span":8,"encoder":"77790761","distractor":"76790761","target":"absent","response":"absent","rt":"2236","correct":true,"confidence":-1},{"trial_n":75,"span":8,"encoder":"02396943","distractor":"08396943","target":"present","response":"absent","rt":"4105","correct":false,"confidence":-1},{"trial_n":76,"span":7,"encoder":"7769782","distractor":"7762782","target":"absent","response":"absent","rt":"3362","correct":true,"confidence":-1},{"trial_n":77,"span":7,"encoder":"3894889","distractor":"3894888","target":"present","response":"present","rt":"2819","correct":true,"confidence":-1},{"trial_n":78,"span":8,"encoder":"08028948","distractor":"08428948","target":"absent","response":"absent","rt":"5021","correct":true,"confidence":-1},{"trial_n":79,"span":8,"encoder":"63400646","distractor":"63400346","target":"present","response":"present","rt":"3752","correct":true,"confidence":-1},{"trial_n":80,"span":9,"encoder":"470664182","distractor":"470364182","target":"absent","response":"present","rt":"5092","correct":false,"confidence":-1},{"trial_n":81,"span":8,"encoder":"72732427","distractor":"72732425","target":"present","response":"present","rt":"6960.9999999999","correct":true,"confidence":-1},{"trial_n":82,"span":8,"encoder":"65975175","distractor":"65985175","target":"present","response":"present","rt":"23063","correct":true,"confidence":-1},{"trial_n":83,"span":9,"encoder":"871227223","distractor":"871227226","target":"absent","response":"absent","rt":"4494","correct":true,"confidence":-1},{"trial_n":84,"span":9,"encoder":"350811569","distractor":"350811669","target":"present","response":"present","rt":"2877","correct":true,"confidence":-1},{"trial_n":85,"span":10,"encoder":"3950394156","distractor":"3050394156","target":"present","response":"present","rt":"4083","correct":true,"confidence":-1},{"trial_n":86,"span":10,"encoder":"9619215806","distractor":"6619215806","target":"present","response":"present","rt":"2556.9999999999","correct":true,"confidence":-1},{"trial_n":87,"span":11,"encoder":"01698909383","distractor":"01628909383","target":"absent","response":"absent","rt":"3776","correct":true,"confidence":-1},{"trial_n":88,"span":11,"encoder":"48878860744","distractor":"48878820744","target":"absent","response":"absent","rt":"4422.0000000001","correct":true,"confidence":-1},{"trial_n":89,"span":12,"encoder":"787402469469","distractor":"787402469769","target":"absent","response":"absent","rt":"2976.9999999999","correct":true,"confidence":-1},{"trial_n":90,"span":12,"encoder":"127594210713","distractor":"127594210714","target":"present","response":"present","rt":"1738","correct":true,"confidence":-1},{"trial_n":91,"span":13,"encoder":"9481820562595","distractor":"9481820662595","target":"absent","response":"absent","rt":"7424","correct":true,"confidence":2},{"trial_n":92,"span":13,"encoder":"6792787034463","distractor":"6792797034463","target":"present","response":"absent","rt":"5560","correct":false,"confidence":3},{"trial_n":93,"span":12,"encoder":"992488539742","distractor":"992588539742","target":"present","response":"absent","rt":"5945.0000000001","correct":false,"confidence":1},{"trial_n":94,"span":11,"encoder":"45846468821","distractor":"45846468321","target":"absent","response":"absent","rt":"3078.9999999999","correct":true,"confidence":4},{"trial_n":95,"span":11,"encoder":"85673331728","distractor":"85675331728","target":"absent","response":"present","rt":"3691","correct":false,"confidence":3},{"trial_n":96,"span":10,"encoder":"6272423036","distractor":"6272427036","target":"absent","response":"absent","rt":"3343.0000000002","correct":true,"confidence":3},{"trial_n":97,"span":10,"encoder":"4918863580","distractor":"4718863580","target":"present","response":"absent","rt":"2616","correct":false,"confidence":1},{"trial_n":98,"span":9,"encoder":"258807800","distractor":"258007800","target":"absent","response":"absent","rt":"5669","correct":true,"confidence":2},{"trial_n":99,"span":9,"encoder":"804120673","distractor":"854120673","target":"absent","response":"absent","rt":"4721","correct":true,"confidence":2},{"trial_n":100,"span":10,"encoder":"8495920628","distractor":"8495925628","target":"absent","response":"absent","rt":"5897.0000000002","correct":true,"confidence":1},{"trial_n":101,"span":10,"encoder":"1397501628","distractor":"1397501128","target":"present","response":"present","rt":"2309","correct":true,"confidence":5},{"trial_n":102,"span":11,"encoder":"35786749551","distractor":"45786749551","target":"absent","response":"present","rt":"3318","correct":false,"confidence":4},{"trial_n":103,"span":10,"encoder":"4480765440","distractor":"4480765540","target":"present","response":"absent","rt":"4471","correct":false,"confidence":4},{"trial_n":104,"span":9,"encoder":"291890606","distractor":"291890806","target":"present","response":"present","rt":"2219.0000000002","correct":true,"confidence":3},{"trial_n":105,"span":9,"encoder":"731548768","distractor":"731548268","target":"absent","response":"absent","rt":"2658","correct":true,"confidence":5},{"trial_n":106,"span":10,"encoder":"9060172466","distractor":"9960172466","target":"absent","response":"absent","rt":"4857","correct":true,"confidence":3},{"trial_n":107,"span":10,"encoder":"9849682435","distractor":"9849682835","target":"present","response":"present","rt":"2461","correct":true,"confidence":5},{"trial_n":108,"span":11,"encoder":"53982036471","distractor":"53982036475","target":"present","response":"present","rt":"2369","correct":true,"confidence":5},{"trial_n":109,"span":11,"encoder":"67263611763","distractor":"67263611363","target":"absent","response":"present","rt":"7488","correct":false,"confidence":2},{"trial_n":110,"span":10,"encoder":"6327728870","distractor":"9327728870","target":"absent","response":"absent","rt":"4238","correct":true,"confidence":3},{"trial_n":111,"span":10,"encoder":"9877051649","distractor":"9877051449","target":"absent","response":"absent","rt":"3663","correct":true,"confidence":4},{"trial_n":112,"span":11,"encoder":"84696358143","distractor":"80696358143","target":"absent","response":"present","rt":"5155.9999999998","correct":false,"confidence":2},{"trial_n":113,"span":10,"encoder":"2887029935","distractor":"2887829935","target":"present","response":"present","rt":"4955","correct":true,"confidence":1},{"trial_n":114,"span":10,"encoder":"5888048181","distractor":"5888018181","target":"absent","response":"absent","rt":"5281","correct":true,"confidence":2},{"trial_n":115,"span":11,"encoder":"67194006259","distractor":"67894006259","target":"absent","response":"absent","rt":"2355","correct":true,"confidence":1},{"trial_n":116,"span":11,"encoder":"29561973034","distractor":"22561973034","target":"present","response":"present","rt":"3192","correct":true,"confidence":4},{"trial_n":117,"span":12,"encoder":"514668831092","distractor":"514662831092","target":"present","response":"absent","rt":"6130","correct":false,"confidence":2},{"trial_n":118,"span":11,"encoder":"34470722291","distractor":"37470722291","target":"present","response":"absent","rt":"3647","correct":false,"confidence":2},{"trial_n":119,"span":10,"encoder":"1180833389","distractor":"1180803389","target":"present","response":"present","rt":"5900.9999999998","correct":true,"confidence":4},{"trial_n":120,"span":10,"encoder":"7015657205","distractor":"7045657205","target":"present","response":"absent","rt":"4858","correct":false,"confidence":1},{"trial_n":121,"span":9,"encoder":"564030626","distractor":"564070626","target":"absent","response":"absent","rt":"4720","correct":true,"confidence":2},{"trial_n":122,"span":9,"encoder":"303596475","distractor":"313596475","target":"absent","response":"present","rt":"5102","correct":false,"confidence":2},{"trial_n":123,"span":8,"encoder":"41858741","distractor":"44858741","target":"present","response":"present","rt":"4617","correct":true,"confidence":2},{"trial_n":124,"span":8,"encoder":"34399434","distractor":"34899434","target":"absent","response":"absent","rt":"2756","correct":true,"confidence":4},{"trial_n":125,"span":9,"encoder":"166117350","distractor":"162117350","target":"absent","response":"absent","rt":"1729","correct":true,"confidence":5},{"trial_n":126,"span":9,"encoder":"395360136","distractor":"397360136","target":"present","response":"present","rt":"2250","correct":true,"confidence":5},{"trial_n":127,"span":10,"encoder":"2189335806","distractor":"2189395806","target":"present","response":"absent","rt":"4683.0000000002","correct":false,"confidence":2},{"trial_n":128,"span":9,"encoder":"196069086","distractor":"196069085","target":"present","response":"absent","rt":"4553","correct":false,"confidence":1},{"trial_n":129,"span":8,"encoder":"66451894","distractor":"66351894","target":"present","response":"present","rt":"3222.0000000002","correct":true,"confidence":4},{"trial_n":130,"span":8,"encoder":"48773306","distractor":"48773302","target":"present","response":"present","rt":"2654","correct":true,"confidence":5},{"trial_n":131,"span":9,"encoder":"612879871","distractor":"612479871","target":"present","response":"absent","rt":"5319","correct":false,"confidence":2},{"trial_n":132,"span":8,"encoder":"54839846","distractor":"84839846","target":"present","response":"present","rt":"9168.9999999998","correct":true,"confidence":1},{"trial_n":133,"span":8,"encoder":"52649225","distractor":"52649725","target":"absent","response":"absent","rt":"6808","correct":true,"confidence":3},{"trial_n":134,"span":9,"encoder":"945121181","distractor":"955121181","target":"absent","response":"absent","rt":"4129","correct":true,"confidence":2},{"trial_n":135,"span":9,"encoder":"325116213","distractor":"925116213","target":"present","response":"present","rt":"7983","correct":true,"confidence":1},{"trial_n":136,"span":10,"encoder":"6587097944","distractor":"6587094944","target":"present","response":"absent","rt":"8665","correct":false,"confidence":2},{"trial_n":137,"span":9,"encoder":"326722935","distractor":"386722935","target":"present","response":"present","rt":"5881","correct":true,"confidence":2},{"trial_n":138,"span":9,"encoder":"583714336","distractor":"589714336","target":"absent","response":"present","rt":"4374","correct":false,"confidence":1},{"trial_n":139,"span":8,"encoder":"15972372","distractor":"15972172","target":"absent","response":"absent","rt":"2554.9999999998","correct":true,"confidence":5},{"trial_n":140,"span":8,"encoder":"47905637","distractor":"47905687","target":"absent","response":"absent","rt":"2448","correct":true,"confidence":5}]