[{"trial_n":1,"span":8,"encoder":"32273829","distractor":"22273829","target":"present","response":"present","rt":"3944.2999999989","correct":true,"confidence":-1},{"trial_n":2,"span":8,"encoder":"31247063","distractor":"31243063","target":"present","response":"present","rt":"2789.4000000004","correct":true,"confidence":-1},{"trial_n":3,"span":10,"encoder":"8590793472","distractor":"8590793422","target":"absent","response":"absent","rt":"2339.5999999996","correct":true,"confidence":-1},{"trial_n":4,"span":10,"encoder":"7465941010","distractor":"7465921010","target":"absent","response":"present","rt":"3070.0999999996","correct":false,"confidence":-1},{"trial_n":5,"span":8,"encoder":"96547859","distractor":"96587859","target":"present","response":"present","rt":"3407.2000000011","correct":true,"confidence":-1},{"trial_n":6,"span":8,"encoder":"09463636","distractor":"09963636","target":"absent","response":"absent","rt":"1829.6999999993","correct":true,"confidence":-1},{"trial_n":7,"span":10,"encoder":"7213132358","distractor":"7213032358","target":"present","response":"present","rt":"4410.6999999993","correct":true,"confidence":-1},{"trial_n":8,"span":10,"encoder":"1005660177","distractor":"9005660177","target":"present","response":"present","rt":"2550.7999999989","correct":true,"confidence":-1},{"trial_n":9,"span":12,"encoder":"221938831509","distractor":"921938831509","target":"absent","response":"absent","rt":"2276.6999999993","correct":true,"confidence":-1},{"trial_n":10,"span":12,"encoder":"203912702411","distractor":"203912708411","target":"absent","response":"present","rt":"1926","correct":false,"confidence":-1},{"trial_n":11,"span":10,"encoder":"0494982176","distractor":"0496982176","target":"absent","response":"absent","rt":"3942.0999999996","correct":true,"confidence":-1},{"trial_n":12,"span":10,"encoder":"8671292451","distractor":"4671292451","target":"absent","response":"present","rt":"4701.9000000004","correct":false,"confidence":-1},{"trial_n":13,"span":9,"encoder":"929821519","distractor":"929721519","target":"present","response":"present","rt":"3775.2999999989","correct":true,"confidence":-1},{"trial_n":14,"span":9,"encoder":"018913658","distractor":"018913058","target":"present","response":"present","rt":"3335.5","correct":true,"confidence":-1},{"trial_n":15,"span":10,"encoder":"7293300330","distractor":"7223300330","target":"present","response":"present","rt":"2942.3999999985","correct":true,"confidence":-1},{"trial_n":16,"span":10,"encoder":"0176353509","distractor":"5176353509","target":"present","response":"present","rt":"3405.3999999985","correct":true,"confidence":-1},{"trial_n":17,"span":11,"encoder":"95364379441","distractor":"95864379441","target":"present","response":"absent","rt":"3805.7000000011","correct":false,"confidence":-1},{"trial_n":18,"span":10,"encoder":"2176142524","distractor":"2171142524","target":"present","response":"absent","rt":"3149.0999999996","correct":false,"confidence":-1},{"trial_n":19,"span":9,"encoder":"478870735","distractor":"473870735","target":"present","response":"absent","rt":"3925.5999999996","correct":false,"confidence":-1},{"trial_n":20,"span":8,"encoder":"98402033","distractor":"98409033","target":"present","response":"present","rt":"4635.5","correct":true,"confidence":-1},{"trial_n":21,"span":8,"encoder":"73519310","distractor":"73519370","target":"present","response":"present","rt":"3761.3000000007","correct":true,"confidence":4},{"trial_n":22,"span":9,"encoder":"686723795","distractor":"386723795","target":"present","response":"absent","rt":"6040.8000000007","correct":false,"confidence":3},{"trial_n":23,"span":8,"encoder":"91247554","distractor":"96247554","target":"absent","response":"absent","rt":"1775.8000000007","correct":true,"confidence":5},{"trial_n":24,"span":8,"encoder":"61460124","distractor":"91460124","target":"absent","response":"absent","rt":"1979","correct":true,"confidence":5},{"trial_n":25,"span":9,"encoder":"786251097","distractor":"786251197","target":"absent","response":"absent","rt":"3146.9000000004","correct":true,"confidence":5},{"trial_n":26,"span":9,"encoder":"903013277","distractor":"903013257","target":"absent","response":"absent","rt":"3887.4000000004","correct":true,"confidence":5},{"trial_n":27,"span":10,"encoder":"7071668890","distractor":"7071662890","target":"absent","response":"present","rt":"5554.4000000004","correct":false,"confidence":3},{"trial_n":28,"span":9,"encoder":"699142906","distractor":"699146906","target":"absent","response":"present","rt":"5008.3000000007","correct":false,"confidence":3},{"trial_n":29,"span":8,"encoder":"71802401","distractor":"71872401","target":"present","response":"present","rt":"3125.4000000004","correct":true,"confidence":5},{"trial_n":30,"span":8,"encoder":"71789491","distractor":"71789497","target":"absent","response":"absent","rt":"4599.0999999996","correct":true,"confidence":4},{"trial_n":31,"span":9,"encoder":"864528388","distractor":"664528388","target":"present","response":"present","rt":"4462.3000000007","correct":true,"confidence":4},{"trial_n":32,"span":9,"encoder":"795259596","distractor":"795259594","target":"present","response":"present","rt":"5779.0999999996","correct":true,"confidence":5},{"trial_n":33,"span":10,"encoder":"1657418922","distractor":"1657418952","target":"present","response":"present","rt":"4477.9000000004","correct":true,"confidence":4},{"trial_n":34,"span":10,"encoder":"3173821534","distractor":"3173821533","target":"present","response":"present","rt":"4647.5999999996","correct":true,"confidence":5},{"trial_n":35,"span":11,"encoder":"35081015269","distractor":"35041015269","target":"present","response":"absent","rt":"5458.4000000004","correct":false,"confidence":4},{"trial_n":36,"span":10,"encoder":"7465592094","distractor":"7465592084","target":"absent","response":"present","rt":"7380.3000000007","correct":false,"confidence":3},{"trial_n":37,"span":9,"encoder":"757138816","distractor":"757538816","target":"absent","response":"present","rt":"6252.7999999989","correct":false,"confidence":4},{"trial_n":38,"span":8,"encoder":"73952695","distractor":"73932695","target":"absent","response":"absent","rt":"5077","correct":true,"confidence":4},{"trial_n":39,"span":8,"encoder":"25462763","distractor":"25482763","target":"absent","response":"absent","rt":"4017.5999999996","correct":true,"confidence":5},{"trial_n":40,"span":9,"encoder":"185483431","distractor":"105483431","target":"absent","response":"present","rt":"3678.6999999993","correct":false,"confidence":4},{"trial_n":41,"span":8,"encoder":"57511920","distractor":"57511925","target":"absent","response":"present","rt":"3023.6999999993","correct":false,"confidence":2},{"trial_n":42,"span":7,"encoder":"6404567","distractor":"7404567","target":"absent","response":"absent","rt":"3205.9000000004","correct":true,"confidence":5},{"trial_n":43,"span":7,"encoder":"8060775","distractor":"8060725","target":"absent","response":"absent","rt":"4248.2000000011","correct":true,"confidence":5},{"trial_n":44,"span":8,"encoder":"80826009","distractor":"80856009","target":"present","response":"present","rt":"5628.1999999993","correct":true,"confidence":4},{"trial_n":45,"span":8,"encoder":"35927469","distractor":"35927465","target":"absent","response":"absent","rt":"7159.8000000007","correct":true,"confidence":3},{"trial_n":46,"span":9,"encoder":"822390941","distractor":"822390949","target":"absent","response":"absent","rt":"2487.0999999996","correct":true,"confidence":5},{"trial_n":47,"span":9,"encoder":"214883654","distractor":"211883654","target":"absent","response":"present","rt":"4451.1999999993","correct":false,"confidence":3},{"trial_n":48,"span":8,"encoder":"85890902","distractor":"85890900","target":"present","response":"present","rt":"3224.0999999996","correct":true,"confidence":4},{"trial_n":49,"span":8,"encoder":"88560631","distractor":"88569631","target":"present","response":"present","rt":"3199.4000000004","correct":true,"confidence":5},{"trial_n":50,"span":9,"encoder":"813503092","distractor":"813503052","target":"present","response":"absent","rt":"5822.6000000015","correct":false,"confidence":3},{"trial_n":51,"span":8,"encoder":"95653376","distractor":"95650376","target":"absent","response":"present","rt":"2668.9000000004","correct":false,"confidence":3},{"trial_n":52,"span":7,"encoder":"5542857","distractor":"5542837","target":"present","response":"present","rt":"2021","correct":true,"confidence":5},{"trial_n":53,"span":7,"encoder":"5183765","distractor":"5983765","target":"absent","response":"absent","rt":"2134.5999999996","correct":true,"confidence":4},{"trial_n":54,"span":8,"encoder":"70425335","distractor":"60425335","target":"present","response":"present","rt":"3082.5","correct":true,"confidence":5},{"trial_n":55,"span":8,"encoder":"09417932","distractor":"09417930","target":"absent","response":"absent","rt":"3129.8000000007","correct":true,"confidence":5},{"trial_n":56,"span":9,"encoder":"182750806","distractor":"186750806","target":"absent","response":"absent","rt":"2387.3999999985","correct":true,"confidence":4},{"trial_n":57,"span":9,"encoder":"553832521","distractor":"553832523","target":"present","response":"absent","rt":"5606.7000000011","correct":false,"confidence":3},{"trial_n":58,"span":8,"encoder":"29564115","distractor":"29464115","target":"absent","response":"present","rt":"3855.8999999985","correct":false,"confidence":3},{"trial_n":59,"span":7,"encoder":"2748892","distractor":"2748092","target":"present","response":"present","rt":"2285.5","correct":true,"confidence":5},{"trial_n":60,"span":7,"encoder":"7661304","distractor":"7661334","target":"present","response":"present","rt":"1896.0999999996","correct":true,"confidence":5},{"trial_n":61,"span":8,"encoder":"01326307","distractor":"01306307","target":"absent","response":"absent","rt":"2486.8000000007","correct":true,"confidence":4},{"trial_n":62,"span":8,"encoder":"08376108","distractor":"68376108","target":"absent","response":"absent","rt":"2182.4000000004","correct":true,"confidence":4},{"trial_n":63,"span":9,"encoder":"336918776","distractor":"338918776","target":"present","response":"present","rt":"3766.5","correct":true,"confidence":5},{"trial_n":64,"span":9,"encoder":"674721944","distractor":"675721944","target":"present","response":"present","rt":"4047.5","correct":true,"confidence":3},{"trial_n":65,"span":10,"encoder":"7734127013","distractor":"1734127013","target":"absent","response":"absent","rt":"1847.8000000007","correct":true,"confidence":3},{"trial_n":66,"span":10,"encoder":"7856711079","distractor":"7856711479","target":"present","response":"absent","rt":"4704.8000000007","correct":false,"confidence":4},{"trial_n":67,"span":9,"encoder":"648069997","distractor":"648064997","target":"present","response":"present","rt":"3110.2999999989","correct":true,"confidence":4},{"trial_n":68,"span":9,"encoder":"692764208","distractor":"682764208","target":"present","response":"absent","rt":"3876.3000000007","correct":false,"confidence":3},{"trial_n":69,"span":8,"encoder":"38263018","distractor":"37263018","target":"present","response":"present","rt":"4007.4000000004","correct":true,"confidence":5},{"trial_n":70,"span":8,"encoder":"35975469","distractor":"35975467","target":"absent","response":"absent","rt":"4119.4000000004","correct":true,"confidence":4},{"trial_n":71,"span":8,"encoder":"61076848","distractor":"11076848","target":"present","response":"present","rt":"2846.3000000007","correct":true,"confidence":-1},{"trial_n":72,"span":8,"encoder":"88216739","distractor":"88226739","target":"present","response":"present","rt":"3191","correct":true,"confidence":-1},{"trial_n":73,"span":9,"encoder":"898134558","distractor":"898134557","target":"absent","response":"absent","rt":"2631.8000000007","correct":true,"confidence":-1},{"trial_n":74,"span":9,"encoder":"837206806","distractor":"837256806","target":"absent","response":"absent","rt":"6427.5999999996","correct":true,"confidence":-1},{"trial_n":75,"span":10,"encoder":"4293619083","distractor":"4203619083","target":"present","response":"present","rt":"6658.0999999996","correct":true,"confidence":-1},{"trial_n":76,"span":10,"encoder":"9837051189","distractor":"9837031189","target":"present","response":"absent","rt":"5737.6999999993","correct":false,"confidence":-1},{"trial_n":77,"span":9,"encoder":"082906637","distractor":"082906657","target":"present","response":"present","rt":"2228.0999999996","correct":true,"confidence":-1},{"trial_n":78,"span":9,"encoder":"400986189","distractor":"400986139","target":"present","response":"present","rt":"2382.1000000015","correct":true,"confidence":-1},{"trial_n":79,"span":10,"encoder":"1618680505","distractor":"1618780505","target":"absent","response":"absent","rt":"6781.1999999993","correct":true,"confidence":-1},{"trial_n":80,"span":10,"encoder":"8569567669","distractor":"8569567689","target":"present","response":"present","rt":"1773.7000000011","correct":true,"confidence":-1},{"trial_n":81,"span":11,"encoder":"36202762062","distractor":"36202762068","target":"present","response":"present","rt":"1679.2000000011","correct":true,"confidence":-1},{"trial_n":82,"span":11,"encoder":"39073742324","distractor":"39973742324","target":"present","response":"present","rt":"8084","correct":true,"confidence":-1},{"trial_n":83,"span":12,"encoder":"214730073726","distractor":"214730073796","target":"absent","response":"absent","rt":"7490.5999999996","correct":true,"confidence":-1},{"trial_n":84,"span":12,"encoder":"548503439122","distractor":"548503436122","target":"present","response":"present","rt":"2295.5999999996","correct":true,"confidence":-1},{"trial_n":85,"span":13,"encoder":"1322345189420","distractor":"1322345289420","target":"absent","response":"absent","rt":"5822.7999999989","correct":true,"confidence":-1},{"trial_n":86,"span":13,"encoder":"8203218292029","distractor":"8403218292029","target":"present","response":"present","rt":"9146.0999999996","correct":true,"confidence":-1},{"trial_n":87,"span":14,"encoder":"32689635096426","distractor":"38689635096426","target":"present","response":"present","rt":"3710.0999999996","correct":true,"confidence":-1},{"trial_n":88,"span":14,"encoder":"06382055421329","distractor":"06382155421329","target":"absent","response":"absent","rt":"9888.0999999996","correct":true,"confidence":-1},{"trial_n":89,"span":15,"encoder":"042408600391479","distractor":"042408600291479","target":"absent","response":"absent","rt":"8572.6999999993","correct":true,"confidence":-1},{"trial_n":90,"span":15,"encoder":"264641109326744","distractor":"264641189326744","target":"present","response":"present","rt":"4391.3999999985","correct":true,"confidence":-1},{"trial_n":91,"span":16,"encoder":"9134115967380429","distractor":"9134115967380229","target":"absent","response":"absent","rt":"3128.0999999996","correct":true,"confidence":5},{"trial_n":92,"span":16,"encoder":"0499230851772549","distractor":"3499230851772549","target":"absent","response":"present","rt":"5789.5999999996","correct":false,"confidence":4},{"trial_n":93,"span":15,"encoder":"730325913202717","distractor":"730925913202717","target":"present","response":"present","rt":"5185.2999999989","correct":true,"confidence":3},{"trial_n":94,"span":15,"encoder":"449722132993220","distractor":"449722122993220","target":"present","response":"present","rt":"6583.9000000004","correct":true,"confidence":4},{"trial_n":95,"span":16,"encoder":"4492903900748923","distractor":"3492903900748923","target":"present","response":"present","rt":"10018.600000001","correct":true,"confidence":4},{"trial_n":96,"span":16,"encoder":"9400924989896515","distractor":"9400924689896515","target":"absent","response":"present","rt":"9327.4000000004","correct":false,"confidence":2},{"trial_n":97,"span":15,"encoder":"635915002982293","distractor":"632915002982293","target":"absent","response":"absent","rt":"10240.6","correct":true,"confidence":4},{"trial_n":98,"span":15,"encoder":"975732391177334","distractor":"775732391177334","target":"present","response":"absent","rt":"4252.9000000004","correct":false,"confidence":1},{"trial_n":99,"span":14,"encoder":"16520068696181","distractor":"16520968696181","target":"absent","response":"absent","rt":"6078.8000000007","correct":true,"confidence":3},{"trial_n":100,"span":14,"encoder":"61079378191121","distractor":"61099378191121","target":"absent","response":"present","rt":"6626.3000000007","correct":false,"confidence":4},{"trial_n":101,"span":13,"encoder":"2638153061954","distractor":"2838153061954","target":"present","response":"present","rt":"9183.8000000007","correct":true,"confidence":3},{"trial_n":102,"span":13,"encoder":"4619235783758","distractor":"4619235783358","target":"present","response":"present","rt":"4902.6999999993","correct":true,"confidence":4},{"trial_n":103,"span":14,"encoder":"31600025173784","distractor":"31600025173787","target":"present","response":"present","rt":"3359.5999999996","correct":true,"confidence":5},{"trial_n":104,"span":14,"encoder":"32534349663697","distractor":"32534349668697","target":"absent","response":"absent","rt":"4656.8000000007","correct":true,"confidence":4},{"trial_n":105,"span":15,"encoder":"198327886824008","distractor":"198317886824008","target":"absent","response":"absent","rt":"7771.3999999985","correct":true,"confidence":2},{"trial_n":106,"span":15,"encoder":"754441272243460","distractor":"754441272245460","target":"absent","response":"absent","rt":"6280.2000000011","correct":true,"confidence":4},{"trial_n":107,"span":16,"encoder":"0598383182686937","distractor":"0598383182886937","target":"present","response":"present","rt":"3914","correct":true,"confidence":5},{"trial_n":108,"span":16,"encoder":"4303115446199871","distractor":"7303115446199871","target":"present","response":"present","rt":"8529.3999999985","correct":true,"confidence":3},{"trial_n":109,"span":17,"encoder":"55960283244509729","distractor":"55960883244509729","target":"absent","response":"absent","rt":"12617","correct":true,"confidence":3},{"trial_n":110,"span":17,"encoder":"69074467893708105","distractor":"69074467893708109","target":"present","response":"present","rt":"2272.3000000007","correct":true,"confidence":5},{"trial_n":111,"span":18,"encoder":"296958074267770234","distractor":"296958074267770232","target":"absent","response":"absent","rt":"2572.4000000004","correct":true,"confidence":5},{"trial_n":112,"span":18,"encoder":"387607204949557259","distractor":"347607204949557259","target":"absent","response":"present","rt":"8032.7000000011","correct":false,"confidence":2},{"trial_n":113,"span":17,"encoder":"21927044547863761","distractor":"21927049547863761","target":"present","response":"present","rt":"5829.4000000004","correct":true,"confidence":4},{"trial_n":114,"span":17,"encoder":"64663916408511389","distractor":"64663916408511380","target":"absent","response":"absent","rt":"2674.7000000011","correct":true,"confidence":5},{"trial_n":115,"span":18,"encoder":"072617903515787659","distractor":"072617907515787659","target":"present","response":"absent","rt":"10871.300000001","correct":false,"confidence":1},{"trial_n":116,"span":17,"encoder":"36812779701099494","distractor":"96812779701099494","target":"absent","response":"absent","rt":"7320.1000000015","correct":true,"confidence":4},{"trial_n":117,"span":17,"encoder":"83582549754689528","distractor":"83532549754689528","target":"absent","response":"absent","rt":"9181.9000000004","correct":true,"confidence":3},{"trial_n":118,"span":18,"encoder":"287000223727614657","distractor":"287000223927614657","target":"absent","response":"absent","rt":"15629.700000001","correct":true,"confidence":2},{"trial_n":119,"span":18,"encoder":"881976945628890545","distractor":"881976945608890545","target":"present","response":"present","rt":"20502","correct":true,"confidence":3},{"trial_n":120,"span":19,"encoder":"5150850252731304030","distractor":"5150840252731304030","target":"absent","response":"present","rt":"10624.200000001","correct":false,"confidence":3},{"trial_n":121,"span":18,"encoder":"938096151948356547","distractor":"938006151948356547","target":"present","response":"present","rt":"4833","correct":true,"confidence":4},{"trial_n":122,"span":18,"encoder":"995832138941344561","distractor":"995832108941344561","target":"absent","response":"absent","rt":"11584.300000001","correct":true,"confidence":3},{"trial_n":123,"span":19,"encoder":"5028549829217453730","distractor":"5028519829217453730","target":"absent","response":"present","rt":"5742.9000000004","correct":false,"confidence":2},{"trial_n":124,"span":18,"encoder":"560886414915247175","distractor":"560886414995247175","target":"present","response":"present","rt":"7813.8000000007","correct":true,"confidence":3},{"trial_n":125,"span":18,"encoder":"521719888529125686","distractor":"521719888529125683","target":"absent","response":"absent","rt":"1811.3999999985","correct":true,"confidence":5},{"trial_n":126,"span":19,"encoder":"1947431134433335451","distractor":"3947431134433335451","target":"absent","response":"present","rt":"8978.5","correct":false,"confidence":3},{"trial_n":127,"span":18,"encoder":"042548083903509079","distractor":"042548083903509009","target":"present","response":"present","rt":"2438.5999999996","correct":true,"confidence":5},{"trial_n":128,"span":18,"encoder":"686087067810613110","distractor":"686087067810633110","target":"absent","response":"absent","rt":"4097.4000000004","correct":true,"confidence":4},{"trial_n":129,"span":19,"encoder":"6350795194478497587","distractor":"6350795194478497787","target":"absent","response":"absent","rt":"2068.7000000011","correct":true,"confidence":5},{"trial_n":130,"span":19,"encoder":"9767529691167398920","distractor":"4767529691167398920","target":"present","response":"present","rt":"7248.5999999996","correct":true,"confidence":3},{"trial_n":131,"span":20,"encoder":"78777808155342162442","distractor":"78757808155342162442","target":"absent","response":"absent","rt":"3177.0999999996","correct":true,"confidence":5},{"trial_n":132,"span":20,"encoder":"75446862298052396005","distractor":"75446862298052896005","target":"present","response":"absent","rt":"12844","correct":false,"confidence":2},{"trial_n":133,"span":19,"encoder":"3497550927563064401","distractor":"3497550925563064401","target":"present","response":"absent","rt":"14980.5","correct":false,"confidence":3},{"trial_n":134,"span":18,"encoder":"863095722285532434","distractor":"863095725285532434","target":"absent","response":"absent","rt":"5688.8000000007","correct":true,"confidence":4},{"trial_n":135,"span":18,"encoder":"591493991592821378","distractor":"591493991522821378","target":"present","response":"present","rt":"5629.8999999985","correct":true,"confidence":3},{"trial_n":136,"span":19,"encoder":"8985860872634331615","distractor":"8985860832634331615","target":"present","response":"absent","rt":"6759","correct":false,"confidence":3},{"trial_n":137,"span":18,"encoder":"381178749150285279","distractor":"381178749150285274","target":"absent","response":"absent","rt":"2561.5","correct":true,"confidence":5},{"trial_n":138,"span":18,"encoder":"733845038771272694","distractor":"703845038771272694","target":"present","response":"absent","rt":"10190.700000001","correct":false,"confidence":2},{"trial_n":139,"span":17,"encoder":"01239578660297691","distractor":"01239578663297691","target":"absent","response":"absent","rt":"9970","correct":true,"confidence":3},{"trial_n":140,"span":17,"encoder":"10931592684493061","distractor":"10931593684493061","target":"present","response":"absent","rt":"6013","correct":false,"confidence":4}]