[{"trial_n":1,"n_dots":4.25,"target":"right","response":"right","rt":10737.9,"correct":true,"confidence":-1},{"trial_n":2,"n_dots":4.25,"target":"left","response":"left","rt":1595.3000000007,"correct":true,"confidence":-1},{"trial_n":3,"n_dots":3.85,"target":"right","response":"right","rt":1494,"correct":true,"confidence":-1},{"trial_n":4,"n_dots":3.85,"target":"left","response":"left","rt":1312.5,"correct":true,"confidence":-1},{"trial_n":5,"n_dots":3.45,"target":"left","response":"right","rt":2166.7000000011,"correct":false,"confidence":-1},{"trial_n":6,"n_dots":3.85,"target":"right","response":"right","rt":914.59999999963,"correct":true,"confidence":-1},{"trial_n":7,"n_dots":3.85,"target":"right","response":"right","rt":679.80000000075,"correct":true,"confidence":-1},{"trial_n":8,"n_dots":3.65,"target":"left","response":"left","rt":998.90000000037,"correct":true,"confidence":-1},{"trial_n":9,"n_dots":3.65,"target":"left","response":"left","rt":2018,"correct":true,"confidence":-1},{"trial_n":10,"n_dots":3.45,"target":"left","response":"left","rt":1063.1999999993,"correct":true,"confidence":-1},{"trial_n":11,"n_dots":3.45,"target":"right","response":"left","rt":1307.3000000007,"correct":false,"confidence":-1},{"trial_n":12,"n_dots":3.65,"target":"left","response":"left","rt":1197.5999999996,"correct":true,"confidence":-1},{"trial_n":13,"n_dots":3.65,"target":"right","response":"right","rt":1248.6999999993,"correct":true,"confidence":-1},{"trial_n":14,"n_dots":3.55,"target":"left","response":"left","rt":863.89999999851,"correct":true,"confidence":-1},{"trial_n":15,"n_dots":3.55,"target":"left","response":"left","rt":884.59999999963,"correct":true,"confidence":-1},{"trial_n":16,"n_dots":3.45,"target":"right","response":"right","rt":1043.0999999996,"correct":true,"confidence":-1},{"trial_n":17,"n_dots":3.45,"target":"left","response":"left","rt":1078.5999999996,"correct":true,"confidence":-1},{"trial_n":18,"n_dots":3.35,"target":"left","response":"left","rt":931,"correct":true,"confidence":-1},{"trial_n":19,"n_dots":3.35,"target":"right","response":"right","rt":729.90000000037,"correct":true,"confidence":-1},{"trial_n":20,"n_dots":3.25,"target":"left","response":"left","rt":758.20000000112,"correct":true,"confidence":-1},{"trial_n":21,"n_dots":3.25,"target":"left","response":"left","rt":1453.0999999996,"correct":true,"confidence":4},{"trial_n":22,"n_dots":3.15,"target":"right","response":"right","rt":1296.4000000004,"correct":true,"confidence":3},{"trial_n":23,"n_dots":3.15,"target":"right","response":"right","rt":885.19999999925,"correct":true,"confidence":4},{"trial_n":24,"n_dots":3.05,"target":"right","response":"left","rt":1390.8000000007,"correct":false,"confidence":3},{"trial_n":25,"n_dots":3.15,"target":"left","response":"right","rt":3966.6999999993,"correct":false,"confidence":3},{"trial_n":26,"n_dots":3.25,"target":"left","response":"left","rt":940.90000000037,"correct":true,"confidence":5},{"trial_n":27,"n_dots":3.25,"target":"left","response":"right","rt":3869.5999999996,"correct":false,"confidence":2},{"trial_n":28,"n_dots":3.35,"target":"right","response":"right","rt":1736.0999999996,"correct":true,"confidence":4},{"trial_n":29,"n_dots":3.35,"target":"right","response":"left","rt":5443,"correct":false,"confidence":2},{"trial_n":30,"n_dots":3.45,"target":"left","response":"left","rt":929.90000000037,"correct":true,"confidence":5},{"trial_n":31,"n_dots":3.45,"target":"right","response":"left","rt":2573.7000000011,"correct":false,"confidence":3},{"trial_n":32,"n_dots":3.55,"target":"right","response":"right","rt":2755.9000000004,"correct":true,"confidence":3},{"trial_n":33,"n_dots":3.55,"target":"right","response":"right","rt":1044.5,"correct":true,"confidence":4},{"trial_n":34,"n_dots":3.45,"target":"left","response":"left","rt":735,"correct":true,"confidence":5},{"trial_n":35,"n_dots":3.45,"target":"left","response":"left","rt":1409.9000000004,"correct":true,"confidence":5},{"trial_n":36,"n_dots":3.35,"target":"left","response":"left","rt":1893.4000000004,"correct":true,"confidence":4},{"trial_n":37,"n_dots":3.35,"target":"right","response":"right","rt":921.90000000037,"correct":true,"confidence":4},{"trial_n":38,"n_dots":3.25,"target":"right","response":"right","rt":1897.1999999993,"correct":true,"confidence":3},{"trial_n":39,"n_dots":3.25,"target":"right","response":"right","rt":1016.7000000011,"correct":true,"confidence":4},{"trial_n":40,"n_dots":3.15,"target":"right","response":"right","rt":1225.3000000007,"correct":true,"confidence":4},{"trial_n":41,"n_dots":3.15,"target":"right","response":"right","rt":1271,"correct":true,"confidence":4},{"trial_n":42,"n_dots":3.05,"target":"left","response":"left","rt":770,"correct":true,"confidence":5},{"trial_n":43,"n_dots":3.05,"target":"left","response":"left","rt":1418.5999999996,"correct":true,"confidence":5},{"trial_n":44,"n_dots":2.95,"target":"right","response":"right","rt":1332.5999999996,"correct":true,"confidence":3},{"trial_n":45,"n_dots":2.95,"target":"left","response":"left","rt":3135.9000000004,"correct":true,"confidence":2},{"trial_n":46,"n_dots":2.85,"target":"left","response":"left","rt":826.60000000149,"correct":true,"confidence":4},{"trial_n":47,"n_dots":2.85,"target":"right","response":"right","rt":1354.3999999985,"correct":true,"confidence":4},{"trial_n":48,"n_dots":2.75,"target":"left","response":"left","rt":1032.6999999993,"correct":true,"confidence":5},{"trial_n":49,"n_dots":2.75,"target":"right","response":"right","rt":2104.5,"correct":true,"confidence":2},{"trial_n":50,"n_dots":2.65,"target":"right","response":"right","rt":751.30000000075,"correct":true,"confidence":5},{"trial_n":51,"n_dots":2.65,"target":"right","response":"right","rt":1239,"correct":true,"confidence":3},{"trial_n":52,"n_dots":2.55,"target":"right","response":"right","rt":2485.5,"correct":true,"confidence":2},{"trial_n":53,"n_dots":2.55,"target":"left","response":"left","rt":675.70000000112,"correct":true,"confidence":4},{"trial_n":54,"n_dots":2.45,"target":"right","response":"left","rt":4138.1999999993,"correct":false,"confidence":3},{"trial_n":55,"n_dots":2.55,"target":"left","response":"left","rt":1952.8000000007,"correct":true,"confidence":3},{"trial_n":56,"n_dots":2.55,"target":"right","response":"right","rt":824.5,"correct":true,"confidence":4},{"trial_n":57,"n_dots":2.45,"target":"right","response":"right","rt":2117.7999999989,"correct":true,"confidence":3},{"trial_n":58,"n_dots":2.45,"target":"left","response":"left","rt":5061,"correct":true,"confidence":3},{"trial_n":59,"n_dots":2.35,"target":"left","response":"left","rt":707.20000000112,"correct":true,"confidence":4},{"trial_n":60,"n_dots":2.35,"target":"left","response":"left","rt":1259,"correct":true,"confidence":3},{"trial_n":61,"n_dots":2.25,"target":"right","response":"right","rt":837.19999999925,"correct":true,"confidence":4},{"trial_n":62,"n_dots":2.25,"target":"left","response":"left","rt":863,"correct":true,"confidence":5},{"trial_n":63,"n_dots":2.15,"target":"left","response":"right","rt":2116.9000000004,"correct":false,"confidence":3},{"trial_n":64,"n_dots":2.25,"target":"left","response":"left","rt":1407.8999999985,"correct":true,"confidence":4},{"trial_n":65,"n_dots":2.25,"target":"left","response":"left","rt":2369.7000000011,"correct":true,"confidence":3},{"trial_n":66,"n_dots":2.15,"target":"right","response":"right","rt":910.59999999963,"correct":true,"confidence":4},{"trial_n":67,"n_dots":2.15,"target":"right","response":"left","rt":2296.4000000004,"correct":false,"confidence":3},{"trial_n":68,"n_dots":2.25,"target":"left","response":"left","rt":1050.0999999996,"correct":true,"confidence":5},{"trial_n":69,"n_dots":2.25,"target":"right","response":"right","rt":5000.3000000007,"correct":true,"confidence":2},{"trial_n":70,"n_dots":2.15,"target":"right","response":"left","rt":3754.2000000011,"correct":false,"confidence":1},{"trial_n":71,"n_dots":2.25,"target":"right","response":"left","rt":1217.6000000015,"correct":false,"confidence":3},{"trial_n":72,"n_dots":2.35,"target":"left","response":"left","rt":1806.4000000004,"correct":true,"confidence":2},{"trial_n":73,"n_dots":2.35,"target":"left","response":"left","rt":1830.7999999989,"correct":true,"confidence":2},{"trial_n":74,"n_dots":2.25,"target":"right","response":"right","rt":2056.0999999996,"correct":true,"confidence":3},{"trial_n":75,"n_dots":2.25,"target":"right","response":"right","rt":2845.9000000004,"correct":true,"confidence":3},{"trial_n":76,"n_dots":2.15,"target":"right","response":"right","rt":3792.8000000007,"correct":true,"confidence":3},{"trial_n":77,"n_dots":2.15,"target":"left","response":"left","rt":1600.8999999985,"correct":true,"confidence":3},{"trial_n":78,"n_dots":2.05,"target":"left","response":"left","rt":1954.2000000011,"correct":true,"confidence":3},{"trial_n":79,"n_dots":2.05,"target":"left","response":"right","rt":2319.9000000004,"correct":false,"confidence":4},{"trial_n":80,"n_dots":2.15,"target":"left","response":"left","rt":3974.9000000004,"correct":true,"confidence":3},{"trial_n":81,"n_dots":2.15,"target":"left","response":"left","rt":679.69999999925,"correct":true,"confidence":5},{"trial_n":82,"n_dots":2.05,"target":"right","response":"right","rt":1142.9000000004,"correct":true,"confidence":4},{"trial_n":83,"n_dots":2.05,"target":"right","response":"left","rt":1054.2000000011,"correct":false,"confidence":4},{"trial_n":84,"n_dots":2.15,"target":"right","response":"left","rt":810.5,"correct":false,"confidence":4},{"trial_n":85,"n_dots":2.25,"target":"left","response":"left","rt":3990.8000000007,"correct":true,"confidence":3},{"trial_n":86,"n_dots":2.25,"target":"left","response":"left","rt":916.20000000112,"correct":true,"confidence":3},{"trial_n":87,"n_dots":2.15,"target":"right","response":"left","rt":825.90000000037,"correct":false,"confidence":4},{"trial_n":88,"n_dots":2.25,"target":"left","response":"left","rt":1059.2000000011,"correct":true,"confidence":4},{"trial_n":89,"n_dots":2.25,"target":"left","response":"left","rt":1144.5999999996,"correct":true,"confidence":3},{"trial_n":90,"n_dots":2.15,"target":"left","response":"left","rt":945.69999999925,"correct":true,"confidence":4},{"trial_n":91,"n_dots":2.15,"target":"right","response":"left","rt":905.80000000075,"correct":false,"confidence":4},{"trial_n":92,"n_dots":2.25,"target":"right","response":"left","rt":1672,"correct":false,"confidence":3},{"trial_n":93,"n_dots":2.35,"target":"left","response":"left","rt":1690.5999999996,"correct":true,"confidence":3},{"trial_n":94,"n_dots":2.35,"target":"left","response":"right","rt":1251.4000000004,"correct":false,"confidence":2},{"trial_n":95,"n_dots":2.45,"target":"left","response":"right","rt":1881.9000000004,"correct":false,"confidence":2},{"trial_n":96,"n_dots":2.55,"target":"right","response":"left","rt":2008,"correct":false,"confidence":3},{"trial_n":97,"n_dots":2.65,"target":"right","response":"right","rt":2667.3999999985,"correct":true,"confidence":3},{"trial_n":98,"n_dots":2.65,"target":"right","response":"left","rt":1128.1000000015,"correct":false,"confidence":4},{"trial_n":99,"n_dots":2.75,"target":"right","response":"left","rt":1887.5999999996,"correct":false,"confidence":2},{"trial_n":100,"n_dots":2.85,"target":"left","response":"left","rt":835,"correct":true,"confidence":4},{"trial_n":101,"n_dots":2.85,"target":"left","response":"left","rt":1622.0999999996,"correct":true,"confidence":5},{"trial_n":102,"n_dots":2.75,"target":"right","response":"right","rt":1079.6000000015,"correct":true,"confidence":4},{"trial_n":103,"n_dots":2.75,"target":"left","response":"left","rt":829.69999999925,"correct":true,"confidence":4},{"trial_n":104,"n_dots":2.65,"target":"left","response":"left","rt":853,"correct":true,"confidence":3},{"trial_n":105,"n_dots":2.65,"target":"right","response":"left","rt":663.90000000037,"correct":false,"confidence":4},{"trial_n":106,"n_dots":2.75,"target":"right","response":"left","rt":1282.5999999996,"correct":false,"confidence":4},{"trial_n":107,"n_dots":2.85,"target":"left","response":"left","rt":1838,"correct":true,"confidence":3},{"trial_n":108,"n_dots":2.85,"target":"right","response":"right","rt":1236.5,"correct":true,"confidence":3},{"trial_n":109,"n_dots":2.75,"target":"right","response":"right","rt":1187,"correct":true,"confidence":3},{"trial_n":110,"n_dots":2.75,"target":"right","response":"left","rt":897.70000000112,"correct":false,"confidence":3},{"trial_n":111,"n_dots":2.85,"target":"right","response":"left","rt":1164.2999999989,"correct":false,"confidence":3},{"trial_n":112,"n_dots":2.95,"target":"right","response":"right","rt":771.80000000075,"correct":true,"confidence":4},{"trial_n":113,"n_dots":2.95,"target":"right","response":"left","rt":1856.1999999993,"correct":false,"confidence":3},{"trial_n":114,"n_dots":3.05,"target":"right","response":"right","rt":1913.5,"correct":true,"confidence":2},{"trial_n":115,"n_dots":3.05,"target":"right","response":"right","rt":683.40000000037,"correct":true,"confidence":3},{"trial_n":116,"n_dots":2.95,"target":"left","response":"left","rt":571,"correct":true,"confidence":4},{"trial_n":117,"n_dots":2.95,"target":"left","response":"left","rt":2023.2999999989,"correct":true,"confidence":3},{"trial_n":118,"n_dots":2.85,"target":"left","response":"left","rt":563.90000000037,"correct":true,"confidence":4},{"trial_n":119,"n_dots":2.85,"target":"left","response":"left","rt":1151.7999999989,"correct":true,"confidence":3},{"trial_n":120,"n_dots":2.75,"target":"left","response":"left","rt":751.40000000037,"correct":true,"confidence":4}]