[{"trial_n":1,"n_dots":4.25,"target":"left","response":"right","rt":5627.9000000954,"correct":false,"confidence":-1},{"trial_n":2,"n_dots":4.25,"target":"left","response":"left","rt":651.39999985695,"correct":true,"confidence":-1},{"trial_n":3,"n_dots":4.25,"target":"left","response":"left","rt":526.89999985695,"correct":true,"confidence":-1},{"trial_n":4,"n_dots":3.85,"target":"left","response":"left","rt":419.39999985695,"correct":true,"confidence":-1},{"trial_n":5,"n_dots":3.85,"target":"right","response":"right","rt":519.89999985695,"correct":true,"confidence":-1},{"trial_n":6,"n_dots":3.45,"target":"right","response":"right","rt":471.69999980927,"correct":true,"confidence":-1},{"trial_n":7,"n_dots":3.45,"target":"left","response":"left","rt":1089.7000000477,"correct":true,"confidence":-1},{"trial_n":8,"n_dots":3.25,"target":"left","response":"left","rt":539.69999980927,"correct":true,"confidence":-1},{"trial_n":9,"n_dots":3.25,"target":"right","response":"right","rt":305.19999980927,"correct":true,"confidence":-1},{"trial_n":10,"n_dots":3.05,"target":"right","response":"left","rt":645,"correct":false,"confidence":-1},{"trial_n":11,"n_dots":3.25,"target":"right","response":"right","rt":437.60000014305,"correct":true,"confidence":-1},{"trial_n":12,"n_dots":3.25,"target":"left","response":"left","rt":330.20000004768,"correct":true,"confidence":-1},{"trial_n":13,"n_dots":3.15,"target":"right","response":"left","rt":512.70000004768,"correct":false,"confidence":-1},{"trial_n":14,"n_dots":3.25,"target":"right","response":"left","rt":330.5,"correct":false,"confidence":-1},{"trial_n":15,"n_dots":3.35,"target":"left","response":"left","rt":382.5,"correct":true,"confidence":-1},{"trial_n":16,"n_dots":3.35,"target":"right","response":"right","rt":670,"correct":true,"confidence":-1},{"trial_n":17,"n_dots":3.25,"target":"left","response":"left","rt":442.5,"correct":true,"confidence":-1},{"trial_n":18,"n_dots":3.25,"target":"left","response":"left","rt":372.59999990463,"correct":true,"confidence":-1},{"trial_n":19,"n_dots":3.15,"target":"left","response":"left","rt":314.29999995232,"correct":true,"confidence":-1},{"trial_n":20,"n_dots":3.15,"target":"left","response":"left","rt":353.89999985695,"correct":true,"confidence":-1},{"trial_n":21,"n_dots":3.05,"target":"left","response":"left","rt":365.40000009537,"correct":true,"confidence":3},{"trial_n":22,"n_dots":3.05,"target":"left","response":"left","rt":304.09999990463,"correct":true,"confidence":4},{"trial_n":23,"n_dots":2.95,"target":"right","response":"right","rt":1436.4000000954,"correct":true,"confidence":4},{"trial_n":24,"n_dots":2.95,"target":"right","response":"right","rt":1068.6000001431,"correct":true,"confidence":5},{"trial_n":25,"n_dots":2.85,"target":"left","response":"right","rt":678.79999995232,"correct":false,"confidence":4},{"trial_n":26,"n_dots":2.95,"target":"left","response":"left","rt":612.5,"correct":true,"confidence":3},{"trial_n":27,"n_dots":2.95,"target":"right","response":"right","rt":1318.9000000954,"correct":true,"confidence":3},{"trial_n":28,"n_dots":2.85,"target":"left","response":"right","rt":905.29999995232,"correct":false,"confidence":2},{"trial_n":29,"n_dots":2.95,"target":"right","response":"right","rt":410.5,"correct":true,"confidence":3},{"trial_n":30,"n_dots":2.95,"target":"left","response":"left","rt":482,"correct":true,"confidence":4},{"trial_n":31,"n_dots":2.85,"target":"right","response":"right","rt":553.19999980927,"correct":true,"confidence":3},{"trial_n":32,"n_dots":2.85,"target":"left","response":"left","rt":937.19999980927,"correct":true,"confidence":1},{"trial_n":33,"n_dots":2.75,"target":"right","response":"right","rt":662.5,"correct":true,"confidence":2},{"trial_n":34,"n_dots":2.75,"target":"right","response":"right","rt":332,"correct":true,"confidence":4},{"trial_n":35,"n_dots":2.65,"target":"left","response":"left","rt":1478.7999999523,"correct":true,"confidence":4},{"trial_n":36,"n_dots":2.65,"target":"right","response":"right","rt":1113.7000000477,"correct":true,"confidence":1},{"trial_n":37,"n_dots":2.55,"target":"right","response":"right","rt":336.29999995232,"correct":true,"confidence":3},{"trial_n":38,"n_dots":2.55,"target":"right","response":"left","rt":355.90000009537,"correct":false,"confidence":2},{"trial_n":39,"n_dots":2.65,"target":"right","response":"right","rt":589.29999995232,"correct":true,"confidence":4},{"trial_n":40,"n_dots":2.65,"target":"left","response":"left","rt":385,"correct":true,"confidence":3},{"trial_n":41,"n_dots":2.55,"target":"right","response":"right","rt":756.19999980927,"correct":true,"confidence":4},{"trial_n":42,"n_dots":2.55,"target":"left","response":"right","rt":937.89999985695,"correct":false,"confidence":3},{"trial_n":43,"n_dots":2.65,"target":"right","response":"right","rt":904.90000009537,"correct":true,"confidence":1},{"trial_n":44,"n_dots":2.65,"target":"right","response":"right","rt":648.5,"correct":true,"confidence":4},{"trial_n":45,"n_dots":2.55,"target":"left","response":"left","rt":1035,"correct":true,"confidence":2},{"trial_n":46,"n_dots":2.55,"target":"right","response":"right","rt":767.59999990463,"correct":true,"confidence":3},{"trial_n":47,"n_dots":2.45,"target":"right","response":"right","rt":1119.5999999046,"correct":true,"confidence":4},{"trial_n":48,"n_dots":2.45,"target":"right","response":"right","rt":837.20000004768,"correct":true,"confidence":4},{"trial_n":49,"n_dots":2.35,"target":"left","response":"left","rt":1780.3000001907,"correct":true,"confidence":1},{"trial_n":50,"n_dots":2.35,"target":"right","response":"right","rt":620.90000009537,"correct":true,"confidence":4},{"trial_n":51,"n_dots":2.25,"target":"left","response":"right","rt":759,"correct":false,"confidence":4},{"trial_n":52,"n_dots":2.35,"target":"right","response":"left","rt":824.5,"correct":false,"confidence":2},{"trial_n":53,"n_dots":2.45,"target":"left","response":"right","rt":1267.5,"correct":false,"confidence":1},{"trial_n":54,"n_dots":2.55,"target":"left","response":"right","rt":980.29999995232,"correct":false,"confidence":3},{"trial_n":55,"n_dots":2.65,"target":"right","response":"left","rt":1668.0999999046,"correct":false,"confidence":3},{"trial_n":56,"n_dots":2.75,"target":"right","response":"left","rt":3786.8999998569,"correct":false,"confidence":3},{"trial_n":57,"n_dots":2.85,"target":"left","response":"right","rt":833,"correct":false,"confidence":1},{"trial_n":58,"n_dots":2.95,"target":"right","response":"right","rt":578.40000009537,"correct":true,"confidence":3},{"trial_n":59,"n_dots":2.95,"target":"right","response":"left","rt":998.09999990463,"correct":false,"confidence":1},{"trial_n":60,"n_dots":3.05,"target":"right","response":"right","rt":579.40000009537,"correct":true,"confidence":4},{"trial_n":61,"n_dots":3.05,"target":"right","response":"right","rt":433.59999990463,"correct":true,"confidence":5},{"trial_n":62,"n_dots":2.95,"target":"left","response":"left","rt":858.29999995232,"correct":true,"confidence":2},{"trial_n":63,"n_dots":2.95,"target":"right","response":"right","rt":701.89999985695,"correct":true,"confidence":4},{"trial_n":64,"n_dots":2.85,"target":"left","response":"right","rt":899.90000009537,"correct":false,"confidence":4},{"trial_n":65,"n_dots":2.95,"target":"left","response":"left","rt":724.59999990463,"correct":true,"confidence":4},{"trial_n":66,"n_dots":2.95,"target":"right","response":"left","rt":1224.1999998093,"correct":false,"confidence":5},{"trial_n":67,"n_dots":3.05,"target":"left","response":"left","rt":791.90000009537,"correct":true,"confidence":3},{"trial_n":68,"n_dots":3.05,"target":"right","response":"left","rt":1053.0999999046,"correct":false,"confidence":3},{"trial_n":69,"n_dots":3.15,"target":"left","response":"left","rt":1183.7999999523,"correct":true,"confidence":1},{"trial_n":70,"n_dots":3.15,"target":"right","response":"right","rt":614.29999995232,"correct":true,"confidence":5},{"trial_n":71,"n_dots":3.05,"target":"right","response":"right","rt":2882.0999999046,"correct":true,"confidence":5},{"trial_n":72,"n_dots":3.05,"target":"right","response":"right","rt":442.30000019073,"correct":true,"confidence":5},{"trial_n":73,"n_dots":2.95,"target":"left","response":"right","rt":982.40000009537,"correct":false,"confidence":2},{"trial_n":74,"n_dots":3.05,"target":"right","response":"left","rt":1195.0999999046,"correct":false,"confidence":2},{"trial_n":75,"n_dots":3.15,"target":"left","response":"left","rt":744.90000009537,"correct":true,"confidence":3},{"trial_n":76,"n_dots":3.15,"target":"right","response":"right","rt":692.69999980927,"correct":true,"confidence":5},{"trial_n":77,"n_dots":3.05,"target":"left","response":"left","rt":769.39999985695,"correct":true,"confidence":3},{"trial_n":78,"n_dots":3.05,"target":"left","response":"left","rt":591,"correct":true,"confidence":5},{"trial_n":79,"n_dots":2.95,"target":"right","response":"right","rt":822.90000009537,"correct":true,"confidence":2},{"trial_n":80,"n_dots":2.95,"target":"left","response":"left","rt":641.89999985695,"correct":true,"confidence":3},{"trial_n":81,"n_dots":2.85,"target":"right","response":"right","rt":732.20000004768,"correct":true,"confidence":2},{"trial_n":82,"n_dots":2.85,"target":"right","response":"right","rt":498.89999985695,"correct":true,"confidence":5},{"trial_n":83,"n_dots":2.75,"target":"right","response":"right","rt":887.20000004768,"correct":true,"confidence":4},{"trial_n":84,"n_dots":2.75,"target":"right","response":"right","rt":832.70000004768,"correct":true,"confidence":4},{"trial_n":85,"n_dots":2.65,"target":"left","response":"left","rt":657.70000004768,"correct":true,"confidence":4},{"trial_n":86,"n_dots":2.65,"target":"right","response":"left","rt":953.09999990463,"correct":false,"confidence":3},{"trial_n":87,"n_dots":2.75,"target":"left","response":"left","rt":600.09999990463,"correct":true,"confidence":3},{"trial_n":88,"n_dots":2.75,"target":"right","response":"left","rt":825.20000004768,"correct":false,"confidence":4},{"trial_n":89,"n_dots":2.85,"target":"left","response":"left","rt":583.59999990463,"correct":true,"confidence":5},{"trial_n":90,"n_dots":2.85,"target":"right","response":"right","rt":1030.9000000954,"correct":true,"confidence":4},{"trial_n":91,"n_dots":2.75,"target":"left","response":"right","rt":1217.0999999046,"correct":false,"confidence":2},{"trial_n":92,"n_dots":2.85,"target":"right","response":"right","rt":464.20000004768,"correct":true,"confidence":3},{"trial_n":93,"n_dots":2.85,"target":"left","response":"left","rt":742,"correct":true,"confidence":3},{"trial_n":94,"n_dots":2.75,"target":"left","response":"left","rt":575.5,"correct":true,"confidence":4},{"trial_n":95,"n_dots":2.75,"target":"left","response":"left","rt":667.70000004768,"correct":true,"confidence":4},{"trial_n":96,"n_dots":2.65,"target":"right","response":"right","rt":888.29999995232,"correct":true,"confidence":2},{"trial_n":97,"n_dots":2.65,"target":"right","response":"left","rt":599.79999995232,"correct":false,"confidence":2},{"trial_n":98,"n_dots":2.75,"target":"right","response":"left","rt":885.90000009537,"correct":false,"confidence":5},{"trial_n":99,"n_dots":2.85,"target":"left","response":"right","rt":2258,"correct":false,"confidence":1},{"trial_n":100,"n_dots":2.95,"target":"right","response":"right","rt":956.89999985695,"correct":true,"confidence":1},{"trial_n":101,"n_dots":2.95,"target":"right","response":"right","rt":742.19999980927,"correct":true,"confidence":4},{"trial_n":102,"n_dots":2.85,"target":"left","response":"left","rt":674.09999990463,"correct":true,"confidence":5},{"trial_n":103,"n_dots":2.85,"target":"left","response":"left","rt":732,"correct":true,"confidence":5},{"trial_n":104,"n_dots":2.75,"target":"left","response":"left","rt":606,"correct":true,"confidence":4},{"trial_n":105,"n_dots":2.75,"target":"left","response":"right","rt":1239,"correct":false,"confidence":1},{"trial_n":106,"n_dots":2.85,"target":"left","response":"left","rt":1150.4000000954,"correct":true,"confidence":3},{"trial_n":107,"n_dots":2.85,"target":"left","response":"right","rt":985,"correct":false,"confidence":1},{"trial_n":108,"n_dots":2.95,"target":"left","response":"left","rt":637.5,"correct":true,"confidence":3},{"trial_n":109,"n_dots":2.95,"target":"left","response":"right","rt":965.20000004768,"correct":false,"confidence":1},{"trial_n":110,"n_dots":3.05,"target":"left","response":"left","rt":481.70000004768,"correct":true,"confidence":4},{"trial_n":111,"n_dots":3.05,"target":"left","response":"right","rt":1126.3999998569,"correct":false,"confidence":1},{"trial_n":112,"n_dots":3.15,"target":"right","response":"right","rt":1321.5999999046,"correct":true,"confidence":2},{"trial_n":113,"n_dots":3.15,"target":"right","response":"left","rt":1150.1000001431,"correct":false,"confidence":1},{"trial_n":114,"n_dots":3.25,"target":"left","response":"left","rt":911.69999980927,"correct":true,"confidence":3},{"trial_n":115,"n_dots":3.25,"target":"right","response":"right","rt":1295.8000001907,"correct":true,"confidence":1},{"trial_n":116,"n_dots":3.15,"target":"left","response":"left","rt":497.29999995232,"correct":true,"confidence":4},{"trial_n":117,"n_dots":3.15,"target":"right","response":"right","rt":1003.1999998093,"correct":true,"confidence":4},{"trial_n":118,"n_dots":3.05,"target":"left","response":"right","rt":1096.9000000954,"correct":false,"confidence":2},{"trial_n":119,"n_dots":3.15,"target":"right","response":"right","rt":1140.9000000954,"correct":true,"confidence":1},{"trial_n":120,"n_dots":3.15,"target":"left","response":"left","rt":1283.5999999046,"correct":true,"confidence":1}]