[{"trial_n":1,"min":25,"max":230,"target":"present","response":"absent","rt":6170.2000000477,"correct":false,"confidence":-1},{"trial_n":2,"min":25,"max":230,"target":"present","response":"present","rt":3055.1999998093,"correct":true,"confidence":-1},{"trial_n":3,"min":25,"max":230,"target":"absent","response":"absent","rt":2106.3999998569,"correct":true,"confidence":-1},{"trial_n":4,"min":41,"max":214,"target":"absent","response":"absent","rt":1321.3000001907,"correct":true,"confidence":-1},{"trial_n":5,"min":41,"max":214,"target":"present","response":"present","rt":1206.9000000954,"correct":true,"confidence":-1},{"trial_n":6,"min":57,"max":198,"target":"present","response":"present","rt":1589.1000001431,"correct":true,"confidence":-1},{"trial_n":7,"min":57,"max":198,"target":"present","response":"present","rt":1106.2000000477,"correct":true,"confidence":-1},{"trial_n":8,"min":73,"max":182,"target":"absent","response":"absent","rt":1555.6999998093,"correct":true,"confidence":-1},{"trial_n":9,"min":73,"max":182,"target":"absent","response":"absent","rt":1456.1999998093,"correct":true,"confidence":-1},{"trial_n":10,"min":89,"max":166,"target":"absent","response":"absent","rt":920.39999985695,"correct":true,"confidence":-1},{"trial_n":11,"min":89,"max":166,"target":"present","response":"present","rt":1587.1000001431,"correct":true,"confidence":-1},{"trial_n":12,"min":97,"max":158,"target":"present","response":"absent","rt":1036.6000001431,"correct":false,"confidence":-1},{"trial_n":13,"min":89,"max":166,"target":"present","response":"present","rt":1155.7000000477,"correct":true,"confidence":-1},{"trial_n":14,"min":89,"max":166,"target":"absent","response":"present","rt":771.39999985695,"correct":false,"confidence":-1},{"trial_n":15,"min":81,"max":174,"target":"present","response":"absent","rt":1506.5,"correct":false,"confidence":-1},{"trial_n":16,"min":73,"max":182,"target":"present","response":"present","rt":1405,"correct":true,"confidence":-1},{"trial_n":17,"min":73,"max":182,"target":"present","response":"present","rt":1322.2000000477,"correct":true,"confidence":-1},{"trial_n":18,"min":81,"max":174,"target":"present","response":"present","rt":889,"correct":true,"confidence":-1},{"trial_n":19,"min":81,"max":174,"target":"absent","response":"present","rt":771,"correct":false,"confidence":-1},{"trial_n":20,"min":73,"max":182,"target":"present","response":"present","rt":1218.0999999046,"correct":true,"confidence":-1},{"trial_n":21,"min":73,"max":182,"target":"absent","response":"present","rt":2356.9000000954,"correct":false,"confidence":3},{"trial_n":22,"min":69,"max":186,"target":"absent","response":"absent","rt":1523.5999999046,"correct":true,"confidence":4},{"trial_n":23,"min":69,"max":186,"target":"absent","response":"present","rt":2117.0999999046,"correct":false,"confidence":3},{"trial_n":24,"min":65,"max":190,"target":"absent","response":"present","rt":1170.8999998569,"correct":false,"confidence":3},{"trial_n":25,"min":61,"max":194,"target":"present","response":"present","rt":3269.0999999046,"correct":true,"confidence":2},{"trial_n":26,"min":61,"max":194,"target":"present","response":"absent","rt":1290.0999999046,"correct":false,"confidence":4},{"trial_n":27,"min":57,"max":198,"target":"present","response":"present","rt":1014.7999999523,"correct":true,"confidence":4},{"trial_n":28,"min":57,"max":198,"target":"present","response":"present","rt":924.70000004768,"correct":true,"confidence":4},{"trial_n":29,"min":61,"max":194,"target":"present","response":"present","rt":1193.5,"correct":true,"confidence":4},{"trial_n":30,"min":61,"max":194,"target":"present","response":"present","rt":1125.2000000477,"correct":true,"confidence":4},{"trial_n":31,"min":63,"max":192,"target":"present","response":"present","rt":1217.2999999523,"correct":true,"confidence":4},{"trial_n":32,"min":63,"max":192,"target":"absent","response":"absent","rt":1205.6000001431,"correct":true,"confidence":4},{"trial_n":33,"min":65,"max":190,"target":"absent","response":"absent","rt":1521.4000000954,"correct":true,"confidence":4},{"trial_n":34,"min":65,"max":190,"target":"absent","response":"absent","rt":1212.8999998569,"correct":true,"confidence":4},{"trial_n":35,"min":67,"max":188,"target":"present","response":"present","rt":1317.7999999523,"correct":true,"confidence":2},{"trial_n":36,"min":67,"max":188,"target":"present","response":"present","rt":1137.9000000954,"correct":true,"confidence":3},{"trial_n":37,"min":69,"max":186,"target":"present","response":"present","rt":1022,"correct":true,"confidence":3},{"trial_n":38,"min":69,"max":186,"target":"absent","response":"absent","rt":1098.9000000954,"correct":true,"confidence":4},{"trial_n":39,"min":71,"max":184,"target":"absent","response":"absent","rt":1282.8999998569,"correct":true,"confidence":4},{"trial_n":40,"min":71,"max":184,"target":"absent","response":"absent","rt":1248.4000000954,"correct":true,"confidence":5},{"trial_n":41,"min":72,"max":183,"target":"absent","response":"absent","rt":1756.5999999046,"correct":true,"confidence":5},{"trial_n":42,"min":72,"max":183,"target":"present","response":"present","rt":944.70000004768,"correct":true,"confidence":5},{"trial_n":43,"min":73,"max":182,"target":"absent","response":"absent","rt":1020,"correct":true,"confidence":4},{"trial_n":44,"min":73,"max":182,"target":"absent","response":"absent","rt":1079.5,"correct":true,"confidence":4},{"trial_n":45,"min":74,"max":181,"target":"absent","response":"absent","rt":1727.7999999523,"correct":true,"confidence":5},{"trial_n":46,"min":74,"max":181,"target":"present","response":"present","rt":1622.2999999523,"correct":true,"confidence":3},{"trial_n":47,"min":75,"max":180,"target":"present","response":"present","rt":1196.7999999523,"correct":true,"confidence":2},{"trial_n":48,"min":75,"max":180,"target":"present","response":"present","rt":1789.9000000954,"correct":true,"confidence":3},{"trial_n":49,"min":76,"max":179,"target":"absent","response":"absent","rt":2311.2999999523,"correct":true,"confidence":4},{"trial_n":50,"min":76,"max":179,"target":"present","response":"present","rt":1010.6000001431,"correct":true,"confidence":4},{"trial_n":51,"min":77,"max":178,"target":"absent","response":"absent","rt":1638.2999999523,"correct":true,"confidence":4},{"trial_n":52,"min":77,"max":178,"target":"absent","response":"absent","rt":1180.5,"correct":true,"confidence":5},{"trial_n":53,"min":78,"max":177,"target":"absent","response":"absent","rt":1085.3999998569,"correct":true,"confidence":5},{"trial_n":54,"min":78,"max":177,"target":"absent","response":"absent","rt":1173.5999999046,"correct":true,"confidence":5},{"trial_n":55,"min":79,"max":176,"target":"absent","response":"present","rt":1671.5,"correct":false,"confidence":3},{"trial_n":56,"min":78,"max":177,"target":"absent","response":"absent","rt":1256.5999999046,"correct":true,"confidence":5},{"trial_n":57,"min":78,"max":177,"target":"absent","response":"absent","rt":1047.1000001431,"correct":true,"confidence":4},{"trial_n":58,"min":79,"max":176,"target":"present","response":"present","rt":1247.2999999523,"correct":true,"confidence":3},{"trial_n":59,"min":79,"max":176,"target":"present","response":"present","rt":1002.5999999046,"correct":true,"confidence":3},{"trial_n":60,"min":80,"max":175,"target":"absent","response":"absent","rt":1282.7000000477,"correct":true,"confidence":4},{"trial_n":61,"min":80,"max":175,"target":"absent","response":"absent","rt":1330.5,"correct":true,"confidence":4},{"trial_n":62,"min":81,"max":174,"target":"present","response":"present","rt":933.29999995232,"correct":true,"confidence":3},{"trial_n":63,"min":81,"max":174,"target":"present","response":"present","rt":992.59999990463,"correct":true,"confidence":4},{"trial_n":64,"min":82,"max":173,"target":"present","response":"present","rt":1153.7999999523,"correct":true,"confidence":3},{"trial_n":65,"min":82,"max":173,"target":"absent","response":"absent","rt":1200.0999999046,"correct":true,"confidence":4},{"trial_n":66,"min":83,"max":172,"target":"present","response":"present","rt":1075,"correct":true,"confidence":4},{"trial_n":67,"min":83,"max":172,"target":"present","response":"present","rt":1355.5999999046,"correct":true,"confidence":5},{"trial_n":68,"min":84,"max":171,"target":"present","response":"present","rt":972.59999990463,"correct":true,"confidence":5},{"trial_n":69,"min":84,"max":171,"target":"absent","response":"absent","rt":1122.5,"correct":true,"confidence":5},{"trial_n":70,"min":85,"max":170,"target":"absent","response":"absent","rt":2273.6999998093,"correct":true,"confidence":3},{"trial_n":71,"min":41,"max":214,"target":"present","response":"present","rt":2666.7000000477,"correct":true,"confidence":-1},{"trial_n":72,"min":41,"max":214,"target":"present","response":"present","rt":1113.7000000477,"correct":true,"confidence":-1},{"trial_n":73,"min":57,"max":198,"target":"absent","response":"absent","rt":1431,"correct":true,"confidence":-1},{"trial_n":74,"min":57,"max":198,"target":"absent","response":"absent","rt":915.89999985695,"correct":true,"confidence":-1},{"trial_n":75,"min":73,"max":182,"target":"present","response":"present","rt":1015.5,"correct":true,"confidence":-1},{"trial_n":76,"min":73,"max":182,"target":"present","response":"present","rt":867.09999990463,"correct":true,"confidence":-1},{"trial_n":77,"min":89,"max":166,"target":"absent","response":"present","rt":1182.6000001431,"correct":false,"confidence":-1},{"trial_n":78,"min":73,"max":182,"target":"present","response":"present","rt":717.59999990463,"correct":true,"confidence":-1},{"trial_n":79,"min":73,"max":182,"target":"present","response":"present","rt":1981.9000000954,"correct":true,"confidence":-1},{"trial_n":80,"min":89,"max":166,"target":"present","response":"present","rt":699.79999995232,"correct":true,"confidence":-1},{"trial_n":81,"min":89,"max":166,"target":"present","response":"present","rt":731.90000009537,"correct":true,"confidence":-1},{"trial_n":82,"min":97,"max":158,"target":"absent","response":"absent","rt":1414.2999999523,"correct":true,"confidence":-1},{"trial_n":83,"min":97,"max":158,"target":"present","response":"present","rt":1215.2999999523,"correct":true,"confidence":-1},{"trial_n":84,"min":105,"max":150,"target":"present","response":"present","rt":1032.8000001907,"correct":true,"confidence":-1},{"trial_n":85,"min":105,"max":150,"target":"absent","response":"present","rt":949.39999985695,"correct":false,"confidence":-1},{"trial_n":86,"min":97,"max":158,"target":"absent","response":"absent","rt":1728.2000000477,"correct":true,"confidence":-1},{"trial_n":87,"min":97,"max":158,"target":"absent","response":"present","rt":1284.6000001431,"correct":false,"confidence":-1},{"trial_n":88,"min":89,"max":166,"target":"absent","response":"present","rt":964.70000004768,"correct":false,"confidence":-1},{"trial_n":89,"min":81,"max":174,"target":"present","response":"absent","rt":1965.6000001431,"correct":false,"confidence":-1},{"trial_n":90,"min":73,"max":182,"target":"absent","response":"present","rt":1416,"correct":false,"confidence":-1},{"trial_n":91,"min":69,"max":186,"target":"absent","response":"absent","rt":1566.5999999046,"correct":true,"confidence":4},{"trial_n":92,"min":69,"max":186,"target":"absent","response":"absent","rt":2116.5,"correct":true,"confidence":3},{"trial_n":93,"min":73,"max":182,"target":"present","response":"present","rt":1064.8999998569,"correct":true,"confidence":5},{"trial_n":94,"min":73,"max":182,"target":"present","response":"present","rt":1151,"correct":true,"confidence":4},{"trial_n":95,"min":77,"max":178,"target":"present","response":"present","rt":1183.7999999523,"correct":true,"confidence":4},{"trial_n":96,"min":77,"max":178,"target":"absent","response":"absent","rt":1182.2000000477,"correct":true,"confidence":4},{"trial_n":97,"min":81,"max":174,"target":"present","response":"present","rt":1099.1000001431,"correct":true,"confidence":5},{"trial_n":98,"min":81,"max":174,"target":"present","response":"present","rt":1197.6000001431,"correct":true,"confidence":3},{"trial_n":99,"min":85,"max":170,"target":"absent","response":"absent","rt":1304.7000000477,"correct":true,"confidence":3},{"trial_n":100,"min":85,"max":170,"target":"present","response":"present","rt":1317.8999998569,"correct":true,"confidence":3},{"trial_n":101,"min":87,"max":168,"target":"present","response":"present","rt":1247.9000000954,"correct":true,"confidence":3},{"trial_n":102,"min":87,"max":168,"target":"present","response":"absent","rt":2433.5999999046,"correct":false,"confidence":2},{"trial_n":103,"min":85,"max":170,"target":"present","response":"present","rt":1133.5,"correct":true,"confidence":4},{"trial_n":104,"min":85,"max":170,"target":"present","response":"present","rt":1095.3000001907,"correct":true,"confidence":4},{"trial_n":105,"min":87,"max":168,"target":"absent","response":"absent","rt":1234.2000000477,"correct":true,"confidence":4},{"trial_n":106,"min":87,"max":168,"target":"present","response":"present","rt":1317.9000000954,"correct":true,"confidence":3},{"trial_n":107,"min":89,"max":166,"target":"absent","response":"present","rt":1377.8000001907,"correct":false,"confidence":2},{"trial_n":108,"min":87,"max":168,"target":"absent","response":"absent","rt":1142.7000000477,"correct":true,"confidence":2},{"trial_n":109,"min":87,"max":168,"target":"absent","response":"present","rt":1093.7999999523,"correct":false,"confidence":2},{"trial_n":110,"min":85,"max":170,"target":"absent","response":"absent","rt":1333.5,"correct":true,"confidence":3},{"trial_n":111,"min":85,"max":170,"target":"absent","response":"absent","rt":1072.5,"correct":true,"confidence":4},{"trial_n":112,"min":86,"max":169,"target":"absent","response":"present","rt":1083.1999998093,"correct":false,"confidence":3},{"trial_n":113,"min":85,"max":170,"target":"absent","response":"absent","rt":1079.2999999523,"correct":true,"confidence":4},{"trial_n":114,"min":85,"max":170,"target":"absent","response":"present","rt":1432.1000001431,"correct":false,"confidence":3},{"trial_n":115,"min":84,"max":171,"target":"present","response":"present","rt":1441.7000000477,"correct":true,"confidence":4},{"trial_n":116,"min":84,"max":171,"target":"absent","response":"absent","rt":1616.0999999046,"correct":true,"confidence":4},{"trial_n":117,"min":85,"max":170,"target":"present","response":"present","rt":1633.2999999523,"correct":true,"confidence":3},{"trial_n":118,"min":85,"max":170,"target":"present","response":"present","rt":1208.6000001431,"correct":true,"confidence":3},{"trial_n":119,"min":86,"max":169,"target":"present","response":"present","rt":1215.8999998569,"correct":true,"confidence":4},{"trial_n":120,"min":86,"max":169,"target":"absent","response":"present","rt":1813,"correct":false,"confidence":3},{"trial_n":121,"min":85,"max":170,"target":"present","response":"present","rt":1014.5,"correct":true,"confidence":4},{"trial_n":122,"min":85,"max":170,"target":"present","response":"present","rt":1536.8999998569,"correct":true,"confidence":4},{"trial_n":123,"min":86,"max":169,"target":"present","response":"present","rt":1496.5,"correct":true,"confidence":4},{"trial_n":124,"min":86,"max":169,"target":"absent","response":"absent","rt":1549,"correct":true,"confidence":2},{"trial_n":125,"min":87,"max":168,"target":"present","response":"present","rt":1605.6000001431,"correct":true,"confidence":3},{"trial_n":126,"min":87,"max":168,"target":"absent","response":"absent","rt":1282.8999998569,"correct":true,"confidence":3},{"trial_n":127,"min":88,"max":167,"target":"absent","response":"absent","rt":2015.2999999523,"correct":true,"confidence":3},{"trial_n":128,"min":88,"max":167,"target":"absent","response":"present","rt":1349.0999999046,"correct":false,"confidence":2},{"trial_n":129,"min":87,"max":168,"target":"present","response":"absent","rt":1766.1000001431,"correct":false,"confidence":2},{"trial_n":130,"min":86,"max":169,"target":"present","response":"absent","rt":2014,"correct":false,"confidence":1},{"trial_n":131,"min":85,"max":170,"target":"absent","response":"absent","rt":1482.0999999046,"correct":true,"confidence":3},{"trial_n":132,"min":85,"max":170,"target":"absent","response":"absent","rt":1866.7999999523,"correct":true,"confidence":2},{"trial_n":133,"min":86,"max":169,"target":"absent","response":"absent","rt":2410.7000000477,"correct":true,"confidence":1},{"trial_n":134,"min":86,"max":169,"target":"present","response":"present","rt":1150.8000001907,"correct":true,"confidence":3},{"trial_n":135,"min":87,"max":168,"target":"present","response":"present","rt":1331.5,"correct":true,"confidence":4},{"trial_n":136,"min":87,"max":168,"target":"present","response":"absent","rt":2636.5999999046,"correct":false,"confidence":1},{"trial_n":137,"min":86,"max":169,"target":"absent","response":"present","rt":1521.1000001431,"correct":false,"confidence":2},{"trial_n":138,"min":85,"max":170,"target":"present","response":"present","rt":1430.6999998093,"correct":true,"confidence":5},{"trial_n":139,"min":85,"max":170,"target":"absent","response":"absent","rt":2126.1000001431,"correct":true,"confidence":4},{"trial_n":140,"min":86,"max":169,"target":"absent","response":"present","rt":2464.3999998569,"correct":false,"confidence":2}]