[{"trial_n":1,"span":8,"encoder":"97616622","distractor":"67616622","target":"present","response":"present","rt":"3266.5","correct":true,"confidence":-1},{"trial_n":2,"span":8,"encoder":"53479913","distractor":"53449913","target":"present","response":"present","rt":"2131.8999998569","correct":true,"confidence":-1},{"trial_n":3,"span":10,"encoder":"7002774186","distractor":"7702774186","target":"absent","response":"present","rt":"1618.2000000477","correct":false,"confidence":-1},{"trial_n":4,"span":8,"encoder":"78136821","distractor":"78136841","target":"absent","response":"present","rt":"2001.2999999523","correct":false,"confidence":-1},{"trial_n":5,"span":6,"encoder":"043778","distractor":"043278","target":"present","response":"present","rt":"1532.8999998569","correct":true,"confidence":-1},{"trial_n":6,"span":6,"encoder":"013073","distractor":"713073","target":"absent","response":"absent","rt":"4203.0999999046","correct":true,"confidence":-1},{"trial_n":7,"span":8,"encoder":"36085680","distractor":"36095680","target":"absent","response":"absent","rt":"2316.2999999523","correct":true,"confidence":-1},{"trial_n":8,"span":8,"encoder":"05820933","distractor":"05826933","target":"present","response":"present","rt":"2148.4000000954","correct":true,"confidence":-1},{"trial_n":9,"span":10,"encoder":"1401587302","distractor":"1401587402","target":"absent","response":"present","rt":"2148.7000000477","correct":false,"confidence":-1},{"trial_n":10,"span":8,"encoder":"32490335","distractor":"32490355","target":"absent","response":"absent","rt":"2980.7000000477","correct":true,"confidence":-1},{"trial_n":11,"span":8,"encoder":"42651767","distractor":"02651767","target":"present","response":"absent","rt":"2333.7000000477","correct":false,"confidence":-1},{"trial_n":12,"span":7,"encoder":"7275306","distractor":"7975306","target":"present","response":"present","rt":"1717","correct":true,"confidence":-1},{"trial_n":13,"span":7,"encoder":"8480532","distractor":"8490532","target":"present","response":"present","rt":"1316.4000000954","correct":true,"confidence":-1},{"trial_n":14,"span":8,"encoder":"15363802","distractor":"15363102","target":"absent","response":"absent","rt":"3380.9000000954","correct":true,"confidence":-1},{"trial_n":15,"span":8,"encoder":"67360112","distractor":"67340112","target":"present","response":"present","rt":"1948.2000000477","correct":true,"confidence":-1},{"trial_n":16,"span":9,"encoder":"508167788","distractor":"508267788","target":"present","response":"present","rt":"1750.8999998569","correct":true,"confidence":-1},{"trial_n":17,"span":9,"encoder":"084127889","distractor":"084127809","target":"absent","response":"absent","rt":"2315.8000001907","correct":true,"confidence":-1},{"trial_n":18,"span":10,"encoder":"7940260570","distractor":"7910260570","target":"absent","response":"present","rt":"3283","correct":false,"confidence":-1},{"trial_n":19,"span":9,"encoder":"114615271","distractor":"114619271","target":"present","response":"present","rt":"1683.2000000477","correct":true,"confidence":-1},{"trial_n":20,"span":9,"encoder":"662221639","distractor":"663221639","target":"present","response":"present","rt":"2432","correct":true,"confidence":-1},{"trial_n":21,"span":10,"encoder":"7092480888","distractor":"7094480888","target":"present","response":"present","rt":"1497","correct":true,"confidence":4},{"trial_n":22,"span":10,"encoder":"2623631149","distractor":"8623631149","target":"absent","response":"absent","rt":"2468.1000001431","correct":true,"confidence":3},{"trial_n":23,"span":11,"encoder":"88677182460","distractor":"88670182460","target":"present","response":"present","rt":"2782.7999999523","correct":true,"confidence":3},{"trial_n":24,"span":11,"encoder":"36785121157","distractor":"36785321157","target":"present","response":"present","rt":"2582.2000000477","correct":true,"confidence":2},{"trial_n":25,"span":12,"encoder":"022026279523","distractor":"022026270523","target":"present","response":"present","rt":"4330.6000001431","correct":true,"confidence":4},{"trial_n":26,"span":12,"encoder":"138960964539","distractor":"138960964538","target":"present","response":"present","rt":"2185.6000001431","correct":true,"confidence":2},{"trial_n":27,"span":13,"encoder":"2578745096379","distractor":"2578245096379","target":"absent","response":"present","rt":"4632.7999999523","correct":false,"confidence":2},{"trial_n":28,"span":12,"encoder":"523504544373","distractor":"523564544373","target":"absent","response":"absent","rt":"3548","correct":true,"confidence":4},{"trial_n":29,"span":12,"encoder":"883655544792","distractor":"883625544792","target":"absent","response":"present","rt":"2964.7999999523","correct":false,"confidence":4},{"trial_n":30,"span":11,"encoder":"57686311410","distractor":"57486311410","target":"present","response":"present","rt":"4097.7999999523","correct":true,"confidence":3},{"trial_n":31,"span":11,"encoder":"44766896306","distractor":"44166896306","target":"absent","response":"present","rt":"2955.1000001431","correct":false,"confidence":4},{"trial_n":32,"span":10,"encoder":"0924812707","distractor":"0926812707","target":"absent","response":"absent","rt":"4448.8999998569","correct":true,"confidence":4},{"trial_n":33,"span":10,"encoder":"5203764004","distractor":"5203764604","target":"present","response":"present","rt":"2201.5","correct":true,"confidence":4},{"trial_n":34,"span":11,"encoder":"91823921627","distractor":"01823921627","target":"absent","response":"present","rt":"2249.7000000477","correct":false,"confidence":3},{"trial_n":35,"span":10,"encoder":"4618205751","distractor":"4648205751","target":"present","response":"absent","rt":"2549","correct":false,"confidence":2},{"trial_n":36,"span":9,"encoder":"891287543","distractor":"891287553","target":"absent","response":"absent","rt":"2417.3000001907","correct":true,"confidence":4},{"trial_n":37,"span":9,"encoder":"163824808","distractor":"163824805","target":"absent","response":"absent","rt":"3034.8000001907","correct":true,"confidence":4},{"trial_n":38,"span":10,"encoder":"8428710052","distractor":"8028710052","target":"present","response":"present","rt":"2244.8999998569","correct":true,"confidence":5},{"trial_n":39,"span":10,"encoder":"1530547671","distractor":"1530547471","target":"absent","response":"absent","rt":"3298.4000000954","correct":true,"confidence":5},{"trial_n":40,"span":11,"encoder":"39635080911","distractor":"39635085911","target":"present","response":"absent","rt":"5006.0999999046","correct":false,"confidence":3},{"trial_n":41,"span":10,"encoder":"9111985972","distractor":"9118985972","target":"absent","response":"absent","rt":"3599.2999999523","correct":true,"confidence":4},{"trial_n":42,"span":10,"encoder":"7052094255","distractor":"7052099255","target":"present","response":"present","rt":"4047.5","correct":true,"confidence":4},{"trial_n":43,"span":11,"encoder":"16498681581","distractor":"96498681581","target":"present","response":"absent","rt":"2743.5","correct":false,"confidence":2},{"trial_n":44,"span":10,"encoder":"3902076717","distractor":"3902076718","target":"present","response":"absent","rt":"2831.3999998569","correct":false,"confidence":3},{"trial_n":45,"span":9,"encoder":"701728660","distractor":"707728660","target":"absent","response":"absent","rt":"2683.7000000477","correct":true,"confidence":5},{"trial_n":46,"span":9,"encoder":"211232640","distractor":"211232680","target":"absent","response":"absent","rt":"2630.5","correct":true,"confidence":5},{"trial_n":47,"span":10,"encoder":"1280566549","distractor":"1289566549","target":"absent","response":"present","rt":"3267.7000000477","correct":false,"confidence":5},{"trial_n":48,"span":9,"encoder":"371159557","distractor":"371159556","target":"present","response":"present","rt":"4136.9000000954","correct":true,"confidence":4},{"trial_n":49,"span":9,"encoder":"164693271","distractor":"164673271","target":"present","response":"absent","rt":"2498.2999999523","correct":false,"confidence":5},{"trial_n":50,"span":8,"encoder":"75534826","distractor":"75537826","target":"present","response":"absent","rt":"2867","correct":false,"confidence":4},{"trial_n":51,"span":7,"encoder":"3346035","distractor":"3316035","target":"present","response":"present","rt":"4114","correct":true,"confidence":4},{"trial_n":52,"span":7,"encoder":"2594476","distractor":"2594472","target":"absent","response":"present","rt":"3659.8000001907","correct":false,"confidence":3},{"trial_n":53,"span":6,"encoder":"832823","distractor":"932823","target":"present","response":"present","rt":"2798.5","correct":true,"confidence":5},{"trial_n":54,"span":6,"encoder":"922845","distractor":"922865","target":"present","response":"present","rt":"1866.8000001907","correct":true,"confidence":5},{"trial_n":55,"span":7,"encoder":"2102401","distractor":"6102401","target":"present","response":"present","rt":"3516.4000000954","correct":true,"confidence":5},{"trial_n":56,"span":7,"encoder":"9160318","distractor":"9180318","target":"absent","response":"absent","rt":"2323.8000001907","correct":true,"confidence":5},{"trial_n":57,"span":8,"encoder":"16829507","distractor":"16826507","target":"absent","response":"absent","rt":"3473.7999999523","correct":true,"confidence":5},{"trial_n":58,"span":8,"encoder":"91942500","distractor":"92942500","target":"absent","response":"absent","rt":"1875.1000001431","correct":true,"confidence":5},{"trial_n":59,"span":9,"encoder":"897405643","distractor":"897407643","target":"absent","response":"absent","rt":"3737.4000000954","correct":true,"confidence":5},{"trial_n":60,"span":9,"encoder":"437203218","distractor":"437003218","target":"present","response":"present","rt":"2399.5999999046","correct":true,"confidence":4},{"trial_n":61,"span":10,"encoder":"1544708831","distractor":"1544700831","target":"present","response":"present","rt":"2780.6000001431","correct":true,"confidence":2},{"trial_n":62,"span":10,"encoder":"1135073041","distractor":"1135273041","target":"present","response":"present","rt":"2751.7999999523","correct":true,"confidence":3},{"trial_n":63,"span":11,"encoder":"64173282581","distractor":"64173292581","target":"absent","response":"present","rt":"2038.2999999523","correct":false,"confidence":2},{"trial_n":64,"span":10,"encoder":"6780026621","distractor":"6780026721","target":"present","response":"present","rt":"1965.5","correct":true,"confidence":4},{"trial_n":65,"span":10,"encoder":"3028846500","distractor":"3028946500","target":"absent","response":"absent","rt":"2301.6999998093","correct":true,"confidence":5},{"trial_n":66,"span":11,"encoder":"71081065839","distractor":"73081065839","target":"present","response":"present","rt":"2984.3999998569","correct":true,"confidence":5},{"trial_n":67,"span":11,"encoder":"25064473621","distractor":"25064473622","target":"absent","response":"absent","rt":"4075.6000001431","correct":true,"confidence":4},{"trial_n":68,"span":12,"encoder":"902609471755","distractor":"902609411755","target":"absent","response":"absent","rt":"3109.1999998093","correct":true,"confidence":2},{"trial_n":69,"span":12,"encoder":"226793206695","distractor":"426793206695","target":"absent","response":"present","rt":"3569.7000000477","correct":false,"confidence":3},{"trial_n":70,"span":11,"encoder":"84296296226","distractor":"84246296226","target":"absent","response":"present","rt":"2705.0999999046","correct":false,"confidence":3},{"trial_n":71,"span":8,"encoder":"32719322","distractor":"32719332","target":"present","response":"present","rt":"3383.5999999046","correct":true,"confidence":-1},{"trial_n":72,"span":8,"encoder":"35679999","distractor":"35679979","target":"present","response":"present","rt":"1633.7999999523","correct":true,"confidence":-1},{"trial_n":73,"span":9,"encoder":"713874737","distractor":"713874734","target":"absent","response":"absent","rt":"2465.5999999046","correct":true,"confidence":-1},{"trial_n":74,"span":9,"encoder":"081387543","distractor":"081337543","target":"absent","response":"absent","rt":"3466.7999999523","correct":true,"confidence":-1},{"trial_n":75,"span":10,"encoder":"1232668982","distractor":"1232668682","target":"present","response":"present","rt":"5382.9000000954","correct":true,"confidence":-1},{"trial_n":76,"span":10,"encoder":"0655646667","distractor":"1655646667","target":"present","response":"absent","rt":"3816.4000000954","correct":false,"confidence":-1},{"trial_n":77,"span":9,"encoder":"808004599","distractor":"808304599","target":"absent","response":"absent","rt":"1699.2000000477","correct":true,"confidence":-1},{"trial_n":78,"span":9,"encoder":"193075352","distractor":"193075354","target":"present","response":"present","rt":"2847.8999998569","correct":true,"confidence":-1},{"trial_n":79,"span":10,"encoder":"5851833274","distractor":"5851832274","target":"present","response":"present","rt":"2498.5","correct":true,"confidence":-1},{"trial_n":80,"span":10,"encoder":"0793181551","distractor":"0773181551","target":"absent","response":"present","rt":"3468","correct":false,"confidence":-1},{"trial_n":81,"span":9,"encoder":"823850440","distractor":"823850449","target":"absent","response":"absent","rt":"4499.2999999523","correct":true,"confidence":-1},{"trial_n":82,"span":9,"encoder":"013186055","distractor":"013176055","target":"absent","response":"absent","rt":"4483.4000000954","correct":true,"confidence":-1},{"trial_n":83,"span":10,"encoder":"9484827105","distractor":"9484827100","target":"present","response":"present","rt":"2982.5","correct":true,"confidence":-1},{"trial_n":84,"span":10,"encoder":"3204149097","distractor":"3203149097","target":"absent","response":"present","rt":"5650.1000001431","correct":false,"confidence":-1},{"trial_n":85,"span":9,"encoder":"199347288","distractor":"179347288","target":"present","response":"present","rt":"4700.7000000477","correct":true,"confidence":-1},{"trial_n":86,"span":9,"encoder":"095890745","distractor":"075890745","target":"present","response":"present","rt":"5550.2999999523","correct":true,"confidence":-1},{"trial_n":87,"span":10,"encoder":"8186311258","distractor":"8186311278","target":"absent","response":"absent","rt":"3768.2999999523","correct":true,"confidence":-1},{"trial_n":88,"span":10,"encoder":"8564757605","distractor":"8574757605","target":"present","response":"present","rt":"3749.2000000477","correct":true,"confidence":-1},{"trial_n":89,"span":11,"encoder":"04500648751","distractor":"04500642751","target":"present","response":"present","rt":"6933.5999999046","correct":true,"confidence":-1},{"trial_n":90,"span":11,"encoder":"99151197518","distractor":"99151197538","target":"present","response":"present","rt":"6900.2000000477","correct":true,"confidence":-1},{"trial_n":91,"span":12,"encoder":"184862469173","distractor":"884862469173","target":"present","response":"present","rt":"5001.5999999046","correct":true,"confidence":2},{"trial_n":92,"span":12,"encoder":"608075817550","distractor":"608075817551","target":"absent","response":"absent","rt":"3217","correct":true,"confidence":5},{"trial_n":93,"span":13,"encoder":"7918252103282","distractor":"7918252103482","target":"absent","response":"absent","rt":"3105.7999999523","correct":true,"confidence":5},{"trial_n":94,"span":13,"encoder":"1883375201262","distractor":"1883375251262","target":"absent","response":"absent","rt":"7350.6999998093","correct":true,"confidence":4},{"trial_n":95,"span":14,"encoder":"75693771105463","distractor":"75693771109463","target":"absent","response":"absent","rt":"3281.5","correct":true,"confidence":5},{"trial_n":96,"span":14,"encoder":"14237557951445","distractor":"17237557951445","target":"absent","response":"present","rt":"10814.700000048","correct":false,"confidence":3},{"trial_n":97,"span":13,"encoder":"3471936560965","distractor":"3471937560965","target":"present","response":"present","rt":"5419.7999999523","correct":true,"confidence":5},{"trial_n":98,"span":13,"encoder":"2435861247049","distractor":"2435891247049","target":"present","response":"absent","rt":"6233.7999999523","correct":false,"confidence":1},{"trial_n":99,"span":12,"encoder":"357710391630","distractor":"350710391630","target":"present","response":"present","rt":"7617.7000000477","correct":true,"confidence":3},{"trial_n":100,"span":12,"encoder":"590038205488","distractor":"580038205488","target":"present","response":"present","rt":"6013","correct":true,"confidence":2},{"trial_n":101,"span":13,"encoder":"2965800047607","distractor":"2965800047807","target":"present","response":"present","rt":"3182.2999999523","correct":true,"confidence":5},{"trial_n":102,"span":13,"encoder":"6045179865483","distractor":"6145179865483","target":"absent","response":"absent","rt":"8232.7000000477","correct":true,"confidence":1},{"trial_n":103,"span":14,"encoder":"64664945736744","distractor":"64664915736744","target":"absent","response":"present","rt":"6217.2999999523","correct":false,"confidence":2},{"trial_n":104,"span":13,"encoder":"5108921504506","distractor":"5108921004506","target":"present","response":"present","rt":"3185.4000000954","correct":true,"confidence":4},{"trial_n":105,"span":13,"encoder":"4002885080287","distractor":"4002888080287","target":"absent","response":"absent","rt":"4364.5","correct":true,"confidence":4},{"trial_n":106,"span":14,"encoder":"54100568511586","distractor":"54100563511586","target":"absent","response":"absent","rt":"6332.8999998569","correct":true,"confidence":3},{"trial_n":107,"span":14,"encoder":"46457878829939","distractor":"48457878829939","target":"absent","response":"present","rt":"4533.3999998569","correct":false,"confidence":3},{"trial_n":108,"span":13,"encoder":"0766481842557","distractor":"0766481842757","target":"present","response":"present","rt":"3105.2000000477","correct":true,"confidence":5},{"trial_n":109,"span":13,"encoder":"6046799691394","distractor":"6046799691392","target":"absent","response":"absent","rt":"6224.2999999523","correct":true,"confidence":4},{"trial_n":110,"span":14,"encoder":"86423882399458","distractor":"86423882299458","target":"absent","response":"absent","rt":"9274.0999999046","correct":true,"confidence":3},{"trial_n":111,"span":14,"encoder":"85605908597027","distractor":"85615908597027","target":"absent","response":"absent","rt":"4666.2999999523","correct":true,"confidence":4},{"trial_n":112,"span":15,"encoder":"555971243229928","distractor":"552971243229928","target":"present","response":"absent","rt":"3982.2999999523","correct":false,"confidence":4},{"trial_n":113,"span":14,"encoder":"84214737577966","distractor":"04214737577966","target":"present","response":"present","rt":"5216.8999998569","correct":true,"confidence":2},{"trial_n":114,"span":14,"encoder":"27534940083174","distractor":"27534940083178","target":"absent","response":"absent","rt":"2565.0999999046","correct":true,"confidence":5},{"trial_n":115,"span":15,"encoder":"196524159532280","distractor":"196523159532280","target":"absent","response":"present","rt":"8057.8999998569","correct":false,"confidence":2},{"trial_n":116,"span":14,"encoder":"88844807659924","distractor":"88844807659024","target":"absent","response":"present","rt":"6202.9000000954","correct":false,"confidence":1},{"trial_n":117,"span":13,"encoder":"7834887394389","distractor":"7834887094389","target":"present","response":"present","rt":"3500.7000000477","correct":true,"confidence":3},{"trial_n":118,"span":13,"encoder":"2084873999717","distractor":"2084873995717","target":"absent","response":"absent","rt":"2265.2000000477","correct":true,"confidence":4},{"trial_n":119,"span":14,"encoder":"58934644772702","distractor":"58934614772702","target":"present","response":"present","rt":"2709.2999999523","correct":true,"confidence":5},{"trial_n":120,"span":14,"encoder":"31757516879122","distractor":"31657516879122","target":"present","response":"absent","rt":"6533.5999999046","correct":false,"confidence":1},{"trial_n":121,"span":13,"encoder":"6622558391980","distractor":"6642558391980","target":"present","response":"present","rt":"3050.1000001431","correct":true,"confidence":5},{"trial_n":122,"span":13,"encoder":"4053206510769","distractor":"4653206510769","target":"present","response":"absent","rt":"4231.7000000477","correct":false,"confidence":2},{"trial_n":123,"span":12,"encoder":"599267147286","distractor":"549267147286","target":"absent","response":"present","rt":"5499.9000000954","correct":false,"confidence":4},{"trial_n":124,"span":11,"encoder":"64779698277","distractor":"61779698277","target":"absent","response":"absent","rt":"8832.7000000477","correct":true,"confidence":2},{"trial_n":125,"span":11,"encoder":"69039078834","distractor":"69039078934","target":"present","response":"present","rt":"2347.2999999523","correct":true,"confidence":5},{"trial_n":126,"span":12,"encoder":"611497131535","distractor":"611407131535","target":"absent","response":"absent","rt":"5599.7000000477","correct":true,"confidence":2},{"trial_n":127,"span":12,"encoder":"979072946800","distractor":"979072942800","target":"present","response":"present","rt":"3407.5","correct":true,"confidence":5},{"trial_n":128,"span":13,"encoder":"0343684506097","distractor":"0343684406097","target":"present","response":"present","rt":"4464.7000000477","correct":true,"confidence":4},{"trial_n":129,"span":13,"encoder":"5904675545590","distractor":"5904675541590","target":"absent","response":"absent","rt":"3335","correct":true,"confidence":5},{"trial_n":130,"span":14,"encoder":"69609709030706","distractor":"69609709038706","target":"present","response":"present","rt":"7633.2000000477","correct":true,"confidence":2},{"trial_n":131,"span":14,"encoder":"86492904531267","distractor":"86495904531267","target":"present","response":"absent","rt":"10234.5","correct":false,"confidence":1},{"trial_n":132,"span":13,"encoder":"4482053630849","distractor":"4482053630149","target":"present","response":"present","rt":"4331.5","correct":true,"confidence":5},{"trial_n":133,"span":13,"encoder":"5952695015146","distractor":"5952695075146","target":"absent","response":"absent","rt":"3165.5999999046","correct":true,"confidence":4},{"trial_n":134,"span":14,"encoder":"84560680702203","distractor":"84560680702303","target":"absent","response":"present","rt":"2932.4000000954","correct":false,"confidence":1},{"trial_n":135,"span":13,"encoder":"4867034110673","distractor":"4867034010673","target":"absent","response":"absent","rt":"2850.0999999046","correct":true,"confidence":5},{"trial_n":136,"span":13,"encoder":"3636063365299","distractor":"3636061365299","target":"absent","response":"absent","rt":"2226.7000000477","correct":true,"confidence":5},{"trial_n":137,"span":14,"encoder":"56330283290803","distractor":"56430283290803","target":"absent","response":"absent","rt":"2407.4000000954","correct":true,"confidence":5},{"trial_n":138,"span":14,"encoder":"90604490122824","distractor":"10604490122824","target":"present","response":"present","rt":"5557.5","correct":true,"confidence":2},{"trial_n":139,"span":15,"encoder":"918387641346677","distractor":"918387941346677","target":"present","response":"absent","rt":"4676.5","correct":false,"confidence":1},{"trial_n":140,"span":14,"encoder":"04849067875464","distractor":"64849067875464","target":"present","response":"absent","rt":"9748.5999999046","correct":false,"confidence":1}]