[{"trial_n":1,"min":25,"max":230,"target":"present","response":"present","rt":7101.2999999989,"correct":true,"confidence":-1},{"trial_n":2,"min":25,"max":230,"target":"present","response":"present","rt":1982.5,"correct":true,"confidence":-1},{"trial_n":3,"min":41,"max":214,"target":"absent","response":"absent","rt":1508.2999999989,"correct":true,"confidence":-1},{"trial_n":4,"min":41,"max":214,"target":"absent","response":"absent","rt":1842.1999999993,"correct":true,"confidence":-1},{"trial_n":5,"min":57,"max":198,"target":"present","response":"present","rt":1426.1999999993,"correct":true,"confidence":-1},{"trial_n":6,"min":57,"max":198,"target":"present","response":"present","rt":1819.2000000011,"correct":true,"confidence":-1},{"trial_n":7,"min":73,"max":182,"target":"present","response":"present","rt":1640.6999999993,"correct":true,"confidence":-1},{"trial_n":8,"min":73,"max":182,"target":"present","response":"present","rt":1527.1999999993,"correct":true,"confidence":-1},{"trial_n":9,"min":89,"max":166,"target":"present","response":"present","rt":1278.2000000011,"correct":true,"confidence":-1},{"trial_n":10,"min":89,"max":166,"target":"present","response":"present","rt":2696.2999999989,"correct":true,"confidence":-1},{"trial_n":11,"min":97,"max":158,"target":"present","response":"present","rt":2130.0999999996,"correct":true,"confidence":-1},{"trial_n":12,"min":97,"max":158,"target":"present","response":"absent","rt":1477.5999999996,"correct":false,"confidence":-1},{"trial_n":13,"min":89,"max":166,"target":"present","response":"present","rt":1406.5999999996,"correct":true,"confidence":-1},{"trial_n":14,"min":89,"max":166,"target":"absent","response":"present","rt":1647.8000000007,"correct":false,"confidence":-1},{"trial_n":15,"min":81,"max":174,"target":"present","response":"present","rt":1209.5999999996,"correct":true,"confidence":-1},{"trial_n":16,"min":81,"max":174,"target":"absent","response":"present","rt":2306.2000000011,"correct":false,"confidence":-1},{"trial_n":17,"min":73,"max":182,"target":"present","response":"present","rt":1323.7000000011,"correct":true,"confidence":-1},{"trial_n":18,"min":73,"max":182,"target":"present","response":"present","rt":1015.1999999993,"correct":true,"confidence":-1},{"trial_n":19,"min":81,"max":174,"target":"absent","response":"absent","rt":1629.9000000004,"correct":true,"confidence":-1},{"trial_n":20,"min":81,"max":174,"target":"absent","response":"present","rt":1279,"correct":false,"confidence":-1},{"trial_n":21,"min":77,"max":178,"target":"present","response":"present","rt":5098.5999999996,"correct":true,"confidence":5},{"trial_n":22,"min":77,"max":178,"target":"absent","response":"present","rt":1885.9000000004,"correct":false,"confidence":3},{"trial_n":23,"min":73,"max":182,"target":"absent","response":"absent","rt":1505.2999999989,"correct":true,"confidence":3},{"trial_n":24,"min":73,"max":182,"target":"absent","response":"present","rt":1869.6999999993,"correct":false,"confidence":3},{"trial_n":25,"min":69,"max":186,"target":"absent","response":"present","rt":1543.9000000004,"correct":false,"confidence":3},{"trial_n":26,"min":65,"max":190,"target":"absent","response":"absent","rt":1784.2000000011,"correct":true,"confidence":4},{"trial_n":27,"min":65,"max":190,"target":"present","response":"present","rt":934.40000000037,"correct":true,"confidence":5},{"trial_n":28,"min":69,"max":186,"target":"present","response":"present","rt":1122.6999999993,"correct":true,"confidence":4},{"trial_n":29,"min":69,"max":186,"target":"absent","response":"present","rt":1212.4000000004,"correct":false,"confidence":4},{"trial_n":30,"min":65,"max":190,"target":"absent","response":"absent","rt":3112.6999999993,"correct":true,"confidence":2},{"trial_n":31,"min":65,"max":190,"target":"absent","response":"present","rt":2831.1000000015,"correct":false,"confidence":5},{"trial_n":32,"min":63,"max":192,"target":"absent","response":"present","rt":1725.8999999985,"correct":false,"confidence":4},{"trial_n":33,"min":61,"max":194,"target":"absent","response":"absent","rt":948.69999999925,"correct":true,"confidence":4},{"trial_n":34,"min":61,"max":194,"target":"present","response":"present","rt":938.30000000075,"correct":true,"confidence":5},{"trial_n":35,"min":63,"max":192,"target":"present","response":"present","rt":2098.3999999985,"correct":true,"confidence":5},{"trial_n":36,"min":63,"max":192,"target":"present","response":"present","rt":1110.3000000007,"correct":true,"confidence":4},{"trial_n":37,"min":65,"max":190,"target":"present","response":"present","rt":2469.3999999985,"correct":true,"confidence":5},{"trial_n":38,"min":65,"max":190,"target":"absent","response":"absent","rt":1305.6999999993,"correct":true,"confidence":3},{"trial_n":39,"min":67,"max":188,"target":"absent","response":"absent","rt":1598.5999999996,"correct":true,"confidence":3},{"trial_n":40,"min":67,"max":188,"target":"absent","response":"absent","rt":1659,"correct":true,"confidence":4},{"trial_n":41,"min":68,"max":187,"target":"absent","response":"absent","rt":1953.4000000004,"correct":true,"confidence":2},{"trial_n":42,"min":68,"max":187,"target":"present","response":"present","rt":859.59999999963,"correct":true,"confidence":5},{"trial_n":43,"min":69,"max":186,"target":"present","response":"present","rt":983.5,"correct":true,"confidence":5},{"trial_n":44,"min":69,"max":186,"target":"present","response":"present","rt":1230.8000000007,"correct":true,"confidence":3},{"trial_n":45,"min":70,"max":185,"target":"absent","response":"absent","rt":1571.5999999996,"correct":true,"confidence":4},{"trial_n":46,"min":70,"max":185,"target":"absent","response":"absent","rt":1325.1999999993,"correct":true,"confidence":4},{"trial_n":47,"min":71,"max":184,"target":"present","response":"present","rt":994.10000000149,"correct":true,"confidence":4},{"trial_n":48,"min":71,"max":184,"target":"absent","response":"absent","rt":1491.7999999989,"correct":true,"confidence":5},{"trial_n":49,"min":72,"max":183,"target":"absent","response":"absent","rt":1260.3000000007,"correct":true,"confidence":4},{"trial_n":50,"min":72,"max":183,"target":"present","response":"present","rt":1500,"correct":true,"confidence":5},{"trial_n":51,"min":73,"max":182,"target":"absent","response":"present","rt":2500.7000000011,"correct":false,"confidence":3},{"trial_n":52,"min":72,"max":183,"target":"absent","response":"absent","rt":1164,"correct":true,"confidence":4},{"trial_n":53,"min":72,"max":183,"target":"present","response":"present","rt":888.79999999888,"correct":true,"confidence":5},{"trial_n":54,"min":73,"max":182,"target":"present","response":"present","rt":824.29999999888,"correct":true,"confidence":5},{"trial_n":55,"min":73,"max":182,"target":"present","response":"present","rt":1284.7000000011,"correct":true,"confidence":3},{"trial_n":56,"min":74,"max":181,"target":"absent","response":"absent","rt":942.80000000075,"correct":true,"confidence":5},{"trial_n":57,"min":74,"max":181,"target":"absent","response":"absent","rt":1395.1999999993,"correct":true,"confidence":4},{"trial_n":58,"min":75,"max":180,"target":"absent","response":"absent","rt":1256.2999999989,"correct":true,"confidence":3},{"trial_n":59,"min":75,"max":180,"target":"present","response":"present","rt":1151.5999999996,"correct":true,"confidence":4},{"trial_n":60,"min":76,"max":179,"target":"absent","response":"absent","rt":1125.6999999993,"correct":true,"confidence":4},{"trial_n":61,"min":76,"max":179,"target":"present","response":"present","rt":1702.3999999985,"correct":true,"confidence":5},{"trial_n":62,"min":77,"max":178,"target":"absent","response":"present","rt":3896.5999999996,"correct":false,"confidence":4},{"trial_n":63,"min":76,"max":179,"target":"absent","response":"absent","rt":1076.3000000007,"correct":true,"confidence":5},{"trial_n":64,"min":76,"max":179,"target":"absent","response":"present","rt":1600.6999999993,"correct":false,"confidence":2},{"trial_n":65,"min":75,"max":180,"target":"present","response":"present","rt":1088.7999999989,"correct":true,"confidence":3},{"trial_n":66,"min":75,"max":180,"target":"present","response":"present","rt":1070.6999999993,"correct":true,"confidence":3},{"trial_n":67,"min":76,"max":179,"target":"present","response":"present","rt":872.5,"correct":true,"confidence":4},{"trial_n":68,"min":76,"max":179,"target":"present","response":"present","rt":1851.2000000011,"correct":true,"confidence":3},{"trial_n":69,"min":77,"max":178,"target":"present","response":"present","rt":791,"correct":true,"confidence":4},{"trial_n":70,"min":77,"max":178,"target":"absent","response":"absent","rt":953,"correct":true,"confidence":4},{"trial_n":71,"min":41,"max":214,"target":"present","response":"present","rt":3218.1999999993,"correct":true,"confidence":-1},{"trial_n":72,"min":41,"max":214,"target":"present","response":"present","rt":2688.2000000011,"correct":true,"confidence":-1},{"trial_n":73,"min":57,"max":198,"target":"absent","response":"absent","rt":1001.0999999996,"correct":true,"confidence":-1},{"trial_n":74,"min":57,"max":198,"target":"absent","response":"absent","rt":408.40000000037,"correct":true,"confidence":-1},{"trial_n":75,"min":73,"max":182,"target":"present","response":"present","rt":989.69999999925,"correct":true,"confidence":-1},{"trial_n":76,"min":73,"max":182,"target":"present","response":"present","rt":598.29999999888,"correct":true,"confidence":-1},{"trial_n":77,"min":89,"max":166,"target":"absent","response":"present","rt":1341,"correct":false,"confidence":-1},{"trial_n":78,"min":73,"max":182,"target":"present","response":"present","rt":545.19999999925,"correct":true,"confidence":-1},{"trial_n":79,"min":73,"max":182,"target":"absent","response":"absent","rt":1134.5999999996,"correct":true,"confidence":-1},{"trial_n":80,"min":89,"max":166,"target":"absent","response":"absent","rt":1586.7000000011,"correct":true,"confidence":-1},{"trial_n":81,"min":89,"max":166,"target":"absent","response":"absent","rt":1153.9000000004,"correct":true,"confidence":-1},{"trial_n":82,"min":97,"max":158,"target":"present","response":"present","rt":1216.5,"correct":true,"confidence":-1},{"trial_n":83,"min":97,"max":158,"target":"present","response":"present","rt":845.40000000037,"correct":true,"confidence":-1},{"trial_n":84,"min":105,"max":150,"target":"present","response":"present","rt":1346.6999999993,"correct":true,"confidence":-1},{"trial_n":85,"min":105,"max":150,"target":"present","response":"absent","rt":1253.5,"correct":false,"confidence":-1},{"trial_n":86,"min":97,"max":158,"target":"absent","response":"present","rt":2187.2000000011,"correct":false,"confidence":-1},{"trial_n":87,"min":89,"max":166,"target":"present","response":"present","rt":1241.9000000004,"correct":true,"confidence":-1},{"trial_n":88,"min":89,"max":166,"target":"present","response":"present","rt":1197.6999999993,"correct":true,"confidence":-1},{"trial_n":89,"min":97,"max":158,"target":"absent","response":"present","rt":1172.8000000007,"correct":false,"confidence":-1},{"trial_n":90,"min":89,"max":166,"target":"present","response":"present","rt":453.20000000112,"correct":true,"confidence":-1},{"trial_n":91,"min":89,"max":166,"target":"absent","response":"present","rt":986.89999999851,"correct":false,"confidence":3},{"trial_n":92,"min":85,"max":170,"target":"absent","response":"absent","rt":1193.5,"correct":true,"confidence":4},{"trial_n":93,"min":85,"max":170,"target":"absent","response":"absent","rt":1655.5999999996,"correct":true,"confidence":3},{"trial_n":94,"min":89,"max":166,"target":"present","response":"present","rt":1381,"correct":true,"confidence":3},{"trial_n":95,"min":89,"max":166,"target":"present","response":"present","rt":2823.7000000011,"correct":true,"confidence":4},{"trial_n":96,"min":93,"max":162,"target":"absent","response":"absent","rt":3262.2000000011,"correct":true,"confidence":2},{"trial_n":97,"min":93,"max":162,"target":"absent","response":"present","rt":2324.1999999993,"correct":false,"confidence":2},{"trial_n":98,"min":89,"max":166,"target":"present","response":"present","rt":896.69999999925,"correct":true,"confidence":4},{"trial_n":99,"min":89,"max":166,"target":"present","response":"present","rt":1005.3999999985,"correct":true,"confidence":4},{"trial_n":100,"min":93,"max":162,"target":"absent","response":"present","rt":2380.2999999989,"correct":false,"confidence":3},{"trial_n":101,"min":91,"max":164,"target":"absent","response":"present","rt":1171.8999999985,"correct":false,"confidence":5},{"trial_n":102,"min":89,"max":166,"target":"present","response":"present","rt":1099.3999999985,"correct":true,"confidence":5},{"trial_n":103,"min":89,"max":166,"target":"absent","response":"present","rt":1682.4000000004,"correct":false,"confidence":3},{"trial_n":104,"min":87,"max":168,"target":"present","response":"present","rt":854.5,"correct":true,"confidence":4},{"trial_n":105,"min":87,"max":168,"target":"absent","response":"absent","rt":1428.1000000015,"correct":true,"confidence":2},{"trial_n":106,"min":89,"max":166,"target":"absent","response":"absent","rt":1416.0999999996,"correct":true,"confidence":3},{"trial_n":107,"min":89,"max":166,"target":"absent","response":"present","rt":2301,"correct":false,"confidence":3},{"trial_n":108,"min":87,"max":168,"target":"absent","response":"present","rt":2054.9000000004,"correct":false,"confidence":1},{"trial_n":109,"min":85,"max":170,"target":"present","response":"present","rt":730.59999999963,"correct":true,"confidence":5},{"trial_n":110,"min":85,"max":170,"target":"present","response":"present","rt":778.80000000075,"correct":true,"confidence":5},{"trial_n":111,"min":86,"max":169,"target":"absent","response":"present","rt":2693.1000000015,"correct":false,"confidence":4},{"trial_n":112,"min":85,"max":170,"target":"present","response":"present","rt":1146.7999999989,"correct":true,"confidence":4},{"trial_n":113,"min":85,"max":170,"target":"present","response":"present","rt":656.69999999925,"correct":true,"confidence":5},{"trial_n":114,"min":86,"max":169,"target":"absent","response":"absent","rt":1365.7999999989,"correct":true,"confidence":4},{"trial_n":115,"min":86,"max":169,"target":"absent","response":"absent","rt":1139.0999999996,"correct":true,"confidence":3},{"trial_n":116,"min":87,"max":168,"target":"absent","response":"present","rt":956.59999999963,"correct":false,"confidence":4},{"trial_n":117,"min":86,"max":169,"target":"absent","response":"present","rt":2060.7999999989,"correct":false,"confidence":1},{"trial_n":118,"min":85,"max":170,"target":"present","response":"present","rt":1518.2999999989,"correct":true,"confidence":3},{"trial_n":119,"min":85,"max":170,"target":"present","response":"present","rt":994.5,"correct":true,"confidence":4},{"trial_n":120,"min":86,"max":169,"target":"present","response":"present","rt":2981.3000000007,"correct":true,"confidence":3},{"trial_n":121,"min":86,"max":169,"target":"present","response":"present","rt":717.80000000075,"correct":true,"confidence":5},{"trial_n":122,"min":87,"max":168,"target":"present","response":"present","rt":1844.6000000015,"correct":true,"confidence":4},{"trial_n":123,"min":87,"max":168,"target":"present","response":"present","rt":1165.8999999985,"correct":true,"confidence":5},{"trial_n":124,"min":88,"max":167,"target":"present","response":"present","rt":993.79999999888,"correct":true,"confidence":4},{"trial_n":125,"min":88,"max":167,"target":"present","response":"present","rt":1224.6999999993,"correct":true,"confidence":4},{"trial_n":126,"min":89,"max":166,"target":"absent","response":"absent","rt":1901.5,"correct":true,"confidence":3},{"trial_n":127,"min":89,"max":166,"target":"present","response":"present","rt":1563.4000000004,"correct":true,"confidence":3},{"trial_n":128,"min":90,"max":165,"target":"absent","response":"absent","rt":1280.1999999993,"correct":true,"confidence":2},{"trial_n":129,"min":90,"max":165,"target":"present","response":"present","rt":1445.5999999996,"correct":true,"confidence":5},{"trial_n":130,"min":91,"max":164,"target":"present","response":"present","rt":1199.1999999993,"correct":true,"confidence":4},{"trial_n":131,"min":91,"max":164,"target":"present","response":"present","rt":2096.2999999989,"correct":true,"confidence":3},{"trial_n":132,"min":92,"max":163,"target":"absent","response":"present","rt":2769.1999999993,"correct":false,"confidence":3},{"trial_n":133,"min":91,"max":164,"target":"absent","response":"absent","rt":1341.3999999985,"correct":true,"confidence":3},{"trial_n":134,"min":91,"max":164,"target":"present","response":"present","rt":1417.7999999989,"correct":true,"confidence":3},{"trial_n":135,"min":92,"max":163,"target":"absent","response":"absent","rt":1180,"correct":true,"confidence":4},{"trial_n":136,"min":92,"max":163,"target":"absent","response":"present","rt":1053.2999999989,"correct":false,"confidence":4},{"trial_n":137,"min":91,"max":164,"target":"absent","response":"present","rt":3776.9000000004,"correct":false,"confidence":3},{"trial_n":138,"min":90,"max":165,"target":"absent","response":"absent","rt":1187.3000000007,"correct":true,"confidence":4},{"trial_n":139,"min":90,"max":165,"target":"present","response":"present","rt":956,"correct":true,"confidence":5},{"trial_n":140,"min":91,"max":164,"target":"absent","response":"present","rt":1532.6999999993,"correct":false,"confidence":2}]