[{"trial_n":1,"n_dots":4.25,"target":"right","response":"right","rt":4097.8999999911,"correct":true,"confidence":-1},{"trial_n":2,"n_dots":4.25,"target":"left","response":"right","rt":1302.6000000089,"correct":false,"confidence":-1},{"trial_n":3,"n_dots":4.65,"target":"left","response":"left","rt":817.39999999106,"correct":true,"confidence":-1},{"trial_n":4,"n_dots":4.65,"target":"right","response":"right","rt":1248.8000000119,"correct":true,"confidence":-1},{"trial_n":5,"n_dots":4.25,"target":"right","response":"right","rt":691.40000000596,"correct":true,"confidence":-1},{"trial_n":6,"n_dots":4.25,"target":"right","response":"right","rt":862,"correct":true,"confidence":-1},{"trial_n":7,"n_dots":3.85,"target":"left","response":"right","rt":1227.5,"correct":false,"confidence":-1},{"trial_n":8,"n_dots":4.05,"target":"left","response":"left","rt":776.20000000298,"correct":true,"confidence":-1},{"trial_n":9,"n_dots":4.05,"target":"left","response":"left","rt":670.79999999702,"correct":true,"confidence":-1},{"trial_n":10,"n_dots":3.85,"target":"right","response":"right","rt":827.90000000596,"correct":true,"confidence":-1},{"trial_n":11,"n_dots":3.85,"target":"right","response":"right","rt":519.89999999106,"correct":true,"confidence":-1},{"trial_n":12,"n_dots":3.65,"target":"left","response":"right","rt":1078.400000006,"correct":false,"confidence":-1},{"trial_n":13,"n_dots":3.75,"target":"left","response":"left","rt":756.5,"correct":true,"confidence":-1},{"trial_n":14,"n_dots":3.75,"target":"right","response":"left","rt":613,"correct":false,"confidence":-1},{"trial_n":15,"n_dots":3.85,"target":"left","response":"right","rt":882.20000000298,"correct":false,"confidence":-1},{"trial_n":16,"n_dots":3.95,"target":"left","response":"left","rt":542.60000000894,"correct":true,"confidence":-1},{"trial_n":17,"n_dots":3.95,"target":"right","response":"right","rt":746,"correct":true,"confidence":-1},{"trial_n":18,"n_dots":3.85,"target":"right","response":"right","rt":729.20000000298,"correct":true,"confidence":-1},{"trial_n":19,"n_dots":3.85,"target":"left","response":"right","rt":1133.799999997,"correct":false,"confidence":-1},{"trial_n":20,"n_dots":3.95,"target":"right","response":"right","rt":452.70000000298,"correct":true,"confidence":-1},{"trial_n":21,"n_dots":3.95,"target":"right","response":"right","rt":754.40000000596,"correct":true,"confidence":3},{"trial_n":22,"n_dots":3.85,"target":"left","response":"right","rt":528.39999999106,"correct":false,"confidence":3},{"trial_n":23,"n_dots":3.95,"target":"right","response":"left","rt":1040.400000006,"correct":false,"confidence":3},{"trial_n":24,"n_dots":4.05,"target":"left","response":"left","rt":615.89999999106,"correct":true,"confidence":4},{"trial_n":25,"n_dots":4.05,"target":"left","response":"left","rt":760.29999999702,"correct":true,"confidence":3},{"trial_n":26,"n_dots":3.95,"target":"left","response":"left","rt":1231.3999999911,"correct":true,"confidence":3},{"trial_n":27,"n_dots":3.95,"target":"left","response":"left","rt":752.90000000596,"correct":true,"confidence":3},{"trial_n":28,"n_dots":3.85,"target":"left","response":"left","rt":1459.700000003,"correct":true,"confidence":3},{"trial_n":29,"n_dots":3.85,"target":"left","response":"left","rt":1689.099999994,"correct":true,"confidence":3},{"trial_n":30,"n_dots":3.75,"target":"left","response":"right","rt":3693.1000000089,"correct":false,"confidence":3},{"trial_n":31,"n_dots":3.85,"target":"right","response":"right","rt":1010.3000000119,"correct":true,"confidence":3},{"trial_n":32,"n_dots":3.85,"target":"right","response":"right","rt":753.5,"correct":true,"confidence":3},{"trial_n":33,"n_dots":3.75,"target":"right","response":"right","rt":983.40000000596,"correct":true,"confidence":3},{"trial_n":34,"n_dots":3.75,"target":"left","response":"right","rt":1609,"correct":false,"confidence":3},{"trial_n":35,"n_dots":3.85,"target":"right","response":"right","rt":1477,"correct":true,"confidence":3},{"trial_n":36,"n_dots":3.85,"target":"left","response":"right","rt":1776.099999994,"correct":false,"confidence":3},{"trial_n":37,"n_dots":3.95,"target":"left","response":"left","rt":4283.700000003,"correct":true,"confidence":2},{"trial_n":38,"n_dots":3.95,"target":"left","response":"right","rt":3182.700000003,"correct":false,"confidence":3},{"trial_n":39,"n_dots":4.05,"target":"right","response":"right","rt":991.59999999404,"correct":true,"confidence":4},{"trial_n":40,"n_dots":4.05,"target":"left","response":"right","rt":1157,"correct":false,"confidence":3},{"trial_n":41,"n_dots":4.15,"target":"left","response":"left","rt":1327.8000000119,"correct":true,"confidence":4},{"trial_n":42,"n_dots":4.15,"target":"left","response":"left","rt":666.10000000894,"correct":true,"confidence":4},{"trial_n":43,"n_dots":4.05,"target":"left","response":"right","rt":1033.900000006,"correct":false,"confidence":3},{"trial_n":44,"n_dots":4.15,"target":"left","response":"left","rt":1135,"correct":true,"confidence":2},{"trial_n":45,"n_dots":4.15,"target":"right","response":"right","rt":306.09999999404,"correct":true,"confidence":5},{"trial_n":46,"n_dots":4.05,"target":"right","response":"right","rt":1084.299999997,"correct":true,"confidence":3},{"trial_n":47,"n_dots":4.05,"target":"right","response":"right","rt":244.90000000596,"correct":true,"confidence":4},{"trial_n":48,"n_dots":3.95,"target":"right","response":"right","rt":913.29999999702,"correct":true,"confidence":3},{"trial_n":49,"n_dots":3.95,"target":"right","response":"right","rt":1157.599999994,"correct":true,"confidence":3},{"trial_n":50,"n_dots":3.85,"target":"right","response":"right","rt":810.30000001192,"correct":true,"confidence":3},{"trial_n":51,"n_dots":3.85,"target":"left","response":"left","rt":1221.099999994,"correct":true,"confidence":3},{"trial_n":52,"n_dots":3.75,"target":"right","response":"right","rt":2078.700000003,"correct":true,"confidence":3},{"trial_n":53,"n_dots":3.75,"target":"left","response":"left","rt":844.09999999404,"correct":true,"confidence":3},{"trial_n":54,"n_dots":3.65,"target":"right","response":"right","rt":254.20000000298,"correct":true,"confidence":3},{"trial_n":55,"n_dots":3.65,"target":"left","response":"left","rt":1012.400000006,"correct":true,"confidence":3},{"trial_n":56,"n_dots":3.55,"target":"right","response":"left","rt":896.79999999702,"correct":false,"confidence":3},{"trial_n":57,"n_dots":3.65,"target":"right","response":"right","rt":205.39999999106,"correct":true,"confidence":3},{"trial_n":58,"n_dots":3.65,"target":"right","response":"right","rt":1499.8999999911,"correct":true,"confidence":3},{"trial_n":59,"n_dots":3.55,"target":"right","response":"left","rt":1319.8999999911,"correct":false,"confidence":1},{"trial_n":60,"n_dots":3.65,"target":"left","response":"left","rt":609.20000000298,"correct":true,"confidence":3},{"trial_n":61,"n_dots":3.65,"target":"left","response":"left","rt":971.39999999106,"correct":true,"confidence":3},{"trial_n":62,"n_dots":3.55,"target":"left","response":"right","rt":327.89999999106,"correct":false,"confidence":3},{"trial_n":63,"n_dots":3.65,"target":"right","response":"left","rt":695.90000000596,"correct":false,"confidence":3},{"trial_n":64,"n_dots":3.75,"target":"right","response":"right","rt":723.79999999702,"correct":true,"confidence":3},{"trial_n":65,"n_dots":3.75,"target":"left","response":"left","rt":661.5,"correct":true,"confidence":3},{"trial_n":66,"n_dots":3.65,"target":"right","response":"right","rt":894.09999999404,"correct":true,"confidence":4},{"trial_n":67,"n_dots":3.65,"target":"right","response":"right","rt":475.40000000596,"correct":true,"confidence":4},{"trial_n":68,"n_dots":3.55,"target":"right","response":"right","rt":926.19999998808,"correct":true,"confidence":4},{"trial_n":69,"n_dots":3.55,"target":"right","response":"right","rt":1298.1999999881,"correct":true,"confidence":3},{"trial_n":70,"n_dots":3.45,"target":"right","response":"left","rt":1769.799999997,"correct":false,"confidence":2},{"trial_n":71,"n_dots":3.55,"target":"left","response":"left","rt":750.29999999702,"correct":true,"confidence":3},{"trial_n":72,"n_dots":3.55,"target":"right","response":"right","rt":788.39999999106,"correct":true,"confidence":3},{"trial_n":73,"n_dots":3.45,"target":"left","response":"left","rt":10157.600000009,"correct":true,"confidence":1},{"trial_n":74,"n_dots":3.45,"target":"left","response":"right","rt":1006.799999997,"correct":false,"confidence":3},{"trial_n":75,"n_dots":3.55,"target":"left","response":"right","rt":779.20000000298,"correct":false,"confidence":2},{"trial_n":76,"n_dots":3.65,"target":"left","response":"right","rt":1679,"correct":false,"confidence":3},{"trial_n":77,"n_dots":3.75,"target":"right","response":"right","rt":675.20000000298,"correct":true,"confidence":4},{"trial_n":78,"n_dots":3.75,"target":"right","response":"right","rt":1118.900000006,"correct":true,"confidence":4},{"trial_n":79,"n_dots":3.65,"target":"right","response":"right","rt":756.5,"correct":true,"confidence":4},{"trial_n":80,"n_dots":3.65,"target":"left","response":"left","rt":1174.400000006,"correct":true,"confidence":3},{"trial_n":81,"n_dots":3.55,"target":"right","response":"right","rt":325.89999999106,"correct":true,"confidence":4},{"trial_n":82,"n_dots":3.55,"target":"right","response":"right","rt":464.59999999404,"correct":true,"confidence":4},{"trial_n":83,"n_dots":3.45,"target":"right","response":"left","rt":914.40000000596,"correct":false,"confidence":3},{"trial_n":84,"n_dots":3.55,"target":"left","response":"left","rt":648.79999999702,"correct":true,"confidence":2},{"trial_n":85,"n_dots":3.55,"target":"left","response":"left","rt":671.60000000894,"correct":true,"confidence":1},{"trial_n":86,"n_dots":3.45,"target":"left","response":"left","rt":573,"correct":true,"confidence":3},{"trial_n":87,"n_dots":3.45,"target":"left","response":"right","rt":753.40000000596,"correct":false,"confidence":4},{"trial_n":88,"n_dots":3.55,"target":"left","response":"right","rt":982.40000000596,"correct":false,"confidence":1},{"trial_n":89,"n_dots":3.65,"target":"left","response":"left","rt":785.09999999404,"correct":true,"confidence":2},{"trial_n":90,"n_dots":3.65,"target":"left","response":"left","rt":699.19999998808,"correct":true,"confidence":2},{"trial_n":91,"n_dots":3.55,"target":"left","response":"right","rt":699.59999999404,"correct":false,"confidence":3},{"trial_n":92,"n_dots":3.65,"target":"right","response":"right","rt":688.70000000298,"correct":true,"confidence":3},{"trial_n":93,"n_dots":3.65,"target":"left","response":"right","rt":561,"correct":false,"confidence":3},{"trial_n":94,"n_dots":3.75,"target":"right","response":"right","rt":888,"correct":true,"confidence":4},{"trial_n":95,"n_dots":3.75,"target":"left","response":"right","rt":830.09999999404,"correct":false,"confidence":4},{"trial_n":96,"n_dots":3.85,"target":"right","response":"right","rt":694.29999999702,"correct":true,"confidence":4},{"trial_n":97,"n_dots":3.85,"target":"right","response":"right","rt":144.5,"correct":true,"confidence":5},{"trial_n":98,"n_dots":3.75,"target":"right","response":"right","rt":1187.3999999911,"correct":true,"confidence":5},{"trial_n":99,"n_dots":3.75,"target":"right","response":"right","rt":717.10000000894,"correct":true,"confidence":1},{"trial_n":100,"n_dots":3.65,"target":"right","response":"right","rt":321.29999999702,"correct":true,"confidence":5},{"trial_n":101,"n_dots":3.65,"target":"left","response":"left","rt":1659.299999997,"correct":true,"confidence":3},{"trial_n":102,"n_dots":3.55,"target":"right","response":"left","rt":884.80000001192,"correct":false,"confidence":3},{"trial_n":103,"n_dots":3.65,"target":"left","response":"right","rt":216.09999999404,"correct":false,"confidence":3},{"trial_n":104,"n_dots":3.75,"target":"right","response":"right","rt":409.60000000894,"correct":true,"confidence":5},{"trial_n":105,"n_dots":3.75,"target":"right","response":"right","rt":616,"correct":true,"confidence":3},{"trial_n":106,"n_dots":3.65,"target":"right","response":"left","rt":879.5,"correct":false,"confidence":1},{"trial_n":107,"n_dots":3.75,"target":"right","response":"right","rt":254.39999999106,"correct":true,"confidence":5},{"trial_n":108,"n_dots":3.75,"target":"left","response":"left","rt":826.79999999702,"correct":true,"confidence":5},{"trial_n":109,"n_dots":3.65,"target":"left","response":"left","rt":1269.6000000089,"correct":true,"confidence":5},{"trial_n":110,"n_dots":3.65,"target":"left","response":"left","rt":614.20000000298,"correct":true,"confidence":5},{"trial_n":111,"n_dots":3.55,"target":"left","response":"right","rt":858.20000000298,"correct":false,"confidence":4},{"trial_n":112,"n_dots":3.65,"target":"left","response":"left","rt":529.09999999404,"correct":true,"confidence":4},{"trial_n":113,"n_dots":3.65,"target":"right","response":"left","rt":859.39999999106,"correct":false,"confidence":4},{"trial_n":114,"n_dots":3.75,"target":"left","response":"right","rt":708.29999999702,"correct":false,"confidence":1},{"trial_n":115,"n_dots":3.85,"target":"left","response":"left","rt":1437.200000003,"correct":true,"confidence":3},{"trial_n":116,"n_dots":3.85,"target":"right","response":"left","rt":1349.400000006,"correct":false,"confidence":3},{"trial_n":117,"n_dots":3.95,"target":"right","response":"right","rt":194.79999999702,"correct":true,"confidence":5},{"trial_n":118,"n_dots":3.95,"target":"right","response":"right","rt":619.79999999702,"correct":true,"confidence":5},{"trial_n":119,"n_dots":3.85,"target":"left","response":"right","rt":525.39999999106,"correct":false,"confidence":3},{"trial_n":120,"n_dots":3.95,"target":"right","response":"right","rt":509.20000000298,"correct":true,"confidence":1}]