[{"trial_n":1,"span":8,"encoder":"56434567","distractor":"56474567","target":"present","response":"present","rt":"6469.9000000954","correct":true,"confidence":-1},{"trial_n":2,"span":8,"encoder":"88109897","distractor":"82109897","target":"present","response":"absent","rt":"5681.8999998569","correct":false,"confidence":-1},{"trial_n":3,"span":6,"encoder":"252938","distractor":"262938","target":"absent","response":"absent","rt":"2809.4000000954","correct":true,"confidence":-1},{"trial_n":4,"span":6,"encoder":"030201","distractor":"030221","target":"absent","response":"present","rt":"4033","correct":false,"confidence":-1},{"trial_n":5,"span":4,"encoder":"3224","distractor":"1224","target":"present","response":"present","rt":"982","correct":true,"confidence":-1},{"trial_n":6,"span":4,"encoder":"6915","distractor":"6917","target":"absent","response":"absent","rt":"1405.7000000477","correct":true,"confidence":-1},{"trial_n":7,"span":6,"encoder":"426139","distractor":"426129","target":"present","response":"present","rt":"1372.3999998569","correct":true,"confidence":-1},{"trial_n":8,"span":6,"encoder":"563388","distractor":"063388","target":"present","response":"present","rt":"1028.7000000477","correct":true,"confidence":-1},{"trial_n":9,"span":8,"encoder":"00736015","distractor":"00736065","target":"absent","response":"absent","rt":"2028.6000001431","correct":true,"confidence":-1},{"trial_n":10,"span":8,"encoder":"85793944","distractor":"85793954","target":"absent","response":"absent","rt":"2569.0999999046","correct":true,"confidence":-1},{"trial_n":11,"span":10,"encoder":"2397283251","distractor":"2397283651","target":"present","response":"absent","rt":"2925.6999998093","correct":false,"confidence":-1},{"trial_n":12,"span":9,"encoder":"118306082","distractor":"318306082","target":"absent","response":"present","rt":"2703.5","correct":false,"confidence":-1},{"trial_n":13,"span":8,"encoder":"26979243","distractor":"26989243","target":"present","response":"present","rt":"924.5","correct":true,"confidence":-1},{"trial_n":14,"span":8,"encoder":"41271811","distractor":"41071811","target":"present","response":"present","rt":"1246","correct":true,"confidence":-1},{"trial_n":15,"span":9,"encoder":"821345349","distractor":"821335349","target":"present","response":"present","rt":"985","correct":true,"confidence":-1},{"trial_n":16,"span":9,"encoder":"955304558","distractor":"555304558","target":"absent","response":"absent","rt":"2675.7999999523","correct":true,"confidence":-1},{"trial_n":17,"span":10,"encoder":"9890676470","distractor":"9880676470","target":"absent","response":"present","rt":"1335.1000001431","correct":false,"confidence":-1},{"trial_n":18,"span":9,"encoder":"887805503","distractor":"887705503","target":"present","response":"present","rt":"2382","correct":true,"confidence":-1},{"trial_n":19,"span":9,"encoder":"366518452","distractor":"366918452","target":"present","response":"present","rt":"2100.6000001431","correct":true,"confidence":-1},{"trial_n":20,"span":10,"encoder":"0924064629","distractor":"0024064629","target":"absent","response":"present","rt":"816","correct":false,"confidence":-1},{"trial_n":21,"span":9,"encoder":"950267783","distractor":"950262783","target":"present","response":"present","rt":"1949.7999999523","correct":true,"confidence":5},{"trial_n":22,"span":9,"encoder":"463370958","distractor":"403370958","target":"present","response":"present","rt":"5536.1000001431","correct":true,"confidence":3},{"trial_n":23,"span":10,"encoder":"1023531140","distractor":"1025531140","target":"present","response":"present","rt":"2410.3999998569","correct":true,"confidence":5},{"trial_n":24,"span":10,"encoder":"6594830380","distractor":"6594130380","target":"absent","response":"absent","rt":"3819","correct":true,"confidence":5},{"trial_n":25,"span":11,"encoder":"20937166094","distractor":"70937166094","target":"absent","response":"absent","rt":"3193.1000001431","correct":true,"confidence":5},{"trial_n":26,"span":11,"encoder":"31649393110","distractor":"31349393110","target":"present","response":"present","rt":"3581.2000000477","correct":true,"confidence":5},{"trial_n":27,"span":12,"encoder":"172559534582","distractor":"172559534542","target":"present","response":"absent","rt":"4680.4000000954","correct":false,"confidence":4},{"trial_n":28,"span":11,"encoder":"70278893352","distractor":"70278853352","target":"absent","response":"absent","rt":"3341.8999998569","correct":true,"confidence":3},{"trial_n":29,"span":11,"encoder":"65637268019","distractor":"65637268013","target":"present","response":"present","rt":"2852.1000001431","correct":true,"confidence":5},{"trial_n":30,"span":12,"encoder":"086594594265","distractor":"086594594263","target":"present","response":"absent","rt":"3804.8000001907","correct":false,"confidence":4},{"trial_n":31,"span":11,"encoder":"01477128609","distractor":"61477128609","target":"absent","response":"absent","rt":"2016.7000000477","correct":true,"confidence":5},{"trial_n":32,"span":11,"encoder":"88523885236","distractor":"88523889236","target":"absent","response":"absent","rt":"3631.9000000954","correct":true,"confidence":5},{"trial_n":33,"span":12,"encoder":"944424899593","distractor":"944724899593","target":"present","response":"present","rt":"4174.9000000954","correct":true,"confidence":5},{"trial_n":34,"span":12,"encoder":"115435110063","distractor":"115335110063","target":"present","response":"present","rt":"3748.2000000477","correct":true,"confidence":5},{"trial_n":35,"span":13,"encoder":"6806536271531","distractor":"6886536271531","target":"present","response":"absent","rt":"4909.5","correct":false,"confidence":4},{"trial_n":36,"span":12,"encoder":"638872401856","distractor":"038872401856","target":"absent","response":"absent","rt":"6873.2000000477","correct":true,"confidence":5},{"trial_n":37,"span":12,"encoder":"653455722638","distractor":"653455762638","target":"absent","response":"absent","rt":"7355.7000000477","correct":true,"confidence":4},{"trial_n":38,"span":13,"encoder":"7006162733819","distractor":"7006166733819","target":"present","response":"present","rt":"4393.2999999523","correct":true,"confidence":4},{"trial_n":39,"span":13,"encoder":"8199633646468","distractor":"3199633646468","target":"absent","response":"absent","rt":"6389.4000000954","correct":true,"confidence":5},{"trial_n":40,"span":14,"encoder":"99419044947541","distractor":"99419044947521","target":"absent","response":"present","rt":"5471.0999999046","correct":false,"confidence":2},{"trial_n":41,"span":13,"encoder":"4746938852719","distractor":"2746938852719","target":"present","response":"present","rt":"3582.2999999523","correct":true,"confidence":3},{"trial_n":42,"span":13,"encoder":"4034971272571","distractor":"4034971252571","target":"present","response":"absent","rt":"4469.2000000477","correct":false,"confidence":4},{"trial_n":43,"span":12,"encoder":"618164108934","distractor":"618464108934","target":"absent","response":"absent","rt":"2877.2999999523","correct":true,"confidence":5},{"trial_n":44,"span":12,"encoder":"519566577545","distractor":"519566577145","target":"present","response":"absent","rt":"3878.0999999046","correct":false,"confidence":4},{"trial_n":45,"span":11,"encoder":"13046224205","distractor":"13046204205","target":"present","response":"absent","rt":"4240.6999998093","correct":false,"confidence":4},{"trial_n":46,"span":10,"encoder":"1883218660","distractor":"7883218660","target":"absent","response":"absent","rt":"1626.5","correct":true,"confidence":5},{"trial_n":47,"span":10,"encoder":"2255782331","distractor":"9255782331","target":"absent","response":"absent","rt":"2332.8000001907","correct":true,"confidence":2},{"trial_n":48,"span":11,"encoder":"98556297145","distractor":"98556897145","target":"present","response":"present","rt":"4192.6000001431","correct":true,"confidence":3},{"trial_n":49,"span":11,"encoder":"40504628284","distractor":"40508628284","target":"absent","response":"absent","rt":"8863.7000000477","correct":true,"confidence":3},{"trial_n":50,"span":12,"encoder":"714524400393","distractor":"794524400393","target":"present","response":"present","rt":"6405.0999999046","correct":true,"confidence":3},{"trial_n":51,"span":12,"encoder":"615193190087","distractor":"615199190087","target":"absent","response":"present","rt":"4349.9000000954","correct":false,"confidence":3},{"trial_n":52,"span":11,"encoder":"66623724856","distractor":"66623728856","target":"absent","response":"absent","rt":"4234.7999999523","correct":true,"confidence":3},{"trial_n":53,"span":11,"encoder":"08782025759","distractor":"08780025759","target":"present","response":"present","rt":"3523.2999999523","correct":true,"confidence":5},{"trial_n":54,"span":12,"encoder":"798373586084","distractor":"788373586084","target":"absent","response":"absent","rt":"5620.5999999046","correct":true,"confidence":4},{"trial_n":55,"span":12,"encoder":"575360861228","distractor":"575360861828","target":"present","response":"present","rt":"4272.2999999523","correct":true,"confidence":3},{"trial_n":56,"span":13,"encoder":"8364335015554","distractor":"8369335015554","target":"present","response":"present","rt":"3797.0999999046","correct":true,"confidence":4},{"trial_n":57,"span":13,"encoder":"1597004995541","distractor":"1597024995541","target":"absent","response":"absent","rt":"4980.8000001907","correct":true,"confidence":2},{"trial_n":58,"span":14,"encoder":"25690621063333","distractor":"25690620063333","target":"absent","response":"absent","rt":"4581.9000000954","correct":true,"confidence":4},{"trial_n":59,"span":14,"encoder":"68693640532464","distractor":"66693640532464","target":"absent","response":"absent","rt":"4916.9000000954","correct":true,"confidence":5},{"trial_n":60,"span":15,"encoder":"647316452145357","distractor":"643316452145357","target":"absent","response":"present","rt":"3125.2000000477","correct":false,"confidence":4},{"trial_n":61,"span":14,"encoder":"47830194322902","distractor":"47833194322902","target":"absent","response":"present","rt":"4616.3999998569","correct":false,"confidence":2},{"trial_n":62,"span":13,"encoder":"0527924215451","distractor":"0527924915451","target":"present","response":"present","rt":"2290.6000001431","correct":true,"confidence":4},{"trial_n":63,"span":13,"encoder":"1876263621444","distractor":"1870263621444","target":"absent","response":"absent","rt":"3948.5","correct":true,"confidence":4},{"trial_n":64,"span":14,"encoder":"03276534913314","distractor":"03256534913314","target":"present","response":"present","rt":"4393.7999999523","correct":true,"confidence":4},{"trial_n":65,"span":14,"encoder":"07245057149166","distractor":"07245057142166","target":"present","response":"present","rt":"4123.8999998569","correct":true,"confidence":5},{"trial_n":66,"span":15,"encoder":"610453033045146","distractor":"610453033045147","target":"present","response":"present","rt":"5506.8999998569","correct":true,"confidence":5},{"trial_n":67,"span":15,"encoder":"737750603436797","distractor":"737754603436797","target":"present","response":"absent","rt":"5695.2999999523","correct":false,"confidence":4},{"trial_n":68,"span":14,"encoder":"81945460942224","distractor":"84945460942224","target":"absent","response":"absent","rt":"6303.9000000954","correct":true,"confidence":2},{"trial_n":69,"span":14,"encoder":"40349679238052","distractor":"40349679038052","target":"absent","response":"present","rt":"4450","correct":false,"confidence":3},{"trial_n":70,"span":13,"encoder":"8471830095465","distractor":"8479830095465","target":"absent","response":"absent","rt":"2849.5","correct":true,"confidence":4},{"trial_n":71,"span":8,"encoder":"30356779","distractor":"30356719","target":"present","response":"present","rt":"2331.9000000954","correct":true,"confidence":-1},{"trial_n":72,"span":8,"encoder":"66109671","distractor":"66109871","target":"present","response":"present","rt":"2091","correct":true,"confidence":-1},{"trial_n":73,"span":9,"encoder":"752370452","distractor":"752370459","target":"absent","response":"absent","rt":"3736.0999999046","correct":true,"confidence":-1},{"trial_n":74,"span":9,"encoder":"426937987","distractor":"426437987","target":"absent","response":"absent","rt":"2837.2000000477","correct":true,"confidence":-1},{"trial_n":75,"span":10,"encoder":"9973837236","distractor":"9973837936","target":"present","response":"present","rt":"2722.2000000477","correct":true,"confidence":-1},{"trial_n":76,"span":10,"encoder":"2016244096","distractor":"2016444096","target":"absent","response":"absent","rt":"3397.7999999523","correct":true,"confidence":-1},{"trial_n":77,"span":11,"encoder":"76610688120","distractor":"76680688120","target":"present","response":"present","rt":"3434.3999998569","correct":true,"confidence":-1},{"trial_n":78,"span":11,"encoder":"90971837324","distractor":"90941837324","target":"present","response":"present","rt":"4971.1000001431","correct":true,"confidence":-1},{"trial_n":79,"span":12,"encoder":"968028039449","distractor":"998028039449","target":"present","response":"absent","rt":"5737.3999998569","correct":false,"confidence":-1},{"trial_n":80,"span":11,"encoder":"01674568334","distractor":"03674568334","target":"present","response":"present","rt":"2060.4000000954","correct":true,"confidence":-1},{"trial_n":81,"span":11,"encoder":"95059234589","distractor":"95059234989","target":"present","response":"absent","rt":"8301.7000000477","correct":false,"confidence":-1},{"trial_n":82,"span":10,"encoder":"4899748429","distractor":"4899748529","target":"present","response":"present","rt":"532.5","correct":true,"confidence":-1},{"trial_n":83,"span":10,"encoder":"7845729987","distractor":"7845729986","target":"absent","response":"absent","rt":"391.29999995232","correct":true,"confidence":-1},{"trial_n":84,"span":11,"encoder":"20885727799","distractor":"20885727719","target":"present","response":"present","rt":"298.70000004768","correct":true,"confidence":-1},{"trial_n":85,"span":11,"encoder":"43797601302","distractor":"83797601302","target":"present","response":"present","rt":"414.20000004768","correct":true,"confidence":-1},{"trial_n":86,"span":12,"encoder":"317112328029","distractor":"317112328019","target":"absent","response":"absent","rt":"384.90000009537","correct":true,"confidence":-1},{"trial_n":87,"span":12,"encoder":"902645609889","distractor":"909645609889","target":"present","response":"present","rt":"411","correct":true,"confidence":-1},{"trial_n":88,"span":13,"encoder":"5678008198931","distractor":"5678008198961","target":"absent","response":"absent","rt":"329.70000004768","correct":true,"confidence":-1},{"trial_n":89,"span":13,"encoder":"8148759704118","distractor":"8148759304118","target":"absent","response":"absent","rt":"330.40000009537","correct":true,"confidence":-1},{"trial_n":90,"span":14,"encoder":"61328530699405","distractor":"61328530679405","target":"present","response":"present","rt":"400","correct":true,"confidence":-1},{"trial_n":91,"span":14,"encoder":"17214476899177","distractor":"17214474899177","target":"present","response":"present","rt":"3225","correct":true,"confidence":5},{"trial_n":92,"span":15,"encoder":"777233301552138","distractor":"777233301555138","target":"present","response":"present","rt":"3760.1000001431","correct":true,"confidence":5},{"trial_n":93,"span":15,"encoder":"173391030208075","distractor":"173391030278075","target":"present","response":"present","rt":"11891.100000143","correct":true,"confidence":3},{"trial_n":94,"span":16,"encoder":"3415957226924655","distractor":"3415957226924650","target":"absent","response":"absent","rt":"6115","correct":true,"confidence":5},{"trial_n":95,"span":16,"encoder":"3351066302408879","distractor":"3357066302408879","target":"present","response":"present","rt":"2540.5","correct":true,"confidence":5},{"trial_n":96,"span":17,"encoder":"45978081099800799","distractor":"45978081098800799","target":"absent","response":"absent","rt":"7385.0999999046","correct":true,"confidence":5},{"trial_n":97,"span":17,"encoder":"57800402861455398","distractor":"57200402861455398","target":"absent","response":"present","rt":"6649.3999998569","correct":false,"confidence":4},{"trial_n":98,"span":16,"encoder":"3386648231398986","distractor":"3386648231397986","target":"present","response":"present","rt":"7537.5","correct":true,"confidence":5},{"trial_n":99,"span":16,"encoder":"8582230328747655","distractor":"8582230325747655","target":"absent","response":"absent","rt":"6331.7000000477","correct":true,"confidence":5},{"trial_n":100,"span":17,"encoder":"63179257751144958","distractor":"63179257751164958","target":"present","response":"present","rt":"9885.1000001431","correct":true,"confidence":5},{"trial_n":101,"span":17,"encoder":"82618716973282242","distractor":"82618116973282242","target":"absent","response":"absent","rt":"3659.7999999523","correct":true,"confidence":5},{"trial_n":102,"span":18,"encoder":"171730048004981310","distractor":"171730048004981390","target":"present","response":"present","rt":"10357.100000143","correct":true,"confidence":4},{"trial_n":103,"span":18,"encoder":"669708676813880989","distractor":"669708656813880989","target":"absent","response":"present","rt":"996.39999985695","correct":false,"confidence":3},{"trial_n":104,"span":17,"encoder":"41701065416008583","distractor":"41701065416048583","target":"present","response":"present","rt":"7726.6999998093","correct":true,"confidence":4},{"trial_n":105,"span":17,"encoder":"30512845875404605","distractor":"30512845875404695","target":"absent","response":"absent","rt":"2548.1999998093","correct":true,"confidence":4},{"trial_n":106,"span":18,"encoder":"246586382717026707","distractor":"246386382717026707","target":"absent","response":"absent","rt":"4785.9000000954","correct":true,"confidence":4},{"trial_n":107,"span":18,"encoder":"770090948651659982","distractor":"770090948651259982","target":"absent","response":"absent","rt":"8575.3000001907","correct":true,"confidence":5},{"trial_n":108,"span":19,"encoder":"7319810575316621100","distractor":"7319810575016621100","target":"absent","response":"absent","rt":"904.29999995232","correct":true,"confidence":4},{"trial_n":109,"span":19,"encoder":"3568775340541843700","distractor":"3568775340541843706","target":"present","response":"present","rt":"959.79999995232","correct":true,"confidence":3},{"trial_n":110,"span":20,"encoder":"20928833519165153389","distractor":"20928835519165153389","target":"present","response":"present","rt":"9603.7000000477","correct":true,"confidence":3},{"trial_n":111,"span":20,"encoder":"09400762662286060062","distractor":"09407762662286060062","target":"present","response":"present","rt":"14694.600000143","correct":true,"confidence":4},{"trial_n":112,"span":21,"encoder":"106420996613675430503","distractor":"109420996613675430503","target":"present","response":"present","rt":"6467.0999999046","correct":true,"confidence":5},{"trial_n":113,"span":21,"encoder":"861441726693903950251","distractor":"861401726693903950251","target":"absent","response":"absent","rt":"11311.100000143","correct":true,"confidence":5},{"trial_n":114,"span":22,"encoder":"3124686847145443042257","distractor":"3114686847145443042257","target":"absent","response":"absent","rt":"11927.400000095","correct":true,"confidence":3},{"trial_n":115,"span":22,"encoder":"1160896610277341484871","distractor":"1160896610277341482871","target":"present","response":"present","rt":"15651.399999857","correct":true,"confidence":2},{"trial_n":116,"span":23,"encoder":"27617640638354439212231","distractor":"27617640638354438212231","target":"absent","response":"absent","rt":"23609.5","correct":true,"confidence":4},{"trial_n":117,"span":23,"encoder":"51689987162147840423553","distractor":"51689987162147840423554","target":"absent","response":"present","rt":"3462.0999999046","correct":false,"confidence":3},{"trial_n":118,"span":22,"encoder":"6426939960480494467238","distractor":"6426939960480494967238","target":"absent","response":"present","rt":"7249","correct":false,"confidence":2},{"trial_n":119,"span":21,"encoder":"799120048138950287982","distractor":"799127048138950287982","target":"absent","response":"absent","rt":"8942.6000001431","correct":true,"confidence":4},{"trial_n":120,"span":21,"encoder":"343599302434388507075","distractor":"343559302434388507075","target":"absent","response":"absent","rt":"1825.2000000477","correct":true,"confidence":3},{"trial_n":121,"span":22,"encoder":"8516189163454205618635","distractor":"8516189163454205617635","target":"absent","response":"present","rt":"12490.700000048","correct":false,"confidence":2},{"trial_n":122,"span":21,"encoder":"599127076927987480762","distractor":"599127076927987430762","target":"present","response":"present","rt":"7061.2999999523","correct":true,"confidence":3},{"trial_n":123,"span":21,"encoder":"934777996449299797609","distractor":"934777996449299797689","target":"absent","response":"absent","rt":"6422.1000001431","correct":true,"confidence":2},{"trial_n":124,"span":22,"encoder":"7068957989736435986953","distractor":"7068957989732435986953","target":"present","response":"present","rt":"11323.899999857","correct":true,"confidence":2},{"trial_n":125,"span":22,"encoder":"5795128853691996967843","distractor":"5795228853691996967843","target":"present","response":"present","rt":"4033.9000000954","correct":true,"confidence":3},{"trial_n":126,"span":23,"encoder":"61910502741927247385316","distractor":"21910502741927247385316","target":"absent","response":"absent","rt":"2215.7999999523","correct":true,"confidence":5},{"trial_n":127,"span":23,"encoder":"56864941973314543652525","distractor":"56864941973314543652825","target":"absent","response":"present","rt":"19217","correct":false,"confidence":2},{"trial_n":128,"span":22,"encoder":"6756966919044911078344","distractor":"6756966919044911018344","target":"absent","response":"absent","rt":"3402","correct":true,"confidence":5},{"trial_n":129,"span":22,"encoder":"9222196229451784271317","distractor":"9222106229451784271317","target":"present","response":"present","rt":"5384.2999999523","correct":true,"confidence":3},{"trial_n":130,"span":23,"encoder":"99692242984608035003460","distractor":"99692242984608035063460","target":"present","response":"present","rt":"5065","correct":true,"confidence":3},{"trial_n":131,"span":23,"encoder":"21085012040015242265673","distractor":"21085012040015242265670","target":"absent","response":"present","rt":"5565.5","correct":false,"confidence":3},{"trial_n":132,"span":22,"encoder":"6156810515303335731441","distractor":"6156810515307335731441","target":"absent","response":"present","rt":"5860.6000001431","correct":false,"confidence":2},{"trial_n":133,"span":21,"encoder":"492001926440353754590","distractor":"492001926430353754590","target":"absent","response":"absent","rt":"823.40000009537","correct":true,"confidence":3},{"trial_n":134,"span":21,"encoder":"285148632078722470609","distractor":"285148632078722470659","target":"present","response":"absent","rt":"19215","correct":false,"confidence":3},{"trial_n":135,"span":20,"encoder":"48027888394886010366","distractor":"48027888294886010366","target":"present","response":"absent","rt":"9627.8999998569","correct":false,"confidence":3},{"trial_n":136,"span":19,"encoder":"4995685730884785283","distractor":"4995685730884785883","target":"absent","response":"present","rt":"2025.7000000477","correct":false,"confidence":2},{"trial_n":137,"span":18,"encoder":"271924493137290393","distractor":"271924493133290393","target":"present","response":"present","rt":"3458","correct":true,"confidence":5},{"trial_n":138,"span":18,"encoder":"836963629066171390","distractor":"816963629066171390","target":"absent","response":"present","rt":"7421.2000000477","correct":false,"confidence":3},{"trial_n":139,"span":17,"encoder":"93982455854017410","distractor":"93982455858017410","target":"present","response":"present","rt":"10827.900000095","correct":true,"confidence":3},{"trial_n":140,"span":17,"encoder":"78946160412683853","distractor":"78946160422683853","target":"present","response":"present","rt":"9005.1999998093","correct":true,"confidence":2}]