[{"trial_n":1,"span":8,"encoder":"96031000","distractor":"16031000","target":"present","response":"present","rt":"4289.8999998569","correct":true,"confidence":-1},{"trial_n":2,"span":8,"encoder":"80341116","distractor":"80141116","target":"present","response":"absent","rt":"3875.3999998569","correct":false,"confidence":-1},{"trial_n":3,"span":6,"encoder":"640791","distractor":"640291","target":"absent","response":"absent","rt":"3568.6000001431","correct":true,"confidence":-1},{"trial_n":4,"span":6,"encoder":"147374","distractor":"147378","target":"absent","response":"absent","rt":"2628.5999999046","correct":true,"confidence":-1},{"trial_n":5,"span":8,"encoder":"08881975","distractor":"02881975","target":"present","response":"present","rt":"3746.5","correct":true,"confidence":-1},{"trial_n":6,"span":8,"encoder":"30227407","distractor":"30226407","target":"present","response":"present","rt":"3601.1999998093","correct":true,"confidence":-1},{"trial_n":7,"span":10,"encoder":"2502251397","distractor":"2502451397","target":"present","response":"present","rt":"6380.2000000477","correct":true,"confidence":-1},{"trial_n":8,"span":10,"encoder":"7277623881","distractor":"7276623881","target":"absent","response":"absent","rt":"3400.5","correct":true,"confidence":-1},{"trial_n":9,"span":12,"encoder":"328467211304","distractor":"328467216304","target":"absent","response":"absent","rt":"2694.7000000477","correct":true,"confidence":-1},{"trial_n":10,"span":12,"encoder":"845441028744","distractor":"845441029744","target":"present","response":"absent","rt":"3498","correct":false,"confidence":-1},{"trial_n":11,"span":10,"encoder":"3732361927","distractor":"3772361927","target":"absent","response":"present","rt":"3768.5","correct":false,"confidence":-1},{"trial_n":12,"span":9,"encoder":"771872681","distractor":"771872781","target":"present","response":"present","rt":"2841.2000000477","correct":true,"confidence":-1},{"trial_n":13,"span":9,"encoder":"656822746","distractor":"356822746","target":"absent","response":"present","rt":"5926.4000000954","correct":false,"confidence":-1},{"trial_n":14,"span":8,"encoder":"85242876","distractor":"85242872","target":"absent","response":"absent","rt":"3614.5999999046","correct":true,"confidence":-1},{"trial_n":15,"span":8,"encoder":"67111720","distractor":"67113720","target":"present","response":"absent","rt":"4138.2999999523","correct":false,"confidence":-1},{"trial_n":16,"span":7,"encoder":"0334082","distractor":"0734082","target":"present","response":"present","rt":"3126.0999999046","correct":true,"confidence":-1},{"trial_n":17,"span":7,"encoder":"9031440","distractor":"2031440","target":"absent","response":"absent","rt":"1896.1999998093","correct":true,"confidence":-1},{"trial_n":18,"span":8,"encoder":"27111255","distractor":"27111855","target":"absent","response":"absent","rt":"3286.9000000954","correct":true,"confidence":-1},{"trial_n":19,"span":8,"encoder":"11952207","distractor":"11952227","target":"present","response":"present","rt":"4296.3999998569","correct":true,"confidence":-1},{"trial_n":20,"span":9,"encoder":"354776083","distractor":"654776083","target":"present","response":"absent","rt":"4196.3999998569","correct":false,"confidence":-1},{"trial_n":21,"span":8,"encoder":"65633551","distractor":"65683551","target":"present","response":"absent","rt":"8463","correct":false,"confidence":3},{"trial_n":22,"span":7,"encoder":"1613950","distractor":"1618950","target":"present","response":"present","rt":"3401.2999999523","correct":true,"confidence":5},{"trial_n":23,"span":7,"encoder":"4348113","distractor":"4348118","target":"present","response":"present","rt":"2838.5","correct":true,"confidence":5},{"trial_n":24,"span":8,"encoder":"93013918","distractor":"93015918","target":"absent","response":"present","rt":"12589.599999905","correct":false,"confidence":4},{"trial_n":25,"span":7,"encoder":"0450247","distractor":"1450247","target":"present","response":"absent","rt":"4786.9000000954","correct":false,"confidence":3},{"trial_n":26,"span":6,"encoder":"768248","distractor":"768208","target":"absent","response":"absent","rt":"5111.1999998093","correct":true,"confidence":4},{"trial_n":27,"span":6,"encoder":"678999","distractor":"978999","target":"absent","response":"present","rt":"3570.6000001431","correct":false,"confidence":4},{"trial_n":28,"span":5,"encoder":"27843","distractor":"47843","target":"present","response":"present","rt":"4525.7999999523","correct":true,"confidence":5},{"trial_n":29,"span":5,"encoder":"67247","distractor":"67747","target":"absent","response":"absent","rt":"4260.2999999523","correct":true,"confidence":5},{"trial_n":30,"span":6,"encoder":"288944","distractor":"288964","target":"absent","response":"absent","rt":"7734.6000001431","correct":true,"confidence":4},{"trial_n":31,"span":6,"encoder":"567678","distractor":"967678","target":"absent","response":"absent","rt":"2319","correct":true,"confidence":5},{"trial_n":32,"span":7,"encoder":"4206191","distractor":"4209191","target":"present","response":"present","rt":"5698.7000000477","correct":true,"confidence":4},{"trial_n":33,"span":7,"encoder":"8470824","distractor":"8478824","target":"absent","response":"absent","rt":"3285.6999998093","correct":true,"confidence":5},{"trial_n":34,"span":8,"encoder":"82586431","distractor":"82586931","target":"absent","response":"absent","rt":"4568.2999999523","correct":true,"confidence":3},{"trial_n":35,"span":8,"encoder":"67738835","distractor":"67768835","target":"absent","response":"absent","rt":"7728.9000000954","correct":true,"confidence":2},{"trial_n":36,"span":9,"encoder":"437861078","distractor":"436861078","target":"absent","response":"present","rt":"7066.5999999046","correct":false,"confidence":3},{"trial_n":37,"span":8,"encoder":"42469939","distractor":"62469939","target":"absent","response":"absent","rt":"7122.4000000954","correct":true,"confidence":4},{"trial_n":38,"span":8,"encoder":"17101652","distractor":"17101653","target":"present","response":"present","rt":"4381.5","correct":true,"confidence":5},{"trial_n":39,"span":9,"encoder":"241494626","distractor":"241494726","target":"absent","response":"absent","rt":"4136.2000000477","correct":true,"confidence":2},{"trial_n":40,"span":9,"encoder":"468497035","distractor":"468496035","target":"present","response":"present","rt":"4552.7999999523","correct":true,"confidence":3},{"trial_n":41,"span":10,"encoder":"4881652076","distractor":"4883652076","target":"present","response":"present","rt":"4250.1000001431","correct":true,"confidence":3},{"trial_n":42,"span":10,"encoder":"1303766760","distractor":"1303766720","target":"present","response":"present","rt":"4777.2000000477","correct":true,"confidence":3},{"trial_n":43,"span":11,"encoder":"07963098368","distractor":"07963048368","target":"present","response":"present","rt":"4313.7999999523","correct":true,"confidence":3},{"trial_n":44,"span":11,"encoder":"28334661787","distractor":"28364661787","target":"present","response":"absent","rt":"6335.6000001431","correct":false,"confidence":1},{"trial_n":45,"span":10,"encoder":"9532920041","distractor":"9537920041","target":"absent","response":"absent","rt":"4811.1000001431","correct":true,"confidence":2},{"trial_n":46,"span":10,"encoder":"8932760724","distractor":"8938760724","target":"absent","response":"absent","rt":"3191.9000000954","correct":true,"confidence":2},{"trial_n":47,"span":11,"encoder":"67567410503","distractor":"67507410503","target":"present","response":"present","rt":"4732.7999999523","correct":true,"confidence":3},{"trial_n":48,"span":11,"encoder":"59508335852","distractor":"59808335852","target":"present","response":"present","rt":"4325.4000000954","correct":true,"confidence":3},{"trial_n":49,"span":12,"encoder":"725031945351","distractor":"775031945351","target":"absent","response":"present","rt":"5478.2999999523","correct":false,"confidence":2},{"trial_n":50,"span":11,"encoder":"74168280871","distractor":"04168280871","target":"absent","response":"present","rt":"5308.7000000477","correct":false,"confidence":2},{"trial_n":51,"span":10,"encoder":"3694925988","distractor":"3694922988","target":"present","response":"present","rt":"6398.0999999046","correct":true,"confidence":3},{"trial_n":52,"span":10,"encoder":"1789409335","distractor":"1789419335","target":"present","response":"present","rt":"5430.3999998569","correct":true,"confidence":3},{"trial_n":53,"span":11,"encoder":"93831946808","distractor":"93831916808","target":"absent","response":"absent","rt":"6805.5","correct":true,"confidence":2},{"trial_n":54,"span":11,"encoder":"06128792469","distractor":"06128692469","target":"absent","response":"present","rt":"7552.4000000954","correct":false,"confidence":3},{"trial_n":55,"span":10,"encoder":"1436000953","distractor":"1406000953","target":"absent","response":"present","rt":"5664.8999998569","correct":false,"confidence":4},{"trial_n":56,"span":9,"encoder":"883691065","distractor":"883699065","target":"absent","response":"present","rt":"4507.1999998093","correct":false,"confidence":4},{"trial_n":57,"span":8,"encoder":"55069916","distractor":"52069916","target":"present","response":"present","rt":"2939.5","correct":true,"confidence":4},{"trial_n":58,"span":8,"encoder":"46635305","distractor":"46630305","target":"present","response":"present","rt":"3070.5999999046","correct":true,"confidence":4},{"trial_n":59,"span":9,"encoder":"819898119","distractor":"819892119","target":"present","response":"present","rt":"3204.8000001907","correct":true,"confidence":5},{"trial_n":60,"span":9,"encoder":"417803258","distractor":"417803288","target":"present","response":"absent","rt":"3951","correct":false,"confidence":3},{"trial_n":61,"span":8,"encoder":"03710055","distractor":"03910055","target":"absent","response":"absent","rt":"3282","correct":true,"confidence":4},{"trial_n":62,"span":8,"encoder":"97114443","distractor":"97114493","target":"absent","response":"absent","rt":"4359.0999999046","correct":true,"confidence":5},{"trial_n":63,"span":9,"encoder":"164371136","distractor":"164371436","target":"present","response":"present","rt":"4848.6999998093","correct":true,"confidence":3},{"trial_n":64,"span":9,"encoder":"887286490","distractor":"887206490","target":"present","response":"present","rt":"5111.8999998569","correct":true,"confidence":3},{"trial_n":65,"span":10,"encoder":"3255907366","distractor":"3255907396","target":"absent","response":"absent","rt":"5480.5999999046","correct":true,"confidence":3},{"trial_n":66,"span":10,"encoder":"1417396781","distractor":"1417396721","target":"present","response":"present","rt":"3514.5999999046","correct":true,"confidence":4},{"trial_n":67,"span":11,"encoder":"24889834558","distractor":"24889434558","target":"absent","response":"present","rt":"3466.7999999523","correct":false,"confidence":3},{"trial_n":68,"span":10,"encoder":"0022145338","distractor":"0022105338","target":"absent","response":"present","rt":"9844.2000000477","correct":false,"confidence":3},{"trial_n":69,"span":9,"encoder":"811952074","distractor":"811952070","target":"present","response":"present","rt":"4305.0999999046","correct":true,"confidence":3},{"trial_n":70,"span":9,"encoder":"630894580","distractor":"630694580","target":"present","response":"absent","rt":"4650.0999999046","correct":false,"confidence":4},{"trial_n":71,"span":8,"encoder":"12999693","distractor":"12899693","target":"present","response":"present","rt":"9101.2999999523","correct":true,"confidence":-1},{"trial_n":72,"span":8,"encoder":"69393253","distractor":"61393253","target":"present","response":"present","rt":"8825.2999999523","correct":true,"confidence":-1},{"trial_n":73,"span":9,"encoder":"981173868","distractor":"981173878","target":"absent","response":"absent","rt":"11380.799999952","correct":true,"confidence":-1},{"trial_n":74,"span":9,"encoder":"182291588","distractor":"182791588","target":"absent","response":"absent","rt":"3477.7999999523","correct":true,"confidence":-1},{"trial_n":75,"span":10,"encoder":"4951236049","distractor":"6951236049","target":"present","response":"present","rt":"3893.0999999046","correct":true,"confidence":-1},{"trial_n":76,"span":10,"encoder":"0977853206","distractor":"0977858206","target":"present","response":"present","rt":"7385","correct":true,"confidence":-1},{"trial_n":77,"span":11,"encoder":"86290638565","distractor":"85290638565","target":"present","response":"present","rt":"5315.7000000477","correct":true,"confidence":-1},{"trial_n":78,"span":11,"encoder":"85958977930","distractor":"85958977920","target":"present","response":"present","rt":"12166.599999905","correct":true,"confidence":-1},{"trial_n":79,"span":12,"encoder":"490348761437","distractor":"490448761437","target":"present","response":"present","rt":"4856.2000000477","correct":true,"confidence":-1},{"trial_n":80,"span":12,"encoder":"948813164389","distractor":"948813164189","target":"absent","response":"present","rt":"7359.5","correct":false,"confidence":-1},{"trial_n":81,"span":11,"encoder":"30146797373","distractor":"10146797373","target":"absent","response":"present","rt":"2645.0999999046","correct":false,"confidence":-1},{"trial_n":82,"span":10,"encoder":"1010801976","distractor":"1010801176","target":"absent","response":"present","rt":"4905.0999999046","correct":false,"confidence":-1},{"trial_n":83,"span":9,"encoder":"751500380","distractor":"751500386","target":"absent","response":"absent","rt":"5598.9000000954","correct":true,"confidence":-1},{"trial_n":84,"span":9,"encoder":"362990687","distractor":"362990287","target":"absent","response":"absent","rt":"5144.0999999046","correct":true,"confidence":-1},{"trial_n":85,"span":10,"encoder":"2474595586","distractor":"2474595589","target":"absent","response":"absent","rt":"6451.5","correct":true,"confidence":-1},{"trial_n":86,"span":10,"encoder":"5763473630","distractor":"5763470630","target":"present","response":"present","rt":"10457","correct":true,"confidence":-1},{"trial_n":87,"span":11,"encoder":"47753400778","distractor":"47753400774","target":"absent","response":"absent","rt":"6826.7000000477","correct":true,"confidence":-1},{"trial_n":88,"span":11,"encoder":"82007898851","distractor":"82007898831","target":"present","response":"present","rt":"2477","correct":true,"confidence":-1},{"trial_n":89,"span":12,"encoder":"041448647045","distractor":"041448647047","target":"absent","response":"absent","rt":"6954.4000000954","correct":true,"confidence":-1},{"trial_n":90,"span":12,"encoder":"948808311907","distractor":"948808911907","target":"present","response":"absent","rt":"7634.2000000477","correct":false,"confidence":-1},{"trial_n":91,"span":11,"encoder":"15225415682","distractor":"15125415682","target":"present","response":"present","rt":"126510.79999995","correct":true,"confidence":3},{"trial_n":92,"span":11,"encoder":"62370797682","distractor":"62370797642","target":"absent","response":"absent","rt":"5629.8999998569","correct":true,"confidence":4},{"trial_n":93,"span":12,"encoder":"949260950456","distractor":"949266950456","target":"absent","response":"absent","rt":"19160.899999857","correct":true,"confidence":3},{"trial_n":94,"span":12,"encoder":"869468370897","distractor":"869468370807","target":"absent","response":"absent","rt":"7217.7999999523","correct":true,"confidence":4},{"trial_n":95,"span":13,"encoder":"1436146989340","distractor":"1436846989340","target":"absent","response":"present","rt":"6550.5999999046","correct":false,"confidence":4},{"trial_n":96,"span":12,"encoder":"593302469658","distractor":"599302469658","target":"absent","response":"present","rt":"2564.7999999523","correct":false,"confidence":4},{"trial_n":97,"span":11,"encoder":"29466390125","distractor":"29496390125","target":"absent","response":"absent","rt":"9414.8999998569","correct":true,"confidence":3},{"trial_n":98,"span":11,"encoder":"55811864005","distractor":"55811865005","target":"absent","response":"absent","rt":"8604.5","correct":true,"confidence":4},{"trial_n":99,"span":12,"encoder":"539618114297","distractor":"539618194297","target":"absent","response":"absent","rt":"6065.7000000477","correct":true,"confidence":3},{"trial_n":100,"span":12,"encoder":"296485273031","distractor":"296495273031","target":"present","response":"absent","rt":"4514.5","correct":false,"confidence":2},{"trial_n":101,"span":11,"encoder":"23987574468","distractor":"23987575468","target":"absent","response":"absent","rt":"5376.6000001431","correct":true,"confidence":4},{"trial_n":102,"span":11,"encoder":"02567691163","distractor":"02567641163","target":"present","response":"present","rt":"5567.6000001431","correct":true,"confidence":4},{"trial_n":103,"span":12,"encoder":"141254629928","distractor":"141954629928","target":"present","response":"absent","rt":"4211.9000000954","correct":false,"confidence":4},{"trial_n":104,"span":11,"encoder":"90219240440","distractor":"97219240440","target":"absent","response":"absent","rt":"4350.2000000477","correct":true,"confidence":4},{"trial_n":105,"span":11,"encoder":"50103841615","distractor":"50123841615","target":"present","response":"present","rt":"3846.7999999523","correct":true,"confidence":3},{"trial_n":106,"span":12,"encoder":"090454112906","distractor":"090454117906","target":"present","response":"absent","rt":"6115.7999999523","correct":false,"confidence":1},{"trial_n":107,"span":11,"encoder":"55488598653","distractor":"55488598623","target":"absent","response":"absent","rt":"9830.0999999046","correct":true,"confidence":4},{"trial_n":108,"span":11,"encoder":"68294324976","distractor":"68294324936","target":"present","response":"present","rt":"5186","correct":true,"confidence":4},{"trial_n":109,"span":12,"encoder":"411587330498","distractor":"411527330498","target":"absent","response":"present","rt":"5113.7999999523","correct":false,"confidence":3},{"trial_n":110,"span":11,"encoder":"69415094985","distractor":"69415094981","target":"present","response":"present","rt":"6220.0999999046","correct":true,"confidence":4},{"trial_n":111,"span":11,"encoder":"87156635707","distractor":"87156635747","target":"present","response":"present","rt":"6297.3000001907","correct":true,"confidence":4},{"trial_n":112,"span":12,"encoder":"149898467927","distractor":"149848467927","target":"present","response":"absent","rt":"11855.200000048","correct":false,"confidence":2},{"trial_n":113,"span":11,"encoder":"85982304632","distractor":"85982309632","target":"absent","response":"absent","rt":"5872.5","correct":true,"confidence":4},{"trial_n":114,"span":11,"encoder":"92532319129","distractor":"92538319129","target":"absent","response":"absent","rt":"5108.0999999046","correct":true,"confidence":3},{"trial_n":115,"span":12,"encoder":"790413579108","distractor":"790413579128","target":"present","response":"present","rt":"7207.7999999523","correct":true,"confidence":4},{"trial_n":116,"span":12,"encoder":"827694487555","distractor":"827694487559","target":"present","response":"present","rt":"3227.7000000477","correct":true,"confidence":5},{"trial_n":117,"span":13,"encoder":"1184289183047","distractor":"4184289183047","target":"present","response":"present","rt":"5961.2000000477","correct":true,"confidence":5},{"trial_n":118,"span":13,"encoder":"4985175642731","distractor":"4985175649731","target":"present","response":"absent","rt":"8065.5","correct":false,"confidence":2},{"trial_n":119,"span":12,"encoder":"657317809628","distractor":"657318809628","target":"present","response":"present","rt":"5472","correct":true,"confidence":3},{"trial_n":120,"span":12,"encoder":"617972389861","distractor":"617972389841","target":"present","response":"present","rt":"6723.4000000954","correct":true,"confidence":5},{"trial_n":121,"span":13,"encoder":"1622617608287","distractor":"1682617608287","target":"absent","response":"absent","rt":"5760.2000000477","correct":true,"confidence":5},{"trial_n":122,"span":13,"encoder":"1248483284174","distractor":"1248483384174","target":"present","response":"present","rt":"8130.7999999523","correct":true,"confidence":3},{"trial_n":123,"span":14,"encoder":"30225097537112","distractor":"30225097547112","target":"absent","response":"present","rt":"7462.2999999523","correct":false,"confidence":3},{"trial_n":124,"span":13,"encoder":"4277346354383","distractor":"4277546354383","target":"present","response":"absent","rt":"8038.5","correct":false,"confidence":2},{"trial_n":125,"span":12,"encoder":"262323501556","distractor":"662323501556","target":"absent","response":"present","rt":"8401","correct":false,"confidence":3},{"trial_n":126,"span":11,"encoder":"50332563510","distractor":"50352563510","target":"absent","response":"absent","rt":"7831.2000000477","correct":true,"confidence":4},{"trial_n":127,"span":11,"encoder":"14380610003","distractor":"14380610303","target":"present","response":"present","rt":"3576.7000000477","correct":true,"confidence":5},{"trial_n":128,"span":12,"encoder":"048979805787","distractor":"048979805687","target":"present","response":"present","rt":"10136","correct":true,"confidence":4},{"trial_n":129,"span":12,"encoder":"246599004335","distractor":"246591004335","target":"present","response":"present","rt":"9613.5999999046","correct":true,"confidence":3},{"trial_n":130,"span":13,"encoder":"6684411253337","distractor":"6681411253337","target":"absent","response":"absent","rt":"18666.400000095","correct":true,"confidence":3},{"trial_n":131,"span":13,"encoder":"0301102727773","distractor":"0301102627773","target":"present","response":"present","rt":"13675.099999905","correct":true,"confidence":3},{"trial_n":132,"span":14,"encoder":"86129099113270","distractor":"86129299113270","target":"absent","response":"absent","rt":"12135","correct":true,"confidence":2},{"trial_n":133,"span":14,"encoder":"26591049372813","distractor":"26591049379813","target":"present","response":"present","rt":"14050.299999952","correct":true,"confidence":3},{"trial_n":134,"span":15,"encoder":"815099584764205","distractor":"815098584764205","target":"present","response":"absent","rt":"7032.8999998569","correct":false,"confidence":2},{"trial_n":135,"span":14,"encoder":"63691746712595","distractor":"63641746712595","target":"absent","response":"absent","rt":"9876.7999999523","correct":true,"confidence":3},{"trial_n":136,"span":14,"encoder":"48991589743985","distractor":"48991589743585","target":"present","response":"absent","rt":"9547.3000001907","correct":false,"confidence":3},{"trial_n":137,"span":13,"encoder":"9203264939153","distractor":"9203264989153","target":"absent","response":"absent","rt":"8323.5","correct":true,"confidence":3},{"trial_n":138,"span":13,"encoder":"5344546484504","distractor":"5344546484574","target":"absent","response":"absent","rt":"8767.2999999523","correct":true,"confidence":4},{"trial_n":139,"span":14,"encoder":"50634564392991","distractor":"50634664392991","target":"present","response":"present","rt":"7772.2999999523","correct":true,"confidence":2},{"trial_n":140,"span":14,"encoder":"13776869760524","distractor":"13773869760524","target":"absent","response":"present","rt":"7855.7000000477","correct":false,"confidence":2}]