[{"trial_n":1,"span":8,"encoder":"21385704","distractor":"21385700","target":"present","response":"present","rt":"4778.5","correct":true,"confidence":-1},{"trial_n":2,"span":8,"encoder":"43347178","distractor":"43347378","target":"present","response":"present","rt":"3979.1000000015","correct":true,"confidence":-1},{"trial_n":3,"span":10,"encoder":"8011823261","distractor":"2011823261","target":"absent","response":"present","rt":"4513.5","correct":false,"confidence":-1},{"trial_n":4,"span":8,"encoder":"80841664","distractor":"80841964","target":"absent","response":"present","rt":"6683.6000000015","correct":false,"confidence":-1},{"trial_n":5,"span":6,"encoder":"853845","distractor":"853865","target":"present","response":"present","rt":"3042.700000003","correct":true,"confidence":-1},{"trial_n":6,"span":6,"encoder":"840451","distractor":"840455","target":"present","response":"present","rt":"2747.799999997","correct":true,"confidence":-1},{"trial_n":7,"span":8,"encoder":"34812099","distractor":"34812019","target":"absent","response":"absent","rt":"5230.6999999955","correct":true,"confidence":-1},{"trial_n":8,"span":8,"encoder":"91761587","distractor":"91781587","target":"present","response":"absent","rt":"4316.1000000015","correct":false,"confidence":-1},{"trial_n":9,"span":6,"encoder":"656014","distractor":"656714","target":"absent","response":"absent","rt":"2267.3999999985","correct":true,"confidence":-1},{"trial_n":10,"span":6,"encoder":"835814","distractor":"835114","target":"present","response":"present","rt":"2844.900000006","correct":true,"confidence":-1},{"trial_n":11,"span":8,"encoder":"77816570","distractor":"77816576","target":"present","response":"present","rt":"2797.099999994","correct":true,"confidence":-1},{"trial_n":12,"span":8,"encoder":"43743874","distractor":"03743874","target":"present","response":"present","rt":"3316.5","correct":true,"confidence":-1},{"trial_n":13,"span":9,"encoder":"376038812","distractor":"376538812","target":"absent","response":"present","rt":"2137.8999999985","correct":false,"confidence":-1},{"trial_n":14,"span":8,"encoder":"55175513","distractor":"45175513","target":"absent","response":"absent","rt":"2794.700000003","correct":true,"confidence":-1},{"trial_n":15,"span":8,"encoder":"52380484","distractor":"52080484","target":"present","response":"present","rt":"3451.299999997","correct":true,"confidence":-1},{"trial_n":16,"span":9,"encoder":"407240472","distractor":"007240472","target":"absent","response":"absent","rt":"2407.6999999955","correct":true,"confidence":-1},{"trial_n":17,"span":9,"encoder":"643904913","distractor":"643909913","target":"absent","response":"absent","rt":"3423.1999999955","correct":true,"confidence":-1},{"trial_n":18,"span":10,"encoder":"3059814600","distractor":"3051814600","target":"present","response":"absent","rt":"3103.8000000045","correct":false,"confidence":-1},{"trial_n":19,"span":9,"encoder":"858805975","distractor":"858805995","target":"present","response":"present","rt":"3646.6000000015","correct":true,"confidence":-1},{"trial_n":20,"span":9,"encoder":"758777559","distractor":"758777509","target":"absent","response":"absent","rt":"4981.1000000015","correct":true,"confidence":-1},{"trial_n":21,"span":10,"encoder":"8210093458","distractor":"8210090458","target":"absent","response":"present","rt":"5096.700000003","correct":false,"confidence":3},{"trial_n":22,"span":9,"encoder":"522731576","distractor":"522730576","target":"absent","response":"absent","rt":"3659.799999997","correct":true,"confidence":3},{"trial_n":23,"span":9,"encoder":"802525642","distractor":"802565642","target":"present","response":"present","rt":"4212.700000003","correct":true,"confidence":3},{"trial_n":24,"span":10,"encoder":"9252664544","distractor":"9252664244","target":"present","response":"present","rt":"4660","correct":true,"confidence":4},{"trial_n":25,"span":10,"encoder":"7132456836","distractor":"7132156836","target":"absent","response":"present","rt":"6755.6000000015","correct":false,"confidence":2},{"trial_n":26,"span":9,"encoder":"890711797","distractor":"890713797","target":"absent","response":"absent","rt":"4102.700000003","correct":true,"confidence":3},{"trial_n":27,"span":9,"encoder":"145797822","distractor":"145797892","target":"present","response":"present","rt":"5627.8999999985","correct":true,"confidence":3},{"trial_n":28,"span":10,"encoder":"2321090862","distractor":"2321094862","target":"absent","response":"present","rt":"4919.299999997","correct":false,"confidence":3},{"trial_n":29,"span":9,"encoder":"946401313","distractor":"746401313","target":"present","response":"absent","rt":"2528.3999999985","correct":false,"confidence":1},{"trial_n":30,"span":8,"encoder":"75055414","distractor":"75055454","target":"present","response":"present","rt":"1863.5","correct":true,"confidence":3},{"trial_n":31,"span":8,"encoder":"29518026","distractor":"29508026","target":"present","response":"present","rt":"4330.8000000045","correct":true,"confidence":3},{"trial_n":32,"span":9,"encoder":"239496351","distractor":"239496359","target":"absent","response":"absent","rt":"1881.6000000015","correct":true,"confidence":5},{"trial_n":33,"span":9,"encoder":"628573387","distractor":"628573187","target":"absent","response":"absent","rt":"3248.200000003","correct":true,"confidence":4},{"trial_n":34,"span":10,"encoder":"8892214594","distractor":"8892214591","target":"present","response":"present","rt":"2411.799999997","correct":true,"confidence":4},{"trial_n":35,"span":10,"encoder":"3589102608","distractor":"3589102601","target":"absent","response":"present","rt":"4774.5","correct":false,"confidence":3},{"trial_n":36,"span":9,"encoder":"511928682","distractor":"511928688","target":"absent","response":"present","rt":"3772.8999999985","correct":false,"confidence":3},{"trial_n":37,"span":8,"encoder":"59209312","distractor":"59299312","target":"absent","response":"present","rt":"2027.3999999985","correct":false,"confidence":3},{"trial_n":38,"span":7,"encoder":"8911981","distractor":"8911181","target":"absent","response":"absent","rt":"3728","correct":true,"confidence":4},{"trial_n":39,"span":7,"encoder":"3598254","distractor":"3698254","target":"absent","response":"absent","rt":"2600","correct":true,"confidence":4},{"trial_n":40,"span":8,"encoder":"08516767","distractor":"68516767","target":"present","response":"present","rt":"3931.099999994","correct":true,"confidence":4},{"trial_n":41,"span":8,"encoder":"26825929","distractor":"26825629","target":"present","response":"present","rt":"2921.5","correct":true,"confidence":5},{"trial_n":42,"span":9,"encoder":"597214942","distractor":"597214912","target":"absent","response":"absent","rt":"4608.5","correct":true,"confidence":3},{"trial_n":43,"span":9,"encoder":"510197524","distractor":"510198524","target":"present","response":"absent","rt":"4615.8000000045","correct":false,"confidence":3},{"trial_n":44,"span":8,"encoder":"01495771","distractor":"01495741","target":"absent","response":"absent","rt":"5828.3999999985","correct":true,"confidence":3},{"trial_n":45,"span":8,"encoder":"38321681","distractor":"38021681","target":"absent","response":"present","rt":"4040.6000000015","correct":false,"confidence":3},{"trial_n":46,"span":7,"encoder":"4169581","distractor":"4169531","target":"present","response":"present","rt":"2744.6000000015","correct":true,"confidence":4},{"trial_n":47,"span":7,"encoder":"2206633","distractor":"2246633","target":"absent","response":"present","rt":"3891.3999999985","correct":false,"confidence":4},{"trial_n":48,"span":6,"encoder":"282175","distractor":"262175","target":"present","response":"present","rt":"2661.8999999985","correct":true,"confidence":4},{"trial_n":49,"span":6,"encoder":"741848","distractor":"731848","target":"present","response":"present","rt":"2393.299999997","correct":true,"confidence":5},{"trial_n":50,"span":7,"encoder":"0461893","distractor":"2461893","target":"present","response":"present","rt":"2670.200000003","correct":true,"confidence":5},{"trial_n":51,"span":7,"encoder":"3453475","distractor":"3452475","target":"absent","response":"absent","rt":"2345.599999994","correct":true,"confidence":5},{"trial_n":52,"span":8,"encoder":"79145481","distractor":"79140481","target":"absent","response":"absent","rt":"5510.3999999985","correct":true,"confidence":2},{"trial_n":53,"span":8,"encoder":"44081243","distractor":"44081743","target":"present","response":"present","rt":"4019.3999999985","correct":true,"confidence":3},{"trial_n":54,"span":9,"encoder":"724005215","distractor":"824005215","target":"absent","response":"absent","rt":"5191.700000003","correct":true,"confidence":2},{"trial_n":55,"span":9,"encoder":"163351004","distractor":"167351004","target":"present","response":"present","rt":"4373.099999994","correct":true,"confidence":3},{"trial_n":56,"span":10,"encoder":"5823810430","distractor":"5223810430","target":"present","response":"present","rt":"4860.3999999985","correct":true,"confidence":2},{"trial_n":57,"span":10,"encoder":"1142748032","distractor":"1142748033","target":"present","response":"present","rt":"4189.8000000045","correct":true,"confidence":2},{"trial_n":58,"span":11,"encoder":"06601636390","distractor":"06601636350","target":"absent","response":"absent","rt":"2879.799999997","correct":true,"confidence":4},{"trial_n":59,"span":11,"encoder":"32166034275","distractor":"32166034274","target":"present","response":"present","rt":"2985.1000000015","correct":true,"confidence":2},{"trial_n":60,"span":12,"encoder":"072497873616","distractor":"042497873616","target":"present","response":"present","rt":"5785.5","correct":true,"confidence":3},{"trial_n":61,"span":12,"encoder":"144622306711","distractor":"144682306711","target":"present","response":"absent","rt":"2186.799999997","correct":false,"confidence":5},{"trial_n":62,"span":11,"encoder":"56809731748","distractor":"56809831748","target":"absent","response":"present","rt":"6744.5","correct":false,"confidence":2},{"trial_n":63,"span":10,"encoder":"5165745936","distractor":"5165745956","target":"absent","response":"absent","rt":"3610.5","correct":true,"confidence":3},{"trial_n":64,"span":10,"encoder":"9386432576","distractor":"9386132576","target":"present","response":"present","rt":"3213.1999999955","correct":true,"confidence":3},{"trial_n":65,"span":11,"encoder":"03259640393","distractor":"03159640393","target":"present","response":"present","rt":"7337.6999999955","correct":true,"confidence":3},{"trial_n":66,"span":11,"encoder":"96899387877","distractor":"96899387277","target":"present","response":"present","rt":"3407.5","correct":true,"confidence":3},{"trial_n":67,"span":12,"encoder":"673519848688","distractor":"613519848688","target":"present","response":"absent","rt":"3490.299999997","correct":false,"confidence":3},{"trial_n":68,"span":11,"encoder":"17283401291","distractor":"19283401291","target":"absent","response":"present","rt":"3303.5","correct":false,"confidence":3},{"trial_n":69,"span":10,"encoder":"9046704891","distractor":"9041704891","target":"absent","response":"present","rt":"2657","correct":false,"confidence":3},{"trial_n":70,"span":9,"encoder":"732348911","distractor":"732348511","target":"absent","response":"absent","rt":"3710.6000000015","correct":true,"confidence":4},{"trial_n":71,"span":8,"encoder":"02834248","distractor":"02834244","target":"present","response":"present","rt":"7216.1000000015","correct":true,"confidence":-1},{"trial_n":72,"span":8,"encoder":"83075641","distractor":"83075611","target":"present","response":"present","rt":"6978","correct":true,"confidence":-1},{"trial_n":73,"span":9,"encoder":"930686936","distractor":"930616936","target":"absent","response":"absent","rt":"7090.1000000015","correct":true,"confidence":-1},{"trial_n":74,"span":9,"encoder":"208384735","distractor":"208383735","target":"absent","response":"absent","rt":"1785","correct":true,"confidence":-1},{"trial_n":75,"span":10,"encoder":"1273977191","distractor":"1273977181","target":"present","response":"present","rt":"2411","correct":true,"confidence":-1},{"trial_n":76,"span":10,"encoder":"1721683781","distractor":"1721684781","target":"present","response":"present","rt":"7775.6000000015","correct":true,"confidence":-1},{"trial_n":77,"span":11,"encoder":"27834129239","distractor":"67834129239","target":"present","response":"absent","rt":"8833.8999999985","correct":false,"confidence":-1},{"trial_n":78,"span":10,"encoder":"9881322622","distractor":"9881722622","target":"absent","response":"present","rt":"6598.8999999985","correct":false,"confidence":-1},{"trial_n":79,"span":9,"encoder":"441744310","distractor":"448744310","target":"absent","response":"present","rt":"6738.299999997","correct":false,"confidence":-1},{"trial_n":80,"span":8,"encoder":"58406306","distractor":"58406396","target":"absent","response":"absent","rt":"6585.200000003","correct":true,"confidence":-1},{"trial_n":81,"span":8,"encoder":"46341020","distractor":"46741020","target":"present","response":"present","rt":"5425.400000006","correct":true,"confidence":-1},{"trial_n":82,"span":9,"encoder":"236969995","distractor":"238969995","target":"present","response":"absent","rt":"1973.1999999955","correct":false,"confidence":-1},{"trial_n":83,"span":8,"encoder":"08981179","distractor":"08981119","target":"absent","response":"absent","rt":"568.39999999851","correct":true,"confidence":-1},{"trial_n":84,"span":8,"encoder":"75701994","distractor":"75711994","target":"absent","response":"present","rt":"521.89999999851","correct":false,"confidence":-1},{"trial_n":85,"span":7,"encoder":"8706577","distractor":"8506577","target":"absent","response":"present","rt":"460.5","correct":false,"confidence":-1},{"trial_n":86,"span":6,"encoder":"505854","distractor":"505851","target":"absent","response":"absent","rt":"3761.3999999985","correct":true,"confidence":-1},{"trial_n":87,"span":6,"encoder":"576093","distractor":"556093","target":"absent","response":"absent","rt":"2336.6999999955","correct":true,"confidence":-1},{"trial_n":88,"span":7,"encoder":"4577834","distractor":"4577234","target":"present","response":"present","rt":"2593.1000000015","correct":true,"confidence":-1},{"trial_n":89,"span":7,"encoder":"4196209","distractor":"4196203","target":"present","response":"absent","rt":"5115","correct":false,"confidence":-1},{"trial_n":90,"span":6,"encoder":"209853","distractor":"209863","target":"present","response":"present","rt":"1213.3999999985","correct":true,"confidence":-1},{"trial_n":91,"span":6,"encoder":"650438","distractor":"650238","target":"present","response":"present","rt":"3417.799999997","correct":true,"confidence":4},{"trial_n":92,"span":7,"encoder":"9228821","distractor":"9228321","target":"absent","response":"absent","rt":"3730.400000006","correct":true,"confidence":4},{"trial_n":93,"span":7,"encoder":"7087973","distractor":"7084973","target":"present","response":"present","rt":"5385.6000000015","correct":true,"confidence":3},{"trial_n":94,"span":8,"encoder":"97466323","distractor":"97496323","target":"absent","response":"absent","rt":"5466.200000003","correct":true,"confidence":2},{"trial_n":95,"span":8,"encoder":"84841760","distractor":"84841765","target":"absent","response":"absent","rt":"2979.400000006","correct":true,"confidence":3},{"trial_n":96,"span":9,"encoder":"318384496","distractor":"318384446","target":"present","response":"present","rt":"5723.799999997","correct":true,"confidence":3},{"trial_n":97,"span":9,"encoder":"969664070","distractor":"969664079","target":"present","response":"present","rt":"4361.6999999955","correct":true,"confidence":4},{"trial_n":98,"span":10,"encoder":"0923466611","distractor":"2923466611","target":"absent","response":"absent","rt":"4890.299999997","correct":true,"confidence":2},{"trial_n":99,"span":10,"encoder":"6130425394","distractor":"1130425394","target":"absent","response":"present","rt":"4720.1999999955","correct":false,"confidence":2},{"trial_n":100,"span":9,"encoder":"569976710","distractor":"569966710","target":"present","response":"present","rt":"6255","correct":true,"confidence":3},{"trial_n":101,"span":9,"encoder":"694101610","distractor":"697101610","target":"present","response":"present","rt":"6462.200000003","correct":true,"confidence":3},{"trial_n":102,"span":10,"encoder":"8631712178","distractor":"8831712178","target":"present","response":"present","rt":"4259.5","correct":true,"confidence":3},{"trial_n":103,"span":10,"encoder":"9395652000","distractor":"9395692000","target":"absent","response":"absent","rt":"9586.1000000015","correct":true,"confidence":3},{"trial_n":104,"span":11,"encoder":"42900446054","distractor":"42600446054","target":"absent","response":"absent","rt":"3854.5","correct":true,"confidence":3},{"trial_n":105,"span":11,"encoder":"29763974245","distractor":"19763974245","target":"present","response":"present","rt":"17176.900000006","correct":true,"confidence":5},{"trial_n":106,"span":12,"encoder":"722365590489","distractor":"723365590489","target":"present","response":"absent","rt":"4748.6999999881","correct":false,"confidence":1},{"trial_n":107,"span":11,"encoder":"09377883733","distractor":"06377883733","target":"present","response":"present","rt":"33110","correct":true,"confidence":5},{"trial_n":108,"span":11,"encoder":"27882549767","distractor":"27832549767","target":"present","response":"present","rt":"6102.799999997","correct":true,"confidence":3},{"trial_n":109,"span":12,"encoder":"425154785748","distractor":"425154745748","target":"present","response":"present","rt":"5989.5","correct":true,"confidence":2},{"trial_n":110,"span":12,"encoder":"558503261419","distractor":"558593261419","target":"present","response":"present","rt":"3890.5","correct":true,"confidence":3},{"trial_n":111,"span":13,"encoder":"6677639359229","distractor":"6677639659229","target":"present","response":"present","rt":"6413.6000000089","correct":true,"confidence":2},{"trial_n":112,"span":13,"encoder":"4429346140150","distractor":"4429346140140","target":"absent","response":"present","rt":"7090.599999994","correct":false,"confidence":3},{"trial_n":113,"span":12,"encoder":"439301064560","distractor":"439301094560","target":"absent","response":"present","rt":"13595.200000003","correct":false,"confidence":2},{"trial_n":114,"span":11,"encoder":"32083811986","distractor":"32083811989","target":"absent","response":"absent","rt":"1625.900000006","correct":true,"confidence":5},{"trial_n":115,"span":11,"encoder":"32127718208","distractor":"32227718208","target":"present","response":"present","rt":"6472.700000003","correct":true,"confidence":3},{"trial_n":116,"span":12,"encoder":"227188539537","distractor":"227188539337","target":"absent","response":"absent","rt":"4681.1000000089","correct":true,"confidence":2},{"trial_n":117,"span":12,"encoder":"511264971902","distractor":"511264971802","target":"absent","response":"absent","rt":"2552.1000000089","correct":true,"confidence":5},{"trial_n":118,"span":13,"encoder":"8491715900145","distractor":"8491715900845","target":"present","response":"present","rt":"7797.700000003","correct":true,"confidence":3},{"trial_n":119,"span":13,"encoder":"8321580253202","distractor":"8324580253202","target":"absent","response":"absent","rt":"8015.900000006","correct":true,"confidence":1},{"trial_n":120,"span":14,"encoder":"39192730300539","distractor":"39192730300739","target":"absent","response":"absent","rt":"2086.299999997","correct":true,"confidence":5},{"trial_n":121,"span":14,"encoder":"32365696432289","distractor":"32365696432489","target":"present","response":"present","rt":"3795.1000000089","correct":true,"confidence":5},{"trial_n":122,"span":15,"encoder":"721241082703668","distractor":"731241082703668","target":"present","response":"present","rt":"11107.5","correct":true,"confidence":1},{"trial_n":123,"span":15,"encoder":"630498263146697","distractor":"630498263146687","target":"absent","response":"absent","rt":"2216.799999997","correct":true,"confidence":5},{"trial_n":124,"span":16,"encoder":"0813675117509616","distractor":"0817675117509616","target":"absent","response":"absent","rt":"4252.299999997","correct":true,"confidence":3},{"trial_n":125,"span":16,"encoder":"5042808827590321","distractor":"5042808827590121","target":"present","response":"absent","rt":"6304.200000003","correct":false,"confidence":1},{"trial_n":126,"span":15,"encoder":"516750425799888","distractor":"516750429799888","target":"absent","response":"absent","rt":"19353","correct":true,"confidence":1},{"trial_n":127,"span":15,"encoder":"203346971768573","distractor":"263346971768573","target":"absent","response":"absent","rt":"10342","correct":true,"confidence":1},{"trial_n":128,"span":16,"encoder":"1372229093216384","distractor":"1382229093216384","target":"present","response":"present","rt":"6083.3999999911","correct":true,"confidence":1},{"trial_n":129,"span":16,"encoder":"4321990471910186","distractor":"4321990471910986","target":"present","response":"absent","rt":"8531","correct":false,"confidence":1},{"trial_n":130,"span":15,"encoder":"757195708950567","distractor":"757195708950562","target":"present","response":"present","rt":"3654.700000003","correct":true,"confidence":5},{"trial_n":131,"span":15,"encoder":"214111875770270","distractor":"214111875760270","target":"absent","response":"absent","rt":"5278.099999994","correct":true,"confidence":3},{"trial_n":132,"span":16,"encoder":"4077813238369888","distractor":"4077813238369858","target":"present","response":"present","rt":"2215.299999997","correct":true,"confidence":5},{"trial_n":133,"span":16,"encoder":"2786466872615875","distractor":"2786466872615475","target":"present","response":"present","rt":"6450.3999999911","correct":true,"confidence":2},{"trial_n":134,"span":17,"encoder":"39373597753015056","distractor":"39373587753015056","target":"absent","response":"absent","rt":"8269.6999999881","correct":true,"confidence":1},{"trial_n":135,"span":17,"encoder":"19075728552250790","distractor":"19075728552230790","target":"absent","response":"present","rt":"12274.100000009","correct":false,"confidence":1},{"trial_n":136,"span":16,"encoder":"6943857275655920","distractor":"6943857285655920","target":"absent","response":"absent","rt":"7220","correct":true,"confidence":1},{"trial_n":137,"span":16,"encoder":"2699151190148644","distractor":"2699171190148644","target":"present","response":"absent","rt":"6070.3000000119","correct":false,"confidence":1},{"trial_n":138,"span":15,"encoder":"080350367401057","distractor":"070350367401057","target":"present","response":"absent","rt":"8407.6999999881","correct":false,"confidence":1},{"trial_n":139,"span":14,"encoder":"05492440522695","distractor":"05493440522695","target":"absent","response":"present","rt":"5374.200000003","correct":false,"confidence":1},{"trial_n":140,"span":13,"encoder":"0083919885303","distractor":"0083929885303","target":"absent","response":"present","rt":"5895.5","correct":false,"confidence":1}]