[{"trial_n":1,"n_dots":4.25,"target":"right","response":"right","rt":334,"correct":true,"confidence":-1},{"trial_n":2,"n_dots":4.25,"target":"right","response":"right","rt":409,"correct":true,"confidence":-1},{"trial_n":3,"n_dots":3.85,"target":"left","response":"left","rt":235.99999999977,"correct":true,"confidence":-1},{"trial_n":4,"n_dots":3.85,"target":"right","response":"right","rt":288,"correct":true,"confidence":-1},{"trial_n":5,"n_dots":3.45,"target":"right","response":"left","rt":294,"correct":false,"confidence":-1},{"trial_n":6,"n_dots":3.85,"target":"left","response":"left","rt":267.00000000023,"correct":true,"confidence":-1},{"trial_n":7,"n_dots":3.85,"target":"left","response":"right","rt":603,"correct":false,"confidence":-1},{"trial_n":8,"n_dots":4.05,"target":"right","response":"right","rt":249,"correct":true,"confidence":-1},{"trial_n":9,"n_dots":4.05,"target":"right","response":"right","rt":296,"correct":true,"confidence":-1},{"trial_n":10,"n_dots":3.85,"target":"left","response":"left","rt":923,"correct":true,"confidence":-1},{"trial_n":11,"n_dots":3.85,"target":"right","response":"right","rt":903,"correct":true,"confidence":-1},{"trial_n":12,"n_dots":3.65,"target":"right","response":"left","rt":183,"correct":false,"confidence":-1},{"trial_n":13,"n_dots":3.75,"target":"left","response":"left","rt":77,"correct":true,"confidence":-1},{"trial_n":14,"n_dots":3.75,"target":"right","response":"left","rt":149,"correct":false,"confidence":-1},{"trial_n":15,"n_dots":3.85,"target":"left","response":"left","rt":1275,"correct":true,"confidence":-1},{"trial_n":16,"n_dots":3.85,"target":"right","response":"right","rt":273,"correct":true,"confidence":-1},{"trial_n":17,"n_dots":3.75,"target":"left","response":"left","rt":-9,"correct":true,"confidence":-1},{"trial_n":18,"n_dots":3.75,"target":"left","response":"left","rt":224,"correct":true,"confidence":-1},{"trial_n":19,"n_dots":3.65,"target":"right","response":"right","rt":703,"correct":true,"confidence":-1},{"trial_n":20,"n_dots":3.65,"target":"left","response":"left","rt":189.00000000023,"correct":true,"confidence":-1},{"trial_n":21,"n_dots":3.55,"target":"right","response":"right","rt":265,"correct":true,"confidence":3},{"trial_n":22,"n_dots":3.55,"target":"left","response":"left","rt":374,"correct":true,"confidence":4},{"trial_n":23,"n_dots":3.45,"target":"right","response":"right","rt":242,"correct":true,"confidence":3},{"trial_n":24,"n_dots":3.45,"target":"right","response":"right","rt":774.99999999977,"correct":true,"confidence":2},{"trial_n":25,"n_dots":3.35,"target":"left","response":"left","rt":611.99999999977,"correct":true,"confidence":4},{"trial_n":26,"n_dots":3.35,"target":"left","response":"left","rt":941,"correct":true,"confidence":3},{"trial_n":27,"n_dots":3.25,"target":"right","response":"right","rt":424,"correct":true,"confidence":2},{"trial_n":28,"n_dots":3.25,"target":"right","response":"right","rt":1614,"correct":true,"confidence":2},{"trial_n":29,"n_dots":3.15,"target":"left","response":"left","rt":151,"correct":true,"confidence":3},{"trial_n":30,"n_dots":3.15,"target":"right","response":"right","rt":495,"correct":true,"confidence":3},{"trial_n":31,"n_dots":3.05,"target":"right","response":"left","rt":1409,"correct":false,"confidence":2},{"trial_n":32,"n_dots":3.15,"target":"right","response":"right","rt":453,"correct":true,"confidence":2},{"trial_n":33,"n_dots":3.15,"target":"right","response":"left","rt":750.99999999977,"correct":false,"confidence":2},{"trial_n":34,"n_dots":3.25,"target":"right","response":"right","rt":355,"correct":true,"confidence":2},{"trial_n":35,"n_dots":3.25,"target":"right","response":"left","rt":498,"correct":false,"confidence":3},{"trial_n":36,"n_dots":3.35,"target":"right","response":"right","rt":890,"correct":true,"confidence":3},{"trial_n":37,"n_dots":3.35,"target":"left","response":"left","rt":895,"correct":true,"confidence":3},{"trial_n":38,"n_dots":3.25,"target":"right","response":"right","rt":689.99999999977,"correct":true,"confidence":3},{"trial_n":39,"n_dots":3.25,"target":"right","response":"right","rt":472,"correct":true,"confidence":2},{"trial_n":40,"n_dots":3.15,"target":"right","response":"right","rt":524,"correct":true,"confidence":2},{"trial_n":41,"n_dots":3.15,"target":"left","response":"right","rt":3131.9999999998,"correct":false,"confidence":1},{"trial_n":42,"n_dots":3.25,"target":"left","response":"left","rt":1608.0000000002,"correct":true,"confidence":1},{"trial_n":43,"n_dots":3.25,"target":"right","response":"right","rt":428,"correct":true,"confidence":3},{"trial_n":44,"n_dots":3.15,"target":"right","response":"right","rt":1638.0000000002,"correct":true,"confidence":2},{"trial_n":45,"n_dots":3.15,"target":"left","response":"right","rt":1012,"correct":false,"confidence":3},{"trial_n":46,"n_dots":3.25,"target":"left","response":"left","rt":780,"correct":true,"confidence":3},{"trial_n":47,"n_dots":3.25,"target":"left","response":"left","rt":884,"correct":true,"confidence":3},{"trial_n":48,"n_dots":3.15,"target":"right","response":"right","rt":428,"correct":true,"confidence":3},{"trial_n":49,"n_dots":3.15,"target":"left","response":"left","rt":921,"correct":true,"confidence":3},{"trial_n":50,"n_dots":3.05,"target":"left","response":"right","rt":735,"correct":false,"confidence":2},{"trial_n":51,"n_dots":3.15,"target":"left","response":"right","rt":268,"correct":false,"confidence":2},{"trial_n":52,"n_dots":3.25,"target":"left","response":"right","rt":357,"correct":false,"confidence":3},{"trial_n":53,"n_dots":3.35,"target":"left","response":"right","rt":768,"correct":false,"confidence":2},{"trial_n":54,"n_dots":3.45,"target":"left","response":"left","rt":1091,"correct":true,"confidence":1},{"trial_n":55,"n_dots":3.45,"target":"left","response":"right","rt":1224,"correct":false,"confidence":2},{"trial_n":56,"n_dots":3.55,"target":"left","response":"left","rt":392,"correct":true,"confidence":4},{"trial_n":57,"n_dots":3.55,"target":"left","response":"left","rt":1964,"correct":true,"confidence":2},{"trial_n":58,"n_dots":3.45,"target":"left","response":"right","rt":320.00000000023,"correct":false,"confidence":3},{"trial_n":59,"n_dots":3.55,"target":"right","response":"right","rt":117,"correct":true,"confidence":3},{"trial_n":60,"n_dots":3.55,"target":"left","response":"right","rt":316,"correct":false,"confidence":2},{"trial_n":61,"n_dots":3.65,"target":"right","response":"right","rt":1871.9999999998,"correct":true,"confidence":4},{"trial_n":62,"n_dots":3.65,"target":"left","response":"left","rt":959,"correct":true,"confidence":3},{"trial_n":63,"n_dots":3.55,"target":"right","response":"right","rt":70,"correct":true,"confidence":4},{"trial_n":64,"n_dots":3.55,"target":"right","response":"right","rt":864,"correct":true,"confidence":4},{"trial_n":65,"n_dots":3.45,"target":"right","response":"right","rt":110,"correct":true,"confidence":4},{"trial_n":66,"n_dots":3.45,"target":"left","response":"left","rt":692,"correct":true,"confidence":4},{"trial_n":67,"n_dots":3.35,"target":"left","response":"left","rt":318,"correct":true,"confidence":4},{"trial_n":68,"n_dots":3.35,"target":"right","response":"right","rt":611,"correct":true,"confidence":3},{"trial_n":69,"n_dots":3.25,"target":"right","response":"left","rt":1845,"correct":false,"confidence":3},{"trial_n":70,"n_dots":3.35,"target":"right","response":"right","rt":2267,"correct":true,"confidence":1},{"trial_n":71,"n_dots":3.35,"target":"left","response":"left","rt":2572,"correct":true,"confidence":3},{"trial_n":72,"n_dots":3.25,"target":"right","response":"right","rt":670,"correct":true,"confidence":3},{"trial_n":73,"n_dots":3.25,"target":"left","response":"left","rt":249,"correct":true,"confidence":3},{"trial_n":74,"n_dots":3.15,"target":"left","response":"right","rt":639,"correct":false,"confidence":3},{"trial_n":75,"n_dots":3.25,"target":"right","response":"right","rt":106,"correct":true,"confidence":3},{"trial_n":76,"n_dots":3.25,"target":"left","response":"left","rt":757,"correct":true,"confidence":3},{"trial_n":77,"n_dots":3.15,"target":"right","response":"right","rt":334,"correct":true,"confidence":3},{"trial_n":78,"n_dots":3.15,"target":"left","response":"left","rt":506,"correct":true,"confidence":1},{"trial_n":79,"n_dots":3.05,"target":"left","response":"left","rt":727,"correct":true,"confidence":3},{"trial_n":80,"n_dots":3.05,"target":"right","response":"right","rt":167,"correct":true,"confidence":2},{"trial_n":81,"n_dots":2.95,"target":"left","response":"left","rt":1319,"correct":true,"confidence":2},{"trial_n":82,"n_dots":2.95,"target":"right","response":"right","rt":549,"correct":true,"confidence":2},{"trial_n":83,"n_dots":2.85,"target":"left","response":"left","rt":1011.9999999998,"correct":true,"confidence":2},{"trial_n":84,"n_dots":2.85,"target":"left","response":"left","rt":982.00000000023,"correct":true,"confidence":2},{"trial_n":85,"n_dots":2.75,"target":"left","response":"right","rt":3947,"correct":false,"confidence":2},{"trial_n":86,"n_dots":2.85,"target":"left","response":"left","rt":612,"correct":true,"confidence":2},{"trial_n":87,"n_dots":2.85,"target":"left","response":"left","rt":579.00000000023,"correct":true,"confidence":2},{"trial_n":88,"n_dots":2.75,"target":"right","response":"left","rt":4141.0000000002,"correct":false,"confidence":1},{"trial_n":89,"n_dots":2.85,"target":"left","response":"right","rt":339,"correct":false,"confidence":2},{"trial_n":90,"n_dots":2.95,"target":"left","response":"right","rt":1117,"correct":false,"confidence":1},{"trial_n":91,"n_dots":3.05,"target":"right","response":"left","rt":2238.9999999998,"correct":false,"confidence":1},{"trial_n":92,"n_dots":3.15,"target":"left","response":"right","rt":717.00000000023,"correct":false,"confidence":1},{"trial_n":93,"n_dots":3.25,"target":"right","response":"right","rt":445.00000000023,"correct":true,"confidence":2},{"trial_n":94,"n_dots":3.25,"target":"right","response":"right","rt":3053,"correct":true,"confidence":1},{"trial_n":95,"n_dots":3.15,"target":"right","response":"right","rt":596,"correct":true,"confidence":1},{"trial_n":96,"n_dots":3.15,"target":"right","response":"right","rt":238.99999999977,"correct":true,"confidence":1},{"trial_n":97,"n_dots":3.05,"target":"right","response":"left","rt":960,"correct":false,"confidence":2},{"trial_n":98,"n_dots":3.15,"target":"right","response":"left","rt":2127.0000000002,"correct":false,"confidence":1},{"trial_n":99,"n_dots":3.25,"target":"left","response":"right","rt":765,"correct":false,"confidence":1},{"trial_n":100,"n_dots":3.35,"target":"right","response":"left","rt":218,"correct":false,"confidence":1},{"trial_n":101,"n_dots":3.45,"target":"right","response":"right","rt":1529,"correct":true,"confidence":1},{"trial_n":102,"n_dots":3.45,"target":"left","response":"left","rt":220,"correct":true,"confidence":1},{"trial_n":103,"n_dots":3.35,"target":"left","response":"right","rt":1027,"correct":false,"confidence":1},{"trial_n":104,"n_dots":3.45,"target":"right","response":"left","rt":319,"correct":false,"confidence":1},{"trial_n":105,"n_dots":3.55,"target":"left","response":"right","rt":1018,"correct":false,"confidence":1},{"trial_n":106,"n_dots":3.65,"target":"right","response":"left","rt":-21,"correct":false,"confidence":1},{"trial_n":107,"n_dots":3.75,"target":"left","response":"left","rt":807,"correct":true,"confidence":1},{"trial_n":108,"n_dots":3.75,"target":"left","response":"left","rt":308,"correct":true,"confidence":1},{"trial_n":109,"n_dots":3.65,"target":"left","response":"left","rt":894,"correct":true,"confidence":1},{"trial_n":110,"n_dots":3.65,"target":"left","response":"right","rt":444,"correct":false,"confidence":1},{"trial_n":111,"n_dots":3.75,"target":"right","response":"right","rt":251.99999999977,"correct":true,"confidence":3},{"trial_n":112,"n_dots":3.75,"target":"right","response":"right","rt":104,"correct":true,"confidence":3},{"trial_n":113,"n_dots":3.65,"target":"right","response":"right","rt":443,"correct":true,"confidence":3},{"trial_n":114,"n_dots":3.65,"target":"left","response":"left","rt":2210,"correct":true,"confidence":2},{"trial_n":115,"n_dots":3.55,"target":"right","response":"right","rt":121,"correct":true,"confidence":3},{"trial_n":116,"n_dots":3.55,"target":"left","response":"right","rt":1178,"correct":false,"confidence":3},{"trial_n":117,"n_dots":3.65,"target":"right","response":"right","rt":-9,"correct":true,"confidence":3},{"trial_n":118,"n_dots":3.65,"target":"left","response":"left","rt":357,"correct":true,"confidence":2},{"trial_n":119,"n_dots":3.55,"target":"left","response":"right","rt":486,"correct":false,"confidence":1},{"trial_n":120,"n_dots":3.65,"target":"right","response":"right","rt":4,"correct":true,"confidence":3}]