[{"trial_n":1,"min":25,"max":230,"target":"present","response":"present","rt":4161.3999998569,"correct":true,"confidence":-1},{"trial_n":2,"min":25,"max":230,"target":"present","response":"absent","rt":2367.0999999046,"correct":false,"confidence":-1},{"trial_n":3,"min":9,"max":246,"target":"absent","response":"absent","rt":1013,"correct":true,"confidence":-1},{"trial_n":4,"min":9,"max":246,"target":"absent","response":"absent","rt":738.40000009537,"correct":true,"confidence":-1},{"trial_n":5,"min":25,"max":230,"target":"present","response":"present","rt":838.19999980927,"correct":true,"confidence":-1},{"trial_n":6,"min":25,"max":230,"target":"present","response":"present","rt":574.60000014305,"correct":true,"confidence":-1},{"trial_n":7,"min":41,"max":214,"target":"absent","response":"absent","rt":532.40000009537,"correct":true,"confidence":-1},{"trial_n":8,"min":41,"max":214,"target":"present","response":"present","rt":366.10000014305,"correct":true,"confidence":-1},{"trial_n":9,"min":57,"max":198,"target":"absent","response":"absent","rt":3202,"correct":true,"confidence":-1},{"trial_n":10,"min":57,"max":198,"target":"absent","response":"absent","rt":346.5,"correct":true,"confidence":-1},{"trial_n":11,"min":65,"max":190,"target":"present","response":"present","rt":264.5,"correct":true,"confidence":-1},{"trial_n":12,"min":65,"max":190,"target":"present","response":"absent","rt":445.59999990463,"correct":false,"confidence":-1},{"trial_n":13,"min":57,"max":198,"target":"present","response":"present","rt":269.59999990463,"correct":true,"confidence":-1},{"trial_n":14,"min":57,"max":198,"target":"absent","response":"absent","rt":333.40000009537,"correct":true,"confidence":-1},{"trial_n":15,"min":65,"max":190,"target":"present","response":"present","rt":278.09999990463,"correct":true,"confidence":-1},{"trial_n":16,"min":65,"max":190,"target":"absent","response":"absent","rt":379.70000004768,"correct":true,"confidence":-1},{"trial_n":17,"min":73,"max":182,"target":"absent","response":"absent","rt":433.60000014305,"correct":true,"confidence":-1},{"trial_n":18,"min":73,"max":182,"target":"absent","response":"absent","rt":319.90000009537,"correct":true,"confidence":-1},{"trial_n":19,"min":81,"max":174,"target":"absent","response":"absent","rt":321.89999985695,"correct":true,"confidence":-1},{"trial_n":20,"min":81,"max":174,"target":"present","response":"present","rt":550.60000014305,"correct":true,"confidence":-1},{"trial_n":21,"min":85,"max":170,"target":"absent","response":"absent","rt":358.69999980927,"correct":true,"confidence":3},{"trial_n":22,"min":85,"max":170,"target":"present","response":"absent","rt":405.70000004768,"correct":false,"confidence":3},{"trial_n":23,"min":81,"max":174,"target":"absent","response":"absent","rt":422.80000019073,"correct":true,"confidence":3},{"trial_n":24,"min":81,"max":174,"target":"present","response":"present","rt":520.70000004768,"correct":true,"confidence":4},{"trial_n":25,"min":85,"max":170,"target":"present","response":"present","rt":816,"correct":true,"confidence":4},{"trial_n":26,"min":85,"max":170,"target":"absent","response":"absent","rt":602,"correct":true,"confidence":4},{"trial_n":27,"min":89,"max":166,"target":"present","response":"absent","rt":623.19999980927,"correct":false,"confidence":3},{"trial_n":28,"min":85,"max":170,"target":"absent","response":"absent","rt":441,"correct":true,"confidence":4},{"trial_n":29,"min":85,"max":170,"target":"present","response":"present","rt":437.30000019073,"correct":true,"confidence":4},{"trial_n":30,"min":89,"max":166,"target":"absent","response":"absent","rt":532.10000014305,"correct":true,"confidence":4},{"trial_n":31,"min":89,"max":166,"target":"present","response":"absent","rt":418.39999985695,"correct":false,"confidence":4},{"trial_n":32,"min":87,"max":168,"target":"present","response":"present","rt":551.5,"correct":true,"confidence":4},{"trial_n":33,"min":87,"max":168,"target":"absent","response":"present","rt":650.59999990463,"correct":false,"confidence":4},{"trial_n":34,"min":85,"max":170,"target":"present","response":"present","rt":721.90000009537,"correct":true,"confidence":4},{"trial_n":35,"min":85,"max":170,"target":"present","response":"present","rt":660.40000009537,"correct":true,"confidence":4},{"trial_n":36,"min":87,"max":168,"target":"present","response":"present","rt":1352,"correct":true,"confidence":4},{"trial_n":37,"min":87,"max":168,"target":"present","response":"absent","rt":430.40000009537,"correct":false,"confidence":3},{"trial_n":38,"min":85,"max":170,"target":"absent","response":"absent","rt":339.79999995232,"correct":true,"confidence":3},{"trial_n":39,"min":85,"max":170,"target":"present","response":"present","rt":666.40000009537,"correct":true,"confidence":4},{"trial_n":40,"min":87,"max":168,"target":"present","response":"present","rt":632.90000009537,"correct":true,"confidence":4},{"trial_n":41,"min":87,"max":168,"target":"present","response":"absent","rt":499.20000004768,"correct":false,"confidence":5},{"trial_n":42,"min":86,"max":169,"target":"absent","response":"present","rt":3810.7000000477,"correct":false,"confidence":3},{"trial_n":43,"min":85,"max":170,"target":"absent","response":"absent","rt":421.5,"correct":true,"confidence":4},{"trial_n":44,"min":85,"max":170,"target":"present","response":"present","rt":738.09999990463,"correct":true,"confidence":4},{"trial_n":45,"min":86,"max":169,"target":"present","response":"present","rt":507.59999990463,"correct":true,"confidence":4},{"trial_n":46,"min":86,"max":169,"target":"absent","response":"absent","rt":553.59999990463,"correct":true,"confidence":4},{"trial_n":47,"min":87,"max":168,"target":"present","response":"absent","rt":359.90000009537,"correct":false,"confidence":4},{"trial_n":48,"min":86,"max":169,"target":"absent","response":"absent","rt":490.30000019073,"correct":true,"confidence":4},{"trial_n":49,"min":86,"max":169,"target":"absent","response":"present","rt":711,"correct":false,"confidence":4},{"trial_n":50,"min":85,"max":170,"target":"absent","response":"absent","rt":424,"correct":true,"confidence":4},{"trial_n":51,"min":85,"max":170,"target":"present","response":"absent","rt":2969.0999999046,"correct":false,"confidence":3},{"trial_n":52,"min":84,"max":171,"target":"present","response":"present","rt":666.29999995232,"correct":true,"confidence":4},{"trial_n":53,"min":84,"max":171,"target":"present","response":"absent","rt":406.59999990463,"correct":false,"confidence":3},{"trial_n":54,"min":83,"max":172,"target":"absent","response":"absent","rt":318,"correct":true,"confidence":3},{"trial_n":55,"min":83,"max":172,"target":"absent","response":"absent","rt":447.89999985695,"correct":true,"confidence":3},{"trial_n":56,"min":84,"max":171,"target":"present","response":"absent","rt":513.20000004768,"correct":false,"confidence":3},{"trial_n":57,"min":83,"max":172,"target":"absent","response":"present","rt":640.40000009537,"correct":false,"confidence":4},{"trial_n":58,"min":82,"max":173,"target":"present","response":"present","rt":323.09999990463,"correct":true,"confidence":4},{"trial_n":59,"min":82,"max":173,"target":"absent","response":"absent","rt":320,"correct":true,"confidence":4},{"trial_n":60,"min":83,"max":172,"target":"present","response":"present","rt":498.90000009537,"correct":true,"confidence":4},{"trial_n":61,"min":83,"max":172,"target":"present","response":"present","rt":813.20000004768,"correct":true,"confidence":4},{"trial_n":62,"min":84,"max":171,"target":"absent","response":"absent","rt":1880.8999998569,"correct":true,"confidence":3},{"trial_n":63,"min":84,"max":171,"target":"present","response":"present","rt":443.5,"correct":true,"confidence":5},{"trial_n":64,"min":85,"max":170,"target":"absent","response":"absent","rt":886.5,"correct":true,"confidence":4},{"trial_n":65,"min":85,"max":170,"target":"absent","response":"present","rt":643,"correct":false,"confidence":4},{"trial_n":66,"min":84,"max":171,"target":"absent","response":"present","rt":1119.5999999046,"correct":false,"confidence":3},{"trial_n":67,"min":83,"max":172,"target":"absent","response":"absent","rt":459.59999990463,"correct":true,"confidence":3},{"trial_n":68,"min":83,"max":172,"target":"absent","response":"absent","rt":544.90000009537,"correct":true,"confidence":3},{"trial_n":69,"min":84,"max":171,"target":"absent","response":"absent","rt":900.5,"correct":true,"confidence":3},{"trial_n":70,"min":84,"max":171,"target":"present","response":"present","rt":303.20000004768,"correct":true,"confidence":5},{"trial_n":71,"min":41,"max":214,"target":"present","response":"present","rt":4863.0999999046,"correct":true,"confidence":-1},{"trial_n":72,"min":41,"max":214,"target":"present","response":"present","rt":687.59999990463,"correct":true,"confidence":-1},{"trial_n":73,"min":57,"max":198,"target":"absent","response":"absent","rt":360.40000009537,"correct":true,"confidence":-1},{"trial_n":74,"min":57,"max":198,"target":"absent","response":"absent","rt":349.79999995232,"correct":true,"confidence":-1},{"trial_n":75,"min":73,"max":182,"target":"present","response":"present","rt":326.29999995232,"correct":true,"confidence":-1},{"trial_n":76,"min":73,"max":182,"target":"present","response":"present","rt":444.70000004768,"correct":true,"confidence":-1},{"trial_n":77,"min":89,"max":166,"target":"present","response":"present","rt":362.5,"correct":true,"confidence":-1},{"trial_n":78,"min":89,"max":166,"target":"absent","response":"present","rt":389.79999995232,"correct":false,"confidence":-1},{"trial_n":79,"min":73,"max":182,"target":"present","response":"present","rt":404.89999985695,"correct":true,"confidence":-1},{"trial_n":80,"min":73,"max":182,"target":"absent","response":"absent","rt":267.79999995232,"correct":true,"confidence":-1},{"trial_n":81,"min":81,"max":174,"target":"absent","response":"absent","rt":356,"correct":true,"confidence":-1},{"trial_n":82,"min":81,"max":174,"target":"absent","response":"absent","rt":588,"correct":true,"confidence":-1},{"trial_n":83,"min":89,"max":166,"target":"present","response":"present","rt":271.90000009537,"correct":true,"confidence":-1},{"trial_n":84,"min":89,"max":166,"target":"present","response":"present","rt":500.09999990463,"correct":true,"confidence":-1},{"trial_n":85,"min":97,"max":158,"target":"absent","response":"present","rt":476.40000009537,"correct":false,"confidence":-1},{"trial_n":86,"min":89,"max":166,"target":"present","response":"present","rt":434.80000019073,"correct":true,"confidence":-1},{"trial_n":87,"min":89,"max":166,"target":"absent","response":"present","rt":566.09999990463,"correct":false,"confidence":-1},{"trial_n":88,"min":81,"max":174,"target":"absent","response":"absent","rt":396.29999995232,"correct":true,"confidence":-1},{"trial_n":89,"min":81,"max":174,"target":"present","response":"present","rt":411.29999995232,"correct":true,"confidence":-1},{"trial_n":90,"min":89,"max":166,"target":"absent","response":"present","rt":313,"correct":false,"confidence":-1},{"trial_n":91,"min":85,"max":170,"target":"present","response":"present","rt":1034.0999999046,"correct":true,"confidence":1},{"trial_n":92,"min":85,"max":170,"target":"present","response":"present","rt":521.59999990463,"correct":true,"confidence":5},{"trial_n":93,"min":89,"max":166,"target":"present","response":"present","rt":486,"correct":true,"confidence":4},{"trial_n":94,"min":89,"max":166,"target":"present","response":"present","rt":696.60000014305,"correct":true,"confidence":1},{"trial_n":95,"min":93,"max":162,"target":"absent","response":"present","rt":376.29999995232,"correct":false,"confidence":1},{"trial_n":96,"min":89,"max":166,"target":"absent","response":"present","rt":575,"correct":false,"confidence":1},{"trial_n":97,"min":85,"max":170,"target":"present","response":"absent","rt":1161.8999998569,"correct":false,"confidence":4},{"trial_n":98,"min":81,"max":174,"target":"absent","response":"present","rt":549.89999985695,"correct":false,"confidence":1},{"trial_n":99,"min":77,"max":178,"target":"present","response":"present","rt":398.30000019073,"correct":true,"confidence":5},{"trial_n":100,"min":77,"max":178,"target":"present","response":"present","rt":379.30000019073,"correct":true,"confidence":5},{"trial_n":101,"min":79,"max":176,"target":"present","response":"present","rt":320.5,"correct":true,"confidence":5},{"trial_n":102,"min":79,"max":176,"target":"absent","response":"absent","rt":479.69999980927,"correct":true,"confidence":5},{"trial_n":103,"min":81,"max":174,"target":"present","response":"present","rt":257.79999995232,"correct":true,"confidence":2},{"trial_n":104,"min":81,"max":174,"target":"absent","response":"absent","rt":493.69999980927,"correct":true,"confidence":4},{"trial_n":105,"min":83,"max":172,"target":"present","response":"present","rt":486.09999990463,"correct":true,"confidence":4},{"trial_n":106,"min":83,"max":172,"target":"present","response":"present","rt":355.60000014305,"correct":true,"confidence":4},{"trial_n":107,"min":85,"max":170,"target":"present","response":"present","rt":631.5,"correct":true,"confidence":4},{"trial_n":108,"min":85,"max":170,"target":"present","response":"present","rt":571.29999995232,"correct":true,"confidence":4},{"trial_n":109,"min":87,"max":168,"target":"absent","response":"present","rt":473.10000014305,"correct":false,"confidence":4},{"trial_n":110,"min":85,"max":170,"target":"present","response":"present","rt":516.29999995232,"correct":true,"confidence":4},{"trial_n":111,"min":85,"max":170,"target":"present","response":"present","rt":408.5,"correct":true,"confidence":5},{"trial_n":112,"min":86,"max":169,"target":"absent","response":"absent","rt":684,"correct":true,"confidence":4},{"trial_n":113,"min":86,"max":169,"target":"absent","response":"present","rt":502.20000004768,"correct":false,"confidence":1},{"trial_n":114,"min":85,"max":170,"target":"present","response":"absent","rt":763.5,"correct":false,"confidence":1},{"trial_n":115,"min":84,"max":171,"target":"present","response":"present","rt":569.79999995232,"correct":true,"confidence":3},{"trial_n":116,"min":84,"max":171,"target":"absent","response":"present","rt":652.39999985695,"correct":false,"confidence":3},{"trial_n":117,"min":83,"max":172,"target":"absent","response":"present","rt":697.59999990463,"correct":false,"confidence":3},{"trial_n":118,"min":82,"max":173,"target":"absent","response":"absent","rt":945.30000019073,"correct":true,"confidence":3},{"trial_n":119,"min":82,"max":173,"target":"absent","response":"absent","rt":1416.3999998569,"correct":true,"confidence":2},{"trial_n":120,"min":83,"max":172,"target":"absent","response":"absent","rt":1036,"correct":true,"confidence":1},{"trial_n":121,"min":83,"max":172,"target":"absent","response":"absent","rt":840.5,"correct":true,"confidence":2},{"trial_n":122,"min":84,"max":171,"target":"absent","response":"absent","rt":762.20000004768,"correct":true,"confidence":3},{"trial_n":123,"min":84,"max":171,"target":"absent","response":"present","rt":1422.6000001431,"correct":false,"confidence":3},{"trial_n":124,"min":83,"max":172,"target":"absent","response":"present","rt":645.5,"correct":false,"confidence":1},{"trial_n":125,"min":82,"max":173,"target":"present","response":"present","rt":367.10000014305,"correct":true,"confidence":4},{"trial_n":126,"min":82,"max":173,"target":"present","response":"present","rt":494.70000004768,"correct":true,"confidence":4},{"trial_n":127,"min":83,"max":172,"target":"present","response":"present","rt":440.60000014305,"correct":true,"confidence":3},{"trial_n":128,"min":83,"max":172,"target":"present","response":"present","rt":330.30000019073,"correct":true,"confidence":3},{"trial_n":129,"min":84,"max":171,"target":"absent","response":"absent","rt":369.70000004768,"correct":true,"confidence":5},{"trial_n":130,"min":84,"max":171,"target":"absent","response":"absent","rt":506.60000014305,"correct":true,"confidence":5},{"trial_n":131,"min":85,"max":170,"target":"absent","response":"absent","rt":576.79999995232,"correct":true,"confidence":5},{"trial_n":132,"min":85,"max":170,"target":"present","response":"present","rt":330.19999980927,"correct":true,"confidence":5},{"trial_n":133,"min":86,"max":169,"target":"absent","response":"absent","rt":882.10000014305,"correct":true,"confidence":4},{"trial_n":134,"min":86,"max":169,"target":"present","response":"present","rt":442,"correct":true,"confidence":5},{"trial_n":135,"min":87,"max":168,"target":"absent","response":"absent","rt":965.29999995232,"correct":true,"confidence":4},{"trial_n":136,"min":87,"max":168,"target":"present","response":"present","rt":528,"correct":true,"confidence":4},{"trial_n":137,"min":88,"max":167,"target":"present","response":"present","rt":1732,"correct":true,"confidence":3},{"trial_n":138,"min":88,"max":167,"target":"present","response":"present","rt":295,"correct":true,"confidence":3},{"trial_n":139,"min":89,"max":166,"target":"absent","response":"present","rt":1161.7999999523,"correct":false,"confidence":3},{"trial_n":140,"min":88,"max":167,"target":"absent","response":"absent","rt":570.20000004768,"correct":true,"confidence":3}]