[{"trial_n":1,"min":25,"max":230,"target":"present","response":"absent","rt":5147.3999999911,"correct":false,"confidence":-1},{"trial_n":2,"min":25,"max":230,"target":"present","response":"present","rt":1297.200000003,"correct":true,"confidence":-1},{"trial_n":3,"min":25,"max":230,"target":"absent","response":"absent","rt":1197.400000006,"correct":true,"confidence":-1},{"trial_n":4,"min":41,"max":214,"target":"absent","response":"present","rt":811.70000000298,"correct":false,"confidence":-1},{"trial_n":5,"min":25,"max":230,"target":"present","response":"present","rt":1108.700000003,"correct":true,"confidence":-1},{"trial_n":6,"min":25,"max":230,"target":"present","response":"present","rt":468.09999999404,"correct":true,"confidence":-1},{"trial_n":7,"min":41,"max":214,"target":"present","response":"present","rt":929.60000000894,"correct":true,"confidence":-1},{"trial_n":8,"min":41,"max":214,"target":"present","response":"present","rt":559.29999999702,"correct":true,"confidence":-1},{"trial_n":9,"min":57,"max":198,"target":"absent","response":"absent","rt":1068.200000003,"correct":true,"confidence":-1},{"trial_n":10,"min":57,"max":198,"target":"present","response":"present","rt":835.59999999404,"correct":true,"confidence":-1},{"trial_n":11,"min":65,"max":190,"target":"present","response":"present","rt":753.79999999702,"correct":true,"confidence":-1},{"trial_n":12,"min":65,"max":190,"target":"absent","response":"absent","rt":1042,"correct":true,"confidence":-1},{"trial_n":13,"min":73,"max":182,"target":"present","response":"present","rt":654.29999999702,"correct":true,"confidence":-1},{"trial_n":14,"min":73,"max":182,"target":"present","response":"present","rt":1027.799999997,"correct":true,"confidence":-1},{"trial_n":15,"min":81,"max":174,"target":"absent","response":"absent","rt":892.90000000596,"correct":true,"confidence":-1},{"trial_n":16,"min":81,"max":174,"target":"present","response":"absent","rt":1211.8999999911,"correct":false,"confidence":-1},{"trial_n":17,"min":73,"max":182,"target":"absent","response":"absent","rt":980,"correct":true,"confidence":-1},{"trial_n":18,"min":73,"max":182,"target":"absent","response":"absent","rt":616.90000000596,"correct":true,"confidence":-1},{"trial_n":19,"min":81,"max":174,"target":"present","response":"present","rt":883.29999999702,"correct":true,"confidence":-1},{"trial_n":20,"min":81,"max":174,"target":"absent","response":"present","rt":1370.3999999911,"correct":false,"confidence":-1},{"trial_n":21,"min":77,"max":178,"target":"absent","response":"absent","rt":1251.1000000089,"correct":true,"confidence":3},{"trial_n":22,"min":77,"max":178,"target":"absent","response":"absent","rt":966.40000000596,"correct":true,"confidence":5},{"trial_n":23,"min":81,"max":174,"target":"absent","response":"absent","rt":1418.5,"correct":true,"confidence":5},{"trial_n":24,"min":81,"max":174,"target":"present","response":"absent","rt":866.20000000298,"correct":false,"confidence":5},{"trial_n":25,"min":77,"max":178,"target":"present","response":"present","rt":1249.5,"correct":true,"confidence":2},{"trial_n":26,"min":77,"max":178,"target":"present","response":"present","rt":805,"correct":true,"confidence":2},{"trial_n":27,"min":81,"max":174,"target":"absent","response":"absent","rt":973.79999999702,"correct":true,"confidence":3},{"trial_n":28,"min":81,"max":174,"target":"absent","response":"absent","rt":1307.900000006,"correct":true,"confidence":3},{"trial_n":29,"min":85,"max":170,"target":"present","response":"absent","rt":2166.400000006,"correct":false,"confidence":3},{"trial_n":30,"min":81,"max":174,"target":"absent","response":"absent","rt":1273.6000000089,"correct":true,"confidence":3},{"trial_n":31,"min":81,"max":174,"target":"present","response":"present","rt":901.29999999702,"correct":true,"confidence":4},{"trial_n":32,"min":83,"max":172,"target":"absent","response":"absent","rt":993.39999999106,"correct":true,"confidence":5},{"trial_n":33,"min":83,"max":172,"target":"present","response":"absent","rt":1065.599999994,"correct":false,"confidence":5},{"trial_n":34,"min":81,"max":174,"target":"present","response":"absent","rt":1236,"correct":false,"confidence":5},{"trial_n":35,"min":79,"max":176,"target":"absent","response":"present","rt":845.69999998808,"correct":false,"confidence":2},{"trial_n":36,"min":77,"max":178,"target":"absent","response":"absent","rt":830.89999999106,"correct":true,"confidence":1},{"trial_n":37,"min":77,"max":178,"target":"present","response":"present","rt":834.79999999702,"correct":true,"confidence":4},{"trial_n":38,"min":79,"max":176,"target":"absent","response":"absent","rt":809,"correct":true,"confidence":4},{"trial_n":39,"min":79,"max":176,"target":"present","response":"present","rt":981.29999999702,"correct":true,"confidence":4},{"trial_n":40,"min":81,"max":174,"target":"absent","response":"absent","rt":1283.8999999911,"correct":true,"confidence":4},{"trial_n":41,"min":81,"max":174,"target":"present","response":"present","rt":848.30000001192,"correct":true,"confidence":5},{"trial_n":42,"min":82,"max":173,"target":"absent","response":"absent","rt":862.89999999106,"correct":true,"confidence":5},{"trial_n":43,"min":82,"max":173,"target":"present","response":"present","rt":942.90000000596,"correct":true,"confidence":5},{"trial_n":44,"min":83,"max":172,"target":"present","response":"absent","rt":1209,"correct":false,"confidence":5},{"trial_n":45,"min":82,"max":173,"target":"absent","response":"absent","rt":1533.599999994,"correct":true,"confidence":5},{"trial_n":46,"min":82,"max":173,"target":"present","response":"present","rt":982.89999999106,"correct":true,"confidence":3},{"trial_n":47,"min":83,"max":172,"target":"absent","response":"absent","rt":1823.5,"correct":true,"confidence":3},{"trial_n":48,"min":83,"max":172,"target":"absent","response":"absent","rt":1076.6000000089,"correct":true,"confidence":5},{"trial_n":49,"min":84,"max":171,"target":"absent","response":"absent","rt":809.60000000894,"correct":true,"confidence":3},{"trial_n":50,"min":84,"max":171,"target":"present","response":"absent","rt":814.10000000894,"correct":false,"confidence":3},{"trial_n":51,"min":83,"max":172,"target":"absent","response":"present","rt":854.79999999702,"correct":false,"confidence":2},{"trial_n":52,"min":82,"max":173,"target":"present","response":"absent","rt":1271.8000000119,"correct":false,"confidence":2},{"trial_n":53,"min":81,"max":174,"target":"present","response":"absent","rt":1017.299999997,"correct":false,"confidence":4},{"trial_n":54,"min":80,"max":175,"target":"present","response":"present","rt":707.20000000298,"correct":true,"confidence":5},{"trial_n":55,"min":80,"max":175,"target":"present","response":"present","rt":748.5,"correct":true,"confidence":3},{"trial_n":56,"min":81,"max":174,"target":"present","response":"absent","rt":1604.299999997,"correct":false,"confidence":3},{"trial_n":57,"min":80,"max":175,"target":"present","response":"present","rt":1563.700000003,"correct":true,"confidence":5},{"trial_n":58,"min":80,"max":175,"target":"absent","response":"present","rt":1034.6000000089,"correct":false,"confidence":2},{"trial_n":59,"min":79,"max":176,"target":"present","response":"present","rt":868,"correct":true,"confidence":5},{"trial_n":60,"min":79,"max":176,"target":"absent","response":"present","rt":1265.700000003,"correct":false,"confidence":4},{"trial_n":61,"min":78,"max":177,"target":"present","response":"absent","rt":1373.400000006,"correct":false,"confidence":1},{"trial_n":62,"min":77,"max":178,"target":"absent","response":"absent","rt":1109.400000006,"correct":true,"confidence":2},{"trial_n":63,"min":77,"max":178,"target":"absent","response":"absent","rt":1039.5,"correct":true,"confidence":2},{"trial_n":64,"min":78,"max":177,"target":"absent","response":"absent","rt":832.5,"correct":true,"confidence":5},{"trial_n":65,"min":78,"max":177,"target":"present","response":"present","rt":1071.700000003,"correct":true,"confidence":5},{"trial_n":66,"min":79,"max":176,"target":"absent","response":"absent","rt":1236.8000000119,"correct":true,"confidence":2},{"trial_n":67,"min":79,"max":176,"target":"present","response":"present","rt":805.69999998808,"correct":true,"confidence":3},{"trial_n":68,"min":80,"max":175,"target":"absent","response":"present","rt":1256.8999999911,"correct":false,"confidence":2},{"trial_n":69,"min":79,"max":176,"target":"absent","response":"absent","rt":3139.799999997,"correct":true,"confidence":1},{"trial_n":70,"min":79,"max":176,"target":"absent","response":"absent","rt":921.59999999404,"correct":true,"confidence":4},{"trial_n":71,"min":41,"max":214,"target":"present","response":"present","rt":1851.099999994,"correct":true,"confidence":-1},{"trial_n":72,"min":41,"max":214,"target":"present","response":"present","rt":849.20000000298,"correct":true,"confidence":-1},{"trial_n":73,"min":57,"max":198,"target":"absent","response":"absent","rt":943.39999999106,"correct":true,"confidence":-1},{"trial_n":74,"min":57,"max":198,"target":"absent","response":"absent","rt":743.5,"correct":true,"confidence":-1},{"trial_n":75,"min":73,"max":182,"target":"present","response":"present","rt":842.70000000298,"correct":true,"confidence":-1},{"trial_n":76,"min":73,"max":182,"target":"present","response":"present","rt":497,"correct":true,"confidence":-1},{"trial_n":77,"min":89,"max":166,"target":"absent","response":"absent","rt":1034.299999997,"correct":true,"confidence":-1},{"trial_n":78,"min":89,"max":166,"target":"absent","response":"absent","rt":793.60000000894,"correct":true,"confidence":-1},{"trial_n":79,"min":105,"max":150,"target":"absent","response":"present","rt":3235.1000000089,"correct":false,"confidence":-1},{"trial_n":80,"min":89,"max":166,"target":"present","response":"absent","rt":1252.200000003,"correct":false,"confidence":-1},{"trial_n":81,"min":81,"max":174,"target":"present","response":"present","rt":873.59999999404,"correct":true,"confidence":-1},{"trial_n":82,"min":81,"max":174,"target":"present","response":"present","rt":485.80000001192,"correct":true,"confidence":-1},{"trial_n":83,"min":89,"max":166,"target":"absent","response":"absent","rt":1080.200000003,"correct":true,"confidence":-1},{"trial_n":84,"min":89,"max":166,"target":"present","response":"present","rt":943.39999999106,"correct":true,"confidence":-1},{"trial_n":85,"min":97,"max":158,"target":"present","response":"present","rt":2479.099999994,"correct":true,"confidence":-1},{"trial_n":86,"min":97,"max":158,"target":"present","response":"present","rt":437.79999999702,"correct":true,"confidence":-1},{"trial_n":87,"min":105,"max":150,"target":"absent","response":"present","rt":1521,"correct":false,"confidence":-1},{"trial_n":88,"min":97,"max":158,"target":"present","response":"present","rt":2007.299999997,"correct":true,"confidence":-1},{"trial_n":89,"min":97,"max":158,"target":"present","response":"present","rt":882.70000000298,"correct":true,"confidence":-1},{"trial_n":90,"min":105,"max":150,"target":"present","response":"present","rt":474.79999999702,"correct":true,"confidence":-1},{"trial_n":91,"min":105,"max":150,"target":"present","response":"present","rt":2580.200000003,"correct":true,"confidence":1},{"trial_n":92,"min":109,"max":146,"target":"present","response":"present","rt":875.40000000596,"correct":true,"confidence":5},{"trial_n":93,"min":109,"max":146,"target":"present","response":"present","rt":1212.900000006,"correct":true,"confidence":5},{"trial_n":94,"min":113,"max":142,"target":"present","response":"present","rt":1058.099999994,"correct":true,"confidence":4},{"trial_n":95,"min":113,"max":142,"target":"absent","response":"present","rt":947.29999999702,"correct":false,"confidence":4},{"trial_n":96,"min":109,"max":146,"target":"absent","response":"absent","rt":786.90000000596,"correct":true,"confidence":4},{"trial_n":97,"min":109,"max":146,"target":"absent","response":"present","rt":1122.200000003,"correct":false,"confidence":4},{"trial_n":98,"min":105,"max":150,"target":"present","response":"present","rt":1036.099999994,"correct":true,"confidence":5},{"trial_n":99,"min":105,"max":150,"target":"absent","response":"present","rt":1220,"correct":false,"confidence":3},{"trial_n":100,"min":101,"max":154,"target":"present","response":"present","rt":892.60000000894,"correct":true,"confidence":3},{"trial_n":101,"min":101,"max":154,"target":"absent","response":"present","rt":928.09999999404,"correct":false,"confidence":5},{"trial_n":102,"min":99,"max":156,"target":"present","response":"present","rt":2451,"correct":true,"confidence":4},{"trial_n":103,"min":99,"max":156,"target":"present","response":"present","rt":581.89999999106,"correct":true,"confidence":5},{"trial_n":104,"min":101,"max":154,"target":"absent","response":"present","rt":520.5,"correct":false,"confidence":5},{"trial_n":105,"min":99,"max":156,"target":"present","response":"present","rt":1802.200000003,"correct":true,"confidence":1},{"trial_n":106,"min":99,"max":156,"target":"present","response":"present","rt":949.29999999702,"correct":true,"confidence":3},{"trial_n":107,"min":101,"max":154,"target":"absent","response":"present","rt":898.90000000596,"correct":false,"confidence":3},{"trial_n":108,"min":99,"max":156,"target":"present","response":"present","rt":2212,"correct":true,"confidence":3},{"trial_n":109,"min":99,"max":156,"target":"present","response":"present","rt":1694.299999997,"correct":true,"confidence":3},{"trial_n":110,"min":101,"max":154,"target":"absent","response":"present","rt":1216.299999997,"correct":false,"confidence":3},{"trial_n":111,"min":100,"max":155,"target":"absent","response":"absent","rt":971,"correct":true,"confidence":1},{"trial_n":112,"min":100,"max":155,"target":"absent","response":"absent","rt":2787.3999999911,"correct":true,"confidence":1},{"trial_n":113,"min":101,"max":154,"target":"present","response":"present","rt":885.79999999702,"correct":true,"confidence":3},{"trial_n":114,"min":101,"max":154,"target":"present","response":"present","rt":1907.799999997,"correct":true,"confidence":1},{"trial_n":115,"min":102,"max":153,"target":"absent","response":"absent","rt":1105.6999999881,"correct":true,"confidence":2},{"trial_n":116,"min":102,"max":153,"target":"absent","response":"present","rt":918,"correct":false,"confidence":2},{"trial_n":117,"min":101,"max":154,"target":"present","response":"present","rt":1000.599999994,"correct":true,"confidence":2},{"trial_n":118,"min":101,"max":154,"target":"absent","response":"present","rt":2112.1000000089,"correct":false,"confidence":2},{"trial_n":119,"min":100,"max":155,"target":"absent","response":"present","rt":781.60000000894,"correct":false,"confidence":3},{"trial_n":120,"min":99,"max":156,"target":"absent","response":"present","rt":2429.200000003,"correct":false,"confidence":3},{"trial_n":121,"min":98,"max":157,"target":"absent","response":"absent","rt":1822.200000003,"correct":true,"confidence":1},{"trial_n":122,"min":98,"max":157,"target":"absent","response":"present","rt":1207.1000000089,"correct":false,"confidence":1},{"trial_n":123,"min":97,"max":158,"target":"absent","response":"present","rt":2096.5,"correct":false,"confidence":1},{"trial_n":124,"min":96,"max":159,"target":"absent","response":"present","rt":1169.8000000119,"correct":false,"confidence":1},{"trial_n":125,"min":95,"max":160,"target":"absent","response":"absent","rt":2589.299999997,"correct":true,"confidence":1},{"trial_n":126,"min":95,"max":160,"target":"absent","response":"absent","rt":948.30000001192,"correct":true,"confidence":1},{"trial_n":127,"min":96,"max":159,"target":"present","response":"present","rt":1449.5,"correct":true,"confidence":2},{"trial_n":128,"min":96,"max":159,"target":"present","response":"present","rt":824.89999999106,"correct":true,"confidence":3},{"trial_n":129,"min":97,"max":158,"target":"absent","response":"absent","rt":2181.900000006,"correct":true,"confidence":1},{"trial_n":130,"min":97,"max":158,"target":"present","response":"present","rt":895,"correct":true,"confidence":3},{"trial_n":131,"min":98,"max":157,"target":"absent","response":"present","rt":2621.900000006,"correct":false,"confidence":1},{"trial_n":132,"min":97,"max":158,"target":"absent","response":"present","rt":1281.400000006,"correct":false,"confidence":1},{"trial_n":133,"min":96,"max":159,"target":"present","response":"present","rt":1132.6999999881,"correct":true,"confidence":1},{"trial_n":134,"min":96,"max":159,"target":"present","response":"absent","rt":863.09999999404,"correct":false,"confidence":1},{"trial_n":135,"min":95,"max":160,"target":"present","response":"absent","rt":936,"correct":false,"confidence":1},{"trial_n":136,"min":94,"max":161,"target":"absent","response":"present","rt":872.20000000298,"correct":false,"confidence":2},{"trial_n":137,"min":93,"max":162,"target":"absent","response":"present","rt":1070.299999997,"correct":false,"confidence":1},{"trial_n":138,"min":92,"max":163,"target":"present","response":"present","rt":760.59999999404,"correct":true,"confidence":3},{"trial_n":139,"min":92,"max":163,"target":"absent","response":"present","rt":1095.200000003,"correct":false,"confidence":1},{"trial_n":140,"min":91,"max":164,"target":"present","response":"present","rt":1272.8999999911,"correct":true,"confidence":3}]