[{"trial_n":1,"min":25,"max":230,"target":"present","response":"absent","rt":5400.6000001431,"correct":false,"confidence":-1},{"trial_n":2,"min":25,"max":230,"target":"present","response":"present","rt":1053.4000000954,"correct":true,"confidence":-1},{"trial_n":3,"min":25,"max":230,"target":"absent","response":"absent","rt":785.20000004768,"correct":true,"confidence":-1},{"trial_n":4,"min":41,"max":214,"target":"absent","response":"absent","rt":685.29999995232,"correct":true,"confidence":-1},{"trial_n":5,"min":41,"max":214,"target":"present","response":"present","rt":755.59999990463,"correct":true,"confidence":-1},{"trial_n":6,"min":57,"max":198,"target":"present","response":"present","rt":873,"correct":true,"confidence":-1},{"trial_n":7,"min":57,"max":198,"target":"present","response":"present","rt":864.5,"correct":true,"confidence":-1},{"trial_n":8,"min":73,"max":182,"target":"absent","response":"absent","rt":623.79999995232,"correct":true,"confidence":-1},{"trial_n":9,"min":73,"max":182,"target":"present","response":"absent","rt":656,"correct":false,"confidence":-1},{"trial_n":10,"min":57,"max":198,"target":"present","response":"present","rt":678.60000014305,"correct":true,"confidence":-1},{"trial_n":11,"min":57,"max":198,"target":"present","response":"present","rt":662.5,"correct":true,"confidence":-1},{"trial_n":12,"min":65,"max":190,"target":"present","response":"present","rt":693.70000004768,"correct":true,"confidence":-1},{"trial_n":13,"min":65,"max":190,"target":"absent","response":"absent","rt":507.29999995232,"correct":true,"confidence":-1},{"trial_n":14,"min":73,"max":182,"target":"absent","response":"absent","rt":511.80000019073,"correct":true,"confidence":-1},{"trial_n":15,"min":73,"max":182,"target":"present","response":"absent","rt":584.90000009537,"correct":false,"confidence":-1},{"trial_n":16,"min":65,"max":190,"target":"absent","response":"absent","rt":631.20000004768,"correct":true,"confidence":-1},{"trial_n":17,"min":65,"max":190,"target":"absent","response":"present","rt":688.20000004768,"correct":false,"confidence":-1},{"trial_n":18,"min":57,"max":198,"target":"absent","response":"absent","rt":600.10000014305,"correct":true,"confidence":-1},{"trial_n":19,"min":57,"max":198,"target":"absent","response":"absent","rt":460.70000004768,"correct":true,"confidence":-1},{"trial_n":20,"min":65,"max":190,"target":"present","response":"absent","rt":698,"correct":false,"confidence":-1},{"trial_n":21,"min":61,"max":194,"target":"absent","response":"absent","rt":689.59999990463,"correct":true,"confidence":2},{"trial_n":22,"min":61,"max":194,"target":"present","response":"present","rt":1139.2000000477,"correct":true,"confidence":5},{"trial_n":23,"min":65,"max":190,"target":"absent","response":"absent","rt":781.70000004768,"correct":true,"confidence":3},{"trial_n":24,"min":65,"max":190,"target":"present","response":"present","rt":1323.9000000954,"correct":true,"confidence":3},{"trial_n":25,"min":69,"max":186,"target":"absent","response":"absent","rt":934.5,"correct":true,"confidence":2},{"trial_n":26,"min":69,"max":186,"target":"absent","response":"absent","rt":766.20000004768,"correct":true,"confidence":3},{"trial_n":27,"min":73,"max":182,"target":"present","response":"present","rt":670.70000004768,"correct":true,"confidence":4},{"trial_n":28,"min":73,"max":182,"target":"absent","response":"absent","rt":1030.2000000477,"correct":true,"confidence":3},{"trial_n":29,"min":77,"max":178,"target":"absent","response":"absent","rt":828,"correct":true,"confidence":3},{"trial_n":30,"min":77,"max":178,"target":"present","response":"absent","rt":725,"correct":false,"confidence":2},{"trial_n":31,"min":75,"max":180,"target":"present","response":"present","rt":931.90000009537,"correct":true,"confidence":3},{"trial_n":32,"min":75,"max":180,"target":"absent","response":"absent","rt":585.60000014305,"correct":true,"confidence":4},{"trial_n":33,"min":77,"max":178,"target":"absent","response":"absent","rt":908.09999990463,"correct":true,"confidence":3},{"trial_n":34,"min":77,"max":178,"target":"present","response":"present","rt":1347.0999999046,"correct":true,"confidence":3},{"trial_n":35,"min":79,"max":176,"target":"absent","response":"absent","rt":4531.9000000954,"correct":true,"confidence":3},{"trial_n":36,"min":79,"max":176,"target":"present","response":"absent","rt":837.70000004768,"correct":false,"confidence":3},{"trial_n":37,"min":77,"max":178,"target":"present","response":"present","rt":816.09999990463,"correct":true,"confidence":3},{"trial_n":38,"min":77,"max":178,"target":"present","response":"present","rt":788.29999995232,"correct":true,"confidence":3},{"trial_n":39,"min":79,"max":176,"target":"present","response":"absent","rt":796.70000004768,"correct":false,"confidence":4},{"trial_n":40,"min":77,"max":178,"target":"absent","response":"present","rt":944.40000009537,"correct":false,"confidence":2},{"trial_n":41,"min":76,"max":179,"target":"present","response":"absent","rt":1800,"correct":false,"confidence":2},{"trial_n":42,"min":75,"max":180,"target":"absent","response":"absent","rt":973.29999995232,"correct":true,"confidence":4},{"trial_n":43,"min":75,"max":180,"target":"present","response":"present","rt":861.39999985695,"correct":true,"confidence":3},{"trial_n":44,"min":76,"max":179,"target":"absent","response":"present","rt":1456.2999999523,"correct":false,"confidence":2},{"trial_n":45,"min":75,"max":180,"target":"absent","response":"absent","rt":875.39999985695,"correct":true,"confidence":3},{"trial_n":46,"min":75,"max":180,"target":"present","response":"absent","rt":719.10000014305,"correct":false,"confidence":3},{"trial_n":47,"min":74,"max":181,"target":"present","response":"present","rt":776,"correct":true,"confidence":4},{"trial_n":48,"min":74,"max":181,"target":"present","response":"absent","rt":2254.6000001431,"correct":false,"confidence":3},{"trial_n":49,"min":73,"max":182,"target":"absent","response":"absent","rt":883.5,"correct":true,"confidence":2},{"trial_n":50,"min":73,"max":182,"target":"present","response":"present","rt":721.69999980927,"correct":true,"confidence":5},{"trial_n":51,"min":74,"max":181,"target":"absent","response":"absent","rt":583,"correct":true,"confidence":4},{"trial_n":52,"min":74,"max":181,"target":"present","response":"present","rt":929.30000019073,"correct":true,"confidence":4},{"trial_n":53,"min":75,"max":180,"target":"absent","response":"absent","rt":878.5,"correct":true,"confidence":2},{"trial_n":54,"min":75,"max":180,"target":"present","response":"present","rt":707.09999990463,"correct":true,"confidence":3},{"trial_n":55,"min":76,"max":179,"target":"present","response":"present","rt":685,"correct":true,"confidence":5},{"trial_n":56,"min":76,"max":179,"target":"present","response":"absent","rt":940.29999995232,"correct":false,"confidence":3},{"trial_n":57,"min":75,"max":180,"target":"present","response":"present","rt":649.79999995232,"correct":true,"confidence":5},{"trial_n":58,"min":75,"max":180,"target":"absent","response":"present","rt":706.29999995232,"correct":false,"confidence":3},{"trial_n":59,"min":74,"max":181,"target":"absent","response":"absent","rt":793.09999990463,"correct":true,"confidence":2},{"trial_n":60,"min":74,"max":181,"target":"absent","response":"absent","rt":817.70000004768,"correct":true,"confidence":3},{"trial_n":61,"min":75,"max":180,"target":"absent","response":"absent","rt":732.79999995232,"correct":true,"confidence":2},{"trial_n":62,"min":75,"max":180,"target":"present","response":"absent","rt":717.5,"correct":false,"confidence":2},{"trial_n":63,"min":74,"max":181,"target":"present","response":"present","rt":681,"correct":true,"confidence":2},{"trial_n":64,"min":74,"max":181,"target":"present","response":"present","rt":606,"correct":true,"confidence":5},{"trial_n":65,"min":75,"max":180,"target":"absent","response":"absent","rt":637.20000004768,"correct":true,"confidence":4},{"trial_n":66,"min":75,"max":180,"target":"present","response":"absent","rt":717.70000004768,"correct":false,"confidence":3},{"trial_n":67,"min":74,"max":181,"target":"absent","response":"present","rt":720.09999990463,"correct":false,"confidence":3},{"trial_n":68,"min":73,"max":182,"target":"absent","response":"absent","rt":952.59999990463,"correct":true,"confidence":2},{"trial_n":69,"min":73,"max":182,"target":"absent","response":"present","rt":727.70000004768,"correct":false,"confidence":4},{"trial_n":70,"min":72,"max":183,"target":"absent","response":"absent","rt":1113.9000000954,"correct":true,"confidence":3},{"trial_n":71,"min":41,"max":214,"target":"present","response":"present","rt":1378.0999999046,"correct":true,"confidence":-1},{"trial_n":72,"min":41,"max":214,"target":"present","response":"present","rt":594,"correct":true,"confidence":-1},{"trial_n":73,"min":57,"max":198,"target":"absent","response":"absent","rt":4875.3999998569,"correct":true,"confidence":-1},{"trial_n":74,"min":57,"max":198,"target":"absent","response":"absent","rt":933.20000004768,"correct":true,"confidence":-1},{"trial_n":75,"min":73,"max":182,"target":"present","response":"present","rt":943.20000004768,"correct":true,"confidence":-1},{"trial_n":76,"min":73,"max":182,"target":"absent","response":"absent","rt":966.10000014305,"correct":true,"confidence":-1},{"trial_n":77,"min":89,"max":166,"target":"present","response":"absent","rt":1008.2000000477,"correct":false,"confidence":-1},{"trial_n":78,"min":73,"max":182,"target":"present","response":"present","rt":641.79999995232,"correct":true,"confidence":-1},{"trial_n":79,"min":73,"max":182,"target":"absent","response":"absent","rt":719.29999995232,"correct":true,"confidence":-1},{"trial_n":80,"min":89,"max":166,"target":"present","response":"absent","rt":783,"correct":false,"confidence":-1},{"trial_n":81,"min":81,"max":174,"target":"absent","response":"absent","rt":823,"correct":true,"confidence":-1},{"trial_n":82,"min":81,"max":174,"target":"present","response":"present","rt":839.5,"correct":true,"confidence":-1},{"trial_n":83,"min":89,"max":166,"target":"absent","response":"absent","rt":775.5,"correct":true,"confidence":-1},{"trial_n":84,"min":89,"max":166,"target":"absent","response":"present","rt":986.60000014305,"correct":false,"confidence":-1},{"trial_n":85,"min":81,"max":174,"target":"present","response":"present","rt":861.70000004768,"correct":true,"confidence":-1},{"trial_n":86,"min":81,"max":174,"target":"absent","response":"absent","rt":746.29999995232,"correct":true,"confidence":-1},{"trial_n":87,"min":89,"max":166,"target":"present","response":"present","rt":760.59999990463,"correct":true,"confidence":-1},{"trial_n":88,"min":89,"max":166,"target":"present","response":"present","rt":849,"correct":true,"confidence":-1},{"trial_n":89,"min":97,"max":158,"target":"absent","response":"absent","rt":779.5,"correct":true,"confidence":-1},{"trial_n":90,"min":97,"max":158,"target":"present","response":"absent","rt":721.90000009537,"correct":false,"confidence":-1},{"trial_n":91,"min":93,"max":162,"target":"absent","response":"absent","rt":1978.3999998569,"correct":true,"confidence":2},{"trial_n":92,"min":93,"max":162,"target":"present","response":"present","rt":771.70000004768,"correct":true,"confidence":3},{"trial_n":93,"min":97,"max":158,"target":"present","response":"present","rt":898.60000014305,"correct":true,"confidence":2},{"trial_n":94,"min":97,"max":158,"target":"absent","response":"present","rt":772.70000004768,"correct":false,"confidence":3},{"trial_n":95,"min":93,"max":162,"target":"absent","response":"absent","rt":907.59999990463,"correct":true,"confidence":3},{"trial_n":96,"min":93,"max":162,"target":"present","response":"absent","rt":917.29999995232,"correct":false,"confidence":3},{"trial_n":97,"min":89,"max":166,"target":"present","response":"present","rt":693.5,"correct":true,"confidence":4},{"trial_n":98,"min":89,"max":166,"target":"present","response":"present","rt":675.5,"correct":true,"confidence":5},{"trial_n":99,"min":93,"max":162,"target":"absent","response":"present","rt":853.70000004768,"correct":false,"confidence":3},{"trial_n":100,"min":89,"max":166,"target":"present","response":"present","rt":691.69999980927,"correct":true,"confidence":5},{"trial_n":101,"min":89,"max":166,"target":"present","response":"present","rt":677,"correct":true,"confidence":5},{"trial_n":102,"min":91,"max":164,"target":"absent","response":"present","rt":809.5,"correct":false,"confidence":4},{"trial_n":103,"min":89,"max":166,"target":"present","response":"present","rt":826.59999990463,"correct":true,"confidence":3},{"trial_n":104,"min":89,"max":166,"target":"absent","response":"absent","rt":732.09999990463,"correct":true,"confidence":2},{"trial_n":105,"min":91,"max":164,"target":"present","response":"present","rt":1042.5999999046,"correct":true,"confidence":1},{"trial_n":106,"min":91,"max":164,"target":"absent","response":"present","rt":941.70000004768,"correct":false,"confidence":2},{"trial_n":107,"min":89,"max":166,"target":"present","response":"present","rt":740.29999995232,"correct":true,"confidence":3},{"trial_n":108,"min":89,"max":166,"target":"present","response":"present","rt":838.10000014305,"correct":true,"confidence":3},{"trial_n":109,"min":91,"max":164,"target":"absent","response":"present","rt":813.29999995232,"correct":false,"confidence":3},{"trial_n":110,"min":89,"max":166,"target":"absent","response":"absent","rt":1313.5999999046,"correct":true,"confidence":4},{"trial_n":111,"min":89,"max":166,"target":"absent","response":"present","rt":988.39999985695,"correct":false,"confidence":1},{"trial_n":112,"min":88,"max":167,"target":"present","response":"present","rt":843.20000004768,"correct":true,"confidence":3},{"trial_n":113,"min":88,"max":167,"target":"absent","response":"present","rt":849.09999990463,"correct":false,"confidence":2},{"trial_n":114,"min":87,"max":168,"target":"absent","response":"present","rt":732.80000019073,"correct":false,"confidence":3},{"trial_n":115,"min":86,"max":169,"target":"absent","response":"present","rt":1024.2999999523,"correct":false,"confidence":3},{"trial_n":116,"min":85,"max":170,"target":"present","response":"present","rt":632.20000004768,"correct":true,"confidence":4},{"trial_n":117,"min":85,"max":170,"target":"absent","response":"absent","rt":767,"correct":true,"confidence":3},{"trial_n":118,"min":86,"max":169,"target":"present","response":"present","rt":853.79999995232,"correct":true,"confidence":3},{"trial_n":119,"min":86,"max":169,"target":"present","response":"present","rt":653.20000004768,"correct":true,"confidence":3},{"trial_n":120,"min":87,"max":168,"target":"absent","response":"present","rt":1566.6000001431,"correct":false,"confidence":1},{"trial_n":121,"min":86,"max":169,"target":"present","response":"present","rt":780.59999990463,"correct":true,"confidence":3},{"trial_n":122,"min":86,"max":169,"target":"present","response":"absent","rt":1221.3000001907,"correct":false,"confidence":1},{"trial_n":123,"min":85,"max":170,"target":"present","response":"present","rt":792.19999980927,"correct":true,"confidence":2},{"trial_n":124,"min":85,"max":170,"target":"absent","response":"absent","rt":1147.9000000954,"correct":true,"confidence":1},{"trial_n":125,"min":86,"max":169,"target":"present","response":"present","rt":951.29999995232,"correct":true,"confidence":1},{"trial_n":126,"min":86,"max":169,"target":"present","response":"present","rt":864.70000004768,"correct":true,"confidence":2},{"trial_n":127,"min":87,"max":168,"target":"absent","response":"present","rt":1291.8999998569,"correct":false,"confidence":2},{"trial_n":128,"min":86,"max":169,"target":"absent","response":"absent","rt":511.59999990463,"correct":true,"confidence":1},{"trial_n":129,"min":86,"max":169,"target":"present","response":"absent","rt":1036.7000000477,"correct":false,"confidence":3},{"trial_n":130,"min":85,"max":170,"target":"absent","response":"present","rt":1214.0999999046,"correct":false,"confidence":2},{"trial_n":131,"min":84,"max":171,"target":"absent","response":"absent","rt":1152.2000000477,"correct":true,"confidence":2},{"trial_n":132,"min":84,"max":171,"target":"absent","response":"absent","rt":803.70000004768,"correct":true,"confidence":3},{"trial_n":133,"min":85,"max":170,"target":"absent","response":"present","rt":905.70000004768,"correct":false,"confidence":3},{"trial_n":134,"min":84,"max":171,"target":"absent","response":"present","rt":984.40000009537,"correct":false,"confidence":2},{"trial_n":135,"min":83,"max":172,"target":"present","response":"absent","rt":884,"correct":false,"confidence":2},{"trial_n":136,"min":82,"max":173,"target":"present","response":"absent","rt":893.59999990463,"correct":false,"confidence":2},{"trial_n":137,"min":81,"max":174,"target":"present","response":"present","rt":631.5,"correct":true,"confidence":3},{"trial_n":138,"min":81,"max":174,"target":"absent","response":"present","rt":889.60000014305,"correct":false,"confidence":2},{"trial_n":139,"min":80,"max":175,"target":"absent","response":"absent","rt":787.20000004768,"correct":true,"confidence":2},{"trial_n":140,"min":80,"max":175,"target":"present","response":"present","rt":902.59999990463,"correct":true,"confidence":3}]