[{"trial_n":1,"n_dots":4.25,"target":"right","response":"left","rt":3027.5999999046,"correct":false,"confidence":-1},{"trial_n":2,"n_dots":4.25,"target":"left","response":"right","rt":988.39999985695,"correct":false,"confidence":-1},{"trial_n":3,"n_dots":4.65,"target":"right","response":"right","rt":796.19999980927,"correct":true,"confidence":-1},{"trial_n":4,"n_dots":4.65,"target":"right","response":"right","rt":580,"correct":true,"confidence":-1},{"trial_n":5,"n_dots":4.25,"target":"left","response":"left","rt":376.79999995232,"correct":true,"confidence":-1},{"trial_n":6,"n_dots":4.25,"target":"left","response":"left","rt":456.09999990463,"correct":true,"confidence":-1},{"trial_n":7,"n_dots":3.85,"target":"left","response":"right","rt":499.40000009537,"correct":false,"confidence":-1},{"trial_n":8,"n_dots":4.05,"target":"right","response":"right","rt":336.89999985695,"correct":true,"confidence":-1},{"trial_n":9,"n_dots":4.05,"target":"right","response":"left","rt":634.40000009537,"correct":false,"confidence":-1},{"trial_n":10,"n_dots":4.25,"target":"left","response":"left","rt":289.39999985695,"correct":true,"confidence":-1},{"trial_n":11,"n_dots":4.25,"target":"left","response":"left","rt":211.5,"correct":true,"confidence":-1},{"trial_n":12,"n_dots":4.05,"target":"right","response":"right","rt":934.39999985695,"correct":true,"confidence":-1},{"trial_n":13,"n_dots":4.05,"target":"right","response":"right","rt":282.89999985695,"correct":true,"confidence":-1},{"trial_n":14,"n_dots":3.95,"target":"right","response":"right","rt":156.90000009537,"correct":true,"confidence":-1},{"trial_n":15,"n_dots":3.95,"target":"left","response":"right","rt":658.80000019073,"correct":false,"confidence":-1},{"trial_n":16,"n_dots":4.05,"target":"right","response":"right","rt":97,"correct":true,"confidence":-1},{"trial_n":17,"n_dots":4.05,"target":"right","response":"right","rt":93.299999952316,"correct":true,"confidence":-1},{"trial_n":18,"n_dots":3.95,"target":"left","response":"right","rt":1427.8000001907,"correct":false,"confidence":-1},{"trial_n":19,"n_dots":4.05,"target":"left","response":"left","rt":509.29999995232,"correct":true,"confidence":-1},{"trial_n":20,"n_dots":4.05,"target":"right","response":"right","rt":65.699999809265,"correct":true,"confidence":-1},{"trial_n":21,"n_dots":3.95,"target":"left","response":"left","rt":551.09999990463,"correct":true,"confidence":3},{"trial_n":22,"n_dots":3.95,"target":"right","response":"right","rt":192.29999995232,"correct":true,"confidence":5},{"trial_n":23,"n_dots":3.85,"target":"right","response":"right","rt":108.5,"correct":true,"confidence":5},{"trial_n":24,"n_dots":3.85,"target":"left","response":"right","rt":42.600000143051,"correct":false,"confidence":2},{"trial_n":25,"n_dots":3.95,"target":"left","response":"right","rt":15.100000143051,"correct":false,"confidence":2},{"trial_n":26,"n_dots":4.05,"target":"right","response":"right","rt":828.79999995232,"correct":true,"confidence":4},{"trial_n":27,"n_dots":4.05,"target":"right","response":"right","rt":56.099999904633,"correct":true,"confidence":4},{"trial_n":28,"n_dots":3.95,"target":"right","response":"right","rt":766,"correct":true,"confidence":4},{"trial_n":29,"n_dots":3.95,"target":"left","response":"left","rt":129.39999985695,"correct":true,"confidence":3},{"trial_n":30,"n_dots":3.85,"target":"left","response":"left","rt":541.90000009537,"correct":true,"confidence":3},{"trial_n":31,"n_dots":3.85,"target":"left","response":"left","rt":584.40000009537,"correct":true,"confidence":5},{"trial_n":32,"n_dots":3.75,"target":"right","response":"right","rt":205.79999995232,"correct":true,"confidence":5},{"trial_n":33,"n_dots":3.75,"target":"left","response":"left","rt":706.79999995232,"correct":true,"confidence":3},{"trial_n":34,"n_dots":3.65,"target":"left","response":"left","rt":589.09999990463,"correct":true,"confidence":3},{"trial_n":35,"n_dots":3.65,"target":"right","response":"right","rt":489,"correct":true,"confidence":4},{"trial_n":36,"n_dots":3.55,"target":"left","response":"left","rt":356,"correct":true,"confidence":5},{"trial_n":37,"n_dots":3.55,"target":"left","response":"left","rt":657.19999980927,"correct":true,"confidence":5},{"trial_n":38,"n_dots":3.45,"target":"right","response":"right","rt":311.40000009537,"correct":true,"confidence":5},{"trial_n":39,"n_dots":3.45,"target":"left","response":"left","rt":587.90000009537,"correct":true,"confidence":4},{"trial_n":40,"n_dots":3.35,"target":"left","response":"left","rt":314.20000004768,"correct":true,"confidence":4},{"trial_n":41,"n_dots":3.35,"target":"left","response":"left","rt":967.20000004768,"correct":true,"confidence":4},{"trial_n":42,"n_dots":3.25,"target":"right","response":"left","rt":2019.4000000954,"correct":false,"confidence":2},{"trial_n":43,"n_dots":3.35,"target":"right","response":"right","rt":252.90000009537,"correct":true,"confidence":3},{"trial_n":44,"n_dots":3.35,"target":"right","response":"left","rt":745.40000009537,"correct":false,"confidence":4},{"trial_n":45,"n_dots":3.45,"target":"right","response":"right","rt":369.29999995232,"correct":true,"confidence":4},{"trial_n":46,"n_dots":3.45,"target":"left","response":"left","rt":680,"correct":true,"confidence":4},{"trial_n":47,"n_dots":3.35,"target":"left","response":"left","rt":312.69999980927,"correct":true,"confidence":5},{"trial_n":48,"n_dots":3.35,"target":"right","response":"right","rt":282.59999990463,"correct":true,"confidence":5},{"trial_n":49,"n_dots":3.25,"target":"left","response":"left","rt":196.60000014305,"correct":true,"confidence":5},{"trial_n":50,"n_dots":3.25,"target":"left","response":"left","rt":463.90000009537,"correct":true,"confidence":5},{"trial_n":51,"n_dots":3.15,"target":"right","response":"left","rt":643.59999990463,"correct":false,"confidence":4},{"trial_n":52,"n_dots":3.25,"target":"right","response":"right","rt":408.5,"correct":true,"confidence":4},{"trial_n":53,"n_dots":3.25,"target":"right","response":"left","rt":571.20000004768,"correct":false,"confidence":4},{"trial_n":54,"n_dots":3.35,"target":"right","response":"left","rt":630.19999980927,"correct":false,"confidence":4},{"trial_n":55,"n_dots":3.45,"target":"right","response":"right","rt":362.60000014305,"correct":true,"confidence":4},{"trial_n":56,"n_dots":3.45,"target":"right","response":"right","rt":777.5,"correct":true,"confidence":4},{"trial_n":57,"n_dots":3.35,"target":"left","response":"left","rt":866.29999995232,"correct":true,"confidence":3},{"trial_n":58,"n_dots":3.35,"target":"right","response":"left","rt":372.10000014305,"correct":false,"confidence":5},{"trial_n":59,"n_dots":3.45,"target":"right","response":"left","rt":731.70000004768,"correct":false,"confidence":5},{"trial_n":60,"n_dots":3.55,"target":"right","response":"right","rt":1611.7000000477,"correct":true,"confidence":3},{"trial_n":61,"n_dots":3.55,"target":"left","response":"left","rt":758.89999985695,"correct":true,"confidence":4},{"trial_n":62,"n_dots":3.45,"target":"right","response":"left","rt":397.5,"correct":false,"confidence":3},{"trial_n":63,"n_dots":3.55,"target":"right","response":"right","rt":646.79999995232,"correct":true,"confidence":4},{"trial_n":64,"n_dots":3.55,"target":"left","response":"left","rt":1007.1000001431,"correct":true,"confidence":3},{"trial_n":65,"n_dots":3.45,"target":"right","response":"right","rt":324.90000009537,"correct":true,"confidence":5},{"trial_n":66,"n_dots":3.45,"target":"left","response":"left","rt":208,"correct":true,"confidence":5},{"trial_n":67,"n_dots":3.35,"target":"left","response":"left","rt":543.80000019073,"correct":true,"confidence":5},{"trial_n":68,"n_dots":3.35,"target":"right","response":"right","rt":596.70000004768,"correct":true,"confidence":4},{"trial_n":69,"n_dots":3.25,"target":"left","response":"left","rt":419.5,"correct":true,"confidence":4},{"trial_n":70,"n_dots":3.25,"target":"left","response":"left","rt":620.79999995232,"correct":true,"confidence":4},{"trial_n":71,"n_dots":3.15,"target":"left","response":"left","rt":252.30000019073,"correct":true,"confidence":4},{"trial_n":72,"n_dots":3.15,"target":"right","response":"right","rt":337.40000009537,"correct":true,"confidence":3},{"trial_n":73,"n_dots":3.05,"target":"right","response":"right","rt":235.60000014305,"correct":true,"confidence":4},{"trial_n":74,"n_dots":3.05,"target":"right","response":"right","rt":219.79999995232,"correct":true,"confidence":4},{"trial_n":75,"n_dots":2.95,"target":"right","response":"left","rt":963.19999980927,"correct":false,"confidence":3},{"trial_n":76,"n_dots":3.05,"target":"left","response":"left","rt":775.79999995232,"correct":true,"confidence":2},{"trial_n":77,"n_dots":3.05,"target":"right","response":"right","rt":571.40000009537,"correct":true,"confidence":3},{"trial_n":78,"n_dots":2.95,"target":"left","response":"right","rt":1016.0999999046,"correct":false,"confidence":2},{"trial_n":79,"n_dots":3.05,"target":"right","response":"right","rt":600.5,"correct":true,"confidence":2},{"trial_n":80,"n_dots":3.05,"target":"right","response":"right","rt":1248.7999999523,"correct":true,"confidence":2},{"trial_n":81,"n_dots":2.95,"target":"right","response":"left","rt":862.09999990463,"correct":false,"confidence":2},{"trial_n":82,"n_dots":3.05,"target":"left","response":"left","rt":973.40000009537,"correct":true,"confidence":2},{"trial_n":83,"n_dots":3.05,"target":"left","response":"left","rt":693.19999980927,"correct":true,"confidence":2},{"trial_n":84,"n_dots":2.95,"target":"right","response":"right","rt":911.40000009537,"correct":true,"confidence":2},{"trial_n":85,"n_dots":2.95,"target":"left","response":"right","rt":548.09999990463,"correct":false,"confidence":2},{"trial_n":86,"n_dots":3.05,"target":"left","response":"right","rt":628.5,"correct":false,"confidence":2},{"trial_n":87,"n_dots":3.15,"target":"right","response":"right","rt":570.5,"correct":true,"confidence":2},{"trial_n":88,"n_dots":3.15,"target":"right","response":"right","rt":1385.5,"correct":true,"confidence":2},{"trial_n":89,"n_dots":3.05,"target":"right","response":"right","rt":747,"correct":true,"confidence":2},{"trial_n":90,"n_dots":3.05,"target":"left","response":"left","rt":724.5,"correct":true,"confidence":2},{"trial_n":91,"n_dots":2.95,"target":"left","response":"left","rt":921.5,"correct":true,"confidence":2},{"trial_n":92,"n_dots":2.95,"target":"right","response":"right","rt":773.19999980927,"correct":true,"confidence":2},{"trial_n":93,"n_dots":2.85,"target":"left","response":"left","rt":1017.1000001431,"correct":true,"confidence":1},{"trial_n":94,"n_dots":2.85,"target":"left","response":"left","rt":999.89999985695,"correct":true,"confidence":1},{"trial_n":95,"n_dots":2.75,"target":"right","response":"left","rt":593.40000009537,"correct":false,"confidence":1},{"trial_n":96,"n_dots":2.85,"target":"left","response":"right","rt":482.70000004768,"correct":false,"confidence":1},{"trial_n":97,"n_dots":2.95,"target":"left","response":"left","rt":395.59999990463,"correct":true,"confidence":1},{"trial_n":98,"n_dots":2.95,"target":"right","response":"right","rt":511.09999990463,"correct":true,"confidence":1},{"trial_n":99,"n_dots":2.85,"target":"left","response":"left","rt":135.79999995232,"correct":true,"confidence":3},{"trial_n":100,"n_dots":2.85,"target":"left","response":"left","rt":414.60000014305,"correct":true,"confidence":3},{"trial_n":101,"n_dots":2.75,"target":"left","response":"left","rt":483.29999995232,"correct":true,"confidence":3},{"trial_n":102,"n_dots":2.75,"target":"left","response":"left","rt":483.90000009537,"correct":true,"confidence":3},{"trial_n":103,"n_dots":2.65,"target":"left","response":"left","rt":740.40000009537,"correct":true,"confidence":2},{"trial_n":104,"n_dots":2.65,"target":"right","response":"left","rt":380,"correct":false,"confidence":3},{"trial_n":105,"n_dots":2.75,"target":"left","response":"left","rt":1329.3000001907,"correct":true,"confidence":1},{"trial_n":106,"n_dots":2.75,"target":"left","response":"left","rt":615.69999980927,"correct":true,"confidence":1},{"trial_n":107,"n_dots":2.65,"target":"right","response":"left","rt":967.59999990463,"correct":false,"confidence":1},{"trial_n":108,"n_dots":2.75,"target":"left","response":"left","rt":1026.5,"correct":true,"confidence":1},{"trial_n":109,"n_dots":2.75,"target":"right","response":"left","rt":578.29999995232,"correct":false,"confidence":1},{"trial_n":110,"n_dots":2.85,"target":"right","response":"left","rt":451.39999985695,"correct":false,"confidence":1},{"trial_n":111,"n_dots":2.95,"target":"right","response":"left","rt":55.200000047684,"correct":false,"confidence":1},{"trial_n":112,"n_dots":3.05,"target":"left","response":"left","rt":440.79999995232,"correct":true,"confidence":1},{"trial_n":113,"n_dots":3.05,"target":"left","response":"left","rt":408.40000009537,"correct":true,"confidence":1},{"trial_n":114,"n_dots":2.95,"target":"right","response":"left","rt":818.70000004768,"correct":false,"confidence":1},{"trial_n":115,"n_dots":3.05,"target":"right","response":"left","rt":762.59999990463,"correct":false,"confidence":1},{"trial_n":116,"n_dots":3.15,"target":"left","response":"left","rt":725.70000004768,"correct":true,"confidence":1},{"trial_n":117,"n_dots":3.15,"target":"right","response":"left","rt":613.59999990463,"correct":false,"confidence":1},{"trial_n":118,"n_dots":3.25,"target":"left","response":"left","rt":364.40000009537,"correct":true,"confidence":1},{"trial_n":119,"n_dots":3.25,"target":"left","response":"left","rt":508.70000004768,"correct":true,"confidence":1},{"trial_n":120,"n_dots":3.15,"target":"left","response":"left","rt":495.20000004768,"correct":true,"confidence":3}]