[{"trial_n":1,"n_dots":4.25,"target":"right","response":"right","rt":4539.7000000477,"correct":true,"confidence":-1},{"trial_n":2,"n_dots":4.25,"target":"right","response":"right","rt":3882.0999999046,"correct":true,"confidence":-1},{"trial_n":3,"n_dots":3.85,"target":"left","response":"left","rt":1213.3999998569,"correct":true,"confidence":-1},{"trial_n":4,"n_dots":3.85,"target":"left","response":"left","rt":1135.3999998569,"correct":true,"confidence":-1},{"trial_n":5,"n_dots":3.45,"target":"right","response":"left","rt":971.39999985695,"correct":false,"confidence":-1},{"trial_n":6,"n_dots":3.85,"target":"right","response":"right","rt":901.40000009537,"correct":true,"confidence":-1},{"trial_n":7,"n_dots":3.85,"target":"right","response":"right","rt":737.29999995232,"correct":true,"confidence":-1},{"trial_n":8,"n_dots":3.65,"target":"right","response":"right","rt":678.89999985695,"correct":true,"confidence":-1},{"trial_n":9,"n_dots":3.65,"target":"left","response":"left","rt":697.90000009537,"correct":true,"confidence":-1},{"trial_n":10,"n_dots":3.45,"target":"left","response":"left","rt":572.60000014305,"correct":true,"confidence":-1},{"trial_n":11,"n_dots":3.45,"target":"left","response":"left","rt":571.69999980927,"correct":true,"confidence":-1},{"trial_n":12,"n_dots":3.25,"target":"right","response":"left","rt":772.89999985695,"correct":false,"confidence":-1},{"trial_n":13,"n_dots":3.35,"target":"right","response":"right","rt":662.5,"correct":true,"confidence":-1},{"trial_n":14,"n_dots":3.35,"target":"right","response":"right","rt":447.89999985695,"correct":true,"confidence":-1},{"trial_n":15,"n_dots":3.25,"target":"right","response":"left","rt":628.59999990463,"correct":false,"confidence":-1},{"trial_n":16,"n_dots":3.35,"target":"right","response":"right","rt":499.5,"correct":true,"confidence":-1},{"trial_n":17,"n_dots":3.35,"target":"left","response":"left","rt":533.69999980927,"correct":true,"confidence":-1},{"trial_n":18,"n_dots":3.25,"target":"left","response":"left","rt":561.19999980927,"correct":true,"confidence":-1},{"trial_n":19,"n_dots":3.25,"target":"left","response":"left","rt":548.60000014305,"correct":true,"confidence":-1},{"trial_n":20,"n_dots":3.15,"target":"right","response":"right","rt":633.29999995232,"correct":true,"confidence":-1},{"trial_n":21,"n_dots":3.15,"target":"left","response":"left","rt":647.70000004768,"correct":true,"confidence":3},{"trial_n":22,"n_dots":3.05,"target":"right","response":"left","rt":991.30000019073,"correct":false,"confidence":4},{"trial_n":23,"n_dots":3.15,"target":"right","response":"right","rt":1017.8000001907,"correct":true,"confidence":3},{"trial_n":24,"n_dots":3.15,"target":"left","response":"left","rt":1005,"correct":true,"confidence":2},{"trial_n":25,"n_dots":3.05,"target":"left","response":"left","rt":1000.9000000954,"correct":true,"confidence":3},{"trial_n":26,"n_dots":3.05,"target":"left","response":"left","rt":1004.5,"correct":true,"confidence":2},{"trial_n":27,"n_dots":2.95,"target":"left","response":"left","rt":791.5,"correct":true,"confidence":2},{"trial_n":28,"n_dots":2.95,"target":"right","response":"right","rt":1303.4000000954,"correct":true,"confidence":2},{"trial_n":29,"n_dots":2.85,"target":"left","response":"left","rt":770,"correct":true,"confidence":3},{"trial_n":30,"n_dots":2.85,"target":"right","response":"left","rt":961.5,"correct":false,"confidence":3},{"trial_n":31,"n_dots":2.95,"target":"right","response":"right","rt":963.10000014305,"correct":true,"confidence":2},{"trial_n":32,"n_dots":2.95,"target":"left","response":"left","rt":843.5,"correct":true,"confidence":3},{"trial_n":33,"n_dots":2.85,"target":"right","response":"left","rt":898.30000019073,"correct":false,"confidence":3},{"trial_n":34,"n_dots":2.95,"target":"right","response":"left","rt":691.60000014305,"correct":false,"confidence":3},{"trial_n":35,"n_dots":3.05,"target":"right","response":"right","rt":1786.7999999523,"correct":true,"confidence":1},{"trial_n":36,"n_dots":3.05,"target":"right","response":"left","rt":1255.8999998569,"correct":false,"confidence":2},{"trial_n":37,"n_dots":3.15,"target":"right","response":"left","rt":1249.5,"correct":false,"confidence":2},{"trial_n":38,"n_dots":3.25,"target":"right","response":"right","rt":938.20000004768,"correct":true,"confidence":3},{"trial_n":39,"n_dots":3.25,"target":"right","response":"right","rt":782,"correct":true,"confidence":3},{"trial_n":40,"n_dots":3.15,"target":"left","response":"left","rt":1289.9000000954,"correct":true,"confidence":3},{"trial_n":41,"n_dots":3.15,"target":"right","response":"right","rt":700.59999990463,"correct":true,"confidence":4},{"trial_n":42,"n_dots":3.05,"target":"left","response":"left","rt":948.09999990463,"correct":true,"confidence":4},{"trial_n":43,"n_dots":3.05,"target":"right","response":"left","rt":1310.2000000477,"correct":false,"confidence":2},{"trial_n":44,"n_dots":3.15,"target":"left","response":"left","rt":746.89999985695,"correct":true,"confidence":5},{"trial_n":45,"n_dots":3.15,"target":"left","response":"left","rt":1063.5,"correct":true,"confidence":3},{"trial_n":46,"n_dots":3.05,"target":"right","response":"left","rt":2125.2999999523,"correct":false,"confidence":3},{"trial_n":47,"n_dots":3.15,"target":"left","response":"left","rt":675.09999990463,"correct":true,"confidence":4},{"trial_n":48,"n_dots":3.15,"target":"right","response":"right","rt":856.40000009537,"correct":true,"confidence":3},{"trial_n":49,"n_dots":3.05,"target":"right","response":"right","rt":1361.4000000954,"correct":true,"confidence":2},{"trial_n":50,"n_dots":3.05,"target":"left","response":"left","rt":1073,"correct":true,"confidence":3},{"trial_n":51,"n_dots":2.95,"target":"left","response":"left","rt":1502.5999999046,"correct":true,"confidence":3},{"trial_n":52,"n_dots":2.95,"target":"left","response":"right","rt":1203,"correct":false,"confidence":2},{"trial_n":53,"n_dots":3.05,"target":"right","response":"right","rt":2158.2000000477,"correct":true,"confidence":3},{"trial_n":54,"n_dots":3.05,"target":"left","response":"left","rt":1147.5999999046,"correct":true,"confidence":2},{"trial_n":55,"n_dots":2.95,"target":"left","response":"right","rt":1228.8999998569,"correct":false,"confidence":2},{"trial_n":56,"n_dots":3.05,"target":"left","response":"left","rt":1073.7000000477,"correct":true,"confidence":3},{"trial_n":57,"n_dots":3.05,"target":"left","response":"left","rt":866.5,"correct":true,"confidence":3},{"trial_n":58,"n_dots":2.95,"target":"right","response":"right","rt":1462,"correct":true,"confidence":3},{"trial_n":59,"n_dots":2.95,"target":"left","response":"left","rt":765.5,"correct":true,"confidence":4},{"trial_n":60,"n_dots":2.85,"target":"left","response":"left","rt":795.90000009537,"correct":true,"confidence":4},{"trial_n":61,"n_dots":2.85,"target":"left","response":"left","rt":670.20000004768,"correct":true,"confidence":4},{"trial_n":62,"n_dots":2.75,"target":"left","response":"right","rt":911.90000009537,"correct":false,"confidence":3},{"trial_n":63,"n_dots":2.85,"target":"left","response":"left","rt":651.29999995232,"correct":true,"confidence":4},{"trial_n":64,"n_dots":2.85,"target":"right","response":"left","rt":912.90000009537,"correct":false,"confidence":4},{"trial_n":65,"n_dots":2.95,"target":"left","response":"right","rt":1345.7000000477,"correct":false,"confidence":2},{"trial_n":66,"n_dots":3.05,"target":"right","response":"right","rt":895.90000009537,"correct":true,"confidence":3},{"trial_n":67,"n_dots":3.05,"target":"left","response":"left","rt":891.09999990463,"correct":true,"confidence":4},{"trial_n":68,"n_dots":2.95,"target":"right","response":"right","rt":880.19999980927,"correct":true,"confidence":3},{"trial_n":69,"n_dots":2.95,"target":"right","response":"left","rt":1261.7999999523,"correct":false,"confidence":3},{"trial_n":70,"n_dots":3.05,"target":"left","response":"left","rt":1633.0999999046,"correct":true,"confidence":3},{"trial_n":71,"n_dots":3.05,"target":"left","response":"left","rt":921,"correct":true,"confidence":3},{"trial_n":72,"n_dots":2.95,"target":"left","response":"right","rt":1952.5,"correct":false,"confidence":2},{"trial_n":73,"n_dots":3.05,"target":"right","response":"left","rt":1308.7000000477,"correct":false,"confidence":2},{"trial_n":74,"n_dots":3.15,"target":"right","response":"right","rt":1168.4000000954,"correct":true,"confidence":3},{"trial_n":75,"n_dots":3.15,"target":"right","response":"right","rt":644.79999995232,"correct":true,"confidence":3},{"trial_n":76,"n_dots":3.05,"target":"right","response":"right","rt":824.79999995232,"correct":true,"confidence":3},{"trial_n":77,"n_dots":3.05,"target":"right","response":"right","rt":516.29999995232,"correct":true,"confidence":4},{"trial_n":78,"n_dots":2.95,"target":"right","response":"right","rt":712.60000014305,"correct":true,"confidence":3},{"trial_n":79,"n_dots":2.95,"target":"left","response":"left","rt":882.10000014305,"correct":true,"confidence":3},{"trial_n":80,"n_dots":2.85,"target":"left","response":"left","rt":983.90000009537,"correct":true,"confidence":3},{"trial_n":81,"n_dots":2.85,"target":"left","response":"left","rt":625.20000004768,"correct":true,"confidence":4},{"trial_n":82,"n_dots":2.75,"target":"right","response":"right","rt":719.40000009537,"correct":true,"confidence":4},{"trial_n":83,"n_dots":2.75,"target":"right","response":"left","rt":1302.3000001907,"correct":false,"confidence":3},{"trial_n":84,"n_dots":2.85,"target":"left","response":"right","rt":1079,"correct":false,"confidence":2},{"trial_n":85,"n_dots":2.95,"target":"left","response":"left","rt":559.29999995232,"correct":true,"confidence":3},{"trial_n":86,"n_dots":2.95,"target":"left","response":"left","rt":700.79999995232,"correct":true,"confidence":3},{"trial_n":87,"n_dots":2.85,"target":"right","response":"right","rt":798.59999990463,"correct":true,"confidence":3},{"trial_n":88,"n_dots":2.85,"target":"left","response":"left","rt":619.70000004768,"correct":true,"confidence":3},{"trial_n":89,"n_dots":2.75,"target":"left","response":"left","rt":606.40000009537,"correct":true,"confidence":4},{"trial_n":90,"n_dots":2.75,"target":"left","response":"left","rt":597.29999995232,"correct":true,"confidence":4},{"trial_n":91,"n_dots":2.65,"target":"right","response":"right","rt":1742.4000000954,"correct":true,"confidence":3},{"trial_n":92,"n_dots":2.65,"target":"right","response":"right","rt":1163.2999999523,"correct":true,"confidence":2},{"trial_n":93,"n_dots":2.55,"target":"left","response":"left","rt":664.60000014305,"correct":true,"confidence":3},{"trial_n":94,"n_dots":2.55,"target":"left","response":"left","rt":998.5,"correct":true,"confidence":3},{"trial_n":95,"n_dots":2.45,"target":"left","response":"right","rt":1199.9000000954,"correct":false,"confidence":1},{"trial_n":96,"n_dots":2.55,"target":"left","response":"left","rt":779.69999980927,"correct":true,"confidence":3},{"trial_n":97,"n_dots":2.55,"target":"left","response":"left","rt":801,"correct":true,"confidence":3},{"trial_n":98,"n_dots":2.45,"target":"left","response":"right","rt":818.09999990463,"correct":false,"confidence":3},{"trial_n":99,"n_dots":2.55,"target":"right","response":"right","rt":1240.6000001431,"correct":true,"confidence":3},{"trial_n":100,"n_dots":2.55,"target":"left","response":"left","rt":768.5,"correct":true,"confidence":3},{"trial_n":101,"n_dots":2.45,"target":"right","response":"left","rt":1040.2000000477,"correct":false,"confidence":3},{"trial_n":102,"n_dots":2.55,"target":"right","response":"left","rt":877.89999985695,"correct":false,"confidence":2},{"trial_n":103,"n_dots":2.65,"target":"left","response":"left","rt":523.10000014305,"correct":true,"confidence":4},{"trial_n":104,"n_dots":2.65,"target":"left","response":"left","rt":603.70000004768,"correct":true,"confidence":3},{"trial_n":105,"n_dots":2.55,"target":"right","response":"left","rt":488.5,"correct":false,"confidence":4},{"trial_n":106,"n_dots":2.65,"target":"left","response":"left","rt":719.39999985695,"correct":true,"confidence":3},{"trial_n":107,"n_dots":2.65,"target":"right","response":"right","rt":706.5,"correct":true,"confidence":3},{"trial_n":108,"n_dots":2.55,"target":"right","response":"right","rt":781.40000009537,"correct":true,"confidence":2},{"trial_n":109,"n_dots":2.55,"target":"right","response":"right","rt":628.30000019073,"correct":true,"confidence":3},{"trial_n":110,"n_dots":2.45,"target":"left","response":"left","rt":522.5,"correct":true,"confidence":3},{"trial_n":111,"n_dots":2.45,"target":"right","response":"right","rt":2124.2000000477,"correct":true,"confidence":3},{"trial_n":112,"n_dots":2.35,"target":"right","response":"right","rt":616.79999995232,"correct":true,"confidence":3},{"trial_n":113,"n_dots":2.35,"target":"right","response":"right","rt":487.59999990463,"correct":true,"confidence":3},{"trial_n":114,"n_dots":2.25,"target":"right","response":"right","rt":695.40000009537,"correct":true,"confidence":3},{"trial_n":115,"n_dots":2.25,"target":"left","response":"right","rt":778.10000014305,"correct":false,"confidence":2},{"trial_n":116,"n_dots":2.35,"target":"right","response":"left","rt":1839.8000001907,"correct":false,"confidence":1},{"trial_n":117,"n_dots":2.45,"target":"left","response":"left","rt":733.10000014305,"correct":true,"confidence":3},{"trial_n":118,"n_dots":2.45,"target":"right","response":"right","rt":874.70000004768,"correct":true,"confidence":2},{"trial_n":119,"n_dots":2.35,"target":"left","response":"left","rt":748.19999980927,"correct":true,"confidence":3},{"trial_n":120,"n_dots":2.35,"target":"right","response":"left","rt":574.29999995232,"correct":false,"confidence":4}]