[{"trial_n":1,"span":8,"encoder":"56323082","distractor":"56325082","target":"present","response":"present","rt":"6427","correct":true,"confidence":-1},{"trial_n":2,"span":8,"encoder":"94871470","distractor":"94871430","target":"present","response":"present","rt":"3163","correct":true,"confidence":-1},{"trial_n":3,"span":10,"encoder":"3328604746","distractor":"3328304746","target":"absent","response":"absent","rt":"1804","correct":true,"confidence":-1},{"trial_n":4,"span":10,"encoder":"6395352743","distractor":"6385352743","target":"absent","response":"present","rt":"1727","correct":false,"confidence":-1},{"trial_n":5,"span":8,"encoder":"14647428","distractor":"14647628","target":"present","response":"absent","rt":"342","correct":false,"confidence":-1},{"trial_n":6,"span":6,"encoder":"388749","distractor":"388743","target":"present","response":"absent","rt":"1433","correct":false,"confidence":-1},{"trial_n":7,"span":4,"encoder":"1756","distractor":"7756","target":"absent","response":"present","rt":"843","correct":false,"confidence":-1},{"trial_n":8,"span":2,"encoder":"58","distractor":"18","target":"present","response":"present","rt":"4578","correct":true,"confidence":-1},{"trial_n":9,"span":2,"encoder":"25","distractor":"24","target":"absent","response":"absent","rt":"2035","correct":true,"confidence":-1},{"trial_n":10,"span":4,"encoder":"6352","distractor":"6392","target":"present","response":"present","rt":"2139","correct":true,"confidence":-1},{"trial_n":11,"span":4,"encoder":"2319","distractor":"2619","target":"absent","response":"absent","rt":"2070","correct":true,"confidence":-1},{"trial_n":12,"span":5,"encoder":"90845","distractor":"90875","target":"absent","response":"absent","rt":"2618","correct":true,"confidence":-1},{"trial_n":13,"span":5,"encoder":"38223","distractor":"98223","target":"present","response":"absent","rt":"3888","correct":false,"confidence":-1},{"trial_n":14,"span":4,"encoder":"2527","distractor":"0527","target":"absent","response":"absent","rt":"2903","correct":true,"confidence":-1},{"trial_n":15,"span":4,"encoder":"8973","distractor":"6973","target":"present","response":"present","rt":"956","correct":true,"confidence":-1},{"trial_n":16,"span":5,"encoder":"68854","distractor":"28854","target":"absent","response":"present","rt":"1003","correct":false,"confidence":-1},{"trial_n":17,"span":4,"encoder":"3006","distractor":"8006","target":"present","response":"absent","rt":"790.00000000001","correct":false,"confidence":-1},{"trial_n":18,"span":3,"encoder":"456","distractor":"756","target":"present","response":"present","rt":"1342","correct":true,"confidence":-1},{"trial_n":19,"span":3,"encoder":"716","distractor":"216","target":"absent","response":"absent","rt":"1143","correct":true,"confidence":-1},{"trial_n":20,"span":4,"encoder":"4483","distractor":"0483","target":"absent","response":"absent","rt":"2029","correct":true,"confidence":-1},{"trial_n":21,"span":4,"encoder":"7875","distractor":"7825","target":"present","response":"present","rt":"2719","correct":true,"confidence":5},{"trial_n":22,"span":5,"encoder":"44968","distractor":"44928","target":"absent","response":"absent","rt":"1927","correct":true,"confidence":3},{"trial_n":23,"span":5,"encoder":"79489","distractor":"79486","target":"present","response":"absent","rt":"1375","correct":false,"confidence":3},{"trial_n":24,"span":4,"encoder":"9833","distractor":"2833","target":"present","response":"absent","rt":"1679","correct":false,"confidence":3},{"trial_n":25,"span":3,"encoder":"745","distractor":"785","target":"absent","response":"absent","rt":"1829","correct":true,"confidence":5},{"trial_n":26,"span":3,"encoder":"922","distractor":"926","target":"absent","response":"absent","rt":"1437","correct":true,"confidence":4},{"trial_n":27,"span":4,"encoder":"4014","distractor":"7014","target":"absent","response":"absent","rt":"1340","correct":true,"confidence":5},{"trial_n":28,"span":4,"encoder":"7664","distractor":"7634","target":"present","response":"present","rt":"1562","correct":true,"confidence":5},{"trial_n":29,"span":5,"encoder":"57494","distractor":"57496","target":"absent","response":"absent","rt":"2636","correct":true,"confidence":5},{"trial_n":30,"span":5,"encoder":"31004","distractor":"31005","target":"present","response":"present","rt":"2099","correct":true,"confidence":5},{"trial_n":31,"span":6,"encoder":"198237","distractor":"198217","target":"present","response":"present","rt":"3055","correct":true,"confidence":5},{"trial_n":32,"span":6,"encoder":"680629","distractor":"380629","target":"absent","response":"absent","rt":"4069","correct":true,"confidence":3},{"trial_n":33,"span":7,"encoder":"9649777","distractor":"9649577","target":"absent","response":"present","rt":"2080","correct":false,"confidence":3},{"trial_n":34,"span":6,"encoder":"747665","distractor":"745665","target":"absent","response":"present","rt":"1867","correct":false,"confidence":4},{"trial_n":35,"span":5,"encoder":"77054","distractor":"77254","target":"absent","response":"absent","rt":"1117","correct":true,"confidence":5},{"trial_n":36,"span":5,"encoder":"27275","distractor":"27285","target":"present","response":"present","rt":"2523","correct":true,"confidence":4},{"trial_n":37,"span":6,"encoder":"373407","distractor":"373507","target":"absent","response":"absent","rt":"1770","correct":true,"confidence":5},{"trial_n":38,"span":6,"encoder":"267863","distractor":"267823","target":"absent","response":"absent","rt":"3049","correct":true,"confidence":3},{"trial_n":39,"span":7,"encoder":"0581849","distractor":"0584849","target":"present","response":"present","rt":"3296","correct":true,"confidence":5},{"trial_n":40,"span":7,"encoder":"6462523","distractor":"6462723","target":"absent","response":"absent","rt":"2381","correct":true,"confidence":5},{"trial_n":41,"span":8,"encoder":"45195425","distractor":"45190425","target":"absent","response":"absent","rt":"2938","correct":true,"confidence":5},{"trial_n":42,"span":8,"encoder":"97459054","distractor":"97459053","target":"present","response":"present","rt":"3419","correct":true,"confidence":3},{"trial_n":43,"span":9,"encoder":"887362139","distractor":"887362130","target":"absent","response":"absent","rt":"4197","correct":true,"confidence":3},{"trial_n":44,"span":9,"encoder":"063317584","distractor":"063327584","target":"absent","response":"absent","rt":"2127","correct":true,"confidence":1},{"trial_n":45,"span":10,"encoder":"2670261899","distractor":"2670263899","target":"present","response":"absent","rt":"2147","correct":false,"confidence":1},{"trial_n":46,"span":9,"encoder":"099913068","distractor":"079913068","target":"present","response":"present","rt":"3617","correct":true,"confidence":3},{"trial_n":47,"span":9,"encoder":"664197610","distractor":"664797610","target":"present","response":"absent","rt":"1688.0000000001","correct":false,"confidence":3},{"trial_n":48,"span":8,"encoder":"30564350","distractor":"30584350","target":"absent","response":"present","rt":"1866","correct":false,"confidence":3},{"trial_n":49,"span":7,"encoder":"5508183","distractor":"0508183","target":"present","response":"present","rt":"1900","correct":true,"confidence":4},{"trial_n":50,"span":7,"encoder":"8811405","distractor":"8811705","target":"present","response":"absent","rt":"2252","correct":false,"confidence":2},{"trial_n":51,"span":6,"encoder":"080445","distractor":"088445","target":"present","response":"present","rt":"1861","correct":true,"confidence":5},{"trial_n":52,"span":6,"encoder":"460132","distractor":"460232","target":"present","response":"absent","rt":"3011","correct":false,"confidence":3},{"trial_n":53,"span":5,"encoder":"57089","distractor":"57059","target":"present","response":"present","rt":"3447","correct":true,"confidence":5},{"trial_n":54,"span":5,"encoder":"27564","distractor":"27364","target":"present","response":"present","rt":"3143","correct":true,"confidence":4},{"trial_n":55,"span":6,"encoder":"895167","distractor":"895117","target":"absent","response":"absent","rt":"1639","correct":true,"confidence":5},{"trial_n":56,"span":6,"encoder":"115700","distractor":"195700","target":"present","response":"absent","rt":"1760","correct":false,"confidence":4},{"trial_n":57,"span":5,"encoder":"16589","distractor":"16689","target":"absent","response":"absent","rt":"2089.0000000001","correct":true,"confidence":5},{"trial_n":58,"span":5,"encoder":"23127","distractor":"33127","target":"absent","response":"absent","rt":"1236","correct":true,"confidence":5},{"trial_n":59,"span":6,"encoder":"748518","distractor":"748418","target":"present","response":"present","rt":"2448.0000000001","correct":true,"confidence":5},{"trial_n":60,"span":6,"encoder":"449697","distractor":"442697","target":"present","response":"absent","rt":"5926","correct":false,"confidence":2},{"trial_n":61,"span":5,"encoder":"09068","distractor":"99068","target":"present","response":"absent","rt":"2126","correct":false,"confidence":5},{"trial_n":62,"span":4,"encoder":"7307","distractor":"7507","target":"absent","response":"absent","rt":"1426.9999999999","correct":true,"confidence":5},{"trial_n":63,"span":4,"encoder":"4982","distractor":"4482","target":"present","response":"present","rt":"2460.0000000001","correct":true,"confidence":5},{"trial_n":64,"span":5,"encoder":"73084","distractor":"33084","target":"present","response":"present","rt":"1893","correct":true,"confidence":5},{"trial_n":65,"span":5,"encoder":"39761","distractor":"39461","target":"absent","response":"absent","rt":"2288","correct":true,"confidence":1},{"trial_n":66,"span":6,"encoder":"652719","distractor":"652716","target":"present","response":"present","rt":"2347.0000000001","correct":true,"confidence":5},{"trial_n":67,"span":6,"encoder":"844961","distractor":"844901","target":"absent","response":"absent","rt":"1622","correct":true,"confidence":5},{"trial_n":68,"span":7,"encoder":"6060175","distractor":"6080175","target":"absent","response":"absent","rt":"1614","correct":true,"confidence":5},{"trial_n":69,"span":7,"encoder":"5747930","distractor":"5757930","target":"absent","response":"absent","rt":"3085","correct":true,"confidence":3},{"trial_n":70,"span":8,"encoder":"93749084","distractor":"93748084","target":"present","response":"present","rt":"2579","correct":true,"confidence":5},{"trial_n":71,"span":8,"encoder":"16100983","distractor":"16150983","target":"present","response":"present","rt":"1467","correct":true,"confidence":-1},{"trial_n":72,"span":8,"encoder":"77905042","distractor":"77905342","target":"present","response":"present","rt":"3419","correct":true,"confidence":-1},{"trial_n":73,"span":9,"encoder":"907984055","distractor":"901984055","target":"absent","response":"absent","rt":"5076","correct":true,"confidence":-1},{"trial_n":74,"span":9,"encoder":"552509890","distractor":"552599890","target":"absent","response":"present","rt":"363","correct":false,"confidence":-1},{"trial_n":75,"span":8,"encoder":"22390824","distractor":"22190824","target":"present","response":"present","rt":"323","correct":true,"confidence":-1},{"trial_n":76,"span":8,"encoder":"88873724","distractor":"88833724","target":"present","response":"present","rt":"612","correct":true,"confidence":-1},{"trial_n":77,"span":9,"encoder":"700454648","distractor":"700450648","target":"present","response":"absent","rt":"591","correct":false,"confidence":-1},{"trial_n":78,"span":8,"encoder":"14779879","distractor":"14709879","target":"absent","response":"absent","rt":"440","correct":true,"confidence":-1},{"trial_n":79,"span":8,"encoder":"79285552","distractor":"79285452","target":"present","response":"present","rt":"1035","correct":true,"confidence":-1},{"trial_n":80,"span":9,"encoder":"159873912","distractor":"759873912","target":"absent","response":"absent","rt":"523","correct":true,"confidence":-1},{"trial_n":81,"span":9,"encoder":"283268290","distractor":"273268290","target":"absent","response":"present","rt":"815","correct":false,"confidence":-1},{"trial_n":82,"span":8,"encoder":"50499725","distractor":"50899725","target":"absent","response":"absent","rt":"1491","correct":true,"confidence":-1},{"trial_n":83,"span":8,"encoder":"88700836","distractor":"88700036","target":"absent","response":"present","rt":"510","correct":false,"confidence":-1},{"trial_n":84,"span":7,"encoder":"9906118","distractor":"8906118","target":"present","response":"absent","rt":"3205","correct":false,"confidence":-1},{"trial_n":85,"span":6,"encoder":"484289","distractor":"484209","target":"absent","response":"present","rt":"329","correct":false,"confidence":-1},{"trial_n":86,"span":5,"encoder":"47984","distractor":"47989","target":"present","response":"absent","rt":"391","correct":false,"confidence":-1},{"trial_n":87,"span":4,"encoder":"8357","distractor":"5357","target":"present","response":"present","rt":"1170","correct":true,"confidence":-1},{"trial_n":88,"span":4,"encoder":"7484","distractor":"7184","target":"absent","response":"absent","rt":"1022","correct":true,"confidence":-1},{"trial_n":89,"span":5,"encoder":"25443","distractor":"25403","target":"absent","response":"absent","rt":"940","correct":true,"confidence":-1},{"trial_n":90,"span":5,"encoder":"99962","distractor":"99972","target":"present","response":"present","rt":"1789","correct":true,"confidence":-1},{"trial_n":91,"span":6,"encoder":"047800","distractor":"047700","target":"present","response":"present","rt":"1924","correct":true,"confidence":5},{"trial_n":92,"span":6,"encoder":"178371","distractor":"178374","target":"present","response":"present","rt":"1207","correct":true,"confidence":5},{"trial_n":93,"span":7,"encoder":"5425681","distractor":"5429681","target":"absent","response":"absent","rt":"2708","correct":true,"confidence":5},{"trial_n":94,"span":7,"encoder":"5486539","distractor":"5489539","target":"present","response":"present","rt":"2258.0000000001","correct":true,"confidence":5},{"trial_n":95,"span":8,"encoder":"89718960","distractor":"89714960","target":"present","response":"present","rt":"1843","correct":true,"confidence":5},{"trial_n":96,"span":8,"encoder":"09054773","distractor":"02054773","target":"absent","response":"absent","rt":"2467","correct":true,"confidence":5},{"trial_n":97,"span":9,"encoder":"109598348","distractor":"509598348","target":"present","response":"present","rt":"1911","correct":true,"confidence":5},{"trial_n":98,"span":9,"encoder":"173157689","distractor":"173117689","target":"present","response":"present","rt":"4591","correct":true,"confidence":3},{"trial_n":99,"span":10,"encoder":"7187691239","distractor":"7187691232","target":"absent","response":"absent","rt":"2126","correct":true,"confidence":5},{"trial_n":100,"span":10,"encoder":"2282635118","distractor":"2282631118","target":"absent","response":"absent","rt":"3899","correct":true,"confidence":3},{"trial_n":101,"span":11,"encoder":"49646635589","distractor":"49646631589","target":"absent","response":"absent","rt":"1819","correct":true,"confidence":5},{"trial_n":102,"span":11,"encoder":"99202782815","distractor":"99202982815","target":"absent","response":"absent","rt":"1317","correct":true,"confidence":3},{"trial_n":103,"span":12,"encoder":"204778300954","distractor":"204778300934","target":"absent","response":"present","rt":"3769","correct":false,"confidence":3},{"trial_n":104,"span":11,"encoder":"70208704818","distractor":"70208104818","target":"present","response":"present","rt":"1351","correct":true,"confidence":2},{"trial_n":105,"span":11,"encoder":"16144980524","distractor":"10144980524","target":"absent","response":"absent","rt":"2358.9999999999","correct":true,"confidence":2},{"trial_n":106,"span":12,"encoder":"429862869860","distractor":"429862969860","target":"absent","response":"absent","rt":"3193","correct":true,"confidence":2},{"trial_n":107,"span":12,"encoder":"286054864650","distractor":"286954864650","target":"absent","response":"present","rt":"1357","correct":false,"confidence":2},{"trial_n":108,"span":11,"encoder":"59430122627","distractor":"79430122627","target":"present","response":"absent","rt":"1810","correct":false,"confidence":2},{"trial_n":109,"span":10,"encoder":"0772872466","distractor":"0772872467","target":"absent","response":"absent","rt":"1165.0000000001","correct":true,"confidence":5},{"trial_n":110,"span":10,"encoder":"2639392285","distractor":"2639392235","target":"absent","response":"absent","rt":"2834","correct":true,"confidence":3},{"trial_n":111,"span":11,"encoder":"41665613628","distractor":"41365613628","target":"present","response":"present","rt":"3309","correct":true,"confidence":2},{"trial_n":112,"span":11,"encoder":"08791537161","distractor":"08791037161","target":"present","response":"absent","rt":"487","correct":false,"confidence":2},{"trial_n":113,"span":10,"encoder":"0688751333","distractor":"0688751933","target":"present","response":"absent","rt":"670","correct":false,"confidence":2},{"trial_n":114,"span":9,"encoder":"569539568","distractor":"569537568","target":"present","response":"absent","rt":"1313.9999999999","correct":false,"confidence":2},{"trial_n":115,"span":8,"encoder":"22198717","distractor":"22198715","target":"absent","response":"present","rt":"996.99999999988","correct":false,"confidence":1},{"trial_n":116,"span":7,"encoder":"2293161","distractor":"2293191","target":"present","response":"absent","rt":"2067","correct":false,"confidence":2},{"trial_n":117,"span":6,"encoder":"593534","distractor":"599534","target":"absent","response":"present","rt":"1392.0000000001","correct":false,"confidence":1},{"trial_n":118,"span":5,"encoder":"40940","distractor":"40640","target":"absent","response":"absent","rt":"2016","correct":true,"confidence":2},{"trial_n":119,"span":5,"encoder":"34575","distractor":"34576","target":"absent","response":"present","rt":"963","correct":false,"confidence":1},{"trial_n":120,"span":4,"encoder":"9418","distractor":"9018","target":"present","response":"absent","rt":"3911","correct":false,"confidence":2},{"trial_n":121,"span":3,"encoder":"100","distractor":"106","target":"absent","response":"absent","rt":"1358","correct":true,"confidence":5},{"trial_n":122,"span":3,"encoder":"729","distractor":"779","target":"absent","response":"absent","rt":"1287","correct":true,"confidence":5},{"trial_n":123,"span":4,"encoder":"7226","distractor":"7626","target":"absent","response":"absent","rt":"1284.9999999999","correct":true,"confidence":5},{"trial_n":124,"span":4,"encoder":"8201","distractor":"8207","target":"absent","response":"absent","rt":"1395","correct":true,"confidence":5},{"trial_n":125,"span":5,"encoder":"71876","distractor":"71874","target":"present","response":"present","rt":"3367","correct":true,"confidence":5},{"trial_n":126,"span":5,"encoder":"49685","distractor":"49665","target":"present","response":"present","rt":"3813","correct":true,"confidence":5},{"trial_n":127,"span":6,"encoder":"533253","distractor":"533252","target":"present","response":"present","rt":"6009","correct":true,"confidence":5},{"trial_n":128,"span":6,"encoder":"503444","distractor":"506444","target":"absent","response":"absent","rt":"2266","correct":true,"confidence":5},{"trial_n":129,"span":7,"encoder":"6061176","distractor":"6061174","target":"present","response":"present","rt":"4264.0000000001","correct":true,"confidence":5},{"trial_n":130,"span":7,"encoder":"0521630","distractor":"0521639","target":"present","response":"present","rt":"2284","correct":true,"confidence":5},{"trial_n":131,"span":8,"encoder":"41623822","distractor":"41623828","target":"present","response":"present","rt":"2085","correct":true,"confidence":5},{"trial_n":132,"span":8,"encoder":"41514390","distractor":"45514390","target":"absent","response":"present","rt":"3563","correct":false,"confidence":5},{"trial_n":133,"span":7,"encoder":"3117770","distractor":"3317770","target":"absent","response":"absent","rt":"3203","correct":true,"confidence":3},{"trial_n":134,"span":7,"encoder":"9088460","distractor":"9088480","target":"present","response":"absent","rt":"2598","correct":false,"confidence":3},{"trial_n":135,"span":6,"encoder":"546904","distractor":"549904","target":"present","response":"present","rt":"3762.9999999999","correct":true,"confidence":5},{"trial_n":136,"span":6,"encoder":"894895","distractor":"794895","target":"present","response":"present","rt":"3006","correct":true,"confidence":3},{"trial_n":137,"span":7,"encoder":"4724303","distractor":"4024303","target":"present","response":"present","rt":"3267","correct":true,"confidence":5},{"trial_n":138,"span":7,"encoder":"7529383","distractor":"7529883","target":"present","response":"present","rt":"4266.9999999999","correct":true,"confidence":5},{"trial_n":139,"span":8,"encoder":"91890471","distractor":"91890491","target":"absent","response":"absent","rt":"5711.0000000001","correct":true,"confidence":4},{"trial_n":140,"span":8,"encoder":"15658368","distractor":"15656368","target":"present","response":"present","rt":"4677.0000000001","correct":true,"confidence":4}]