[{"trial_n":1,"min":25,"max":230,"target":"present","response":"present","rt":6942,"correct":true,"confidence":-1},{"trial_n":2,"min":25,"max":230,"target":"present","response":"present","rt":2094,"correct":true,"confidence":-1},{"trial_n":3,"min":41,"max":214,"target":"absent","response":"absent","rt":654.00000000003,"correct":true,"confidence":-1},{"trial_n":4,"min":41,"max":214,"target":"absent","response":"present","rt":871,"correct":false,"confidence":-1},{"trial_n":5,"min":25,"max":230,"target":"present","response":"present","rt":710,"correct":true,"confidence":-1},{"trial_n":6,"min":25,"max":230,"target":"absent","response":"absent","rt":570.99999999997,"correct":true,"confidence":-1},{"trial_n":7,"min":41,"max":214,"target":"absent","response":"absent","rt":614,"correct":true,"confidence":-1},{"trial_n":8,"min":41,"max":214,"target":"present","response":"present","rt":474,"correct":true,"confidence":-1},{"trial_n":9,"min":57,"max":198,"target":"absent","response":"absent","rt":555,"correct":true,"confidence":-1},{"trial_n":10,"min":57,"max":198,"target":"present","response":"present","rt":488,"correct":true,"confidence":-1},{"trial_n":11,"min":65,"max":190,"target":"absent","response":"absent","rt":486,"correct":true,"confidence":-1},{"trial_n":12,"min":65,"max":190,"target":"absent","response":"absent","rt":433,"correct":true,"confidence":-1},{"trial_n":13,"min":73,"max":182,"target":"absent","response":"absent","rt":457,"correct":true,"confidence":-1},{"trial_n":14,"min":73,"max":182,"target":"absent","response":"present","rt":410,"correct":false,"confidence":-1},{"trial_n":15,"min":65,"max":190,"target":"absent","response":"absent","rt":360.00000000003,"correct":true,"confidence":-1},{"trial_n":16,"min":65,"max":190,"target":"present","response":"present","rt":231,"correct":true,"confidence":-1},{"trial_n":17,"min":73,"max":182,"target":"present","response":"absent","rt":398,"correct":false,"confidence":-1},{"trial_n":18,"min":65,"max":190,"target":"absent","response":"present","rt":2581,"correct":false,"confidence":-1},{"trial_n":19,"min":57,"max":198,"target":"present","response":"present","rt":755.00000000003,"correct":true,"confidence":-1},{"trial_n":20,"min":57,"max":198,"target":"absent","response":"absent","rt":486,"correct":true,"confidence":-1},{"trial_n":21,"min":61,"max":194,"target":"present","response":"present","rt":911,"correct":true,"confidence":5},{"trial_n":22,"min":61,"max":194,"target":"absent","response":"present","rt":1522,"correct":false,"confidence":3},{"trial_n":23,"min":57,"max":198,"target":"present","response":"present","rt":1257,"correct":true,"confidence":5},{"trial_n":24,"min":57,"max":198,"target":"absent","response":"absent","rt":916,"correct":true,"confidence":4},{"trial_n":25,"min":61,"max":194,"target":"present","response":"present","rt":1370,"correct":true,"confidence":5},{"trial_n":26,"min":61,"max":194,"target":"absent","response":"absent","rt":919,"correct":true,"confidence":5},{"trial_n":27,"min":65,"max":190,"target":"absent","response":"absent","rt":704.00000000003,"correct":true,"confidence":5},{"trial_n":28,"min":65,"max":190,"target":"present","response":"present","rt":840.00000000003,"correct":true,"confidence":5},{"trial_n":29,"min":69,"max":186,"target":"present","response":"present","rt":841.99999999997,"correct":true,"confidence":5},{"trial_n":30,"min":69,"max":186,"target":"present","response":"absent","rt":678,"correct":false,"confidence":4},{"trial_n":31,"min":67,"max":188,"target":"present","response":"present","rt":921,"correct":true,"confidence":5},{"trial_n":32,"min":67,"max":188,"target":"present","response":"present","rt":906,"correct":true,"confidence":5},{"trial_n":33,"min":69,"max":186,"target":"present","response":"present","rt":864,"correct":true,"confidence":5},{"trial_n":34,"min":69,"max":186,"target":"absent","response":"absent","rt":928.99999999994,"correct":true,"confidence":5},{"trial_n":35,"min":71,"max":184,"target":"present","response":"present","rt":869,"correct":true,"confidence":5},{"trial_n":36,"min":71,"max":184,"target":"present","response":"present","rt":931,"correct":true,"confidence":5},{"trial_n":37,"min":73,"max":182,"target":"present","response":"present","rt":878,"correct":true,"confidence":5},{"trial_n":38,"min":73,"max":182,"target":"absent","response":"absent","rt":644.00000000006,"correct":true,"confidence":5},{"trial_n":39,"min":75,"max":180,"target":"present","response":"present","rt":698.00000000006,"correct":true,"confidence":5},{"trial_n":40,"min":75,"max":180,"target":"present","response":"present","rt":677,"correct":true,"confidence":5},{"trial_n":41,"min":76,"max":179,"target":"present","response":"present","rt":664,"correct":true,"confidence":5},{"trial_n":42,"min":76,"max":179,"target":"absent","response":"absent","rt":964,"correct":true,"confidence":5},{"trial_n":43,"min":77,"max":178,"target":"present","response":"present","rt":1713,"correct":true,"confidence":3},{"trial_n":44,"min":77,"max":178,"target":"absent","response":"absent","rt":771.00000000006,"correct":true,"confidence":5},{"trial_n":45,"min":78,"max":177,"target":"present","response":"present","rt":942.99999999994,"correct":true,"confidence":5},{"trial_n":46,"min":78,"max":177,"target":"absent","response":"absent","rt":722,"correct":true,"confidence":5},{"trial_n":47,"min":79,"max":176,"target":"absent","response":"absent","rt":749,"correct":true,"confidence":5},{"trial_n":48,"min":79,"max":176,"target":"absent","response":"absent","rt":620,"correct":true,"confidence":5},{"trial_n":49,"min":80,"max":175,"target":"present","response":"absent","rt":694,"correct":false,"confidence":5},{"trial_n":50,"min":79,"max":176,"target":"present","response":"present","rt":1091,"correct":true,"confidence":3},{"trial_n":51,"min":79,"max":176,"target":"absent","response":"absent","rt":796,"correct":true,"confidence":5},{"trial_n":52,"min":80,"max":175,"target":"present","response":"present","rt":759.00000000006,"correct":true,"confidence":5},{"trial_n":53,"min":80,"max":175,"target":"absent","response":"absent","rt":618,"correct":true,"confidence":5},{"trial_n":54,"min":81,"max":174,"target":"absent","response":"absent","rt":586,"correct":true,"confidence":5},{"trial_n":55,"min":81,"max":174,"target":"present","response":"present","rt":695,"correct":true,"confidence":5},{"trial_n":56,"min":82,"max":173,"target":"absent","response":"absent","rt":683,"correct":true,"confidence":5},{"trial_n":57,"min":82,"max":173,"target":"absent","response":"absent","rt":611.99999999994,"correct":true,"confidence":5},{"trial_n":58,"min":83,"max":172,"target":"present","response":"present","rt":681,"correct":true,"confidence":5},{"trial_n":59,"min":83,"max":172,"target":"absent","response":"absent","rt":597,"correct":true,"confidence":5},{"trial_n":60,"min":84,"max":171,"target":"absent","response":"absent","rt":567,"correct":true,"confidence":5},{"trial_n":61,"min":84,"max":171,"target":"present","response":"present","rt":1035,"correct":true,"confidence":5},{"trial_n":62,"min":85,"max":170,"target":"present","response":"present","rt":698,"correct":true,"confidence":5},{"trial_n":63,"min":85,"max":170,"target":"present","response":"absent","rt":730,"correct":false,"confidence":5},{"trial_n":64,"min":84,"max":171,"target":"absent","response":"present","rt":809.00000000006,"correct":false,"confidence":3},{"trial_n":65,"min":83,"max":172,"target":"present","response":"present","rt":741,"correct":true,"confidence":5},{"trial_n":66,"min":83,"max":172,"target":"present","response":"present","rt":687,"correct":true,"confidence":5},{"trial_n":67,"min":84,"max":171,"target":"present","response":"present","rt":430,"correct":true,"confidence":5},{"trial_n":68,"min":84,"max":171,"target":"absent","response":"absent","rt":773,"correct":true,"confidence":5},{"trial_n":69,"min":85,"max":170,"target":"absent","response":"absent","rt":707,"correct":true,"confidence":4},{"trial_n":70,"min":85,"max":170,"target":"absent","response":"absent","rt":1004,"correct":true,"confidence":5},{"trial_n":71,"min":41,"max":214,"target":"present","response":"present","rt":4461.0000000001,"correct":true,"confidence":-1},{"trial_n":72,"min":41,"max":214,"target":"present","response":"present","rt":551,"correct":true,"confidence":-1},{"trial_n":73,"min":57,"max":198,"target":"absent","response":"absent","rt":408,"correct":true,"confidence":-1},{"trial_n":74,"min":57,"max":198,"target":"absent","response":"absent","rt":420,"correct":true,"confidence":-1},{"trial_n":75,"min":73,"max":182,"target":"present","response":"present","rt":301,"correct":true,"confidence":-1},{"trial_n":76,"min":73,"max":182,"target":"absent","response":"present","rt":722.99999999994,"correct":false,"confidence":-1},{"trial_n":77,"min":57,"max":198,"target":"present","response":"present","rt":509,"correct":true,"confidence":-1},{"trial_n":78,"min":57,"max":198,"target":"present","response":"present","rt":549,"correct":true,"confidence":-1},{"trial_n":79,"min":73,"max":182,"target":"present","response":"present","rt":456,"correct":true,"confidence":-1},{"trial_n":80,"min":73,"max":182,"target":"absent","response":"absent","rt":1003,"correct":true,"confidence":-1},{"trial_n":81,"min":81,"max":174,"target":"present","response":"present","rt":691,"correct":true,"confidence":-1},{"trial_n":82,"min":81,"max":174,"target":"present","response":"present","rt":609.00000000006,"correct":true,"confidence":-1},{"trial_n":83,"min":89,"max":166,"target":"present","response":"absent","rt":1158,"correct":false,"confidence":-1},{"trial_n":84,"min":81,"max":174,"target":"absent","response":"absent","rt":1082.0000000001,"correct":true,"confidence":-1},{"trial_n":85,"min":81,"max":174,"target":"absent","response":"absent","rt":579,"correct":true,"confidence":-1},{"trial_n":86,"min":89,"max":166,"target":"absent","response":"absent","rt":413,"correct":true,"confidence":-1},{"trial_n":87,"min":89,"max":166,"target":"absent","response":"absent","rt":446,"correct":true,"confidence":-1},{"trial_n":88,"min":97,"max":158,"target":"present","response":"absent","rt":295.00000000006,"correct":false,"confidence":-1},{"trial_n":89,"min":89,"max":166,"target":"absent","response":"absent","rt":642,"correct":true,"confidence":-1},{"trial_n":90,"min":89,"max":166,"target":"present","response":"present","rt":775,"correct":true,"confidence":-1},{"trial_n":91,"min":93,"max":162,"target":"present","response":"present","rt":942.00000000006,"correct":true,"confidence":2},{"trial_n":92,"min":93,"max":162,"target":"present","response":"absent","rt":1647.0000000001,"correct":false,"confidence":1},{"trial_n":93,"min":89,"max":166,"target":"absent","response":"absent","rt":672,"correct":true,"confidence":3},{"trial_n":94,"min":89,"max":166,"target":"present","response":"absent","rt":987,"correct":false,"confidence":1},{"trial_n":95,"min":85,"max":170,"target":"absent","response":"absent","rt":1364,"correct":true,"confidence":3},{"trial_n":96,"min":85,"max":170,"target":"absent","response":"absent","rt":1074.0000000001,"correct":true,"confidence":1},{"trial_n":97,"min":89,"max":166,"target":"absent","response":"absent","rt":992.00000000006,"correct":true,"confidence":1},{"trial_n":98,"min":89,"max":166,"target":"absent","response":"absent","rt":2123,"correct":true,"confidence":1},{"trial_n":99,"min":93,"max":162,"target":"absent","response":"absent","rt":850,"correct":true,"confidence":3},{"trial_n":100,"min":93,"max":162,"target":"absent","response":"absent","rt":485,"correct":true,"confidence":3},{"trial_n":101,"min":95,"max":160,"target":"absent","response":"absent","rt":666,"correct":true,"confidence":1},{"trial_n":102,"min":95,"max":160,"target":"absent","response":"absent","rt":984,"correct":true,"confidence":1},{"trial_n":103,"min":97,"max":158,"target":"absent","response":"absent","rt":499,"correct":true,"confidence":1},{"trial_n":104,"min":97,"max":158,"target":"present","response":"present","rt":442,"correct":true,"confidence":1},{"trial_n":105,"min":99,"max":156,"target":"present","response":"absent","rt":668.99999999994,"correct":false,"confidence":1},{"trial_n":106,"min":97,"max":158,"target":"absent","response":"absent","rt":870,"correct":true,"confidence":3},{"trial_n":107,"min":97,"max":158,"target":"absent","response":"absent","rt":787,"correct":true,"confidence":1},{"trial_n":108,"min":99,"max":156,"target":"absent","response":"absent","rt":1365,"correct":true,"confidence":1},{"trial_n":109,"min":99,"max":156,"target":"present","response":"present","rt":327,"correct":true,"confidence":1},{"trial_n":110,"min":101,"max":154,"target":"absent","response":"absent","rt":1443,"correct":true,"confidence":1},{"trial_n":111,"min":101,"max":154,"target":"absent","response":"absent","rt":703.99999999994,"correct":true,"confidence":3},{"trial_n":112,"min":102,"max":153,"target":"present","response":"absent","rt":1150.0000000001,"correct":false,"confidence":3},{"trial_n":113,"min":101,"max":154,"target":"present","response":"absent","rt":533,"correct":false,"confidence":2},{"trial_n":114,"min":100,"max":155,"target":"present","response":"present","rt":585,"correct":true,"confidence":1},{"trial_n":115,"min":100,"max":155,"target":"present","response":"present","rt":417,"correct":true,"confidence":1},{"trial_n":116,"min":101,"max":154,"target":"absent","response":"absent","rt":539.00000000006,"correct":true,"confidence":2},{"trial_n":117,"min":101,"max":154,"target":"present","response":"absent","rt":316,"correct":false,"confidence":2},{"trial_n":118,"min":100,"max":155,"target":"present","response":"present","rt":776,"correct":true,"confidence":2},{"trial_n":119,"min":100,"max":155,"target":"present","response":"absent","rt":501,"correct":false,"confidence":1},{"trial_n":120,"min":99,"max":156,"target":"absent","response":"absent","rt":377,"correct":true,"confidence":1},{"trial_n":121,"min":99,"max":156,"target":"absent","response":"absent","rt":514.00000000006,"correct":true,"confidence":2},{"trial_n":122,"min":100,"max":155,"target":"present","response":"absent","rt":425.99999999994,"correct":false,"confidence":2},{"trial_n":123,"min":99,"max":156,"target":"absent","response":"absent","rt":322,"correct":true,"confidence":2},{"trial_n":124,"min":99,"max":156,"target":"absent","response":"absent","rt":487,"correct":true,"confidence":2},{"trial_n":125,"min":100,"max":155,"target":"present","response":"present","rt":551,"correct":true,"confidence":1},{"trial_n":126,"min":100,"max":155,"target":"present","response":"absent","rt":436,"correct":false,"confidence":1},{"trial_n":127,"min":99,"max":156,"target":"absent","response":"present","rt":484.00000000006,"correct":false,"confidence":1},{"trial_n":128,"min":98,"max":157,"target":"present","response":"absent","rt":264,"correct":false,"confidence":1},{"trial_n":129,"min":97,"max":158,"target":"present","response":"absent","rt":421,"correct":false,"confidence":1},{"trial_n":130,"min":96,"max":159,"target":"present","response":"present","rt":592,"correct":true,"confidence":1},{"trial_n":131,"min":96,"max":159,"target":"absent","response":"absent","rt":294.00000000006,"correct":true,"confidence":2},{"trial_n":132,"min":97,"max":158,"target":"present","response":"absent","rt":577.99999999994,"correct":false,"confidence":1},{"trial_n":133,"min":96,"max":159,"target":"present","response":"absent","rt":513.99999999994,"correct":false,"confidence":1},{"trial_n":134,"min":95,"max":160,"target":"absent","response":"absent","rt":335.00000000006,"correct":true,"confidence":2},{"trial_n":135,"min":95,"max":160,"target":"present","response":"absent","rt":400,"correct":false,"confidence":2},{"trial_n":136,"min":94,"max":161,"target":"present","response":"present","rt":529.99999999994,"correct":true,"confidence":2},{"trial_n":137,"min":94,"max":161,"target":"present","response":"absent","rt":530.99999999994,"correct":false,"confidence":2},{"trial_n":138,"min":93,"max":162,"target":"present","response":"absent","rt":289,"correct":false,"confidence":2},{"trial_n":139,"min":92,"max":163,"target":"absent","response":"absent","rt":516.99999999994,"correct":true,"confidence":2},{"trial_n":140,"min":92,"max":163,"target":"absent","response":"absent","rt":720.00000000012,"correct":true,"confidence":1}]