[{"trial_n":1,"min":25,"max":230,"target":"present","response":"present","rt":6393,"correct":true,"confidence":-1},{"trial_n":2,"min":25,"max":230,"target":"present","response":"present","rt":1149.6000001431,"correct":true,"confidence":-1},{"trial_n":3,"min":41,"max":214,"target":"absent","response":"absent","rt":958.79999995232,"correct":true,"confidence":-1},{"trial_n":4,"min":41,"max":214,"target":"absent","response":"absent","rt":1205,"correct":true,"confidence":-1},{"trial_n":5,"min":57,"max":198,"target":"present","response":"present","rt":982.10000014305,"correct":true,"confidence":-1},{"trial_n":6,"min":57,"max":198,"target":"absent","response":"absent","rt":1916.6999998093,"correct":true,"confidence":-1},{"trial_n":7,"min":73,"max":182,"target":"absent","response":"present","rt":1554.5,"correct":false,"confidence":-1},{"trial_n":8,"min":57,"max":198,"target":"present","response":"present","rt":966.10000014305,"correct":true,"confidence":-1},{"trial_n":9,"min":57,"max":198,"target":"absent","response":"present","rt":1492.8999998569,"correct":false,"confidence":-1},{"trial_n":10,"min":41,"max":214,"target":"absent","response":"absent","rt":965.69999980927,"correct":true,"confidence":-1},{"trial_n":11,"min":41,"max":214,"target":"absent","response":"present","rt":1304.7000000477,"correct":false,"confidence":-1},{"trial_n":12,"min":33,"max":222,"target":"present","response":"present","rt":664.90000009537,"correct":true,"confidence":-1},{"trial_n":13,"min":33,"max":222,"target":"absent","response":"absent","rt":1038.6000001431,"correct":true,"confidence":-1},{"trial_n":14,"min":41,"max":214,"target":"present","response":"present","rt":896.70000004768,"correct":true,"confidence":-1},{"trial_n":15,"min":41,"max":214,"target":"absent","response":"absent","rt":1266.3999998569,"correct":true,"confidence":-1},{"trial_n":16,"min":49,"max":206,"target":"present","response":"present","rt":649.79999995232,"correct":true,"confidence":-1},{"trial_n":17,"min":49,"max":206,"target":"absent","response":"absent","rt":2505.4000000954,"correct":true,"confidence":-1},{"trial_n":18,"min":57,"max":198,"target":"present","response":"absent","rt":1440.3999998569,"correct":false,"confidence":-1},{"trial_n":19,"min":49,"max":206,"target":"present","response":"present","rt":676.5,"correct":true,"confidence":-1},{"trial_n":20,"min":49,"max":206,"target":"present","response":"present","rt":820.79999995232,"correct":true,"confidence":-1},{"trial_n":21,"min":53,"max":202,"target":"present","response":"present","rt":812.30000019073,"correct":true,"confidence":4},{"trial_n":22,"min":53,"max":202,"target":"present","response":"present","rt":844,"correct":true,"confidence":4},{"trial_n":23,"min":57,"max":198,"target":"present","response":"present","rt":1167.4000000954,"correct":true,"confidence":3},{"trial_n":24,"min":57,"max":198,"target":"present","response":"present","rt":757.5,"correct":true,"confidence":4},{"trial_n":25,"min":61,"max":194,"target":"present","response":"present","rt":1062.0999999046,"correct":true,"confidence":3},{"trial_n":26,"min":61,"max":194,"target":"absent","response":"absent","rt":1034.0999999046,"correct":true,"confidence":2},{"trial_n":27,"min":65,"max":190,"target":"present","response":"present","rt":1177.2000000477,"correct":true,"confidence":3},{"trial_n":28,"min":65,"max":190,"target":"absent","response":"absent","rt":799.69999980927,"correct":true,"confidence":4},{"trial_n":29,"min":69,"max":186,"target":"absent","response":"present","rt":1028.7000000477,"correct":false,"confidence":3},{"trial_n":30,"min":65,"max":190,"target":"present","response":"present","rt":646.29999995232,"correct":true,"confidence":4},{"trial_n":31,"min":65,"max":190,"target":"present","response":"present","rt":1106.7999999523,"correct":true,"confidence":3},{"trial_n":32,"min":67,"max":188,"target":"absent","response":"absent","rt":1879.3999998569,"correct":true,"confidence":1},{"trial_n":33,"min":67,"max":188,"target":"present","response":"present","rt":539.89999985695,"correct":true,"confidence":4},{"trial_n":34,"min":69,"max":186,"target":"present","response":"absent","rt":3903.3999998569,"correct":false,"confidence":3},{"trial_n":35,"min":67,"max":188,"target":"present","response":"present","rt":634.70000004768,"correct":true,"confidence":4},{"trial_n":36,"min":67,"max":188,"target":"absent","response":"absent","rt":883.89999985695,"correct":true,"confidence":3},{"trial_n":37,"min":69,"max":186,"target":"absent","response":"absent","rt":1223.1000001431,"correct":true,"confidence":1},{"trial_n":38,"min":69,"max":186,"target":"absent","response":"absent","rt":948.29999995232,"correct":true,"confidence":5},{"trial_n":39,"min":71,"max":184,"target":"present","response":"absent","rt":981.40000009537,"correct":false,"confidence":5},{"trial_n":40,"min":69,"max":186,"target":"present","response":"present","rt":688.79999995232,"correct":true,"confidence":3},{"trial_n":41,"min":69,"max":186,"target":"present","response":"absent","rt":1481.8000001907,"correct":false,"confidence":4},{"trial_n":42,"min":68,"max":187,"target":"present","response":"absent","rt":1326.5,"correct":false,"confidence":3},{"trial_n":43,"min":67,"max":188,"target":"present","response":"absent","rt":1061.2000000477,"correct":false,"confidence":4},{"trial_n":44,"min":66,"max":189,"target":"absent","response":"absent","rt":1357.7000000477,"correct":true,"confidence":5},{"trial_n":45,"min":66,"max":189,"target":"absent","response":"absent","rt":710.5,"correct":true,"confidence":5},{"trial_n":46,"min":67,"max":188,"target":"absent","response":"absent","rt":739,"correct":true,"confidence":5},{"trial_n":47,"min":67,"max":188,"target":"absent","response":"absent","rt":675.29999995232,"correct":true,"confidence":5},{"trial_n":48,"min":68,"max":187,"target":"absent","response":"absent","rt":769.60000014305,"correct":true,"confidence":5},{"trial_n":49,"min":68,"max":187,"target":"absent","response":"absent","rt":902.10000014305,"correct":true,"confidence":5},{"trial_n":50,"min":69,"max":186,"target":"present","response":"absent","rt":1751.7999999523,"correct":false,"confidence":5},{"trial_n":51,"min":68,"max":187,"target":"present","response":"present","rt":882.79999995232,"correct":true,"confidence":4},{"trial_n":52,"min":68,"max":187,"target":"absent","response":"absent","rt":11402.799999952,"correct":true,"confidence":4},{"trial_n":53,"min":69,"max":186,"target":"absent","response":"absent","rt":877.70000004768,"correct":true,"confidence":1},{"trial_n":54,"min":69,"max":186,"target":"present","response":"absent","rt":889.19999980927,"correct":false,"confidence":2},{"trial_n":55,"min":68,"max":187,"target":"absent","response":"absent","rt":921.09999990463,"correct":true,"confidence":2},{"trial_n":56,"min":68,"max":187,"target":"present","response":"absent","rt":1140.1000001431,"correct":false,"confidence":3},{"trial_n":57,"min":67,"max":188,"target":"absent","response":"present","rt":756.29999995232,"correct":false,"confidence":5},{"trial_n":58,"min":66,"max":189,"target":"absent","response":"absent","rt":1315.2000000477,"correct":true,"confidence":4},{"trial_n":59,"min":66,"max":189,"target":"present","response":"present","rt":1049.2000000477,"correct":true,"confidence":4},{"trial_n":60,"min":67,"max":188,"target":"absent","response":"absent","rt":1498.3999998569,"correct":true,"confidence":1},{"trial_n":61,"min":67,"max":188,"target":"absent","response":"absent","rt":1484.8999998569,"correct":true,"confidence":4},{"trial_n":62,"min":68,"max":187,"target":"present","response":"absent","rt":3006.6000001431,"correct":false,"confidence":1},{"trial_n":63,"min":67,"max":188,"target":"absent","response":"absent","rt":9087.4000000954,"correct":true,"confidence":1},{"trial_n":64,"min":67,"max":188,"target":"present","response":"present","rt":1037.2999999523,"correct":true,"confidence":3},{"trial_n":65,"min":68,"max":187,"target":"absent","response":"absent","rt":1470,"correct":true,"confidence":5},{"trial_n":66,"min":68,"max":187,"target":"absent","response":"absent","rt":864.40000009537,"correct":true,"confidence":3},{"trial_n":67,"min":69,"max":186,"target":"present","response":"present","rt":789.59999990463,"correct":true,"confidence":3},{"trial_n":68,"min":69,"max":186,"target":"present","response":"present","rt":1148.8999998569,"correct":true,"confidence":3},{"trial_n":69,"min":70,"max":185,"target":"present","response":"present","rt":549.20000004768,"correct":true,"confidence":3},{"trial_n":70,"min":70,"max":185,"target":"absent","response":"absent","rt":970.79999995232,"correct":true,"confidence":4},{"trial_n":71,"min":41,"max":214,"target":"present","response":"present","rt":2355.1000001431,"correct":true,"confidence":-1},{"trial_n":72,"min":41,"max":214,"target":"present","response":"present","rt":684.20000004768,"correct":true,"confidence":-1},{"trial_n":73,"min":57,"max":198,"target":"absent","response":"absent","rt":206.5,"correct":true,"confidence":-1},{"trial_n":74,"min":57,"max":198,"target":"absent","response":"absent","rt":963.90000009537,"correct":true,"confidence":-1},{"trial_n":75,"min":73,"max":182,"target":"present","response":"present","rt":317.29999995232,"correct":true,"confidence":-1},{"trial_n":76,"min":73,"max":182,"target":"absent","response":"absent","rt":467.20000004768,"correct":true,"confidence":-1},{"trial_n":77,"min":89,"max":166,"target":"present","response":"present","rt":489.59999990463,"correct":true,"confidence":-1},{"trial_n":78,"min":89,"max":166,"target":"present","response":"present","rt":1079.2999999523,"correct":true,"confidence":-1},{"trial_n":79,"min":105,"max":150,"target":"present","response":"present","rt":384,"correct":true,"confidence":-1},{"trial_n":80,"min":105,"max":150,"target":"absent","response":"present","rt":723.20000004768,"correct":false,"confidence":-1},{"trial_n":81,"min":97,"max":158,"target":"present","response":"absent","rt":543.29999995232,"correct":false,"confidence":-1},{"trial_n":82,"min":89,"max":166,"target":"present","response":"present","rt":1264.7999999523,"correct":true,"confidence":-1},{"trial_n":83,"min":89,"max":166,"target":"absent","response":"present","rt":343.40000009537,"correct":false,"confidence":-1},{"trial_n":84,"min":81,"max":174,"target":"present","response":"present","rt":386.79999995232,"correct":true,"confidence":-1},{"trial_n":85,"min":81,"max":174,"target":"absent","response":"absent","rt":196.29999995232,"correct":true,"confidence":-1},{"trial_n":86,"min":89,"max":166,"target":"present","response":"present","rt":292.29999995232,"correct":true,"confidence":-1},{"trial_n":87,"min":89,"max":166,"target":"present","response":"absent","rt":889.5,"correct":false,"confidence":-1},{"trial_n":88,"min":81,"max":174,"target":"present","response":"present","rt":735.5,"correct":true,"confidence":-1},{"trial_n":89,"min":81,"max":174,"target":"absent","response":"absent","rt":599.90000009537,"correct":true,"confidence":-1},{"trial_n":90,"min":89,"max":166,"target":"absent","response":"absent","rt":436,"correct":true,"confidence":-1},{"trial_n":91,"min":89,"max":166,"target":"absent","response":"absent","rt":485.59999990463,"correct":true,"confidence":3},{"trial_n":92,"min":93,"max":162,"target":"present","response":"present","rt":98.299999952316,"correct":true,"confidence":4},{"trial_n":93,"min":93,"max":162,"target":"present","response":"present","rt":457,"correct":true,"confidence":4},{"trial_n":94,"min":97,"max":158,"target":"absent","response":"present","rt":394.40000009537,"correct":false,"confidence":3},{"trial_n":95,"min":93,"max":162,"target":"absent","response":"absent","rt":1057.2999999523,"correct":true,"confidence":4},{"trial_n":96,"min":93,"max":162,"target":"present","response":"present","rt":103,"correct":true,"confidence":3},{"trial_n":97,"min":97,"max":158,"target":"present","response":"present","rt":678,"correct":true,"confidence":3},{"trial_n":98,"min":97,"max":158,"target":"present","response":"absent","rt":2276.5999999046,"correct":false,"confidence":3},{"trial_n":99,"min":93,"max":162,"target":"present","response":"absent","rt":798.20000004768,"correct":false,"confidence":4},{"trial_n":100,"min":89,"max":166,"target":"present","response":"present","rt":2049.7000000477,"correct":true,"confidence":3},{"trial_n":101,"min":89,"max":166,"target":"absent","response":"absent","rt":1091.7000000477,"correct":true,"confidence":4},{"trial_n":102,"min":91,"max":164,"target":"present","response":"present","rt":306.59999990463,"correct":true,"confidence":3},{"trial_n":103,"min":91,"max":164,"target":"absent","response":"absent","rt":1510.9000000954,"correct":true,"confidence":3},{"trial_n":104,"min":93,"max":162,"target":"present","response":"present","rt":593.40000009537,"correct":true,"confidence":4},{"trial_n":105,"min":93,"max":162,"target":"present","response":"present","rt":860,"correct":true,"confidence":5},{"trial_n":106,"min":95,"max":160,"target":"present","response":"absent","rt":564,"correct":false,"confidence":3},{"trial_n":107,"min":93,"max":162,"target":"absent","response":"present","rt":1042.5,"correct":false,"confidence":4},{"trial_n":108,"min":91,"max":164,"target":"present","response":"absent","rt":384.89999985695,"correct":false,"confidence":3},{"trial_n":109,"min":89,"max":166,"target":"absent","response":"absent","rt":469.59999990463,"correct":true,"confidence":4},{"trial_n":110,"min":89,"max":166,"target":"present","response":"present","rt":368.30000019073,"correct":true,"confidence":3},{"trial_n":111,"min":90,"max":165,"target":"present","response":"present","rt":352.09999990463,"correct":true,"confidence":3},{"trial_n":112,"min":90,"max":165,"target":"present","response":"present","rt":286.79999995232,"correct":true,"confidence":4},{"trial_n":113,"min":91,"max":164,"target":"present","response":"present","rt":16352.100000143,"correct":true,"confidence":1},{"trial_n":114,"min":91,"max":164,"target":"absent","response":"absent","rt":385.89999985695,"correct":true,"confidence":3},{"trial_n":115,"min":92,"max":163,"target":"absent","response":"absent","rt":1062.3999998569,"correct":true,"confidence":1},{"trial_n":116,"min":92,"max":163,"target":"absent","response":"present","rt":640.29999995232,"correct":false,"confidence":2},{"trial_n":117,"min":91,"max":164,"target":"absent","response":"absent","rt":502.79999995232,"correct":true,"confidence":3},{"trial_n":118,"min":91,"max":164,"target":"absent","response":"present","rt":3044.5,"correct":false,"confidence":3},{"trial_n":119,"min":90,"max":165,"target":"absent","response":"present","rt":632,"correct":false,"confidence":2},{"trial_n":120,"min":89,"max":166,"target":"absent","response":"absent","rt":1144.9000000954,"correct":true,"confidence":2},{"trial_n":121,"min":89,"max":166,"target":"absent","response":"absent","rt":800.79999995232,"correct":true,"confidence":1},{"trial_n":122,"min":90,"max":165,"target":"present","response":"absent","rt":3694.0999999046,"correct":false,"confidence":1},{"trial_n":123,"min":89,"max":166,"target":"absent","response":"absent","rt":400.20000004768,"correct":true,"confidence":3},{"trial_n":124,"min":89,"max":166,"target":"absent","response":"present","rt":352.89999985695,"correct":false,"confidence":3},{"trial_n":125,"min":88,"max":167,"target":"absent","response":"absent","rt":665.40000009537,"correct":true,"confidence":3},{"trial_n":126,"min":88,"max":167,"target":"present","response":"absent","rt":584.29999995232,"correct":false,"confidence":4},{"trial_n":127,"min":87,"max":168,"target":"present","response":"present","rt":440.40000009537,"correct":true,"confidence":3},{"trial_n":128,"min":87,"max":168,"target":"present","response":"present","rt":306,"correct":true,"confidence":4},{"trial_n":129,"min":88,"max":167,"target":"absent","response":"absent","rt":1764.2999999523,"correct":true,"confidence":1},{"trial_n":130,"min":88,"max":167,"target":"present","response":"absent","rt":410.30000019073,"correct":false,"confidence":3},{"trial_n":131,"min":87,"max":168,"target":"absent","response":"absent","rt":728.69999980927,"correct":true,"confidence":4},{"trial_n":132,"min":87,"max":168,"target":"absent","response":"absent","rt":446.20000004768,"correct":true,"confidence":4},{"trial_n":133,"min":88,"max":167,"target":"absent","response":"present","rt":487.19999980927,"correct":false,"confidence":4},{"trial_n":134,"min":87,"max":168,"target":"absent","response":"absent","rt":564.69999980927,"correct":true,"confidence":3},{"trial_n":135,"min":87,"max":168,"target":"absent","response":"absent","rt":758.60000014305,"correct":true,"confidence":3},{"trial_n":136,"min":88,"max":167,"target":"absent","response":"absent","rt":4552.9000000954,"correct":true,"confidence":2},{"trial_n":137,"min":88,"max":167,"target":"present","response":"present","rt":2037.8000001907,"correct":true,"confidence":1},{"trial_n":138,"min":89,"max":166,"target":"present","response":"present","rt":563.40000009537,"correct":true,"confidence":2},{"trial_n":139,"min":89,"max":166,"target":"present","response":"present","rt":4400.1000001431,"correct":true,"confidence":1},{"trial_n":140,"min":90,"max":165,"target":"absent","response":"present","rt":2803.4000000954,"correct":false,"confidence":1}]