[{"trial_n":1,"span":8,"encoder":"76075390","distractor":"76075393","target":"present","response":"absent","rt":"4629","correct":false,"confidence":-1},{"trial_n":2,"span":6,"encoder":"725626","distractor":"745626","target":"present","response":"present","rt":"2815.1999999881","correct":true,"confidence":-1},{"trial_n":3,"span":6,"encoder":"414063","distractor":"814063","target":"absent","response":"absent","rt":"2166","correct":true,"confidence":-1},{"trial_n":4,"span":8,"encoder":"72868181","distractor":"71868181","target":"absent","response":"present","rt":"4093.5","correct":false,"confidence":-1},{"trial_n":5,"span":6,"encoder":"277795","distractor":"279795","target":"present","response":"present","rt":"2703.1999999881","correct":true,"confidence":-1},{"trial_n":6,"span":6,"encoder":"872110","distractor":"872113","target":"present","response":"present","rt":"2607.0999999642","correct":true,"confidence":-1},{"trial_n":7,"span":8,"encoder":"95711142","distractor":"95911142","target":"present","response":"present","rt":"3755.6999999881","correct":true,"confidence":-1},{"trial_n":8,"span":8,"encoder":"01917559","distractor":"01917558","target":"absent","response":"absent","rt":"3978.5","correct":true,"confidence":-1},{"trial_n":9,"span":10,"encoder":"7158449903","distractor":"7858449903","target":"present","response":"absent","rt":"2142.3999999762","correct":false,"confidence":-1},{"trial_n":10,"span":8,"encoder":"82233693","distractor":"82231693","target":"absent","response":"absent","rt":"2132.8999999762","correct":true,"confidence":-1},{"trial_n":11,"span":8,"encoder":"28731486","distractor":"28791486","target":"absent","response":"present","rt":"4135.3000000119","correct":false,"confidence":-1},{"trial_n":12,"span":7,"encoder":"3974870","distractor":"3274870","target":"absent","response":"present","rt":"2594.1000000238","correct":false,"confidence":-1},{"trial_n":13,"span":6,"encoder":"272612","distractor":"872612","target":"absent","response":"present","rt":"3662.3000000119","correct":false,"confidence":-1},{"trial_n":14,"span":5,"encoder":"87241","distractor":"87291","target":"absent","response":"absent","rt":"2608","correct":true,"confidence":-1},{"trial_n":15,"span":5,"encoder":"94619","distractor":"94689","target":"present","response":"present","rt":"2557.1999999881","correct":true,"confidence":-1},{"trial_n":16,"span":6,"encoder":"974734","distractor":"976734","target":"present","response":"present","rt":"2635.8999999762","correct":true,"confidence":-1},{"trial_n":17,"span":6,"encoder":"502474","distractor":"102474","target":"present","response":"present","rt":"1326.9000000358","correct":true,"confidence":-1},{"trial_n":18,"span":7,"encoder":"4644346","distractor":"4644348","target":"present","response":"present","rt":"2954.5","correct":true,"confidence":-1},{"trial_n":19,"span":7,"encoder":"8627749","distractor":"3627749","target":"absent","response":"present","rt":"3003","correct":false,"confidence":-1},{"trial_n":20,"span":6,"encoder":"987562","distractor":"987569","target":"present","response":"present","rt":"1669.1999999881","correct":true,"confidence":-1},{"trial_n":21,"span":6,"encoder":"781689","distractor":"781289","target":"present","response":"present","rt":"1811","correct":true,"confidence":3},{"trial_n":22,"span":7,"encoder":"5946980","distractor":"5942980","target":"absent","response":"absent","rt":"2834.9000000358","correct":true,"confidence":4},{"trial_n":23,"span":7,"encoder":"7718708","distractor":"7318708","target":"absent","response":"absent","rt":"3200.6000000238","correct":true,"confidence":5},{"trial_n":24,"span":8,"encoder":"98516967","distractor":"98518967","target":"present","response":"present","rt":"6265.1999999881","correct":true,"confidence":3},{"trial_n":25,"span":8,"encoder":"06188087","distractor":"06186087","target":"absent","response":"absent","rt":"2270.2000000477","correct":true,"confidence":4},{"trial_n":26,"span":9,"encoder":"114703188","distractor":"114703180","target":"absent","response":"absent","rt":"2127.1999999881","correct":true,"confidence":5},{"trial_n":27,"span":9,"encoder":"450692351","distractor":"450692311","target":"present","response":"present","rt":"2954","correct":true,"confidence":3},{"trial_n":28,"span":10,"encoder":"9407793362","distractor":"9402793362","target":"absent","response":"absent","rt":"3531.6000000238","correct":true,"confidence":5},{"trial_n":29,"span":10,"encoder":"2710469788","distractor":"2710469782","target":"present","response":"absent","rt":"1595.4000000358","correct":false,"confidence":5},{"trial_n":30,"span":9,"encoder":"290434930","distractor":"290434934","target":"absent","response":"absent","rt":"4087.3000000119","correct":true,"confidence":5},{"trial_n":31,"span":9,"encoder":"081485772","distractor":"081435772","target":"absent","response":"absent","rt":"3787.8000000119","correct":true,"confidence":3},{"trial_n":32,"span":10,"encoder":"1329692361","distractor":"4329692361","target":"absent","response":"absent","rt":"11219.100000024","correct":true,"confidence":4},{"trial_n":33,"span":10,"encoder":"5655408850","distractor":"5650408850","target":"absent","response":"absent","rt":"4779.6999999881","correct":true,"confidence":4},{"trial_n":34,"span":11,"encoder":"38459060478","distractor":"38451060478","target":"absent","response":"absent","rt":"6178","correct":true,"confidence":4},{"trial_n":35,"span":11,"encoder":"27181338004","distractor":"24181338004","target":"absent","response":"absent","rt":"4282.0999999642","correct":true,"confidence":5},{"trial_n":36,"span":12,"encoder":"115325971098","distractor":"112325971098","target":"absent","response":"present","rt":"3235.3999999762","correct":false,"confidence":3},{"trial_n":37,"span":11,"encoder":"48584789608","distractor":"48584789604","target":"present","response":"present","rt":"4409.5","correct":true,"confidence":3},{"trial_n":38,"span":11,"encoder":"33233288769","distractor":"33833288769","target":"present","response":"absent","rt":"4156.6999999881","correct":false,"confidence":2},{"trial_n":39,"span":10,"encoder":"4042825312","distractor":"4092825312","target":"absent","response":"present","rt":"3409.2999999523","correct":false,"confidence":2},{"trial_n":40,"span":9,"encoder":"438155411","distractor":"438155911","target":"present","response":"present","rt":"2545.6999999881","correct":true,"confidence":3},{"trial_n":41,"span":9,"encoder":"037327787","distractor":"037327587","target":"absent","response":"present","rt":"1710.3000000119","correct":false,"confidence":3},{"trial_n":42,"span":8,"encoder":"95754667","distractor":"95754637","target":"present","response":"present","rt":"4314.3000000119","correct":true,"confidence":4},{"trial_n":43,"span":8,"encoder":"14724714","distractor":"74724714","target":"present","response":"present","rt":"2715.6000000238","correct":true,"confidence":3},{"trial_n":44,"span":9,"encoder":"773363841","distractor":"773363842","target":"present","response":"present","rt":"3340.9000000358","correct":true,"confidence":3},{"trial_n":45,"span":9,"encoder":"113494234","distractor":"113404234","target":"absent","response":"present","rt":"2308.5","correct":false,"confidence":3},{"trial_n":46,"span":8,"encoder":"03047931","distractor":"00047931","target":"absent","response":"absent","rt":"3318.4000000358","correct":true,"confidence":4},{"trial_n":47,"span":8,"encoder":"10803339","distractor":"13803339","target":"present","response":"absent","rt":"3194.3000000119","correct":false,"confidence":2},{"trial_n":48,"span":7,"encoder":"6593835","distractor":"6593833","target":"present","response":"present","rt":"2921.6000000238","correct":true,"confidence":4},{"trial_n":49,"span":7,"encoder":"7313278","distractor":"7393278","target":"absent","response":"present","rt":"1854.6000000238","correct":false,"confidence":3},{"trial_n":50,"span":6,"encoder":"618314","distractor":"618315","target":"absent","response":"absent","rt":"2597.5999999642","correct":true,"confidence":4},{"trial_n":51,"span":6,"encoder":"174648","distractor":"114648","target":"present","response":"present","rt":"2293.1999999881","correct":true,"confidence":4},{"trial_n":52,"span":7,"encoder":"8269813","distractor":"8869813","target":"present","response":"absent","rt":"4188.8000000119","correct":false,"confidence":2},{"trial_n":53,"span":6,"encoder":"948898","distractor":"948498","target":"absent","response":"absent","rt":"5030.8999999762","correct":true,"confidence":4},{"trial_n":54,"span":6,"encoder":"181496","distractor":"081496","target":"absent","response":"present","rt":"8286.6000000238","correct":false,"confidence":3},{"trial_n":55,"span":5,"encoder":"78411","distractor":"78410","target":"present","response":"present","rt":"1863.1000000238","correct":true,"confidence":5},{"trial_n":56,"span":5,"encoder":"12741","distractor":"12341","target":"absent","response":"absent","rt":"2783.5","correct":true,"confidence":5},{"trial_n":57,"span":6,"encoder":"818744","distractor":"818734","target":"present","response":"present","rt":"2644.2000000477","correct":true,"confidence":5},{"trial_n":58,"span":6,"encoder":"357392","distractor":"157392","target":"absent","response":"absent","rt":"3044.6000000238","correct":true,"confidence":5},{"trial_n":59,"span":7,"encoder":"9372554","distractor":"9772554","target":"present","response":"absent","rt":"4289.6999999881","correct":false,"confidence":3},{"trial_n":60,"span":6,"encoder":"718805","distractor":"718815","target":"absent","response":"absent","rt":"2593.8000000119","correct":true,"confidence":4},{"trial_n":61,"span":6,"encoder":"087224","distractor":"087124","target":"present","response":"present","rt":"4776.1000000238","correct":true,"confidence":5},{"trial_n":62,"span":7,"encoder":"6821644","distractor":"6824644","target":"present","response":"present","rt":"9229.8999999762","correct":true,"confidence":4},{"trial_n":63,"span":7,"encoder":"1432968","distractor":"1432168","target":"present","response":"present","rt":"3076.4000000358","correct":true,"confidence":3},{"trial_n":64,"span":8,"encoder":"41994758","distractor":"01994758","target":"absent","response":"present","rt":"4254.0999999642","correct":false,"confidence":1},{"trial_n":65,"span":7,"encoder":"6598448","distractor":"6598648","target":"present","response":"absent","rt":"12038.700000048","correct":false,"confidence":1},{"trial_n":66,"span":6,"encoder":"532929","distractor":"532939","target":"present","response":"present","rt":"11108.100000024","correct":true,"confidence":5},{"trial_n":67,"span":6,"encoder":"146053","distractor":"146050","target":"absent","response":"absent","rt":"5429.4000000358","correct":true,"confidence":5},{"trial_n":68,"span":7,"encoder":"9502631","distractor":"9502431","target":"present","response":"present","rt":"7364.6999999881","correct":true,"confidence":5},{"trial_n":69,"span":7,"encoder":"8572361","distractor":"8572360","target":"present","response":"present","rt":"10746.800000012","correct":true,"confidence":5},{"trial_n":70,"span":8,"encoder":"23068196","distractor":"23068896","target":"present","response":"present","rt":"20496.399999976","correct":true,"confidence":5},{"trial_n":71,"span":8,"encoder":"07633125","distractor":"07633129","target":"present","response":"absent","rt":"16345.800000012","correct":false,"confidence":-1},{"trial_n":72,"span":7,"encoder":"9826191","distractor":"7826191","target":"present","response":"absent","rt":"264.30000001192","correct":false,"confidence":-1},{"trial_n":73,"span":6,"encoder":"338463","distractor":"378463","target":"absent","response":"absent","rt":"1319.1000000238","correct":true,"confidence":-1},{"trial_n":74,"span":6,"encoder":"897008","distractor":"397008","target":"absent","response":"present","rt":"4127.1000000238","correct":false,"confidence":-1},{"trial_n":75,"span":5,"encoder":"85289","distractor":"85279","target":"present","response":"absent","rt":"775.79999995232","correct":false,"confidence":-1},{"trial_n":76,"span":4,"encoder":"8293","distractor":"8291","target":"present","response":"present","rt":"2642.8000000119","correct":true,"confidence":-1},{"trial_n":77,"span":4,"encoder":"9109","distractor":"2109","target":"present","response":"present","rt":"3175.8000000119","correct":true,"confidence":-1},{"trial_n":78,"span":5,"encoder":"21013","distractor":"21023","target":"present","response":"absent","rt":"2810.3999999762","correct":false,"confidence":-1},{"trial_n":79,"span":4,"encoder":"8688","distractor":"6688","target":"present","response":"absent","rt":"4523.5","correct":false,"confidence":-1},{"trial_n":80,"span":3,"encoder":"396","distractor":"196","target":"absent","response":"present","rt":"2127","correct":false,"confidence":-1},{"trial_n":81,"span":2,"encoder":"24","distractor":"74","target":"present","response":"present","rt":"1252.9000000358","correct":true,"confidence":-1},{"trial_n":82,"span":2,"encoder":"97","distractor":"47","target":"present","response":"present","rt":"1911.6000000238","correct":true,"confidence":-1},{"trial_n":83,"span":3,"encoder":"677","distractor":"577","target":"absent","response":"absent","rt":"1353.8000000119","correct":true,"confidence":-1},{"trial_n":84,"span":3,"encoder":"685","distractor":"185","target":"absent","response":"absent","rt":"1349.6999999881","correct":true,"confidence":-1},{"trial_n":85,"span":4,"encoder":"7734","distractor":"7784","target":"absent","response":"absent","rt":"1218.9000000358","correct":true,"confidence":-1},{"trial_n":86,"span":4,"encoder":"3595","distractor":"3575","target":"present","response":"present","rt":"1907.5","correct":true,"confidence":-1},{"trial_n":87,"span":5,"encoder":"33128","distractor":"38128","target":"present","response":"present","rt":"2310.8000000119","correct":true,"confidence":-1},{"trial_n":88,"span":5,"encoder":"23236","distractor":"29236","target":"absent","response":"absent","rt":"2761.1999999881","correct":true,"confidence":-1},{"trial_n":89,"span":6,"encoder":"621747","distractor":"621147","target":"present","response":"present","rt":"2445.3999999762","correct":true,"confidence":-1},{"trial_n":90,"span":6,"encoder":"021913","distractor":"024913","target":"present","response":"present","rt":"2120.1000000238","correct":true,"confidence":-1},{"trial_n":91,"span":7,"encoder":"1515656","distractor":"6515656","target":"absent","response":"absent","rt":"3612.3000000119","correct":true,"confidence":5},{"trial_n":92,"span":7,"encoder":"7035399","distractor":"7035379","target":"absent","response":"absent","rt":"3354.1999999881","correct":true,"confidence":5},{"trial_n":93,"span":8,"encoder":"82184891","distractor":"89184891","target":"absent","response":"present","rt":"10355.199999988","correct":false,"confidence":3},{"trial_n":94,"span":7,"encoder":"4326678","distractor":"0326678","target":"present","response":"present","rt":"3998.8000000119","correct":true,"confidence":5},{"trial_n":95,"span":7,"encoder":"0644842","distractor":"0644042","target":"present","response":"absent","rt":"4725.6999999881","correct":false,"confidence":3},{"trial_n":96,"span":6,"encoder":"877106","distractor":"877176","target":"absent","response":"absent","rt":"3573","correct":true,"confidence":3},{"trial_n":97,"span":6,"encoder":"787224","distractor":"887224","target":"present","response":"present","rt":"2802.1000000238","correct":true,"confidence":1},{"trial_n":98,"span":7,"encoder":"4301219","distractor":"4302219","target":"absent","response":"absent","rt":"3164.2999999523","correct":true,"confidence":5},{"trial_n":99,"span":7,"encoder":"1522687","distractor":"1521687","target":"present","response":"absent","rt":"7217.7000000477","correct":false,"confidence":3},{"trial_n":100,"span":6,"encoder":"376342","distractor":"976342","target":"absent","response":"absent","rt":"2799.0999999642","correct":true,"confidence":3},{"trial_n":101,"span":6,"encoder":"183323","distractor":"153323","target":"present","response":"present","rt":"4395","correct":true,"confidence":5},{"trial_n":102,"span":7,"encoder":"1211715","distractor":"1201715","target":"absent","response":"absent","rt":"3153.3999999762","correct":true,"confidence":4},{"trial_n":103,"span":7,"encoder":"7643347","distractor":"7643247","target":"present","response":"present","rt":"4073.2999999523","correct":true,"confidence":5},{"trial_n":104,"span":8,"encoder":"40104740","distractor":"40504740","target":"present","response":"present","rt":"3723.2000000477","correct":true,"confidence":5},{"trial_n":105,"span":8,"encoder":"17796160","distractor":"17796560","target":"absent","response":"present","rt":"5195.4000000954","correct":false,"confidence":3},{"trial_n":106,"span":7,"encoder":"5958825","distractor":"5958826","target":"absent","response":"absent","rt":"4309.8999999762","correct":true,"confidence":3},{"trial_n":107,"span":7,"encoder":"2574462","distractor":"2274462","target":"absent","response":"absent","rt":"3474.3000000715","correct":true,"confidence":4},{"trial_n":108,"span":8,"encoder":"48629159","distractor":"48629139","target":"present","response":"present","rt":"3555.2000000477","correct":true,"confidence":4},{"trial_n":109,"span":8,"encoder":"02084239","distractor":"02084299","target":"present","response":"present","rt":"2229.1000000238","correct":true,"confidence":3},{"trial_n":110,"span":9,"encoder":"612406613","distractor":"612406603","target":"absent","response":"absent","rt":"2310.1000000238","correct":true,"confidence":5},{"trial_n":111,"span":9,"encoder":"851763243","distractor":"851763223","target":"present","response":"present","rt":"1908.7999999523","correct":true,"confidence":4},{"trial_n":112,"span":10,"encoder":"8239339571","distractor":"8239439571","target":"absent","response":"absent","rt":"4879.5999999046","correct":true,"confidence":4},{"trial_n":113,"span":10,"encoder":"0755757190","distractor":"0757757190","target":"present","response":"absent","rt":"5247","correct":false,"confidence":3},{"trial_n":114,"span":9,"encoder":"804570003","distractor":"804590003","target":"absent","response":"absent","rt":"4517.1999999285","correct":true,"confidence":3},{"trial_n":115,"span":9,"encoder":"421043340","distractor":"421943340","target":"absent","response":"absent","rt":"4787.5","correct":true,"confidence":4},{"trial_n":116,"span":10,"encoder":"1151015349","distractor":"0151015349","target":"absent","response":"absent","rt":"3950.5999999046","correct":true,"confidence":3},{"trial_n":117,"span":10,"encoder":"3316168526","distractor":"3316163526","target":"absent","response":"present","rt":"5467","correct":false,"confidence":2},{"trial_n":118,"span":9,"encoder":"587877545","distractor":"507877545","target":"absent","response":"present","rt":"3839","correct":false,"confidence":3},{"trial_n":119,"span":8,"encoder":"52798049","distractor":"52778049","target":"present","response":"present","rt":"2594.2000000477","correct":true,"confidence":4},{"trial_n":120,"span":8,"encoder":"36076165","distractor":"36376165","target":"absent","response":"present","rt":"4128.7999999523","correct":false,"confidence":2},{"trial_n":121,"span":7,"encoder":"9994066","distractor":"9994666","target":"present","response":"present","rt":"6217.7000000477","correct":true,"confidence":4},{"trial_n":122,"span":7,"encoder":"3080246","distractor":"3080244","target":"absent","response":"present","rt":"3907.3000000715","correct":false,"confidence":2},{"trial_n":123,"span":6,"encoder":"320019","distractor":"320012","target":"absent","response":"absent","rt":"2282.3999999762","correct":true,"confidence":5},{"trial_n":124,"span":6,"encoder":"891783","distractor":"894783","target":"absent","response":"absent","rt":"2495.7000000477","correct":true,"confidence":5},{"trial_n":125,"span":7,"encoder":"2789549","distractor":"2799549","target":"present","response":"present","rt":"4190.1999999285","correct":true,"confidence":5},{"trial_n":126,"span":7,"encoder":"8546728","distractor":"9546728","target":"absent","response":"absent","rt":"4301.1000000238","correct":true,"confidence":5},{"trial_n":127,"span":8,"encoder":"72473781","distractor":"72473784","target":"absent","response":"absent","rt":"2115.6000000238","correct":true,"confidence":5},{"trial_n":128,"span":8,"encoder":"09437748","distractor":"04437748","target":"absent","response":"absent","rt":"5327.8999999762","correct":true,"confidence":5},{"trial_n":129,"span":9,"encoder":"147383002","distractor":"147383202","target":"absent","response":"present","rt":"8672","correct":false,"confidence":3},{"trial_n":130,"span":8,"encoder":"14181787","distractor":"14181087","target":"present","response":"absent","rt":"5199.7000000477","correct":false,"confidence":3},{"trial_n":131,"span":7,"encoder":"7725705","distractor":"7785705","target":"present","response":"present","rt":"6914.1000000238","correct":true,"confidence":4},{"trial_n":132,"span":7,"encoder":"0368793","distractor":"0364793","target":"present","response":"present","rt":"4378.6000000238","correct":true,"confidence":2},{"trial_n":133,"span":8,"encoder":"73435027","distractor":"73455027","target":"present","response":"present","rt":"3113.5","correct":true,"confidence":3},{"trial_n":134,"span":8,"encoder":"32368432","distractor":"32368032","target":"present","response":"absent","rt":"5346.8000000715","correct":false,"confidence":1},{"trial_n":135,"span":7,"encoder":"3076716","distractor":"3876716","target":"absent","response":"absent","rt":"4620.2000000477","correct":true,"confidence":3},{"trial_n":136,"span":7,"encoder":"3482706","distractor":"3182706","target":"present","response":"present","rt":"3621.3000000715","correct":true,"confidence":1},{"trial_n":137,"span":8,"encoder":"18230040","distractor":"18230440","target":"present","response":"present","rt":"3203.0999999046","correct":true,"confidence":5},{"trial_n":138,"span":8,"encoder":"38438568","distractor":"38438598","target":"present","response":"present","rt":"2950.5","correct":true,"confidence":4},{"trial_n":139,"span":9,"encoder":"754113386","distractor":"754113326","target":"absent","response":"absent","rt":"2979.1999999285","correct":true,"confidence":4},{"trial_n":140,"span":9,"encoder":"074262842","distractor":"074962842","target":"present","response":"present","rt":"3456.5","correct":true,"confidence":4}]