[{"trial_n":1,"n_dots":4.25,"target":"left","response":"right","rt":7251.5999999642,"correct":false,"confidence":-1},{"trial_n":2,"n_dots":4.25,"target":"right","response":"left","rt":1381,"correct":false,"confidence":-1},{"trial_n":3,"n_dots":4.65,"target":"left","response":"left","rt":966.59999996424,"correct":true,"confidence":-1},{"trial_n":4,"n_dots":4.65,"target":"right","response":"right","rt":448.30000001192,"correct":true,"confidence":-1},{"trial_n":5,"n_dots":4.25,"target":"left","response":"left","rt":498.5,"correct":true,"confidence":-1},{"trial_n":6,"n_dots":4.25,"target":"right","response":"right","rt":448.5,"correct":true,"confidence":-1},{"trial_n":7,"n_dots":3.85,"target":"left","response":"left","rt":512.39999997616,"correct":true,"confidence":-1},{"trial_n":8,"n_dots":3.85,"target":"right","response":"left","rt":488.80000001192,"correct":false,"confidence":-1},{"trial_n":9,"n_dots":4.05,"target":"left","response":"left","rt":389.5,"correct":true,"confidence":-1},{"trial_n":10,"n_dots":4.05,"target":"left","response":"left","rt":335.5,"correct":true,"confidence":-1},{"trial_n":11,"n_dots":3.85,"target":"left","response":"left","rt":449.19999998808,"correct":true,"confidence":-1},{"trial_n":12,"n_dots":3.85,"target":"left","response":"left","rt":300.90000003576,"correct":true,"confidence":-1},{"trial_n":13,"n_dots":3.75,"target":"right","response":"right","rt":341.79999995232,"correct":true,"confidence":-1},{"trial_n":14,"n_dots":3.75,"target":"left","response":"left","rt":308.89999997616,"correct":true,"confidence":-1},{"trial_n":15,"n_dots":3.65,"target":"left","response":"left","rt":173,"correct":true,"confidence":-1},{"trial_n":16,"n_dots":3.65,"target":"left","response":"left","rt":57.800000011921,"correct":true,"confidence":-1},{"trial_n":17,"n_dots":3.55,"target":"right","response":"right","rt":645.69999998808,"correct":true,"confidence":-1},{"trial_n":18,"n_dots":3.55,"target":"right","response":"left","rt":75.800000011921,"correct":false,"confidence":-1},{"trial_n":19,"n_dots":3.65,"target":"right","response":"left","rt":487.80000001192,"correct":false,"confidence":-1},{"trial_n":20,"n_dots":3.75,"target":"left","response":"left","rt":489,"correct":true,"confidence":-1},{"trial_n":21,"n_dots":3.75,"target":"left","response":"left","rt":506.69999998808,"correct":true,"confidence":3},{"trial_n":22,"n_dots":3.65,"target":"right","response":"right","rt":439.60000002384,"correct":true,"confidence":4},{"trial_n":23,"n_dots":3.65,"target":"right","response":"left","rt":664.80000001192,"correct":false,"confidence":3},{"trial_n":24,"n_dots":3.75,"target":"left","response":"left","rt":1246,"correct":true,"confidence":3},{"trial_n":25,"n_dots":3.75,"target":"right","response":"right","rt":460.89999997616,"correct":true,"confidence":3},{"trial_n":26,"n_dots":3.65,"target":"right","response":"right","rt":485.29999995232,"correct":true,"confidence":3},{"trial_n":27,"n_dots":3.65,"target":"right","response":"left","rt":511.40000003576,"correct":false,"confidence":3},{"trial_n":28,"n_dots":3.75,"target":"right","response":"right","rt":368,"correct":true,"confidence":3},{"trial_n":29,"n_dots":3.75,"target":"left","response":"left","rt":487,"correct":true,"confidence":3},{"trial_n":30,"n_dots":3.65,"target":"left","response":"left","rt":474.30000001192,"correct":true,"confidence":3},{"trial_n":31,"n_dots":3.65,"target":"left","response":"right","rt":926.09999996424,"correct":false,"confidence":3},{"trial_n":32,"n_dots":3.75,"target":"left","response":"left","rt":520.19999998808,"correct":true,"confidence":3},{"trial_n":33,"n_dots":3.75,"target":"right","response":"right","rt":916.10000002384,"correct":true,"confidence":3},{"trial_n":34,"n_dots":3.65,"target":"left","response":"left","rt":510.20000004768,"correct":true,"confidence":3},{"trial_n":35,"n_dots":3.65,"target":"left","response":"left","rt":726.40000003576,"correct":true,"confidence":3},{"trial_n":36,"n_dots":3.55,"target":"right","response":"right","rt":809.89999997616,"correct":true,"confidence":3},{"trial_n":37,"n_dots":3.55,"target":"left","response":"left","rt":505.29999995232,"correct":true,"confidence":3},{"trial_n":38,"n_dots":3.45,"target":"left","response":"left","rt":611.69999998808,"correct":true,"confidence":3},{"trial_n":39,"n_dots":3.45,"target":"right","response":"left","rt":927.19999998808,"correct":false,"confidence":3},{"trial_n":40,"n_dots":3.55,"target":"left","response":"right","rt":707.60000002384,"correct":false,"confidence":3},{"trial_n":41,"n_dots":3.65,"target":"left","response":"left","rt":631,"correct":true,"confidence":3},{"trial_n":42,"n_dots":3.65,"target":"left","response":"right","rt":629.80000001192,"correct":false,"confidence":3},{"trial_n":43,"n_dots":3.75,"target":"left","response":"left","rt":453.30000001192,"correct":true,"confidence":3},{"trial_n":44,"n_dots":3.75,"target":"right","response":"left","rt":835.40000003576,"correct":false,"confidence":3},{"trial_n":45,"n_dots":3.85,"target":"right","response":"right","rt":618.59999996424,"correct":true,"confidence":3},{"trial_n":46,"n_dots":3.85,"target":"right","response":"right","rt":995.10000002384,"correct":true,"confidence":3},{"trial_n":47,"n_dots":3.75,"target":"right","response":"right","rt":1226.5999999642,"correct":true,"confidence":3},{"trial_n":48,"n_dots":3.75,"target":"right","response":"right","rt":746.19999998808,"correct":true,"confidence":3},{"trial_n":49,"n_dots":3.65,"target":"left","response":"left","rt":1509.8999999762,"correct":true,"confidence":3},{"trial_n":50,"n_dots":3.65,"target":"right","response":"left","rt":876.5,"correct":false,"confidence":3},{"trial_n":51,"n_dots":3.75,"target":"left","response":"left","rt":513.5,"correct":true,"confidence":3},{"trial_n":52,"n_dots":3.75,"target":"left","response":"left","rt":799.69999998808,"correct":true,"confidence":3},{"trial_n":53,"n_dots":3.65,"target":"right","response":"right","rt":398.40000003576,"correct":true,"confidence":3},{"trial_n":54,"n_dots":3.65,"target":"right","response":"left","rt":578.69999998808,"correct":false,"confidence":3},{"trial_n":55,"n_dots":3.75,"target":"right","response":"right","rt":278.30000001192,"correct":true,"confidence":3},{"trial_n":56,"n_dots":3.75,"target":"left","response":"left","rt":549.60000002384,"correct":true,"confidence":3},{"trial_n":57,"n_dots":3.65,"target":"right","response":"right","rt":346,"correct":true,"confidence":3},{"trial_n":58,"n_dots":3.65,"target":"right","response":"right","rt":324.90000003576,"correct":true,"confidence":3},{"trial_n":59,"n_dots":3.55,"target":"left","response":"left","rt":-0.5,"correct":true,"confidence":3},{"trial_n":60,"n_dots":3.55,"target":"right","response":"left","rt":595.30000001192,"correct":false,"confidence":3},{"trial_n":61,"n_dots":3.65,"target":"right","response":"left","rt":356.19999998808,"correct":false,"confidence":3},{"trial_n":62,"n_dots":3.75,"target":"left","response":"left","rt":340.10000002384,"correct":true,"confidence":3},{"trial_n":63,"n_dots":3.75,"target":"right","response":"left","rt":292.59999996424,"correct":false,"confidence":3},{"trial_n":64,"n_dots":3.85,"target":"right","response":"left","rt":508.89999997616,"correct":false,"confidence":3},{"trial_n":65,"n_dots":3.95,"target":"right","response":"left","rt":454.89999997616,"correct":false,"confidence":3},{"trial_n":66,"n_dots":4.05,"target":"right","response":"left","rt":555.90000003576,"correct":false,"confidence":3},{"trial_n":67,"n_dots":4.15,"target":"left","response":"left","rt":167.80000001192,"correct":true,"confidence":3},{"trial_n":68,"n_dots":4.15,"target":"right","response":"right","rt":468.10000002384,"correct":true,"confidence":3},{"trial_n":69,"n_dots":4.05,"target":"left","response":"left","rt":270.30000001192,"correct":true,"confidence":3},{"trial_n":70,"n_dots":4.05,"target":"right","response":"right","rt":318.69999998808,"correct":true,"confidence":3},{"trial_n":71,"n_dots":3.95,"target":"right","response":"right","rt":696.30000001192,"correct":true,"confidence":3},{"trial_n":72,"n_dots":3.95,"target":"left","response":"left","rt":560.5,"correct":true,"confidence":3},{"trial_n":73,"n_dots":3.85,"target":"right","response":"left","rt":514.20000004768,"correct":false,"confidence":3},{"trial_n":74,"n_dots":3.95,"target":"left","response":"left","rt":411.70000004768,"correct":true,"confidence":3},{"trial_n":75,"n_dots":3.95,"target":"left","response":"left","rt":432.30000001192,"correct":true,"confidence":3},{"trial_n":76,"n_dots":3.85,"target":"left","response":"left","rt":279.59999996424,"correct":true,"confidence":3},{"trial_n":77,"n_dots":3.85,"target":"right","response":"right","rt":389.89999997616,"correct":true,"confidence":3},{"trial_n":78,"n_dots":3.75,"target":"left","response":"left","rt":228,"correct":true,"confidence":3},{"trial_n":79,"n_dots":3.75,"target":"right","response":"right","rt":214.69999998808,"correct":true,"confidence":3},{"trial_n":80,"n_dots":3.65,"target":"left","response":"left","rt":364.39999997616,"correct":true,"confidence":3},{"trial_n":81,"n_dots":3.65,"target":"left","response":"left","rt":751.59999996424,"correct":true,"confidence":3},{"trial_n":82,"n_dots":3.55,"target":"left","response":"left","rt":366.30000001192,"correct":true,"confidence":3},{"trial_n":83,"n_dots":3.55,"target":"right","response":"right","rt":744.60000002384,"correct":true,"confidence":3},{"trial_n":84,"n_dots":3.45,"target":"right","response":"left","rt":538.5,"correct":false,"confidence":3},{"trial_n":85,"n_dots":3.55,"target":"right","response":"right","rt":545,"correct":true,"confidence":3},{"trial_n":86,"n_dots":3.55,"target":"right","response":"left","rt":396.30000001192,"correct":false,"confidence":2},{"trial_n":87,"n_dots":3.65,"target":"right","response":"right","rt":452,"correct":true,"confidence":3},{"trial_n":88,"n_dots":3.65,"target":"right","response":"right","rt":214.5,"correct":true,"confidence":3},{"trial_n":89,"n_dots":3.55,"target":"right","response":"right","rt":380.10000002384,"correct":true,"confidence":3},{"trial_n":90,"n_dots":3.55,"target":"left","response":"left","rt":449.5,"correct":true,"confidence":3},{"trial_n":91,"n_dots":3.45,"target":"right","response":"right","rt":426.5,"correct":true,"confidence":3},{"trial_n":92,"n_dots":3.45,"target":"left","response":"left","rt":508.60000002384,"correct":true,"confidence":3},{"trial_n":93,"n_dots":3.35,"target":"right","response":"left","rt":466.40000003576,"correct":false,"confidence":3},{"trial_n":94,"n_dots":3.45,"target":"right","response":"right","rt":374.60000002384,"correct":true,"confidence":3},{"trial_n":95,"n_dots":3.45,"target":"right","response":"right","rt":239.69999998808,"correct":true,"confidence":3},{"trial_n":96,"n_dots":3.35,"target":"left","response":"left","rt":318.40000003576,"correct":true,"confidence":3},{"trial_n":97,"n_dots":3.35,"target":"right","response":"right","rt":366.90000003576,"correct":true,"confidence":3},{"trial_n":98,"n_dots":3.25,"target":"left","response":"left","rt":357.40000003576,"correct":true,"confidence":3},{"trial_n":99,"n_dots":3.25,"target":"right","response":"left","rt":360.5,"correct":false,"confidence":3},{"trial_n":100,"n_dots":3.35,"target":"left","response":"right","rt":559.5,"correct":false,"confidence":3},{"trial_n":101,"n_dots":3.45,"target":"left","response":"left","rt":383.60000002384,"correct":true,"confidence":3},{"trial_n":102,"n_dots":3.45,"target":"right","response":"right","rt":154.40000003576,"correct":true,"confidence":3},{"trial_n":103,"n_dots":3.35,"target":"left","response":"left","rt":201.69999998808,"correct":true,"confidence":3},{"trial_n":104,"n_dots":3.35,"target":"left","response":"left","rt":720.10000002384,"correct":true,"confidence":3},{"trial_n":105,"n_dots":3.25,"target":"right","response":"right","rt":231.60000002384,"correct":true,"confidence":3},{"trial_n":106,"n_dots":3.25,"target":"right","response":"left","rt":110.60000002384,"correct":false,"confidence":3},{"trial_n":107,"n_dots":3.35,"target":"right","response":"right","rt":807.10000002384,"correct":true,"confidence":3},{"trial_n":108,"n_dots":3.35,"target":"left","response":"right","rt":1255.8000000119,"correct":false,"confidence":3},{"trial_n":109,"n_dots":3.45,"target":"left","response":"left","rt":371.40000003576,"correct":true,"confidence":3},{"trial_n":110,"n_dots":3.45,"target":"left","response":"left","rt":597.60000002384,"correct":true,"confidence":3},{"trial_n":111,"n_dots":3.35,"target":"right","response":"right","rt":341.30000001192,"correct":true,"confidence":3},{"trial_n":112,"n_dots":3.35,"target":"left","response":"left","rt":153.30000001192,"correct":true,"confidence":3},{"trial_n":113,"n_dots":3.25,"target":"left","response":"left","rt":376.09999996424,"correct":true,"confidence":3},{"trial_n":114,"n_dots":3.25,"target":"left","response":"left","rt":197,"correct":true,"confidence":3},{"trial_n":115,"n_dots":3.15,"target":"left","response":"left","rt":598,"correct":true,"confidence":3},{"trial_n":116,"n_dots":3.15,"target":"right","response":"left","rt":322.10000002384,"correct":false,"confidence":3},{"trial_n":117,"n_dots":3.25,"target":"left","response":"left","rt":330.59999996424,"correct":true,"confidence":3},{"trial_n":118,"n_dots":3.25,"target":"right","response":"left","rt":360.69999998808,"correct":false,"confidence":3},{"trial_n":119,"n_dots":3.35,"target":"left","response":"left","rt":353.09999996424,"correct":true,"confidence":3},{"trial_n":120,"n_dots":3.35,"target":"left","response":"left","rt":421.10000002384,"correct":true,"confidence":3}]