[{"trial_n":1,"min":25,"max":230,"target":"present","response":"absent","rt":8780.5,"correct":false,"confidence":-1},{"trial_n":2,"min":25,"max":230,"target":"present","response":"present","rt":2282.6000000238,"correct":true,"confidence":-1},{"trial_n":3,"min":25,"max":230,"target":"absent","response":"absent","rt":1296.6999999881,"correct":true,"confidence":-1},{"trial_n":4,"min":41,"max":214,"target":"absent","response":"absent","rt":721.90000003576,"correct":true,"confidence":-1},{"trial_n":5,"min":41,"max":214,"target":"present","response":"present","rt":1068.5999999642,"correct":true,"confidence":-1},{"trial_n":6,"min":57,"max":198,"target":"absent","response":"absent","rt":1191.2000000477,"correct":true,"confidence":-1},{"trial_n":7,"min":57,"max":198,"target":"present","response":"present","rt":1631,"correct":true,"confidence":-1},{"trial_n":8,"min":73,"max":182,"target":"absent","response":"absent","rt":6861.4000000358,"correct":true,"confidence":-1},{"trial_n":9,"min":73,"max":182,"target":"absent","response":"absent","rt":1671,"correct":true,"confidence":-1},{"trial_n":10,"min":89,"max":166,"target":"absent","response":"absent","rt":322.29999995232,"correct":true,"confidence":-1},{"trial_n":11,"min":89,"max":166,"target":"present","response":"absent","rt":608.59999996424,"correct":false,"confidence":-1},{"trial_n":12,"min":81,"max":174,"target":"present","response":"present","rt":494,"correct":true,"confidence":-1},{"trial_n":13,"min":81,"max":174,"target":"absent","response":"absent","rt":830.20000004768,"correct":true,"confidence":-1},{"trial_n":14,"min":89,"max":166,"target":"present","response":"present","rt":1748.1000000238,"correct":true,"confidence":-1},{"trial_n":15,"min":89,"max":166,"target":"absent","response":"absent","rt":1339.5999999642,"correct":true,"confidence":-1},{"trial_n":16,"min":97,"max":158,"target":"present","response":"present","rt":411.5,"correct":true,"confidence":-1},{"trial_n":17,"min":97,"max":158,"target":"present","response":"present","rt":352.09999996424,"correct":true,"confidence":-1},{"trial_n":18,"min":105,"max":150,"target":"present","response":"present","rt":382.29999995232,"correct":true,"confidence":-1},{"trial_n":19,"min":105,"max":150,"target":"present","response":"absent","rt":541,"correct":false,"confidence":-1},{"trial_n":20,"min":97,"max":158,"target":"absent","response":"absent","rt":1031.1000000238,"correct":true,"confidence":-1},{"trial_n":21,"min":97,"max":158,"target":"present","response":"absent","rt":1823.2000000477,"correct":false,"confidence":5},{"trial_n":22,"min":93,"max":162,"target":"present","response":"absent","rt":853.89999997616,"correct":false,"confidence":5},{"trial_n":23,"min":89,"max":166,"target":"present","response":"present","rt":1266.5,"correct":true,"confidence":5},{"trial_n":24,"min":89,"max":166,"target":"absent","response":"absent","rt":2684.8999999762,"correct":true,"confidence":3},{"trial_n":25,"min":93,"max":162,"target":"present","response":"absent","rt":1049.2999999523,"correct":false,"confidence":3},{"trial_n":26,"min":89,"max":166,"target":"absent","response":"absent","rt":2017.4000000358,"correct":true,"confidence":4},{"trial_n":27,"min":89,"max":166,"target":"present","response":"absent","rt":1179.5,"correct":false,"confidence":5},{"trial_n":28,"min":85,"max":170,"target":"present","response":"present","rt":1225.6999999881,"correct":true,"confidence":5},{"trial_n":29,"min":85,"max":170,"target":"present","response":"present","rt":702.10000002384,"correct":true,"confidence":5},{"trial_n":30,"min":89,"max":166,"target":"absent","response":"absent","rt":1110.6000000238,"correct":true,"confidence":5},{"trial_n":31,"min":89,"max":166,"target":"absent","response":"absent","rt":1142.5,"correct":true,"confidence":5},{"trial_n":32,"min":91,"max":164,"target":"present","response":"present","rt":969.89999997616,"correct":true,"confidence":5},{"trial_n":33,"min":91,"max":164,"target":"present","response":"absent","rt":627.40000003576,"correct":false,"confidence":4},{"trial_n":34,"min":89,"max":166,"target":"absent","response":"absent","rt":861.90000003576,"correct":true,"confidence":4},{"trial_n":35,"min":89,"max":166,"target":"absent","response":"present","rt":1666.3000000119,"correct":false,"confidence":4},{"trial_n":36,"min":87,"max":168,"target":"absent","response":"absent","rt":949.5,"correct":true,"confidence":4},{"trial_n":37,"min":87,"max":168,"target":"absent","response":"absent","rt":692.60000002384,"correct":true,"confidence":4},{"trial_n":38,"min":89,"max":166,"target":"present","response":"absent","rt":948,"correct":false,"confidence":4},{"trial_n":39,"min":87,"max":168,"target":"present","response":"present","rt":1110.1999999881,"correct":true,"confidence":4},{"trial_n":40,"min":87,"max":168,"target":"absent","response":"absent","rt":985.30000001192,"correct":true,"confidence":4},{"trial_n":41,"min":88,"max":167,"target":"absent","response":"present","rt":2405.3000000119,"correct":false,"confidence":4},{"trial_n":42,"min":87,"max":168,"target":"absent","response":"present","rt":1705,"correct":false,"confidence":3},{"trial_n":43,"min":86,"max":169,"target":"present","response":"absent","rt":1003.3999999762,"correct":false,"confidence":3},{"trial_n":44,"min":85,"max":170,"target":"absent","response":"absent","rt":1487.5,"correct":true,"confidence":2},{"trial_n":45,"min":85,"max":170,"target":"present","response":"present","rt":1962.6000000238,"correct":true,"confidence":5},{"trial_n":46,"min":86,"max":169,"target":"present","response":"present","rt":1070.8000000119,"correct":true,"confidence":5},{"trial_n":47,"min":86,"max":169,"target":"absent","response":"absent","rt":770.19999998808,"correct":true,"confidence":4},{"trial_n":48,"min":87,"max":168,"target":"absent","response":"present","rt":682,"correct":false,"confidence":4},{"trial_n":49,"min":86,"max":169,"target":"absent","response":"absent","rt":813.5,"correct":true,"confidence":4},{"trial_n":50,"min":86,"max":169,"target":"absent","response":"absent","rt":653.79999995232,"correct":true,"confidence":4},{"trial_n":51,"min":87,"max":168,"target":"present","response":"present","rt":1131.6999999881,"correct":true,"confidence":4},{"trial_n":52,"min":87,"max":168,"target":"present","response":"present","rt":717.39999997616,"correct":true,"confidence":4},{"trial_n":53,"min":88,"max":167,"target":"present","response":"present","rt":1639.1999999881,"correct":true,"confidence":4},{"trial_n":54,"min":88,"max":167,"target":"present","response":"present","rt":1049.8000000119,"correct":true,"confidence":4},{"trial_n":55,"min":89,"max":166,"target":"present","response":"present","rt":936.19999998808,"correct":true,"confidence":4},{"trial_n":56,"min":89,"max":166,"target":"absent","response":"present","rt":714.39999997616,"correct":false,"confidence":4},{"trial_n":57,"min":88,"max":167,"target":"present","response":"present","rt":998.30000001192,"correct":true,"confidence":4},{"trial_n":58,"min":88,"max":167,"target":"absent","response":"present","rt":912.20000004768,"correct":false,"confidence":4},{"trial_n":59,"min":87,"max":168,"target":"absent","response":"absent","rt":812.69999998808,"correct":true,"confidence":3},{"trial_n":60,"min":87,"max":168,"target":"present","response":"present","rt":719.19999998808,"correct":true,"confidence":5},{"trial_n":61,"min":88,"max":167,"target":"present","response":"absent","rt":952.30000001192,"correct":false,"confidence":3},{"trial_n":62,"min":87,"max":168,"target":"absent","response":"absent","rt":1210.5,"correct":true,"confidence":3},{"trial_n":63,"min":87,"max":168,"target":"present","response":"present","rt":684.10000002384,"correct":true,"confidence":4},{"trial_n":64,"min":88,"max":167,"target":"absent","response":"absent","rt":1029.1999999881,"correct":true,"confidence":1},{"trial_n":65,"min":88,"max":167,"target":"absent","response":"absent","rt":2092.1999999881,"correct":true,"confidence":2},{"trial_n":66,"min":89,"max":166,"target":"absent","response":"absent","rt":934.39999997616,"correct":true,"confidence":3},{"trial_n":67,"min":89,"max":166,"target":"present","response":"present","rt":716.60000002384,"correct":true,"confidence":4},{"trial_n":68,"min":90,"max":165,"target":"absent","response":"absent","rt":1052.6999999881,"correct":true,"confidence":4},{"trial_n":69,"min":90,"max":165,"target":"absent","response":"absent","rt":1177.2000000477,"correct":true,"confidence":4},{"trial_n":70,"min":91,"max":164,"target":"present","response":"present","rt":724.60000002384,"correct":true,"confidence":3},{"trial_n":71,"min":41,"max":214,"target":"present","response":"present","rt":2887.8000000119,"correct":true,"confidence":-1},{"trial_n":72,"min":41,"max":214,"target":"present","response":"present","rt":351.19999998808,"correct":true,"confidence":-1},{"trial_n":73,"min":57,"max":198,"target":"absent","response":"absent","rt":418,"correct":true,"confidence":-1},{"trial_n":74,"min":57,"max":198,"target":"absent","response":"present","rt":308.10000002384,"correct":false,"confidence":-1},{"trial_n":75,"min":41,"max":214,"target":"present","response":"present","rt":253.70000004768,"correct":true,"confidence":-1},{"trial_n":76,"min":41,"max":214,"target":"absent","response":"absent","rt":261.30000001192,"correct":true,"confidence":-1},{"trial_n":77,"min":57,"max":198,"target":"present","response":"present","rt":429,"correct":true,"confidence":-1},{"trial_n":78,"min":57,"max":198,"target":"absent","response":"absent","rt":183.5,"correct":true,"confidence":-1},{"trial_n":79,"min":73,"max":182,"target":"absent","response":"absent","rt":703.09999996424,"correct":true,"confidence":-1},{"trial_n":80,"min":73,"max":182,"target":"absent","response":"absent","rt":254.5,"correct":true,"confidence":-1},{"trial_n":81,"min":81,"max":174,"target":"present","response":"present","rt":271.69999998808,"correct":true,"confidence":-1},{"trial_n":82,"min":81,"max":174,"target":"absent","response":"present","rt":339.20000004768,"correct":false,"confidence":-1},{"trial_n":83,"min":73,"max":182,"target":"present","response":"present","rt":599.89999997616,"correct":true,"confidence":-1},{"trial_n":84,"min":73,"max":182,"target":"absent","response":"absent","rt":238.5,"correct":true,"confidence":-1},{"trial_n":85,"min":81,"max":174,"target":"present","response":"present","rt":420.60000002384,"correct":true,"confidence":-1},{"trial_n":86,"min":81,"max":174,"target":"present","response":"present","rt":381.40000003576,"correct":true,"confidence":-1},{"trial_n":87,"min":89,"max":166,"target":"present","response":"present","rt":1170.1000000238,"correct":true,"confidence":-1},{"trial_n":88,"min":89,"max":166,"target":"present","response":"present","rt":952.69999998808,"correct":true,"confidence":-1},{"trial_n":89,"min":97,"max":158,"target":"present","response":"present","rt":1166.7999999523,"correct":true,"confidence":-1},{"trial_n":90,"min":97,"max":158,"target":"absent","response":"present","rt":634.80000001192,"correct":false,"confidence":-1},{"trial_n":91,"min":93,"max":162,"target":"absent","response":"absent","rt":1085.8000000119,"correct":true,"confidence":1},{"trial_n":92,"min":93,"max":162,"target":"present","response":"present","rt":1183.8999999762,"correct":true,"confidence":3},{"trial_n":93,"min":97,"max":158,"target":"absent","response":"present","rt":927.29999995232,"correct":false,"confidence":2},{"trial_n":94,"min":93,"max":162,"target":"present","response":"present","rt":600.30000001192,"correct":true,"confidence":2},{"trial_n":95,"min":93,"max":162,"target":"absent","response":"present","rt":486.60000002384,"correct":false,"confidence":2},{"trial_n":96,"min":89,"max":166,"target":"absent","response":"absent","rt":651,"correct":true,"confidence":3},{"trial_n":97,"min":89,"max":166,"target":"absent","response":"absent","rt":692.19999998808,"correct":true,"confidence":3},{"trial_n":98,"min":93,"max":162,"target":"absent","response":"absent","rt":927.10000002384,"correct":true,"confidence":3},{"trial_n":99,"min":93,"max":162,"target":"absent","response":"present","rt":1207.9000000358,"correct":false,"confidence":1},{"trial_n":100,"min":89,"max":166,"target":"present","response":"present","rt":527.90000003576,"correct":true,"confidence":4},{"trial_n":101,"min":89,"max":166,"target":"present","response":"present","rt":624.30000001192,"correct":true,"confidence":3},{"trial_n":102,"min":91,"max":164,"target":"present","response":"absent","rt":1263.8000000119,"correct":false,"confidence":1},{"trial_n":103,"min":89,"max":166,"target":"absent","response":"present","rt":1168.8999999762,"correct":false,"confidence":2},{"trial_n":104,"min":87,"max":168,"target":"absent","response":"absent","rt":733.60000002384,"correct":true,"confidence":4},{"trial_n":105,"min":87,"max":168,"target":"present","response":"present","rt":834.30000001192,"correct":true,"confidence":2},{"trial_n":106,"min":89,"max":166,"target":"present","response":"absent","rt":1108.1999999881,"correct":false,"confidence":2},{"trial_n":107,"min":87,"max":168,"target":"present","response":"present","rt":342.10000002384,"correct":true,"confidence":4},{"trial_n":108,"min":87,"max":168,"target":"present","response":"present","rt":484.89999997616,"correct":true,"confidence":3},{"trial_n":109,"min":89,"max":166,"target":"present","response":"present","rt":528.10000002384,"correct":true,"confidence":3},{"trial_n":110,"min":89,"max":166,"target":"absent","response":"absent","rt":732.29999995232,"correct":true,"confidence":3},{"trial_n":111,"min":90,"max":165,"target":"absent","response":"absent","rt":1742.5,"correct":true,"confidence":3},{"trial_n":112,"min":90,"max":165,"target":"absent","response":"present","rt":1177.1000000238,"correct":false,"confidence":1},{"trial_n":113,"min":89,"max":166,"target":"present","response":"present","rt":638.30000001192,"correct":true,"confidence":4},{"trial_n":114,"min":89,"max":166,"target":"present","response":"absent","rt":1504.3000000119,"correct":false,"confidence":2},{"trial_n":115,"min":88,"max":167,"target":"present","response":"present","rt":437.5,"correct":true,"confidence":4},{"trial_n":116,"min":88,"max":167,"target":"absent","response":"present","rt":578.39999997616,"correct":false,"confidence":2},{"trial_n":117,"min":87,"max":168,"target":"present","response":"present","rt":396.19999998808,"correct":true,"confidence":4},{"trial_n":118,"min":87,"max":168,"target":"absent","response":"absent","rt":852.10000002384,"correct":true,"confidence":3},{"trial_n":119,"min":88,"max":167,"target":"present","response":"present","rt":732.60000002384,"correct":true,"confidence":3},{"trial_n":120,"min":88,"max":167,"target":"present","response":"present","rt":346.90000003576,"correct":true,"confidence":4},{"trial_n":121,"min":89,"max":166,"target":"present","response":"present","rt":401.39999997616,"correct":true,"confidence":4},{"trial_n":122,"min":89,"max":166,"target":"absent","response":"absent","rt":515.10000002384,"correct":true,"confidence":4},{"trial_n":123,"min":90,"max":165,"target":"absent","response":"present","rt":471.60000002384,"correct":false,"confidence":1},{"trial_n":124,"min":89,"max":166,"target":"present","response":"absent","rt":891.59999996424,"correct":false,"confidence":2},{"trial_n":125,"min":88,"max":167,"target":"absent","response":"absent","rt":1669.1000000238,"correct":true,"confidence":4},{"trial_n":126,"min":88,"max":167,"target":"absent","response":"absent","rt":1010.1999999881,"correct":true,"confidence":3},{"trial_n":127,"min":89,"max":166,"target":"present","response":"present","rt":500.80000001192,"correct":true,"confidence":1},{"trial_n":128,"min":89,"max":166,"target":"absent","response":"present","rt":1006.3999999762,"correct":false,"confidence":1},{"trial_n":129,"min":88,"max":167,"target":"present","response":"present","rt":366.69999998808,"correct":true,"confidence":1},{"trial_n":130,"min":88,"max":167,"target":"absent","response":"absent","rt":914.80000001192,"correct":true,"confidence":1},{"trial_n":131,"min":89,"max":166,"target":"absent","response":"absent","rt":860.90000003576,"correct":true,"confidence":2},{"trial_n":132,"min":89,"max":166,"target":"present","response":"absent","rt":408.90000003576,"correct":false,"confidence":1},{"trial_n":133,"min":88,"max":167,"target":"absent","response":"absent","rt":809.69999998808,"correct":true,"confidence":3},{"trial_n":134,"min":88,"max":167,"target":"absent","response":"present","rt":339.30000001192,"correct":false,"confidence":3},{"trial_n":135,"min":87,"max":168,"target":"present","response":"present","rt":744,"correct":true,"confidence":3},{"trial_n":136,"min":87,"max":168,"target":"present","response":"present","rt":624.69999998808,"correct":true,"confidence":4},{"trial_n":137,"min":88,"max":167,"target":"present","response":"absent","rt":1032.8999999762,"correct":false,"confidence":2},{"trial_n":138,"min":87,"max":168,"target":"absent","response":"absent","rt":876.80000001192,"correct":true,"confidence":3},{"trial_n":139,"min":87,"max":168,"target":"absent","response":"present","rt":537.30000001192,"correct":false,"confidence":3},{"trial_n":140,"min":86,"max":169,"target":"present","response":"present","rt":646.69999998808,"correct":true,"confidence":4}]