[{"trial_n":1,"span":8,"encoder":"51114982","distractor":"51114984","target":"present","response":"present","rt":"4239","correct":true,"confidence":-1},{"trial_n":2,"span":8,"encoder":"98138367","distractor":"98188367","target":"present","response":"absent","rt":"3647","correct":false,"confidence":-1},{"trial_n":3,"span":6,"encoder":"887984","distractor":"887904","target":"absent","response":"present","rt":"1998","correct":false,"confidence":-1},{"trial_n":4,"span":4,"encoder":"2216","distractor":"2218","target":"absent","response":"absent","rt":"2215","correct":true,"confidence":-1},{"trial_n":5,"span":4,"encoder":"0671","distractor":"0871","target":"present","response":"present","rt":"1949","correct":true,"confidence":-1},{"trial_n":6,"span":6,"encoder":"342437","distractor":"342436","target":"present","response":"present","rt":"3160","correct":true,"confidence":-1},{"trial_n":7,"span":6,"encoder":"303647","distractor":"393647","target":"absent","response":"absent","rt":"2379","correct":true,"confidence":-1},{"trial_n":8,"span":8,"encoder":"99973647","distractor":"99971647","target":"absent","response":"present","rt":"1893","correct":false,"confidence":-1},{"trial_n":9,"span":6,"encoder":"669216","distractor":"169216","target":"present","response":"present","rt":"2407","correct":true,"confidence":-1},{"trial_n":10,"span":6,"encoder":"684799","distractor":"684099","target":"present","response":"present","rt":"2043","correct":true,"confidence":-1},{"trial_n":11,"span":8,"encoder":"52355567","distractor":"54355567","target":"present","response":"absent","rt":"3324","correct":false,"confidence":-1},{"trial_n":12,"span":7,"encoder":"4298197","distractor":"4998197","target":"present","response":"present","rt":"2489","correct":true,"confidence":-1},{"trial_n":13,"span":7,"encoder":"9272561","distractor":"9279561","target":"absent","response":"absent","rt":"2909","correct":true,"confidence":-1},{"trial_n":14,"span":8,"encoder":"89125491","distractor":"89825491","target":"present","response":"present","rt":"3081","correct":true,"confidence":-1},{"trial_n":15,"span":8,"encoder":"70136512","distractor":"70936512","target":"absent","response":"absent","rt":"1093","correct":true,"confidence":-1},{"trial_n":16,"span":9,"encoder":"343582608","distractor":"343582600","target":"present","response":"absent","rt":"1602","correct":false,"confidence":-1},{"trial_n":17,"span":8,"encoder":"23758849","distractor":"23758869","target":"present","response":"present","rt":"1041","correct":true,"confidence":-1},{"trial_n":18,"span":8,"encoder":"29889945","distractor":"29889948","target":"present","response":"present","rt":"1145","correct":true,"confidence":-1},{"trial_n":19,"span":9,"encoder":"410167132","distractor":"410167137","target":"present","response":"present","rt":"1012","correct":true,"confidence":-1},{"trial_n":20,"span":9,"encoder":"273315271","distractor":"273615271","target":"absent","response":"present","rt":"1276","correct":false,"confidence":-1},{"trial_n":21,"span":8,"encoder":"01322386","distractor":"01322986","target":"absent","response":"present","rt":"3924","correct":false,"confidence":3},{"trial_n":22,"span":7,"encoder":"1262198","distractor":"1162198","target":"present","response":"absent","rt":"2702","correct":false,"confidence":1},{"trial_n":23,"span":6,"encoder":"097009","distractor":"092009","target":"present","response":"present","rt":"1539","correct":true,"confidence":4},{"trial_n":24,"span":6,"encoder":"019393","distractor":"019303","target":"present","response":"present","rt":"1514","correct":true,"confidence":4},{"trial_n":25,"span":7,"encoder":"8888281","distractor":"8788281","target":"absent","response":"absent","rt":"2347","correct":true,"confidence":2},{"trial_n":26,"span":7,"encoder":"5163852","distractor":"6163852","target":"absent","response":"absent","rt":"2274","correct":true,"confidence":4},{"trial_n":27,"span":8,"encoder":"35367777","distractor":"35367477","target":"present","response":"present","rt":"3952","correct":true,"confidence":3},{"trial_n":28,"span":8,"encoder":"27173815","distractor":"27143815","target":"absent","response":"absent","rt":"3407","correct":true,"confidence":3},{"trial_n":29,"span":9,"encoder":"660449762","distractor":"660429762","target":"absent","response":"present","rt":"5937","correct":false,"confidence":3},{"trial_n":30,"span":8,"encoder":"22012375","distractor":"20012375","target":"present","response":"present","rt":"2816.9999999999","correct":true,"confidence":5},{"trial_n":31,"span":8,"encoder":"00442086","distractor":"00442186","target":"absent","response":"present","rt":"2863","correct":false,"confidence":4},{"trial_n":32,"span":7,"encoder":"0774645","distractor":"0774445","target":"absent","response":"absent","rt":"2633","correct":true,"confidence":3},{"trial_n":33,"span":7,"encoder":"9805831","distractor":"9305831","target":"present","response":"present","rt":"4087","correct":true,"confidence":4},{"trial_n":34,"span":8,"encoder":"99498918","distractor":"99438918","target":"present","response":"present","rt":"2220","correct":true,"confidence":3},{"trial_n":35,"span":8,"encoder":"78223999","distractor":"78223919","target":"present","response":"present","rt":"2213","correct":true,"confidence":4},{"trial_n":36,"span":9,"encoder":"921086961","distractor":"922086961","target":"absent","response":"present","rt":"3450","correct":false,"confidence":2},{"trial_n":37,"span":8,"encoder":"20734348","distractor":"50734348","target":"absent","response":"present","rt":"3412.0000000001","correct":false,"confidence":3},{"trial_n":38,"span":7,"encoder":"9946373","distractor":"3946373","target":"absent","response":"absent","rt":"2219","correct":true,"confidence":2},{"trial_n":39,"span":7,"encoder":"6330340","distractor":"6330540","target":"absent","response":"absent","rt":"5091","correct":true,"confidence":3},{"trial_n":40,"span":8,"encoder":"52117405","distractor":"52117495","target":"absent","response":"absent","rt":"2997","correct":true,"confidence":3},{"trial_n":41,"span":8,"encoder":"43049119","distractor":"43045119","target":"absent","response":"present","rt":"3161","correct":false,"confidence":4},{"trial_n":42,"span":7,"encoder":"1271919","distractor":"3271919","target":"present","response":"present","rt":"1604","correct":true,"confidence":4},{"trial_n":43,"span":7,"encoder":"0913496","distractor":"0913492","target":"absent","response":"absent","rt":"4912","correct":true,"confidence":3},{"trial_n":44,"span":8,"encoder":"38667910","distractor":"38667110","target":"absent","response":"absent","rt":"3496","correct":true,"confidence":4},{"trial_n":45,"span":8,"encoder":"36411369","distractor":"16411369","target":"present","response":"present","rt":"1649.9999999999","correct":true,"confidence":4},{"trial_n":46,"span":9,"encoder":"568961798","distractor":"538961798","target":"absent","response":"present","rt":"6693","correct":false,"confidence":2},{"trial_n":47,"span":8,"encoder":"55352845","distractor":"55352445","target":"present","response":"present","rt":"3826","correct":true,"confidence":3},{"trial_n":48,"span":8,"encoder":"88869257","distractor":"88869247","target":"present","response":"present","rt":"3894","correct":true,"confidence":3},{"trial_n":49,"span":9,"encoder":"231739382","distractor":"231739982","target":"absent","response":"present","rt":"2133.0000000001","correct":false,"confidence":2},{"trial_n":50,"span":8,"encoder":"19485812","distractor":"19485842","target":"present","response":"present","rt":"1341","correct":true,"confidence":3},{"trial_n":51,"span":8,"encoder":"06723983","distractor":"06743983","target":"absent","response":"present","rt":"3520.0000000002","correct":false,"confidence":3},{"trial_n":52,"span":7,"encoder":"2577020","distractor":"0577020","target":"absent","response":"present","rt":"2759","correct":false,"confidence":3},{"trial_n":53,"span":6,"encoder":"432862","distractor":"432867","target":"absent","response":"absent","rt":"4902","correct":true,"confidence":4},{"trial_n":54,"span":6,"encoder":"488064","distractor":"483064","target":"absent","response":"absent","rt":"26123","correct":true,"confidence":3},{"trial_n":55,"span":7,"encoder":"2880740","distractor":"2280740","target":"absent","response":"present","rt":"4381.9999999998","correct":false,"confidence":3},{"trial_n":56,"span":6,"encoder":"102193","distractor":"102173","target":"absent","response":"absent","rt":"2241","correct":true,"confidence":5},{"trial_n":57,"span":6,"encoder":"036093","distractor":"036096","target":"present","response":"present","rt":"2834","correct":true,"confidence":4},{"trial_n":58,"span":7,"encoder":"9425173","distractor":"9425473","target":"present","response":"absent","rt":"3109","correct":false,"confidence":3},{"trial_n":59,"span":6,"encoder":"641437","distractor":"648437","target":"present","response":"present","rt":"2893","correct":true,"confidence":4},{"trial_n":60,"span":6,"encoder":"625313","distractor":"625310","target":"absent","response":"absent","rt":"2273","correct":true,"confidence":4},{"trial_n":61,"span":7,"encoder":"5591757","distractor":"5391757","target":"present","response":"present","rt":"4325","correct":true,"confidence":3},{"trial_n":62,"span":7,"encoder":"1357352","distractor":"1357356","target":"present","response":"present","rt":"2638","correct":true,"confidence":5},{"trial_n":63,"span":8,"encoder":"94946834","distractor":"94946838","target":"present","response":"present","rt":"2809","correct":true,"confidence":5},{"trial_n":64,"span":8,"encoder":"38326899","distractor":"38329899","target":"absent","response":"present","rt":"3206","correct":false,"confidence":3},{"trial_n":65,"span":7,"encoder":"9496174","distractor":"9396174","target":"present","response":"present","rt":"3452","correct":true,"confidence":4},{"trial_n":66,"span":7,"encoder":"7982716","distractor":"7986716","target":"absent","response":"absent","rt":"4752","correct":true,"confidence":2},{"trial_n":67,"span":8,"encoder":"34606218","distractor":"34606212","target":"present","response":"present","rt":"3128","correct":true,"confidence":4},{"trial_n":68,"span":8,"encoder":"58808719","distractor":"57808719","target":"present","response":"present","rt":"2534","correct":true,"confidence":4},{"trial_n":69,"span":9,"encoder":"927608253","distractor":"927648253","target":"absent","response":"present","rt":"5987.9999999998","correct":false,"confidence":3},{"trial_n":70,"span":8,"encoder":"14027549","distractor":"14023549","target":"present","response":"present","rt":"3746","correct":true,"confidence":3},{"trial_n":71,"span":8,"encoder":"35951158","distractor":"34951158","target":"present","response":"present","rt":"4726","correct":true,"confidence":-1},{"trial_n":72,"span":8,"encoder":"57781282","distractor":"56781282","target":"present","response":"present","rt":"2532.0000000002","correct":true,"confidence":-1},{"trial_n":73,"span":9,"encoder":"777679966","distractor":"877679966","target":"absent","response":"absent","rt":"2182","correct":true,"confidence":-1},{"trial_n":74,"span":9,"encoder":"907905724","distractor":"907305724","target":"absent","response":"absent","rt":"6499.0000000002","correct":true,"confidence":-1},{"trial_n":75,"span":10,"encoder":"1776115443","distractor":"1776135443","target":"present","response":"present","rt":"3097","correct":true,"confidence":-1},{"trial_n":76,"span":10,"encoder":"7150108047","distractor":"7170108047","target":"present","response":"absent","rt":"7698","correct":false,"confidence":-1},{"trial_n":77,"span":9,"encoder":"264183453","distractor":"263183453","target":"absent","response":"absent","rt":"6067","correct":true,"confidence":-1},{"trial_n":78,"span":9,"encoder":"021414681","distractor":"421414681","target":"absent","response":"absent","rt":"2184.9999999998","correct":true,"confidence":-1},{"trial_n":79,"span":10,"encoder":"2378389602","distractor":"2978389602","target":"absent","response":"absent","rt":"2264.0000000002","correct":true,"confidence":-1},{"trial_n":80,"span":10,"encoder":"3694047449","distractor":"3674047449","target":"absent","response":"absent","rt":"2795","correct":true,"confidence":-1},{"trial_n":81,"span":11,"encoder":"10092396129","distractor":"10092296129","target":"absent","response":"absent","rt":"6349.0000000002","correct":true,"confidence":-1},{"trial_n":82,"span":11,"encoder":"17334526330","distractor":"17334556330","target":"present","response":"absent","rt":"5927","correct":false,"confidence":-1},{"trial_n":83,"span":10,"encoder":"6424464629","distractor":"6424414629","target":"present","response":"present","rt":"1999","correct":true,"confidence":-1},{"trial_n":84,"span":10,"encoder":"6041017310","distractor":"6041087310","target":"absent","response":"absent","rt":"4319.0000000002","correct":true,"confidence":-1},{"trial_n":85,"span":11,"encoder":"37394914876","distractor":"37394914776","target":"absent","response":"absent","rt":"2488","correct":true,"confidence":-1},{"trial_n":86,"span":11,"encoder":"19715032944","distractor":"19715932944","target":"present","response":"absent","rt":"3093","correct":false,"confidence":-1},{"trial_n":87,"span":10,"encoder":"4429773367","distractor":"4429773377","target":"absent","response":"present","rt":"4820","correct":false,"confidence":-1},{"trial_n":88,"span":9,"encoder":"448837013","distractor":"448837813","target":"absent","response":"present","rt":"5603","correct":false,"confidence":-1},{"trial_n":89,"span":8,"encoder":"26250207","distractor":"26230207","target":"present","response":"absent","rt":"3855","correct":false,"confidence":-1},{"trial_n":90,"span":7,"encoder":"6470051","distractor":"6070051","target":"absent","response":"present","rt":"2967","correct":false,"confidence":-1},{"trial_n":91,"span":6,"encoder":"690220","distractor":"650220","target":"absent","response":"absent","rt":"1844","correct":true,"confidence":4},{"trial_n":92,"span":6,"encoder":"897029","distractor":"827029","target":"absent","response":"absent","rt":"4613","correct":true,"confidence":2},{"trial_n":93,"span":7,"encoder":"6975121","distractor":"6975123","target":"absent","response":"absent","rt":"1692.9999999998","correct":true,"confidence":5},{"trial_n":94,"span":7,"encoder":"5339954","distractor":"2339954","target":"absent","response":"absent","rt":"3150.9999999998","correct":true,"confidence":5},{"trial_n":95,"span":8,"encoder":"76856204","distractor":"76856207","target":"present","response":"present","rt":"4849.0000000002","correct":true,"confidence":4},{"trial_n":96,"span":8,"encoder":"68351796","distractor":"68351766","target":"present","response":"present","rt":"1751","correct":true,"confidence":5},{"trial_n":97,"span":9,"encoder":"711204625","distractor":"711304625","target":"absent","response":"absent","rt":"7368","correct":true,"confidence":2},{"trial_n":98,"span":9,"encoder":"529242493","distractor":"539242493","target":"present","response":"present","rt":"6473","correct":true,"confidence":1},{"trial_n":99,"span":10,"encoder":"8454139956","distractor":"8454137956","target":"absent","response":"absent","rt":"6871.9999999998","correct":true,"confidence":3},{"trial_n":100,"span":10,"encoder":"6955936199","distractor":"6955436199","target":"present","response":"absent","rt":"12989","correct":false,"confidence":2},{"trial_n":101,"span":9,"encoder":"420257583","distractor":"440257583","target":"absent","response":"absent","rt":"3199","correct":true,"confidence":3},{"trial_n":102,"span":9,"encoder":"784124329","distractor":"794124329","target":"absent","response":"present","rt":"3394","correct":false,"confidence":1},{"trial_n":103,"span":8,"encoder":"63884704","distractor":"13884704","target":"present","response":"present","rt":"4686.9999999998","correct":true,"confidence":2},{"trial_n":104,"span":8,"encoder":"51870391","distractor":"51470391","target":"present","response":"absent","rt":"4945.9999999998","correct":false,"confidence":3},{"trial_n":105,"span":7,"encoder":"7494444","distractor":"7194444","target":"present","response":"present","rt":"5404","correct":true,"confidence":2},{"trial_n":106,"span":7,"encoder":"7359176","distractor":"7559176","target":"present","response":"absent","rt":"4047","correct":false,"confidence":2},{"trial_n":107,"span":6,"encoder":"178104","distractor":"178164","target":"absent","response":"absent","rt":"4157","correct":true,"confidence":3},{"trial_n":108,"span":6,"encoder":"433839","distractor":"833839","target":"absent","response":"absent","rt":"4049","correct":true,"confidence":5},{"trial_n":109,"span":7,"encoder":"9102025","distractor":"9102035","target":"present","response":"absent","rt":"4462","correct":false,"confidence":4},{"trial_n":110,"span":6,"encoder":"642962","distractor":"682962","target":"absent","response":"absent","rt":"3853","correct":true,"confidence":1},{"trial_n":111,"span":6,"encoder":"009313","distractor":"003313","target":"present","response":"present","rt":"4127","correct":true,"confidence":4},{"trial_n":112,"span":7,"encoder":"5325497","distractor":"5324497","target":"present","response":"present","rt":"2561","correct":true,"confidence":3},{"trial_n":113,"span":7,"encoder":"3770545","distractor":"3070545","target":"present","response":"present","rt":"1713","correct":true,"confidence":5},{"trial_n":114,"span":8,"encoder":"43743417","distractor":"43643417","target":"present","response":"absent","rt":"6835.0000000002","correct":false,"confidence":2},{"trial_n":115,"span":7,"encoder":"9655456","distractor":"9655457","target":"present","response":"absent","rt":"2947","correct":false,"confidence":5},{"trial_n":116,"span":6,"encoder":"586187","distractor":"386187","target":"present","response":"present","rt":"3490","correct":true,"confidence":5},{"trial_n":117,"span":6,"encoder":"172555","distractor":"172565","target":"present","response":"present","rt":"3390.0000000002","correct":true,"confidence":5},{"trial_n":118,"span":7,"encoder":"4653911","distractor":"4651911","target":"present","response":"present","rt":"4896","correct":true,"confidence":3},{"trial_n":119,"span":7,"encoder":"0418832","distractor":"8418832","target":"present","response":"absent","rt":"6586","correct":false,"confidence":1},{"trial_n":120,"span":6,"encoder":"157201","distractor":"155201","target":"absent","response":"absent","rt":"2257","correct":true,"confidence":4},{"trial_n":121,"span":6,"encoder":"899531","distractor":"899231","target":"absent","response":"absent","rt":"6500","correct":true,"confidence":3},{"trial_n":122,"span":7,"encoder":"0322372","distractor":"0222372","target":"absent","response":"absent","rt":"3971.9999999998","correct":true,"confidence":3},{"trial_n":123,"span":7,"encoder":"0407906","distractor":"0402906","target":"absent","response":"absent","rt":"4218","correct":true,"confidence":3},{"trial_n":124,"span":8,"encoder":"91135987","distractor":"91035987","target":"absent","response":"absent","rt":"4606.0000000002","correct":true,"confidence":4},{"trial_n":125,"span":8,"encoder":"36997373","distractor":"36997383","target":"present","response":"present","rt":"4224","correct":true,"confidence":3},{"trial_n":126,"span":9,"encoder":"249855191","distractor":"249855891","target":"absent","response":"absent","rt":"5960","correct":true,"confidence":3},{"trial_n":127,"span":9,"encoder":"834731745","distractor":"834731743","target":"present","response":"present","rt":"3388","correct":true,"confidence":4},{"trial_n":128,"span":10,"encoder":"2704543922","distractor":"2706543922","target":"absent","response":"absent","rt":"4868","correct":true,"confidence":1},{"trial_n":129,"span":10,"encoder":"4094339381","distractor":"4024339381","target":"present","response":"absent","rt":"12199","correct":false,"confidence":1},{"trial_n":130,"span":9,"encoder":"463439309","distractor":"463439609","target":"absent","response":"absent","rt":"9228.9999999998","correct":true,"confidence":2},{"trial_n":131,"span":9,"encoder":"856628994","distractor":"855628994","target":"present","response":"present","rt":"3440","correct":true,"confidence":1},{"trial_n":132,"span":10,"encoder":"6102676835","distractor":"6102576835","target":"present","response":"absent","rt":"10491","correct":false,"confidence":2},{"trial_n":133,"span":9,"encoder":"403460779","distractor":"403410779","target":"present","response":"absent","rt":"7428","correct":false,"confidence":2},{"trial_n":134,"span":8,"encoder":"88106862","distractor":"88106362","target":"present","response":"absent","rt":"5396.9999999995","correct":false,"confidence":2},{"trial_n":135,"span":7,"encoder":"0319548","distractor":"6319548","target":"absent","response":"absent","rt":"10347","correct":true,"confidence":1},{"trial_n":136,"span":7,"encoder":"2443503","distractor":"2943503","target":"absent","response":"absent","rt":"2490","correct":true,"confidence":5},{"trial_n":137,"span":8,"encoder":"45822136","distractor":"95822136","target":"absent","response":"absent","rt":"4108","correct":true,"confidence":4},{"trial_n":138,"span":8,"encoder":"00466967","distractor":"50466967","target":"present","response":"present","rt":"2672","correct":true,"confidence":3},{"trial_n":139,"span":9,"encoder":"287678770","distractor":"287678710","target":"present","response":"present","rt":"8761.0000000005","correct":true,"confidence":3},{"trial_n":140,"span":9,"encoder":"563046470","distractor":"513046470","target":"present","response":"present","rt":"7956","correct":true,"confidence":1}]