[{"trial_n":1,"n_dots":4.25,"target":"left","response":"left","rt":18885,"correct":true,"confidence":-1},{"trial_n":2,"n_dots":4.25,"target":"left","response":"left","rt":1505,"correct":true,"confidence":-1},{"trial_n":3,"n_dots":3.85,"target":"right","response":"right","rt":4878,"correct":true,"confidence":-1},{"trial_n":4,"n_dots":3.85,"target":"left","response":"left","rt":720.99999999999,"correct":true,"confidence":-1},{"trial_n":5,"n_dots":3.45,"target":"right","response":"left","rt":4884,"correct":false,"confidence":-1},{"trial_n":6,"n_dots":3.85,"target":"left","response":"right","rt":924,"correct":false,"confidence":-1},{"trial_n":7,"n_dots":4.25,"target":"left","response":"right","rt":2124,"correct":false,"confidence":-1},{"trial_n":8,"n_dots":4.45,"target":"right","response":"right","rt":1803,"correct":true,"confidence":-1},{"trial_n":9,"n_dots":4.45,"target":"right","response":"right","rt":655,"correct":true,"confidence":-1},{"trial_n":10,"n_dots":4.25,"target":"right","response":"right","rt":708.00000000001,"correct":true,"confidence":-1},{"trial_n":11,"n_dots":4.25,"target":"right","response":"right","rt":1835,"correct":true,"confidence":-1},{"trial_n":12,"n_dots":4.05,"target":"right","response":"right","rt":723,"correct":true,"confidence":-1},{"trial_n":13,"n_dots":4.05,"target":"left","response":"left","rt":430,"correct":true,"confidence":-1},{"trial_n":14,"n_dots":3.95,"target":"left","response":"left","rt":380,"correct":true,"confidence":-1},{"trial_n":15,"n_dots":3.95,"target":"left","response":"left","rt":501,"correct":true,"confidence":-1},{"trial_n":16,"n_dots":3.85,"target":"right","response":"right","rt":525,"correct":true,"confidence":-1},{"trial_n":17,"n_dots":3.85,"target":"left","response":"left","rt":469.00000000001,"correct":true,"confidence":-1},{"trial_n":18,"n_dots":3.75,"target":"left","response":"left","rt":558,"correct":true,"confidence":-1},{"trial_n":19,"n_dots":3.75,"target":"left","response":"left","rt":520,"correct":true,"confidence":-1},{"trial_n":20,"n_dots":3.65,"target":"right","response":"right","rt":379,"correct":true,"confidence":-1},{"trial_n":21,"n_dots":3.65,"target":"left","response":"left","rt":450,"correct":true,"confidence":4},{"trial_n":22,"n_dots":3.55,"target":"right","response":"left","rt":1915,"correct":false,"confidence":3},{"trial_n":23,"n_dots":3.65,"target":"left","response":"left","rt":728,"correct":true,"confidence":4},{"trial_n":24,"n_dots":3.65,"target":"right","response":"right","rt":769,"correct":true,"confidence":5},{"trial_n":25,"n_dots":3.55,"target":"right","response":"right","rt":825,"correct":true,"confidence":4},{"trial_n":26,"n_dots":3.55,"target":"left","response":"left","rt":605,"correct":true,"confidence":4},{"trial_n":27,"n_dots":3.45,"target":"left","response":"left","rt":557.00000000003,"correct":true,"confidence":3},{"trial_n":28,"n_dots":3.45,"target":"right","response":"right","rt":883.00000000003,"correct":true,"confidence":2},{"trial_n":29,"n_dots":3.35,"target":"right","response":"right","rt":1154,"correct":true,"confidence":3},{"trial_n":30,"n_dots":3.35,"target":"right","response":"right","rt":785,"correct":true,"confidence":3},{"trial_n":31,"n_dots":3.25,"target":"right","response":"right","rt":714,"correct":true,"confidence":3},{"trial_n":32,"n_dots":3.25,"target":"right","response":"right","rt":1807,"correct":true,"confidence":2},{"trial_n":33,"n_dots":3.15,"target":"left","response":"left","rt":2440,"correct":true,"confidence":2},{"trial_n":34,"n_dots":3.15,"target":"left","response":"right","rt":1283,"correct":false,"confidence":3},{"trial_n":35,"n_dots":3.25,"target":"right","response":"right","rt":508,"correct":true,"confidence":3},{"trial_n":36,"n_dots":3.25,"target":"right","response":"right","rt":3816,"correct":true,"confidence":2},{"trial_n":37,"n_dots":3.15,"target":"left","response":"left","rt":1184,"correct":true,"confidence":2},{"trial_n":38,"n_dots":3.15,"target":"left","response":"left","rt":354,"correct":true,"confidence":4},{"trial_n":39,"n_dots":3.05,"target":"left","response":"left","rt":672,"correct":true,"confidence":4},{"trial_n":40,"n_dots":3.05,"target":"left","response":"left","rt":493,"correct":true,"confidence":5},{"trial_n":41,"n_dots":2.95,"target":"left","response":"left","rt":440,"correct":true,"confidence":3},{"trial_n":42,"n_dots":2.95,"target":"right","response":"left","rt":1072,"correct":false,"confidence":3},{"trial_n":43,"n_dots":3.05,"target":"right","response":"right","rt":809.00000000006,"correct":true,"confidence":3},{"trial_n":44,"n_dots":3.05,"target":"right","response":"right","rt":1544,"correct":true,"confidence":2},{"trial_n":45,"n_dots":2.95,"target":"left","response":"left","rt":360.99999999994,"correct":true,"confidence":5},{"trial_n":46,"n_dots":2.95,"target":"left","response":"left","rt":428,"correct":true,"confidence":5},{"trial_n":47,"n_dots":2.85,"target":"right","response":"right","rt":434,"correct":true,"confidence":4},{"trial_n":48,"n_dots":2.85,"target":"right","response":"left","rt":386,"correct":false,"confidence":5},{"trial_n":49,"n_dots":2.95,"target":"right","response":"left","rt":1464,"correct":false,"confidence":2},{"trial_n":50,"n_dots":3.05,"target":"right","response":"right","rt":670.00000000006,"correct":true,"confidence":2},{"trial_n":51,"n_dots":3.05,"target":"left","response":"right","rt":1054.9999999999,"correct":false,"confidence":2},{"trial_n":52,"n_dots":3.15,"target":"left","response":"left","rt":996,"correct":true,"confidence":3},{"trial_n":53,"n_dots":3.15,"target":"left","response":"left","rt":2394,"correct":true,"confidence":1},{"trial_n":54,"n_dots":3.05,"target":"right","response":"right","rt":1079,"correct":true,"confidence":3},{"trial_n":55,"n_dots":3.05,"target":"left","response":"left","rt":696,"correct":true,"confidence":4},{"trial_n":56,"n_dots":2.95,"target":"left","response":"left","rt":590,"correct":true,"confidence":3},{"trial_n":57,"n_dots":2.95,"target":"right","response":"left","rt":1422,"correct":false,"confidence":3},{"trial_n":58,"n_dots":3.05,"target":"left","response":"left","rt":1097,"correct":true,"confidence":3},{"trial_n":59,"n_dots":3.05,"target":"left","response":"left","rt":633,"correct":true,"confidence":4},{"trial_n":60,"n_dots":2.95,"target":"left","response":"left","rt":637,"correct":true,"confidence":3},{"trial_n":61,"n_dots":2.95,"target":"right","response":"right","rt":977,"correct":true,"confidence":2},{"trial_n":62,"n_dots":2.85,"target":"right","response":"right","rt":485,"correct":true,"confidence":3},{"trial_n":63,"n_dots":2.85,"target":"left","response":"left","rt":997,"correct":true,"confidence":3},{"trial_n":64,"n_dots":2.75,"target":"right","response":"right","rt":648,"correct":true,"confidence":3},{"trial_n":65,"n_dots":2.75,"target":"left","response":"left","rt":744,"correct":true,"confidence":3},{"trial_n":66,"n_dots":2.65,"target":"left","response":"left","rt":672,"correct":true,"confidence":4},{"trial_n":67,"n_dots":2.65,"target":"left","response":"right","rt":441,"correct":false,"confidence":2},{"trial_n":68,"n_dots":2.75,"target":"left","response":"left","rt":924,"correct":true,"confidence":2},{"trial_n":69,"n_dots":2.75,"target":"right","response":"right","rt":464.99999999994,"correct":true,"confidence":4},{"trial_n":70,"n_dots":2.65,"target":"right","response":"left","rt":540,"correct":false,"confidence":4},{"trial_n":71,"n_dots":2.75,"target":"left","response":"left","rt":621,"correct":true,"confidence":3},{"trial_n":72,"n_dots":2.75,"target":"right","response":"right","rt":817,"correct":true,"confidence":3},{"trial_n":73,"n_dots":2.65,"target":"right","response":"left","rt":410,"correct":false,"confidence":4},{"trial_n":74,"n_dots":2.75,"target":"right","response":"left","rt":1348,"correct":false,"confidence":2},{"trial_n":75,"n_dots":2.85,"target":"right","response":"left","rt":1568.9999999999,"correct":false,"confidence":3},{"trial_n":76,"n_dots":2.95,"target":"right","response":"left","rt":539.99999999994,"correct":false,"confidence":4},{"trial_n":77,"n_dots":3.05,"target":"right","response":"left","rt":690,"correct":false,"confidence":2},{"trial_n":78,"n_dots":3.15,"target":"left","response":"left","rt":728,"correct":true,"confidence":2},{"trial_n":79,"n_dots":3.15,"target":"right","response":"left","rt":375,"correct":false,"confidence":3},{"trial_n":80,"n_dots":3.25,"target":"left","response":"left","rt":270.00000000006,"correct":true,"confidence":5},{"trial_n":81,"n_dots":3.25,"target":"left","response":"left","rt":703.99999999994,"correct":true,"confidence":2},{"trial_n":82,"n_dots":3.15,"target":"left","response":"left","rt":311,"correct":true,"confidence":5},{"trial_n":83,"n_dots":3.15,"target":"right","response":"left","rt":2254.0000000001,"correct":false,"confidence":3},{"trial_n":84,"n_dots":3.25,"target":"right","response":"left","rt":565,"correct":false,"confidence":3},{"trial_n":85,"n_dots":3.35,"target":"right","response":"left","rt":555,"correct":false,"confidence":3},{"trial_n":86,"n_dots":3.45,"target":"left","response":"left","rt":506,"correct":true,"confidence":4},{"trial_n":87,"n_dots":3.45,"target":"right","response":"right","rt":245,"correct":true,"confidence":5},{"trial_n":88,"n_dots":3.35,"target":"right","response":"left","rt":1365,"correct":false,"confidence":2},{"trial_n":89,"n_dots":3.45,"target":"left","response":"left","rt":391.99999999994,"correct":true,"confidence":4},{"trial_n":90,"n_dots":3.45,"target":"left","response":"left","rt":572.99999999994,"correct":true,"confidence":4},{"trial_n":91,"n_dots":3.35,"target":"right","response":"left","rt":1722,"correct":false,"confidence":2},{"trial_n":92,"n_dots":3.45,"target":"right","response":"right","rt":400,"correct":true,"confidence":4},{"trial_n":93,"n_dots":3.45,"target":"right","response":"right","rt":401,"correct":true,"confidence":4},{"trial_n":94,"n_dots":3.35,"target":"left","response":"left","rt":827.00000000012,"correct":true,"confidence":2},{"trial_n":95,"n_dots":3.35,"target":"right","response":"left","rt":833,"correct":false,"confidence":2},{"trial_n":96,"n_dots":3.45,"target":"left","response":"left","rt":400,"correct":true,"confidence":4},{"trial_n":97,"n_dots":3.45,"target":"left","response":"left","rt":138.00000000012,"correct":true,"confidence":5},{"trial_n":98,"n_dots":3.35,"target":"left","response":"left","rt":376,"correct":true,"confidence":5},{"trial_n":99,"n_dots":3.35,"target":"left","response":"left","rt":187,"correct":true,"confidence":5},{"trial_n":100,"n_dots":3.25,"target":"left","response":"left","rt":417,"correct":true,"confidence":5},{"trial_n":101,"n_dots":3.25,"target":"right","response":"left","rt":587,"correct":false,"confidence":2},{"trial_n":102,"n_dots":3.35,"target":"right","response":"left","rt":604,"correct":false,"confidence":2},{"trial_n":103,"n_dots":3.45,"target":"right","response":"right","rt":335,"correct":true,"confidence":3},{"trial_n":104,"n_dots":3.45,"target":"right","response":"right","rt":287.00000000012,"correct":true,"confidence":4},{"trial_n":105,"n_dots":3.35,"target":"right","response":"left","rt":474,"correct":false,"confidence":4},{"trial_n":106,"n_dots":3.45,"target":"left","response":"left","rt":326,"correct":true,"confidence":4},{"trial_n":107,"n_dots":3.45,"target":"left","response":"left","rt":207,"correct":true,"confidence":5},{"trial_n":108,"n_dots":3.35,"target":"right","response":"right","rt":453.00000000012,"correct":true,"confidence":4},{"trial_n":109,"n_dots":3.35,"target":"left","response":"left","rt":80,"correct":true,"confidence":5},{"trial_n":110,"n_dots":3.25,"target":"left","response":"right","rt":1503,"correct":false,"confidence":2},{"trial_n":111,"n_dots":3.35,"target":"right","response":"left","rt":817,"correct":false,"confidence":3},{"trial_n":112,"n_dots":3.45,"target":"right","response":"left","rt":1607,"correct":false,"confidence":2},{"trial_n":113,"n_dots":3.55,"target":"left","response":"left","rt":408,"correct":true,"confidence":5},{"trial_n":114,"n_dots":3.55,"target":"left","response":"left","rt":8.0000000001164,"correct":true,"confidence":5},{"trial_n":115,"n_dots":3.45,"target":"left","response":"left","rt":368,"correct":true,"confidence":5},{"trial_n":116,"n_dots":3.45,"target":"left","response":"left","rt":211,"correct":true,"confidence":5},{"trial_n":117,"n_dots":3.35,"target":"right","response":"right","rt":2408,"correct":true,"confidence":2},{"trial_n":118,"n_dots":3.35,"target":"right","response":"left","rt":2270,"correct":false,"confidence":3},{"trial_n":119,"n_dots":3.45,"target":"left","response":"left","rt":620,"correct":true,"confidence":3},{"trial_n":120,"n_dots":3.45,"target":"right","response":"left","rt":800.00000000012,"correct":false,"confidence":2}]