[{"trial_n":1,"min":25,"max":230,"target":"present","response":"absent","rt":6206,"correct":false,"confidence":-1},{"trial_n":2,"min":25,"max":230,"target":"present","response":"present","rt":1854,"correct":true,"confidence":-1},{"trial_n":3,"min":25,"max":230,"target":"absent","response":"absent","rt":816,"correct":true,"confidence":-1},{"trial_n":4,"min":41,"max":214,"target":"absent","response":"absent","rt":490.99999999999,"correct":true,"confidence":-1},{"trial_n":5,"min":41,"max":214,"target":"present","response":"present","rt":320,"correct":true,"confidence":-1},{"trial_n":6,"min":57,"max":198,"target":"absent","response":"absent","rt":394.99999999999,"correct":true,"confidence":-1},{"trial_n":7,"min":57,"max":198,"target":"present","response":"present","rt":122,"correct":true,"confidence":-1},{"trial_n":8,"min":73,"max":182,"target":"present","response":"absent","rt":348,"correct":false,"confidence":-1},{"trial_n":9,"min":57,"max":198,"target":"absent","response":"absent","rt":624,"correct":true,"confidence":-1},{"trial_n":10,"min":57,"max":198,"target":"present","response":"present","rt":387,"correct":true,"confidence":-1},{"trial_n":11,"min":65,"max":190,"target":"absent","response":"absent","rt":430,"correct":true,"confidence":-1},{"trial_n":12,"min":65,"max":190,"target":"absent","response":"absent","rt":665,"correct":true,"confidence":-1},{"trial_n":13,"min":73,"max":182,"target":"absent","response":"absent","rt":587,"correct":true,"confidence":-1},{"trial_n":14,"min":73,"max":182,"target":"present","response":"present","rt":272.99999999999,"correct":true,"confidence":-1},{"trial_n":15,"min":81,"max":174,"target":"present","response":"absent","rt":400,"correct":false,"confidence":-1},{"trial_n":16,"min":73,"max":182,"target":"present","response":"present","rt":574.00000000001,"correct":true,"confidence":-1},{"trial_n":17,"min":73,"max":182,"target":"present","response":"present","rt":399.00000000001,"correct":true,"confidence":-1},{"trial_n":18,"min":81,"max":174,"target":"absent","response":"absent","rt":870,"correct":true,"confidence":-1},{"trial_n":19,"min":81,"max":174,"target":"present","response":"present","rt":358.00000000001,"correct":true,"confidence":-1},{"trial_n":20,"min":89,"max":166,"target":"present","response":"absent","rt":1019,"correct":false,"confidence":-1},{"trial_n":21,"min":85,"max":170,"target":"present","response":"present","rt":593.99999999999,"correct":true,"confidence":4},{"trial_n":22,"min":85,"max":170,"target":"present","response":"present","rt":633.00000000001,"correct":true,"confidence":5},{"trial_n":23,"min":89,"max":166,"target":"absent","response":"present","rt":2013,"correct":false,"confidence":3},{"trial_n":24,"min":85,"max":170,"target":"present","response":"present","rt":491,"correct":true,"confidence":5},{"trial_n":25,"min":85,"max":170,"target":"present","response":"present","rt":964.00000000001,"correct":true,"confidence":4},{"trial_n":26,"min":89,"max":166,"target":"present","response":"present","rt":2072,"correct":true,"confidence":5},{"trial_n":27,"min":89,"max":166,"target":"present","response":"present","rt":2096,"correct":true,"confidence":3},{"trial_n":28,"min":93,"max":162,"target":"absent","response":"absent","rt":826,"correct":true,"confidence":4},{"trial_n":29,"min":93,"max":162,"target":"absent","response":"present","rt":923.99999999999,"correct":false,"confidence":4},{"trial_n":30,"min":89,"max":166,"target":"absent","response":"absent","rt":1090,"correct":true,"confidence":2},{"trial_n":31,"min":89,"max":166,"target":"absent","response":"present","rt":778,"correct":false,"confidence":4},{"trial_n":32,"min":87,"max":168,"target":"absent","response":"absent","rt":1147,"correct":true,"confidence":3},{"trial_n":33,"min":87,"max":168,"target":"absent","response":"absent","rt":890,"correct":true,"confidence":3},{"trial_n":34,"min":89,"max":166,"target":"present","response":"present","rt":994,"correct":true,"confidence":4},{"trial_n":35,"min":89,"max":166,"target":"present","response":"absent","rt":1007,"correct":false,"confidence":2},{"trial_n":36,"min":87,"max":168,"target":"absent","response":"absent","rt":833.99999999997,"correct":true,"confidence":5},{"trial_n":37,"min":87,"max":168,"target":"absent","response":"absent","rt":683,"correct":true,"confidence":4},{"trial_n":38,"min":89,"max":166,"target":"present","response":"present","rt":873,"correct":true,"confidence":2},{"trial_n":39,"min":89,"max":166,"target":"absent","response":"present","rt":1088,"correct":false,"confidence":4},{"trial_n":40,"min":87,"max":168,"target":"present","response":"present","rt":1678,"correct":true,"confidence":3},{"trial_n":41,"min":87,"max":168,"target":"absent","response":"absent","rt":1287,"correct":true,"confidence":3},{"trial_n":42,"min":88,"max":167,"target":"absent","response":"absent","rt":1575,"correct":true,"confidence":1},{"trial_n":43,"min":88,"max":167,"target":"absent","response":"absent","rt":728,"correct":true,"confidence":5},{"trial_n":44,"min":89,"max":166,"target":"present","response":"absent","rt":1441,"correct":false,"confidence":1},{"trial_n":45,"min":88,"max":167,"target":"absent","response":"absent","rt":2859,"correct":true,"confidence":1},{"trial_n":46,"min":88,"max":167,"target":"present","response":"absent","rt":930,"correct":false,"confidence":5},{"trial_n":47,"min":87,"max":168,"target":"present","response":"absent","rt":912,"correct":false,"confidence":2},{"trial_n":48,"min":86,"max":169,"target":"absent","response":"present","rt":1098,"correct":false,"confidence":5},{"trial_n":49,"min":85,"max":170,"target":"present","response":"present","rt":1272,"correct":true,"confidence":3},{"trial_n":50,"min":85,"max":170,"target":"absent","response":"absent","rt":768,"correct":true,"confidence":5},{"trial_n":51,"min":86,"max":169,"target":"present","response":"absent","rt":1014,"correct":false,"confidence":3},{"trial_n":52,"min":85,"max":170,"target":"absent","response":"absent","rt":814,"correct":true,"confidence":5},{"trial_n":53,"min":85,"max":170,"target":"present","response":"present","rt":1541,"correct":true,"confidence":4},{"trial_n":54,"min":86,"max":169,"target":"present","response":"present","rt":711,"correct":true,"confidence":3},{"trial_n":55,"min":86,"max":169,"target":"present","response":"present","rt":769,"correct":true,"confidence":4},{"trial_n":56,"min":87,"max":168,"target":"absent","response":"present","rt":676,"correct":false,"confidence":5},{"trial_n":57,"min":86,"max":169,"target":"present","response":"present","rt":713,"correct":true,"confidence":5},{"trial_n":58,"min":86,"max":169,"target":"present","response":"absent","rt":1504,"correct":false,"confidence":2},{"trial_n":59,"min":85,"max":170,"target":"absent","response":"present","rt":609.99999999997,"correct":false,"confidence":5},{"trial_n":60,"min":84,"max":171,"target":"absent","response":"present","rt":1225,"correct":false,"confidence":2},{"trial_n":61,"min":83,"max":172,"target":"present","response":"present","rt":785,"correct":true,"confidence":3},{"trial_n":62,"min":83,"max":172,"target":"absent","response":"absent","rt":806,"correct":true,"confidence":1},{"trial_n":63,"min":84,"max":171,"target":"absent","response":"absent","rt":1091,"correct":true,"confidence":2},{"trial_n":64,"min":84,"max":171,"target":"present","response":"present","rt":987,"correct":true,"confidence":4},{"trial_n":65,"min":85,"max":170,"target":"absent","response":"absent","rt":846,"correct":true,"confidence":2},{"trial_n":66,"min":85,"max":170,"target":"present","response":"present","rt":1011,"correct":true,"confidence":5},{"trial_n":67,"min":86,"max":169,"target":"absent","response":"absent","rt":746.00000000003,"correct":true,"confidence":2},{"trial_n":68,"min":86,"max":169,"target":"absent","response":"present","rt":1414.9999999999,"correct":false,"confidence":4},{"trial_n":69,"min":85,"max":170,"target":"present","response":"present","rt":1004,"correct":true,"confidence":5},{"trial_n":70,"min":85,"max":170,"target":"absent","response":"absent","rt":773.00000000006,"correct":true,"confidence":5},{"trial_n":71,"min":41,"max":214,"target":"present","response":"absent","rt":3416,"correct":false,"confidence":-1},{"trial_n":72,"min":41,"max":214,"target":"present","response":"present","rt":690,"correct":true,"confidence":-1},{"trial_n":73,"min":41,"max":214,"target":"absent","response":"absent","rt":930,"correct":true,"confidence":-1},{"trial_n":74,"min":57,"max":198,"target":"absent","response":"absent","rt":590,"correct":true,"confidence":-1},{"trial_n":75,"min":57,"max":198,"target":"present","response":"present","rt":452,"correct":true,"confidence":-1},{"trial_n":76,"min":73,"max":182,"target":"present","response":"present","rt":671.00000000006,"correct":true,"confidence":-1},{"trial_n":77,"min":73,"max":182,"target":"present","response":"absent","rt":929,"correct":false,"confidence":-1},{"trial_n":78,"min":57,"max":198,"target":"absent","response":"absent","rt":1974,"correct":true,"confidence":-1},{"trial_n":79,"min":57,"max":198,"target":"present","response":"present","rt":294.99999999994,"correct":true,"confidence":-1},{"trial_n":80,"min":73,"max":182,"target":"present","response":"present","rt":401.99999999994,"correct":true,"confidence":-1},{"trial_n":81,"min":73,"max":182,"target":"absent","response":"absent","rt":909,"correct":true,"confidence":-1},{"trial_n":82,"min":81,"max":174,"target":"absent","response":"present","rt":482,"correct":false,"confidence":-1},{"trial_n":83,"min":73,"max":182,"target":"present","response":"present","rt":317,"correct":true,"confidence":-1},{"trial_n":84,"min":73,"max":182,"target":"absent","response":"absent","rt":667,"correct":true,"confidence":-1},{"trial_n":85,"min":81,"max":174,"target":"present","response":"present","rt":315,"correct":true,"confidence":-1},{"trial_n":86,"min":81,"max":174,"target":"present","response":"present","rt":485,"correct":true,"confidence":-1},{"trial_n":87,"min":89,"max":166,"target":"absent","response":"present","rt":1746,"correct":false,"confidence":-1},{"trial_n":88,"min":81,"max":174,"target":"absent","response":"present","rt":353,"correct":false,"confidence":-1},{"trial_n":89,"min":73,"max":182,"target":"absent","response":"absent","rt":1132,"correct":true,"confidence":-1},{"trial_n":90,"min":73,"max":182,"target":"absent","response":"absent","rt":509.99999999994,"correct":true,"confidence":-1},{"trial_n":91,"min":77,"max":178,"target":"present","response":"present","rt":232,"correct":true,"confidence":5},{"trial_n":92,"min":77,"max":178,"target":"present","response":"present","rt":274,"correct":true,"confidence":5},{"trial_n":93,"min":81,"max":174,"target":"absent","response":"absent","rt":1128,"correct":true,"confidence":3},{"trial_n":94,"min":81,"max":174,"target":"present","response":"present","rt":375,"correct":true,"confidence":4},{"trial_n":95,"min":85,"max":170,"target":"present","response":"present","rt":215,"correct":true,"confidence":5},{"trial_n":96,"min":85,"max":170,"target":"present","response":"present","rt":995.00000000006,"correct":true,"confidence":4},{"trial_n":97,"min":89,"max":166,"target":"absent","response":"absent","rt":1775,"correct":true,"confidence":1},{"trial_n":98,"min":89,"max":166,"target":"absent","response":"present","rt":1080,"correct":false,"confidence":2},{"trial_n":99,"min":85,"max":170,"target":"present","response":"present","rt":294,"correct":true,"confidence":4},{"trial_n":100,"min":85,"max":170,"target":"absent","response":"absent","rt":1002.9999999999,"correct":true,"confidence":3},{"trial_n":101,"min":87,"max":168,"target":"absent","response":"present","rt":718.00000000006,"correct":false,"confidence":4},{"trial_n":102,"min":85,"max":170,"target":"absent","response":"present","rt":1581,"correct":false,"confidence":1},{"trial_n":103,"min":83,"max":172,"target":"present","response":"present","rt":594,"correct":true,"confidence":5},{"trial_n":104,"min":83,"max":172,"target":"present","response":"present","rt":1364,"correct":true,"confidence":3},{"trial_n":105,"min":85,"max":170,"target":"absent","response":"absent","rt":200929,"correct":true,"confidence":1},{"trial_n":106,"min":85,"max":170,"target":"absent","response":"absent","rt":847.99999999988,"correct":true,"confidence":2},{"trial_n":107,"min":87,"max":168,"target":"present","response":"present","rt":1071,"correct":true,"confidence":4},{"trial_n":108,"min":87,"max":168,"target":"present","response":"present","rt":1140,"correct":true,"confidence":1},{"trial_n":109,"min":89,"max":166,"target":"absent","response":"absent","rt":657,"correct":true,"confidence":4},{"trial_n":110,"min":89,"max":166,"target":"present","response":"present","rt":867,"correct":true,"confidence":3},{"trial_n":111,"min":90,"max":165,"target":"absent","response":"present","rt":875,"correct":false,"confidence":3},{"trial_n":112,"min":89,"max":166,"target":"present","response":"absent","rt":871,"correct":false,"confidence":2},{"trial_n":113,"min":88,"max":167,"target":"absent","response":"absent","rt":815.99999999988,"correct":true,"confidence":4},{"trial_n":114,"min":88,"max":167,"target":"absent","response":"absent","rt":741,"correct":true,"confidence":4},{"trial_n":115,"min":89,"max":166,"target":"absent","response":"absent","rt":619,"correct":true,"confidence":4},{"trial_n":116,"min":89,"max":166,"target":"absent","response":"absent","rt":1138,"correct":true,"confidence":3},{"trial_n":117,"min":90,"max":165,"target":"absent","response":"absent","rt":694,"correct":true,"confidence":5},{"trial_n":118,"min":90,"max":165,"target":"present","response":"present","rt":1861,"correct":true,"confidence":2},{"trial_n":119,"min":91,"max":164,"target":"present","response":"absent","rt":918,"correct":false,"confidence":2},{"trial_n":120,"min":90,"max":165,"target":"present","response":"absent","rt":1208,"correct":false,"confidence":1},{"trial_n":121,"min":89,"max":166,"target":"present","response":"present","rt":633,"correct":true,"confidence":5},{"trial_n":122,"min":89,"max":166,"target":"present","response":"present","rt":876,"correct":true,"confidence":3},{"trial_n":123,"min":90,"max":165,"target":"present","response":"present","rt":784,"correct":true,"confidence":4},{"trial_n":124,"min":90,"max":165,"target":"present","response":"absent","rt":845,"correct":false,"confidence":1},{"trial_n":125,"min":89,"max":166,"target":"present","response":"absent","rt":1355,"correct":false,"confidence":4},{"trial_n":126,"min":88,"max":167,"target":"absent","response":"absent","rt":724,"correct":true,"confidence":1},{"trial_n":127,"min":88,"max":167,"target":"absent","response":"present","rt":942.99999999988,"correct":false,"confidence":1},{"trial_n":128,"min":87,"max":168,"target":"present","response":"present","rt":833,"correct":true,"confidence":3},{"trial_n":129,"min":87,"max":168,"target":"present","response":"absent","rt":1141,"correct":false,"confidence":1},{"trial_n":130,"min":86,"max":169,"target":"present","response":"present","rt":852.99999999988,"correct":true,"confidence":1},{"trial_n":131,"min":86,"max":169,"target":"absent","response":"absent","rt":707,"correct":true,"confidence":3},{"trial_n":132,"min":87,"max":168,"target":"absent","response":"absent","rt":951,"correct":true,"confidence":3},{"trial_n":133,"min":87,"max":168,"target":"absent","response":"absent","rt":1214,"correct":true,"confidence":1},{"trial_n":134,"min":88,"max":167,"target":"present","response":"present","rt":965,"correct":true,"confidence":1},{"trial_n":135,"min":88,"max":167,"target":"absent","response":"present","rt":652.99999999988,"correct":false,"confidence":4},{"trial_n":136,"min":87,"max":168,"target":"absent","response":"absent","rt":843,"correct":true,"confidence":2},{"trial_n":137,"min":87,"max":168,"target":"present","response":"present","rt":386.99999999988,"correct":true,"confidence":5},{"trial_n":138,"min":88,"max":167,"target":"absent","response":"absent","rt":813,"correct":true,"confidence":3},{"trial_n":139,"min":88,"max":167,"target":"absent","response":"present","rt":813,"correct":false,"confidence":1},{"trial_n":140,"min":87,"max":168,"target":"present","response":"absent","rt":769.00000000012,"correct":false,"confidence":3}]