[{"trial_n":1,"n_dots":4.25,"target":"left","response":"left","rt":8664,"correct":true,"confidence":-1},{"trial_n":2,"n_dots":4.25,"target":"left","response":"left","rt":1941,"correct":true,"confidence":-1},{"trial_n":3,"n_dots":3.85,"target":"right","response":"left","rt":873.99999999999,"correct":false,"confidence":-1},{"trial_n":4,"n_dots":4.25,"target":"left","response":"left","rt":659,"correct":true,"confidence":-1},{"trial_n":5,"n_dots":4.25,"target":"right","response":"right","rt":559.00000000001,"correct":true,"confidence":-1},{"trial_n":6,"n_dots":3.85,"target":"left","response":"left","rt":575,"correct":true,"confidence":-1},{"trial_n":7,"n_dots":3.85,"target":"right","response":"right","rt":658,"correct":true,"confidence":-1},{"trial_n":8,"n_dots":3.65,"target":"left","response":"left","rt":742,"correct":true,"confidence":-1},{"trial_n":9,"n_dots":3.65,"target":"left","response":"left","rt":626,"correct":true,"confidence":-1},{"trial_n":10,"n_dots":3.45,"target":"left","response":"left","rt":341.99999999999,"correct":true,"confidence":-1},{"trial_n":11,"n_dots":3.45,"target":"right","response":"right","rt":691.99999999999,"correct":true,"confidence":-1},{"trial_n":12,"n_dots":3.25,"target":"right","response":"left","rt":94,"correct":false,"confidence":-1},{"trial_n":13,"n_dots":3.35,"target":"left","response":"left","rt":942,"correct":true,"confidence":-1},{"trial_n":14,"n_dots":3.35,"target":"right","response":"left","rt":560,"correct":false,"confidence":-1},{"trial_n":15,"n_dots":3.45,"target":"left","response":"left","rt":892.00000000001,"correct":true,"confidence":-1},{"trial_n":16,"n_dots":3.45,"target":"right","response":"right","rt":926,"correct":true,"confidence":-1},{"trial_n":17,"n_dots":3.35,"target":"right","response":"left","rt":594,"correct":false,"confidence":-1},{"trial_n":18,"n_dots":3.45,"target":"left","response":"left","rt":2010,"correct":true,"confidence":-1},{"trial_n":19,"n_dots":3.45,"target":"right","response":"right","rt":1093,"correct":true,"confidence":-1},{"trial_n":20,"n_dots":3.35,"target":"right","response":"left","rt":3293,"correct":false,"confidence":-1},{"trial_n":21,"n_dots":3.45,"target":"left","response":"left","rt":605,"correct":true,"confidence":4},{"trial_n":22,"n_dots":3.45,"target":"left","response":"left","rt":860.99999999997,"correct":true,"confidence":5},{"trial_n":23,"n_dots":3.35,"target":"left","response":"left","rt":561.99999999997,"correct":true,"confidence":4},{"trial_n":24,"n_dots":3.35,"target":"right","response":"right","rt":1095,"correct":true,"confidence":3},{"trial_n":25,"n_dots":3.25,"target":"right","response":"left","rt":562,"correct":false,"confidence":4},{"trial_n":26,"n_dots":3.35,"target":"right","response":"left","rt":2162,"correct":false,"confidence":1},{"trial_n":27,"n_dots":3.45,"target":"left","response":"left","rt":497,"correct":true,"confidence":5},{"trial_n":28,"n_dots":3.45,"target":"right","response":"left","rt":711,"correct":false,"confidence":5},{"trial_n":29,"n_dots":3.55,"target":"left","response":"left","rt":795,"correct":true,"confidence":4},{"trial_n":30,"n_dots":3.55,"target":"left","response":"left","rt":680,"correct":true,"confidence":3},{"trial_n":31,"n_dots":3.45,"target":"left","response":"right","rt":1096,"correct":false,"confidence":4},{"trial_n":32,"n_dots":3.55,"target":"left","response":"left","rt":547,"correct":true,"confidence":5},{"trial_n":33,"n_dots":3.55,"target":"right","response":"right","rt":2794,"correct":true,"confidence":1},{"trial_n":34,"n_dots":3.45,"target":"left","response":"left","rt":1078,"correct":true,"confidence":4},{"trial_n":35,"n_dots":3.45,"target":"right","response":"right","rt":1097,"correct":true,"confidence":4},{"trial_n":36,"n_dots":3.35,"target":"right","response":"left","rt":846,"correct":false,"confidence":4},{"trial_n":37,"n_dots":3.45,"target":"left","response":"left","rt":797,"correct":true,"confidence":4},{"trial_n":38,"n_dots":3.45,"target":"right","response":"right","rt":2523,"correct":true,"confidence":3},{"trial_n":39,"n_dots":3.35,"target":"right","response":"left","rt":2912,"correct":false,"confidence":3},{"trial_n":40,"n_dots":3.45,"target":"left","response":"right","rt":1598,"correct":false,"confidence":4},{"trial_n":41,"n_dots":3.55,"target":"left","response":"right","rt":1069,"correct":false,"confidence":4},{"trial_n":42,"n_dots":3.65,"target":"right","response":"left","rt":2005,"correct":false,"confidence":4},{"trial_n":43,"n_dots":3.75,"target":"right","response":"left","rt":2970,"correct":false,"confidence":3},{"trial_n":44,"n_dots":3.85,"target":"right","response":"left","rt":2032,"correct":false,"confidence":2},{"trial_n":45,"n_dots":3.95,"target":"left","response":"left","rt":1158,"correct":true,"confidence":2},{"trial_n":46,"n_dots":3.95,"target":"left","response":"right","rt":2691.0000000001,"correct":false,"confidence":3},{"trial_n":47,"n_dots":4.05,"target":"right","response":"left","rt":1274,"correct":false,"confidence":2},{"trial_n":48,"n_dots":4.15,"target":"left","response":"right","rt":3609.0000000001,"correct":false,"confidence":3},{"trial_n":49,"n_dots":4.25,"target":"right","response":"right","rt":3280.0000000001,"correct":true,"confidence":5},{"trial_n":50,"n_dots":4.25,"target":"left","response":"left","rt":1723,"correct":true,"confidence":4},{"trial_n":51,"n_dots":4.15,"target":"left","response":"left","rt":2104,"correct":true,"confidence":4},{"trial_n":52,"n_dots":4.15,"target":"right","response":"right","rt":3507,"correct":true,"confidence":2},{"trial_n":53,"n_dots":4.05,"target":"left","response":"left","rt":1140.9999999999,"correct":true,"confidence":5},{"trial_n":54,"n_dots":4.05,"target":"left","response":"left","rt":2895,"correct":true,"confidence":3},{"trial_n":55,"n_dots":3.95,"target":"right","response":"right","rt":2330,"correct":true,"confidence":4},{"trial_n":56,"n_dots":3.95,"target":"right","response":"right","rt":1443,"correct":true,"confidence":4},{"trial_n":57,"n_dots":3.85,"target":"right","response":"right","rt":2667,"correct":true,"confidence":3},{"trial_n":58,"n_dots":3.85,"target":"right","response":"left","rt":8313,"correct":false,"confidence":1},{"trial_n":59,"n_dots":3.95,"target":"left","response":"left","rt":1006,"correct":true,"confidence":5},{"trial_n":60,"n_dots":3.95,"target":"left","response":"left","rt":940,"correct":true,"confidence":5},{"trial_n":61,"n_dots":3.85,"target":"left","response":"left","rt":921,"correct":true,"confidence":3},{"trial_n":62,"n_dots":3.85,"target":"right","response":"right","rt":1356,"correct":true,"confidence":3},{"trial_n":63,"n_dots":3.75,"target":"right","response":"left","rt":1710.9999999999,"correct":false,"confidence":1},{"trial_n":64,"n_dots":3.85,"target":"left","response":"left","rt":516,"correct":true,"confidence":4},{"trial_n":65,"n_dots":3.85,"target":"right","response":"right","rt":2448,"correct":true,"confidence":4},{"trial_n":66,"n_dots":3.75,"target":"left","response":"left","rt":822,"correct":true,"confidence":2},{"trial_n":67,"n_dots":3.75,"target":"left","response":"left","rt":990,"correct":true,"confidence":5},{"trial_n":68,"n_dots":3.65,"target":"right","response":"right","rt":5424,"correct":true,"confidence":1},{"trial_n":69,"n_dots":3.65,"target":"right","response":"left","rt":1743.0000000001,"correct":false,"confidence":4},{"trial_n":70,"n_dots":3.75,"target":"left","response":"left","rt":2143,"correct":true,"confidence":4},{"trial_n":71,"n_dots":3.75,"target":"left","response":"left","rt":1159,"correct":true,"confidence":5},{"trial_n":72,"n_dots":3.65,"target":"left","response":"left","rt":876,"correct":true,"confidence":4},{"trial_n":73,"n_dots":3.65,"target":"right","response":"right","rt":1788,"correct":true,"confidence":4},{"trial_n":74,"n_dots":3.55,"target":"left","response":"left","rt":1661,"correct":true,"confidence":1},{"trial_n":75,"n_dots":3.55,"target":"right","response":"left","rt":1392,"correct":false,"confidence":2},{"trial_n":76,"n_dots":3.65,"target":"left","response":"left","rt":1353,"correct":true,"confidence":5},{"trial_n":77,"n_dots":3.65,"target":"left","response":"left","rt":1519.0000000001,"correct":true,"confidence":5},{"trial_n":78,"n_dots":3.55,"target":"right","response":"right","rt":1696,"correct":true,"confidence":4},{"trial_n":79,"n_dots":3.55,"target":"right","response":"right","rt":1762,"correct":true,"confidence":4},{"trial_n":80,"n_dots":3.45,"target":"right","response":"right","rt":1252.9999999999,"correct":true,"confidence":4},{"trial_n":81,"n_dots":3.45,"target":"right","response":"right","rt":1586,"correct":true,"confidence":3},{"trial_n":82,"n_dots":3.35,"target":"left","response":"left","rt":3647,"correct":true,"confidence":1},{"trial_n":83,"n_dots":3.35,"target":"right","response":"right","rt":1531,"correct":true,"confidence":4},{"trial_n":84,"n_dots":3.25,"target":"left","response":"left","rt":1306,"correct":true,"confidence":3},{"trial_n":85,"n_dots":3.25,"target":"left","response":"left","rt":1074,"correct":true,"confidence":2},{"trial_n":86,"n_dots":3.15,"target":"right","response":"right","rt":1566,"correct":true,"confidence":4},{"trial_n":87,"n_dots":3.15,"target":"left","response":"right","rt":1071,"correct":false,"confidence":4},{"trial_n":88,"n_dots":3.25,"target":"right","response":"right","rt":2114,"correct":true,"confidence":5},{"trial_n":89,"n_dots":3.25,"target":"right","response":"left","rt":3066.9999999999,"correct":false,"confidence":1},{"trial_n":90,"n_dots":3.35,"target":"left","response":"left","rt":1187,"correct":true,"confidence":4},{"trial_n":91,"n_dots":3.35,"target":"right","response":"right","rt":1166.9999999999,"correct":true,"confidence":5},{"trial_n":92,"n_dots":3.25,"target":"right","response":"left","rt":2609,"correct":false,"confidence":3},{"trial_n":93,"n_dots":3.35,"target":"right","response":"right","rt":1523,"correct":true,"confidence":4},{"trial_n":94,"n_dots":3.35,"target":"right","response":"right","rt":910,"correct":true,"confidence":4},{"trial_n":95,"n_dots":3.25,"target":"left","response":"right","rt":1900,"correct":false,"confidence":4},{"trial_n":96,"n_dots":3.35,"target":"left","response":"left","rt":744,"correct":true,"confidence":5},{"trial_n":97,"n_dots":3.35,"target":"left","response":"left","rt":1616.9999999999,"correct":true,"confidence":2},{"trial_n":98,"n_dots":3.25,"target":"left","response":"left","rt":842,"correct":true,"confidence":3},{"trial_n":99,"n_dots":3.25,"target":"right","response":"right","rt":2205,"correct":true,"confidence":4},{"trial_n":100,"n_dots":3.15,"target":"right","response":"right","rt":2971,"correct":true,"confidence":2},{"trial_n":101,"n_dots":3.15,"target":"right","response":"right","rt":2084,"correct":true,"confidence":1},{"trial_n":102,"n_dots":3.05,"target":"left","response":"left","rt":597.00000000012,"correct":true,"confidence":4},{"trial_n":103,"n_dots":3.05,"target":"left","response":"left","rt":875,"correct":true,"confidence":4},{"trial_n":104,"n_dots":2.95,"target":"left","response":"right","rt":1821,"correct":false,"confidence":4},{"trial_n":105,"n_dots":3.05,"target":"left","response":"left","rt":1390,"correct":true,"confidence":3},{"trial_n":106,"n_dots":3.05,"target":"right","response":"left","rt":2184,"correct":false,"confidence":4},{"trial_n":107,"n_dots":3.15,"target":"left","response":"left","rt":893,"correct":true,"confidence":5},{"trial_n":108,"n_dots":3.15,"target":"right","response":"right","rt":2211,"correct":true,"confidence":4},{"trial_n":109,"n_dots":3.05,"target":"left","response":"left","rt":810,"correct":true,"confidence":3},{"trial_n":110,"n_dots":3.05,"target":"left","response":"left","rt":757.99999999988,"correct":true,"confidence":4},{"trial_n":111,"n_dots":2.95,"target":"left","response":"left","rt":722,"correct":true,"confidence":3},{"trial_n":112,"n_dots":2.95,"target":"right","response":"right","rt":1272,"correct":true,"confidence":5},{"trial_n":113,"n_dots":2.85,"target":"right","response":"left","rt":1415.0000000001,"correct":false,"confidence":4},{"trial_n":114,"n_dots":2.95,"target":"right","response":"left","rt":2229.9999999999,"correct":false,"confidence":2},{"trial_n":115,"n_dots":3.05,"target":"right","response":"left","rt":2720.9999999999,"correct":false,"confidence":3},{"trial_n":116,"n_dots":3.15,"target":"right","response":"left","rt":638,"correct":false,"confidence":4},{"trial_n":117,"n_dots":3.25,"target":"left","response":"left","rt":826,"correct":true,"confidence":1},{"trial_n":118,"n_dots":3.25,"target":"right","response":"right","rt":1294.0000000001,"correct":true,"confidence":4},{"trial_n":119,"n_dots":3.15,"target":"right","response":"left","rt":830,"correct":false,"confidence":3},{"trial_n":120,"n_dots":3.25,"target":"left","response":"left","rt":658,"correct":true,"confidence":3}]