[{"trial_n":1,"min":25,"max":230,"target":"present","response":"present","rt":6603,"correct":true,"confidence":-1},{"trial_n":2,"min":25,"max":230,"target":"present","response":"present","rt":2577,"correct":true,"confidence":-1},{"trial_n":3,"min":41,"max":214,"target":"absent","response":"absent","rt":1066,"correct":true,"confidence":-1},{"trial_n":4,"min":41,"max":214,"target":"absent","response":"absent","rt":401.99999999999,"correct":true,"confidence":-1},{"trial_n":5,"min":57,"max":198,"target":"present","response":"present","rt":476.99999999999,"correct":true,"confidence":-1},{"trial_n":6,"min":57,"max":198,"target":"absent","response":"absent","rt":510,"correct":true,"confidence":-1},{"trial_n":7,"min":73,"max":182,"target":"absent","response":"present","rt":212,"correct":false,"confidence":-1},{"trial_n":8,"min":57,"max":198,"target":"absent","response":"absent","rt":1110,"correct":true,"confidence":-1},{"trial_n":9,"min":57,"max":198,"target":"present","response":"present","rt":539.99999999999,"correct":true,"confidence":-1},{"trial_n":10,"min":73,"max":182,"target":"present","response":"present","rt":627.99999999999,"correct":true,"confidence":-1},{"trial_n":11,"min":73,"max":182,"target":"present","response":"present","rt":442.00000000001,"correct":true,"confidence":-1},{"trial_n":12,"min":81,"max":174,"target":"absent","response":"absent","rt":467,"correct":true,"confidence":-1},{"trial_n":13,"min":81,"max":174,"target":"present","response":"present","rt":873,"correct":true,"confidence":-1},{"trial_n":14,"min":89,"max":166,"target":"absent","response":"absent","rt":487,"correct":true,"confidence":-1},{"trial_n":15,"min":89,"max":166,"target":"absent","response":"absent","rt":571,"correct":true,"confidence":-1},{"trial_n":16,"min":97,"max":158,"target":"absent","response":"absent","rt":685,"correct":true,"confidence":-1},{"trial_n":17,"min":97,"max":158,"target":"absent","response":"absent","rt":500,"correct":true,"confidence":-1},{"trial_n":18,"min":105,"max":150,"target":"absent","response":"absent","rt":446,"correct":true,"confidence":-1},{"trial_n":19,"min":105,"max":150,"target":"present","response":"absent","rt":468,"correct":false,"confidence":-1},{"trial_n":20,"min":97,"max":158,"target":"present","response":"present","rt":514,"correct":true,"confidence":-1},{"trial_n":21,"min":97,"max":158,"target":"present","response":"present","rt":905,"correct":true,"confidence":5},{"trial_n":22,"min":101,"max":154,"target":"absent","response":"absent","rt":821,"correct":true,"confidence":5},{"trial_n":23,"min":101,"max":154,"target":"present","response":"present","rt":1105,"correct":true,"confidence":5},{"trial_n":24,"min":105,"max":150,"target":"absent","response":"present","rt":1259,"correct":false,"confidence":5},{"trial_n":25,"min":101,"max":154,"target":"present","response":"present","rt":810,"correct":true,"confidence":5},{"trial_n":26,"min":101,"max":154,"target":"absent","response":"present","rt":885.99999999999,"correct":false,"confidence":5},{"trial_n":27,"min":97,"max":158,"target":"present","response":"present","rt":890,"correct":true,"confidence":5},{"trial_n":28,"min":97,"max":158,"target":"present","response":"absent","rt":1063,"correct":false,"confidence":5},{"trial_n":29,"min":93,"max":162,"target":"present","response":"present","rt":1040,"correct":true,"confidence":5},{"trial_n":30,"min":93,"max":162,"target":"present","response":"present","rt":1548,"correct":true,"confidence":5},{"trial_n":31,"min":95,"max":160,"target":"present","response":"present","rt":895,"correct":true,"confidence":4},{"trial_n":32,"min":95,"max":160,"target":"present","response":"present","rt":1008,"correct":true,"confidence":4},{"trial_n":33,"min":97,"max":158,"target":"present","response":"present","rt":1511,"correct":true,"confidence":1},{"trial_n":34,"min":97,"max":158,"target":"present","response":"absent","rt":1210,"correct":false,"confidence":1},{"trial_n":35,"min":95,"max":160,"target":"present","response":"present","rt":2114,"correct":true,"confidence":3},{"trial_n":36,"min":95,"max":160,"target":"absent","response":"present","rt":800.99999999997,"correct":false,"confidence":4},{"trial_n":37,"min":93,"max":162,"target":"absent","response":"present","rt":816,"correct":false,"confidence":4},{"trial_n":38,"min":91,"max":164,"target":"absent","response":"present","rt":923,"correct":false,"confidence":4},{"trial_n":39,"min":89,"max":166,"target":"absent","response":"absent","rt":931,"correct":true,"confidence":5},{"trial_n":40,"min":89,"max":166,"target":"absent","response":"absent","rt":1113,"correct":true,"confidence":5},{"trial_n":41,"min":90,"max":165,"target":"absent","response":"absent","rt":973,"correct":true,"confidence":1},{"trial_n":42,"min":90,"max":165,"target":"present","response":"absent","rt":1051,"correct":false,"confidence":3},{"trial_n":43,"min":89,"max":166,"target":"absent","response":"absent","rt":2229,"correct":true,"confidence":4},{"trial_n":44,"min":89,"max":166,"target":"present","response":"absent","rt":883,"correct":false,"confidence":2},{"trial_n":45,"min":88,"max":167,"target":"present","response":"present","rt":726,"correct":true,"confidence":5},{"trial_n":46,"min":88,"max":167,"target":"absent","response":"present","rt":811,"correct":false,"confidence":5},{"trial_n":47,"min":87,"max":168,"target":"absent","response":"absent","rt":785,"correct":true,"confidence":5},{"trial_n":48,"min":87,"max":168,"target":"absent","response":"absent","rt":789.99999999997,"correct":true,"confidence":5},{"trial_n":49,"min":88,"max":167,"target":"present","response":"present","rt":916,"correct":true,"confidence":5},{"trial_n":50,"min":88,"max":167,"target":"present","response":"present","rt":1030,"correct":true,"confidence":5},{"trial_n":51,"min":89,"max":166,"target":"absent","response":"absent","rt":793,"correct":true,"confidence":5},{"trial_n":52,"min":89,"max":166,"target":"absent","response":"present","rt":1673,"correct":false,"confidence":5},{"trial_n":53,"min":88,"max":167,"target":"absent","response":"absent","rt":1522,"correct":true,"confidence":4},{"trial_n":54,"min":88,"max":167,"target":"present","response":"present","rt":785,"correct":true,"confidence":5},{"trial_n":55,"min":89,"max":166,"target":"present","response":"absent","rt":692,"correct":false,"confidence":4},{"trial_n":56,"min":88,"max":167,"target":"absent","response":"absent","rt":718.00000000003,"correct":true,"confidence":4},{"trial_n":57,"min":88,"max":167,"target":"present","response":"present","rt":1106,"correct":true,"confidence":5},{"trial_n":58,"min":89,"max":166,"target":"absent","response":"absent","rt":703,"correct":true,"confidence":4},{"trial_n":59,"min":89,"max":166,"target":"present","response":"absent","rt":734,"correct":false,"confidence":1},{"trial_n":60,"min":88,"max":167,"target":"absent","response":"absent","rt":1103,"correct":true,"confidence":5},{"trial_n":61,"min":88,"max":167,"target":"absent","response":"absent","rt":954,"correct":true,"confidence":5},{"trial_n":62,"min":89,"max":166,"target":"absent","response":"present","rt":803,"correct":false,"confidence":5},{"trial_n":63,"min":88,"max":167,"target":"present","response":"present","rt":921.99999999997,"correct":true,"confidence":5},{"trial_n":64,"min":88,"max":167,"target":"present","response":"absent","rt":673,"correct":false,"confidence":5},{"trial_n":65,"min":87,"max":168,"target":"absent","response":"present","rt":967,"correct":false,"confidence":5},{"trial_n":66,"min":86,"max":169,"target":"present","response":"present","rt":846.99999999997,"correct":true,"confidence":5},{"trial_n":67,"min":86,"max":169,"target":"absent","response":"absent","rt":1365,"correct":true,"confidence":1},{"trial_n":68,"min":87,"max":168,"target":"present","response":"present","rt":828,"correct":true,"confidence":5},{"trial_n":69,"min":87,"max":168,"target":"present","response":"present","rt":839,"correct":true,"confidence":5},{"trial_n":70,"min":88,"max":167,"target":"present","response":"present","rt":771,"correct":true,"confidence":5},{"trial_n":71,"min":41,"max":214,"target":"present","response":"present","rt":15063,"correct":true,"confidence":-1},{"trial_n":72,"min":41,"max":214,"target":"present","response":"present","rt":973,"correct":true,"confidence":-1},{"trial_n":73,"min":57,"max":198,"target":"absent","response":"absent","rt":2208,"correct":true,"confidence":-1},{"trial_n":74,"min":57,"max":198,"target":"absent","response":"absent","rt":2018,"correct":true,"confidence":-1},{"trial_n":75,"min":73,"max":182,"target":"present","response":"present","rt":970,"correct":true,"confidence":-1},{"trial_n":76,"min":73,"max":182,"target":"present","response":"present","rt":709,"correct":true,"confidence":-1},{"trial_n":77,"min":89,"max":166,"target":"absent","response":"absent","rt":2592,"correct":true,"confidence":-1},{"trial_n":78,"min":89,"max":166,"target":"absent","response":"absent","rt":1288,"correct":true,"confidence":-1},{"trial_n":79,"min":105,"max":150,"target":"absent","response":"present","rt":2438.0000000001,"correct":false,"confidence":-1},{"trial_n":80,"min":89,"max":166,"target":"absent","response":"present","rt":1602,"correct":false,"confidence":-1},{"trial_n":81,"min":81,"max":174,"target":"present","response":"present","rt":1301,"correct":true,"confidence":-1},{"trial_n":82,"min":81,"max":174,"target":"present","response":"present","rt":947,"correct":true,"confidence":-1},{"trial_n":83,"min":89,"max":166,"target":"present","response":"present","rt":853,"correct":true,"confidence":-1},{"trial_n":84,"min":89,"max":166,"target":"absent","response":"present","rt":1003.0000000001,"correct":false,"confidence":-1},{"trial_n":85,"min":81,"max":174,"target":"absent","response":"present","rt":1650.0000000001,"correct":false,"confidence":-1},{"trial_n":86,"min":73,"max":182,"target":"absent","response":"absent","rt":1147.9999999999,"correct":true,"confidence":-1},{"trial_n":87,"min":73,"max":182,"target":"absent","response":"present","rt":957.99999999994,"correct":false,"confidence":-1},{"trial_n":88,"min":65,"max":190,"target":"present","response":"present","rt":988,"correct":true,"confidence":-1},{"trial_n":89,"min":65,"max":190,"target":"absent","response":"absent","rt":1601,"correct":true,"confidence":-1},{"trial_n":90,"min":73,"max":182,"target":"present","response":"present","rt":814,"correct":true,"confidence":-1},{"trial_n":91,"min":73,"max":182,"target":"present","response":"present","rt":769,"correct":true,"confidence":5},{"trial_n":92,"min":77,"max":178,"target":"present","response":"present","rt":739,"correct":true,"confidence":5},{"trial_n":93,"min":77,"max":178,"target":"present","response":"present","rt":690.99999999994,"correct":true,"confidence":5},{"trial_n":94,"min":81,"max":174,"target":"present","response":"present","rt":726,"correct":true,"confidence":5},{"trial_n":95,"min":81,"max":174,"target":"present","response":"present","rt":719,"correct":true,"confidence":5},{"trial_n":96,"min":85,"max":170,"target":"present","response":"present","rt":1135,"correct":true,"confidence":5},{"trial_n":97,"min":85,"max":170,"target":"absent","response":"present","rt":1104.9999999999,"correct":false,"confidence":5},{"trial_n":98,"min":81,"max":174,"target":"absent","response":"absent","rt":2059,"correct":true,"confidence":5},{"trial_n":99,"min":81,"max":174,"target":"present","response":"present","rt":793,"correct":true,"confidence":5},{"trial_n":100,"min":85,"max":170,"target":"present","response":"present","rt":1004,"correct":true,"confidence":5},{"trial_n":101,"min":85,"max":170,"target":"absent","response":"absent","rt":1063,"correct":true,"confidence":5},{"trial_n":102,"min":87,"max":168,"target":"absent","response":"present","rt":908,"correct":false,"confidence":5},{"trial_n":103,"min":85,"max":170,"target":"absent","response":"absent","rt":1120,"correct":true,"confidence":5},{"trial_n":104,"min":85,"max":170,"target":"present","response":"present","rt":983.00000000006,"correct":true,"confidence":5},{"trial_n":105,"min":87,"max":168,"target":"present","response":"present","rt":838,"correct":true,"confidence":5},{"trial_n":106,"min":87,"max":168,"target":"absent","response":"present","rt":715,"correct":false,"confidence":5},{"trial_n":107,"min":85,"max":170,"target":"present","response":"present","rt":645,"correct":true,"confidence":5},{"trial_n":108,"min":85,"max":170,"target":"absent","response":"absent","rt":1570,"correct":true,"confidence":1},{"trial_n":109,"min":87,"max":168,"target":"present","response":"present","rt":689,"correct":true,"confidence":5},{"trial_n":110,"min":87,"max":168,"target":"absent","response":"present","rt":1478.0000000001,"correct":false,"confidence":3},{"trial_n":111,"min":86,"max":169,"target":"present","response":"present","rt":807,"correct":true,"confidence":4},{"trial_n":112,"min":86,"max":169,"target":"present","response":"present","rt":772,"correct":true,"confidence":4},{"trial_n":113,"min":87,"max":168,"target":"present","response":"present","rt":658,"correct":true,"confidence":5},{"trial_n":114,"min":87,"max":168,"target":"absent","response":"present","rt":856,"correct":false,"confidence":5},{"trial_n":115,"min":86,"max":169,"target":"present","response":"present","rt":691,"correct":true,"confidence":5},{"trial_n":116,"min":86,"max":169,"target":"absent","response":"present","rt":993,"correct":false,"confidence":5},{"trial_n":117,"min":85,"max":170,"target":"present","response":"present","rt":859,"correct":true,"confidence":5},{"trial_n":118,"min":85,"max":170,"target":"present","response":"present","rt":905,"correct":true,"confidence":5},{"trial_n":119,"min":86,"max":169,"target":"absent","response":"present","rt":750,"correct":false,"confidence":5},{"trial_n":120,"min":85,"max":170,"target":"absent","response":"absent","rt":1050,"correct":true,"confidence":5},{"trial_n":121,"min":85,"max":170,"target":"present","response":"present","rt":823,"correct":true,"confidence":5},{"trial_n":122,"min":86,"max":169,"target":"present","response":"present","rt":828,"correct":true,"confidence":3},{"trial_n":123,"min":86,"max":169,"target":"present","response":"present","rt":1070.9999999999,"correct":true,"confidence":5},{"trial_n":124,"min":87,"max":168,"target":"absent","response":"absent","rt":2087,"correct":true,"confidence":1},{"trial_n":125,"min":87,"max":168,"target":"absent","response":"present","rt":875,"correct":false,"confidence":3},{"trial_n":126,"min":86,"max":169,"target":"absent","response":"present","rt":1224,"correct":false,"confidence":3},{"trial_n":127,"min":85,"max":170,"target":"present","response":"present","rt":609.00000000006,"correct":true,"confidence":5},{"trial_n":128,"min":85,"max":170,"target":"absent","response":"present","rt":742,"correct":false,"confidence":5},{"trial_n":129,"min":84,"max":171,"target":"present","response":"present","rt":558,"correct":true,"confidence":5},{"trial_n":130,"min":84,"max":171,"target":"absent","response":"absent","rt":1671,"correct":true,"confidence":1},{"trial_n":131,"min":85,"max":170,"target":"absent","response":"present","rt":803,"correct":false,"confidence":5},{"trial_n":132,"min":84,"max":171,"target":"present","response":"present","rt":864,"correct":true,"confidence":5},{"trial_n":133,"min":84,"max":171,"target":"present","response":"present","rt":794,"correct":true,"confidence":5},{"trial_n":134,"min":85,"max":170,"target":"absent","response":"absent","rt":1292.9999999999,"correct":true,"confidence":5},{"trial_n":135,"min":85,"max":170,"target":"absent","response":"present","rt":775,"correct":false,"confidence":1},{"trial_n":136,"min":84,"max":171,"target":"present","response":"present","rt":580,"correct":true,"confidence":5},{"trial_n":137,"min":84,"max":171,"target":"absent","response":"present","rt":991,"correct":false,"confidence":1},{"trial_n":138,"min":83,"max":172,"target":"absent","response":"absent","rt":1509.9999999999,"correct":true,"confidence":1},{"trial_n":139,"min":83,"max":172,"target":"absent","response":"present","rt":614.99999999994,"correct":false,"confidence":5},{"trial_n":140,"min":82,"max":173,"target":"present","response":"present","rt":2848,"correct":true,"confidence":5}]