[{"trial_n":1,"span":8,"encoder":"84928118","distractor":"54928118","target":"present","response":"absent","rt":"6444.9000000954","correct":false,"confidence":-1},{"trial_n":2,"span":6,"encoder":"699908","distractor":"699938","target":"present","response":"present","rt":"1938.8999998569","correct":true,"confidence":-1},{"trial_n":3,"span":6,"encoder":"841308","distractor":"843308","target":"absent","response":"absent","rt":"2608.7000000477","correct":true,"confidence":-1},{"trial_n":4,"span":8,"encoder":"44049548","distractor":"44949548","target":"absent","response":"present","rt":"2705.7999999523","correct":false,"confidence":-1},{"trial_n":5,"span":6,"encoder":"987820","distractor":"987220","target":"present","response":"absent","rt":"1753.4000000954","correct":false,"confidence":-1},{"trial_n":6,"span":4,"encoder":"0228","distractor":"0428","target":"present","response":"present","rt":"1228.7000000477","correct":true,"confidence":-1},{"trial_n":7,"span":4,"encoder":"0040","distractor":"0060","target":"absent","response":"absent","rt":"1331.2999999523","correct":true,"confidence":-1},{"trial_n":8,"span":6,"encoder":"549349","distractor":"549399","target":"present","response":"absent","rt":"1840.9000000954","correct":false,"confidence":-1},{"trial_n":9,"span":4,"encoder":"8967","distractor":"1967","target":"present","response":"present","rt":"1204.2999999523","correct":true,"confidence":-1},{"trial_n":10,"span":4,"encoder":"0449","distractor":"0949","target":"absent","response":"absent","rt":"2242.3999998569","correct":true,"confidence":-1},{"trial_n":11,"span":6,"encoder":"382528","distractor":"382527","target":"present","response":"present","rt":"2073.1000001431","correct":true,"confidence":-1},{"trial_n":12,"span":6,"encoder":"765011","distractor":"865011","target":"present","response":"present","rt":"1355.2000000477","correct":true,"confidence":-1},{"trial_n":13,"span":7,"encoder":"4769296","distractor":"4739296","target":"absent","response":"absent","rt":"2970.2999999523","correct":true,"confidence":-1},{"trial_n":14,"span":7,"encoder":"7948789","distractor":"7948189","target":"present","response":"absent","rt":"2005.7999999523","correct":false,"confidence":-1},{"trial_n":15,"span":6,"encoder":"286548","distractor":"282548","target":"present","response":"present","rt":"1690.2000000477","correct":true,"confidence":-1},{"trial_n":16,"span":6,"encoder":"722676","distractor":"722646","target":"absent","response":"absent","rt":"1721.6000001431","correct":true,"confidence":-1},{"trial_n":17,"span":7,"encoder":"0603654","distractor":"0003654","target":"absent","response":"absent","rt":"2614.6999998093","correct":true,"confidence":-1},{"trial_n":18,"span":7,"encoder":"6387481","distractor":"6387421","target":"absent","response":"absent","rt":"1383.5","correct":true,"confidence":-1},{"trial_n":19,"span":8,"encoder":"99838034","distractor":"99838038","target":"absent","response":"absent","rt":"1366.7999999523","correct":true,"confidence":-1},{"trial_n":20,"span":8,"encoder":"43992430","distractor":"43792430","target":"absent","response":"absent","rt":"1210.2000000477","correct":true,"confidence":-1},{"trial_n":21,"span":9,"encoder":"358003793","distractor":"358003794","target":"absent","response":"absent","rt":"2305.4000000954","correct":true,"confidence":4},{"trial_n":22,"span":9,"encoder":"735980107","distractor":"735980105","target":"present","response":"present","rt":"3828","correct":true,"confidence":2},{"trial_n":23,"span":10,"encoder":"1648922873","distractor":"1648922173","target":"absent","response":"absent","rt":"3005.5","correct":true,"confidence":3},{"trial_n":24,"span":10,"encoder":"9730575441","distractor":"9730575461","target":"present","response":"absent","rt":"3725.2999999523","correct":false,"confidence":3},{"trial_n":25,"span":9,"encoder":"885643413","distractor":"885043413","target":"absent","response":"present","rt":"2745.2999999523","correct":false,"confidence":4},{"trial_n":26,"span":8,"encoder":"42145975","distractor":"42045975","target":"absent","response":"present","rt":"2384.2999999523","correct":false,"confidence":3},{"trial_n":27,"span":7,"encoder":"5952601","distractor":"5352601","target":"absent","response":"absent","rt":"2912.5999999046","correct":true,"confidence":2},{"trial_n":28,"span":7,"encoder":"5084668","distractor":"5684668","target":"absent","response":"present","rt":"1250.7999999523","correct":false,"confidence":5},{"trial_n":29,"span":6,"encoder":"733197","distractor":"733191","target":"absent","response":"present","rt":"1469.0999999046","correct":false,"confidence":3},{"trial_n":30,"span":5,"encoder":"72121","distractor":"78121","target":"present","response":"present","rt":"1857.5","correct":true,"confidence":4},{"trial_n":31,"span":5,"encoder":"01859","distractor":"01869","target":"present","response":"present","rt":"2444","correct":true,"confidence":5},{"trial_n":32,"span":6,"encoder":"847715","distractor":"047715","target":"present","response":"present","rt":"2105.2000000477","correct":true,"confidence":3},{"trial_n":33,"span":6,"encoder":"397787","distractor":"397287","target":"absent","response":"absent","rt":"1372.6000001431","correct":true,"confidence":2},{"trial_n":34,"span":7,"encoder":"8266534","distractor":"8262534","target":"present","response":"absent","rt":"4514.1000001431","correct":false,"confidence":2},{"trial_n":35,"span":6,"encoder":"761261","distractor":"721261","target":"present","response":"present","rt":"1731.5999999046","correct":true,"confidence":2},{"trial_n":36,"span":6,"encoder":"534545","distractor":"504545","target":"present","response":"present","rt":"1996.9000000954","correct":true,"confidence":4},{"trial_n":37,"span":7,"encoder":"3786938","distractor":"3786932","target":"present","response":"absent","rt":"1810.2999999523","correct":false,"confidence":3},{"trial_n":38,"span":6,"encoder":"149096","distractor":"149896","target":"absent","response":"present","rt":"1705.2000000477","correct":false,"confidence":3},{"trial_n":39,"span":5,"encoder":"65258","distractor":"65758","target":"absent","response":"present","rt":"1612.4000000954","correct":false,"confidence":3},{"trial_n":40,"span":4,"encoder":"7617","distractor":"7611","target":"absent","response":"absent","rt":"1880","correct":true,"confidence":5},{"trial_n":41,"span":4,"encoder":"2178","distractor":"2175","target":"present","response":"absent","rt":"2704.8999998569","correct":false,"confidence":1},{"trial_n":42,"span":3,"encoder":"499","distractor":"459","target":"absent","response":"absent","rt":"1807.7000000477","correct":true,"confidence":5},{"trial_n":43,"span":3,"encoder":"069","distractor":"049","target":"present","response":"present","rt":"1666.8999998569","correct":true,"confidence":5},{"trial_n":44,"span":4,"encoder":"1203","distractor":"2203","target":"present","response":"present","rt":"2652.1999998093","correct":true,"confidence":5},{"trial_n":45,"span":4,"encoder":"9808","distractor":"9508","target":"absent","response":"absent","rt":"1313.7999999523","correct":true,"confidence":5},{"trial_n":46,"span":5,"encoder":"48767","distractor":"48567","target":"present","response":"present","rt":"1970","correct":true,"confidence":5},{"trial_n":47,"span":5,"encoder":"04692","distractor":"01692","target":"present","response":"present","rt":"1674.0999999046","correct":true,"confidence":5},{"trial_n":48,"span":6,"encoder":"426243","distractor":"426249","target":"absent","response":"absent","rt":"1506.7000000477","correct":true,"confidence":5},{"trial_n":49,"span":6,"encoder":"021979","distractor":"021929","target":"present","response":"present","rt":"2202","correct":true,"confidence":5},{"trial_n":50,"span":7,"encoder":"1730426","distractor":"2730426","target":"present","response":"present","rt":"3435.7999999523","correct":true,"confidence":3},{"trial_n":51,"span":7,"encoder":"2300021","distractor":"9300021","target":"absent","response":"absent","rt":"2499.9000000954","correct":true,"confidence":3},{"trial_n":52,"span":8,"encoder":"67176836","distractor":"37176836","target":"present","response":"present","rt":"3690.3999998569","correct":true,"confidence":4},{"trial_n":53,"span":8,"encoder":"00150518","distractor":"06150518","target":"present","response":"present","rt":"2788.7000000477","correct":true,"confidence":3},{"trial_n":54,"span":9,"encoder":"225354177","distractor":"225324177","target":"absent","response":"absent","rt":"2516.4000000954","correct":true,"confidence":3},{"trial_n":55,"span":9,"encoder":"248585576","distractor":"248585526","target":"absent","response":"absent","rt":"1409.8000001907","correct":true,"confidence":4},{"trial_n":56,"span":10,"encoder":"5480188021","distractor":"5480188921","target":"present","response":"present","rt":"2362.5","correct":true,"confidence":4},{"trial_n":57,"span":10,"encoder":"7618306694","distractor":"7618206694","target":"present","response":"absent","rt":"2551.5","correct":false,"confidence":2},{"trial_n":58,"span":9,"encoder":"738438252","distractor":"738438752","target":"absent","response":"present","rt":"2124.5","correct":false,"confidence":3},{"trial_n":59,"span":8,"encoder":"12043605","distractor":"12042605","target":"present","response":"present","rt":"3085.9000000954","correct":true,"confidence":4},{"trial_n":60,"span":8,"encoder":"34864513","distractor":"34864563","target":"absent","response":"absent","rt":"1326.5","correct":true,"confidence":5},{"trial_n":61,"span":9,"encoder":"510203894","distractor":"510209894","target":"present","response":"present","rt":"4075.5","correct":true,"confidence":3},{"trial_n":62,"span":9,"encoder":"294712448","distractor":"294712468","target":"absent","response":"absent","rt":"2053.5","correct":true,"confidence":5},{"trial_n":63,"span":10,"encoder":"4658577608","distractor":"4658677608","target":"absent","response":"absent","rt":"2628.7999999523","correct":true,"confidence":3},{"trial_n":64,"span":10,"encoder":"5229532934","distractor":"8229532934","target":"present","response":"absent","rt":"1410.4000000954","correct":false,"confidence":2},{"trial_n":65,"span":9,"encoder":"582985266","distractor":"582985260","target":"absent","response":"absent","rt":"2655.7000000477","correct":true,"confidence":5},{"trial_n":66,"span":9,"encoder":"594409989","distractor":"994409989","target":"present","response":"present","rt":"2615.2999999523","correct":true,"confidence":5},{"trial_n":67,"span":10,"encoder":"7304017579","distractor":"7304057579","target":"present","response":"absent","rt":"3101.7999999523","correct":false,"confidence":2},{"trial_n":68,"span":9,"encoder":"032802200","distractor":"032806200","target":"absent","response":"absent","rt":"4211.7000000477","correct":true,"confidence":2},{"trial_n":69,"span":9,"encoder":"110894934","distractor":"110895934","target":"absent","response":"absent","rt":"2320.4000000954","correct":true,"confidence":2},{"trial_n":70,"span":10,"encoder":"6405587336","distractor":"6405587332","target":"present","response":"absent","rt":"1016.2000000477","correct":false,"confidence":4},{"trial_n":71,"span":8,"encoder":"70154781","distractor":"77154781","target":"present","response":"present","rt":"3190.8000001907","correct":true,"confidence":-1},{"trial_n":72,"span":8,"encoder":"01437695","distractor":"01427695","target":"present","response":"present","rt":"4574.1000001431","correct":true,"confidence":-1},{"trial_n":73,"span":9,"encoder":"301411645","distractor":"341411645","target":"absent","response":"absent","rt":"4186.5","correct":true,"confidence":-1},{"trial_n":74,"span":9,"encoder":"765401053","distractor":"765401003","target":"absent","response":"absent","rt":"2021.5999999046","correct":true,"confidence":-1},{"trial_n":75,"span":10,"encoder":"0313915134","distractor":"0313919134","target":"present","response":"present","rt":"5756.2999999523","correct":true,"confidence":-1},{"trial_n":76,"span":10,"encoder":"6679760035","distractor":"6279760035","target":"absent","response":"present","rt":"8004.9000000954","correct":false,"confidence":-1},{"trial_n":77,"span":9,"encoder":"477311127","distractor":"477211127","target":"present","response":"present","rt":"5723","correct":true,"confidence":-1},{"trial_n":78,"span":9,"encoder":"126596047","distractor":"196596047","target":"present","response":"present","rt":"2335.7999999523","correct":true,"confidence":-1},{"trial_n":79,"span":10,"encoder":"3453644306","distractor":"3453144306","target":"present","response":"present","rt":"7581.0999999046","correct":true,"confidence":-1},{"trial_n":80,"span":10,"encoder":"0397758695","distractor":"0397258695","target":"absent","response":"absent","rt":"9076.6999998093","correct":true,"confidence":-1},{"trial_n":81,"span":11,"encoder":"94605356640","distractor":"94605336640","target":"absent","response":"absent","rt":"4321","correct":true,"confidence":-1},{"trial_n":82,"span":11,"encoder":"08213678471","distractor":"08214678471","target":"absent","response":"present","rt":"6524","correct":false,"confidence":-1},{"trial_n":83,"span":10,"encoder":"2881448905","distractor":"2889448905","target":"absent","response":"absent","rt":"3298.2999999523","correct":true,"confidence":-1},{"trial_n":84,"span":10,"encoder":"8258066292","distractor":"8258166292","target":"absent","response":"present","rt":"1912.1000001431","correct":false,"confidence":-1},{"trial_n":85,"span":9,"encoder":"336973359","distractor":"336973659","target":"present","response":"absent","rt":"2039.2999999523","correct":false,"confidence":-1},{"trial_n":86,"span":8,"encoder":"28602956","distractor":"28602959","target":"absent","response":"absent","rt":"2461","correct":true,"confidence":-1},{"trial_n":87,"span":8,"encoder":"40608453","distractor":"30608453","target":"absent","response":"present","rt":"1870.9000000954","correct":false,"confidence":-1},{"trial_n":88,"span":7,"encoder":"2064965","distractor":"2044965","target":"present","response":"absent","rt":"846.79999995232","correct":false,"confidence":-1},{"trial_n":89,"span":6,"encoder":"279503","distractor":"279803","target":"absent","response":"present","rt":"2102.8999998569","correct":false,"confidence":-1},{"trial_n":90,"span":5,"encoder":"09124","distractor":"06124","target":"present","response":"absent","rt":"850.79999995232","correct":false,"confidence":-1},{"trial_n":91,"span":4,"encoder":"6987","distractor":"6988","target":"present","response":"present","rt":"1744.9000000954","correct":true,"confidence":4},{"trial_n":92,"span":4,"encoder":"5624","distractor":"5824","target":"present","response":"present","rt":"1497.6000001431","correct":true,"confidence":5},{"trial_n":93,"span":5,"encoder":"13888","distractor":"13887","target":"absent","response":"absent","rt":"5761.0999999046","correct":true,"confidence":5},{"trial_n":94,"span":5,"encoder":"35049","distractor":"85049","target":"present","response":"absent","rt":"3565.8000001907","correct":false,"confidence":5},{"trial_n":95,"span":4,"encoder":"8505","distractor":"4505","target":"absent","response":"absent","rt":"1984.9000000954","correct":true,"confidence":4},{"trial_n":96,"span":4,"encoder":"2182","distractor":"2682","target":"present","response":"present","rt":"936.60000014305","correct":true,"confidence":5},{"trial_n":97,"span":5,"encoder":"12777","distractor":"12767","target":"absent","response":"absent","rt":"1669.0999999046","correct":true,"confidence":5},{"trial_n":98,"span":5,"encoder":"69268","distractor":"99268","target":"present","response":"present","rt":"1240.0999999046","correct":true,"confidence":5},{"trial_n":99,"span":6,"encoder":"191776","distractor":"191746","target":"present","response":"present","rt":"1112.5","correct":true,"confidence":4},{"trial_n":100,"span":6,"encoder":"269799","distractor":"569799","target":"absent","response":"absent","rt":"4187.8999998569","correct":true,"confidence":4},{"trial_n":101,"span":7,"encoder":"4964544","distractor":"4964944","target":"present","response":"present","rt":"5394.9000000954","correct":true,"confidence":2},{"trial_n":102,"span":7,"encoder":"7098022","distractor":"1098022","target":"present","response":"present","rt":"1978.7000000477","correct":true,"confidence":3},{"trial_n":103,"span":8,"encoder":"57788545","distractor":"57088545","target":"present","response":"absent","rt":"3053.0999999046","correct":false,"confidence":3},{"trial_n":104,"span":7,"encoder":"2290869","distractor":"2590869","target":"absent","response":"absent","rt":"2237.8000001907","correct":true,"confidence":5},{"trial_n":105,"span":7,"encoder":"0004137","distractor":"0004138","target":"present","response":"present","rt":"1178.1000001431","correct":true,"confidence":5},{"trial_n":106,"span":8,"encoder":"01967349","distractor":"02967349","target":"absent","response":"absent","rt":"3397.5","correct":true,"confidence":4},{"trial_n":107,"span":8,"encoder":"58583876","distractor":"58283876","target":"absent","response":"present","rt":"2461.9000000954","correct":false,"confidence":4},{"trial_n":108,"span":7,"encoder":"4902374","distractor":"4602374","target":"absent","response":"present","rt":"4904.5","correct":false,"confidence":1},{"trial_n":109,"span":6,"encoder":"762961","distractor":"762461","target":"present","response":"present","rt":"5006.4000000954","correct":true,"confidence":4},{"trial_n":110,"span":6,"encoder":"883674","distractor":"853674","target":"absent","response":"absent","rt":"1502.4000000954","correct":true,"confidence":4},{"trial_n":111,"span":7,"encoder":"9488593","distractor":"9488493","target":"present","response":"present","rt":"4167.5","correct":true,"confidence":4},{"trial_n":112,"span":7,"encoder":"1005278","distractor":"1004278","target":"present","response":"present","rt":"1846.9000000954","correct":true,"confidence":5},{"trial_n":113,"span":8,"encoder":"64857178","distractor":"64857678","target":"present","response":"present","rt":"2092.3999998569","correct":true,"confidence":4},{"trial_n":114,"span":8,"encoder":"25275910","distractor":"25275920","target":"present","response":"absent","rt":"4559.2999999523","correct":false,"confidence":4},{"trial_n":115,"span":7,"encoder":"5428620","distractor":"5422620","target":"absent","response":"present","rt":"2345.7000000477","correct":false,"confidence":1},{"trial_n":116,"span":6,"encoder":"918621","distractor":"918681","target":"present","response":"absent","rt":"12083","correct":false,"confidence":1},{"trial_n":117,"span":5,"encoder":"28161","distractor":"28166","target":"absent","response":"present","rt":"4038.9000000954","correct":false,"confidence":2},{"trial_n":118,"span":4,"encoder":"8943","distractor":"8947","target":"absent","response":"absent","rt":"1297.2000000477","correct":true,"confidence":4},{"trial_n":119,"span":4,"encoder":"3558","distractor":"3556","target":"present","response":"present","rt":"2603.8000001907","correct":true,"confidence":3},{"trial_n":120,"span":5,"encoder":"18402","distractor":"14402","target":"present","response":"present","rt":"2748","correct":true,"confidence":4},{"trial_n":121,"span":5,"encoder":"75605","distractor":"76605","target":"present","response":"present","rt":"2222.9000000954","correct":true,"confidence":4},{"trial_n":122,"span":6,"encoder":"224772","distractor":"225772","target":"present","response":"present","rt":"1525.4000000954","correct":true,"confidence":5},{"trial_n":123,"span":6,"encoder":"168847","distractor":"165847","target":"absent","response":"absent","rt":"1333.2000000477","correct":true,"confidence":4},{"trial_n":124,"span":7,"encoder":"8457427","distractor":"8457027","target":"absent","response":"absent","rt":"1129.8999998569","correct":true,"confidence":3},{"trial_n":125,"span":7,"encoder":"7091141","distractor":"7096141","target":"present","response":"absent","rt":"2543.8000001907","correct":false,"confidence":3},{"trial_n":126,"span":6,"encoder":"994003","distractor":"994013","target":"present","response":"absent","rt":"3649.7999999523","correct":false,"confidence":1},{"trial_n":127,"span":5,"encoder":"73172","distractor":"77172","target":"absent","response":"present","rt":"4357.5","correct":false,"confidence":3},{"trial_n":128,"span":4,"encoder":"2053","distractor":"2353","target":"absent","response":"present","rt":"1939.9000000954","correct":false,"confidence":1},{"trial_n":129,"span":3,"encoder":"690","distractor":"290","target":"absent","response":"absent","rt":"1409.2999999523","correct":true,"confidence":5},{"trial_n":130,"span":3,"encoder":"287","distractor":"285","target":"present","response":"present","rt":"1190.7000000477","correct":true,"confidence":5},{"trial_n":131,"span":4,"encoder":"4690","distractor":"4670","target":"absent","response":"absent","rt":"1627.7999999523","correct":true,"confidence":5},{"trial_n":132,"span":4,"encoder":"9565","distractor":"9525","target":"absent","response":"absent","rt":"1992.4000000954","correct":true,"confidence":2},{"trial_n":133,"span":5,"encoder":"13853","distractor":"83853","target":"absent","response":"absent","rt":"1274","correct":true,"confidence":4},{"trial_n":134,"span":5,"encoder":"43091","distractor":"43099","target":"absent","response":"absent","rt":"1846","correct":true,"confidence":4},{"trial_n":135,"span":6,"encoder":"042457","distractor":"042447","target":"present","response":"present","rt":"1776.5","correct":true,"confidence":4},{"trial_n":136,"span":6,"encoder":"967635","distractor":"997635","target":"absent","response":"absent","rt":"3269.9000000954","correct":true,"confidence":3},{"trial_n":137,"span":7,"encoder":"1071008","distractor":"1071308","target":"absent","response":"absent","rt":"5650.9000000954","correct":true,"confidence":1},{"trial_n":138,"span":7,"encoder":"5568727","distractor":"5268727","target":"present","response":"present","rt":"2694","correct":true,"confidence":3},{"trial_n":139,"span":8,"encoder":"66252488","distractor":"66252388","target":"present","response":"absent","rt":"3480","correct":false,"confidence":3},{"trial_n":140,"span":7,"encoder":"7367886","distractor":"5367886","target":"present","response":"present","rt":"3273.8999998569","correct":true,"confidence":3}]