[{"trial_n":1,"min":25,"max":230,"target":"present","response":"absent","rt":11831,"correct":false,"confidence":-1},{"trial_n":2,"min":25,"max":230,"target":"present","response":"present","rt":1253,"correct":true,"confidence":-1},{"trial_n":3,"min":25,"max":230,"target":"absent","response":"absent","rt":3274,"correct":true,"confidence":-1},{"trial_n":4,"min":41,"max":214,"target":"absent","response":"absent","rt":1093.0000000001,"correct":true,"confidence":-1},{"trial_n":5,"min":41,"max":214,"target":"present","response":"present","rt":1304,"correct":true,"confidence":-1},{"trial_n":6,"min":57,"max":198,"target":"present","response":"present","rt":1128,"correct":true,"confidence":-1},{"trial_n":7,"min":57,"max":198,"target":"present","response":"present","rt":686,"correct":true,"confidence":-1},{"trial_n":8,"min":73,"max":182,"target":"present","response":"present","rt":1299.0000000001,"correct":true,"confidence":-1},{"trial_n":9,"min":73,"max":182,"target":"absent","response":"absent","rt":1337,"correct":true,"confidence":-1},{"trial_n":10,"min":89,"max":166,"target":"present","response":"absent","rt":996,"correct":false,"confidence":-1},{"trial_n":11,"min":81,"max":174,"target":"present","response":"absent","rt":1730.9999999999,"correct":false,"confidence":-1},{"trial_n":12,"min":73,"max":182,"target":"present","response":"present","rt":974,"correct":true,"confidence":-1},{"trial_n":13,"min":73,"max":182,"target":"absent","response":"absent","rt":1533,"correct":true,"confidence":-1},{"trial_n":14,"min":81,"max":174,"target":"absent","response":"absent","rt":962,"correct":true,"confidence":-1},{"trial_n":15,"min":81,"max":174,"target":"present","response":"absent","rt":15212,"correct":false,"confidence":-1},{"trial_n":16,"min":73,"max":182,"target":"absent","response":"present","rt":971,"correct":false,"confidence":-1},{"trial_n":17,"min":65,"max":190,"target":"absent","response":"absent","rt":995,"correct":true,"confidence":-1},{"trial_n":18,"min":65,"max":190,"target":"absent","response":"absent","rt":708,"correct":true,"confidence":-1},{"trial_n":19,"min":73,"max":182,"target":"absent","response":"absent","rt":858,"correct":true,"confidence":-1},{"trial_n":20,"min":73,"max":182,"target":"absent","response":"present","rt":1050.9999999999,"correct":false,"confidence":-1},{"trial_n":21,"min":69,"max":186,"target":"present","response":"present","rt":1094,"correct":true,"confidence":3},{"trial_n":22,"min":69,"max":186,"target":"present","response":"present","rt":5041,"correct":true,"confidence":4},{"trial_n":23,"min":73,"max":182,"target":"absent","response":"present","rt":1304.0000000001,"correct":false,"confidence":3},{"trial_n":24,"min":69,"max":186,"target":"present","response":"present","rt":1022,"correct":true,"confidence":5},{"trial_n":25,"min":69,"max":186,"target":"absent","response":"present","rt":1133.9999999999,"correct":false,"confidence":3},{"trial_n":26,"min":65,"max":190,"target":"present","response":"present","rt":1250,"correct":true,"confidence":5},{"trial_n":27,"min":65,"max":190,"target":"absent","response":"absent","rt":2180,"correct":true,"confidence":2},{"trial_n":28,"min":69,"max":186,"target":"absent","response":"absent","rt":2336,"correct":true,"confidence":3},{"trial_n":29,"min":69,"max":186,"target":"absent","response":"absent","rt":1666,"correct":true,"confidence":4},{"trial_n":30,"min":73,"max":182,"target":"absent","response":"absent","rt":915,"correct":true,"confidence":4},{"trial_n":31,"min":73,"max":182,"target":"present","response":"present","rt":1103.0000000001,"correct":true,"confidence":5},{"trial_n":32,"min":75,"max":180,"target":"absent","response":"present","rt":1706,"correct":false,"confidence":2},{"trial_n":33,"min":73,"max":182,"target":"present","response":"present","rt":847,"correct":true,"confidence":5},{"trial_n":34,"min":73,"max":182,"target":"present","response":"present","rt":828,"correct":true,"confidence":5},{"trial_n":35,"min":75,"max":180,"target":"present","response":"present","rt":1244,"correct":true,"confidence":4},{"trial_n":36,"min":75,"max":180,"target":"present","response":"present","rt":914.99999999988,"correct":true,"confidence":5},{"trial_n":37,"min":77,"max":178,"target":"present","response":"present","rt":1093,"correct":true,"confidence":3},{"trial_n":38,"min":77,"max":178,"target":"absent","response":"absent","rt":1166.9999999999,"correct":true,"confidence":3},{"trial_n":39,"min":79,"max":176,"target":"absent","response":"absent","rt":1127.0000000001,"correct":true,"confidence":3},{"trial_n":40,"min":79,"max":176,"target":"present","response":"present","rt":942,"correct":true,"confidence":4},{"trial_n":41,"min":80,"max":175,"target":"absent","response":"absent","rt":1200.9999999999,"correct":true,"confidence":3},{"trial_n":42,"min":80,"max":175,"target":"present","response":"absent","rt":2361,"correct":false,"confidence":2},{"trial_n":43,"min":79,"max":176,"target":"present","response":"absent","rt":1087.0000000001,"correct":false,"confidence":2},{"trial_n":44,"min":78,"max":177,"target":"absent","response":"absent","rt":1373.0000000001,"correct":true,"confidence":3},{"trial_n":45,"min":78,"max":177,"target":"absent","response":"absent","rt":1119.0000000001,"correct":true,"confidence":4},{"trial_n":46,"min":79,"max":176,"target":"present","response":"absent","rt":884,"correct":false,"confidence":4},{"trial_n":47,"min":78,"max":177,"target":"present","response":"present","rt":808.00000000012,"correct":true,"confidence":4},{"trial_n":48,"min":78,"max":177,"target":"present","response":"present","rt":806,"correct":true,"confidence":5},{"trial_n":49,"min":79,"max":176,"target":"absent","response":"absent","rt":1780.9999999999,"correct":true,"confidence":2},{"trial_n":50,"min":79,"max":176,"target":"absent","response":"present","rt":1920.0000000001,"correct":false,"confidence":3},{"trial_n":51,"min":78,"max":177,"target":"absent","response":"absent","rt":2035.0000000001,"correct":true,"confidence":4},{"trial_n":52,"min":78,"max":177,"target":"absent","response":"absent","rt":1372.0000000001,"correct":true,"confidence":3},{"trial_n":53,"min":79,"max":176,"target":"present","response":"present","rt":907,"correct":true,"confidence":4},{"trial_n":54,"min":79,"max":176,"target":"present","response":"present","rt":1212,"correct":true,"confidence":3},{"trial_n":55,"min":80,"max":175,"target":"present","response":"present","rt":869,"correct":true,"confidence":4},{"trial_n":56,"min":80,"max":175,"target":"absent","response":"absent","rt":1977,"correct":true,"confidence":2},{"trial_n":57,"min":81,"max":174,"target":"absent","response":"absent","rt":3267,"correct":true,"confidence":1},{"trial_n":58,"min":81,"max":174,"target":"present","response":"present","rt":874,"correct":true,"confidence":5},{"trial_n":59,"min":82,"max":173,"target":"absent","response":"present","rt":1609,"correct":false,"confidence":3},{"trial_n":60,"min":81,"max":174,"target":"absent","response":"absent","rt":1021.0000000002,"correct":true,"confidence":4},{"trial_n":61,"min":81,"max":174,"target":"present","response":"present","rt":1005,"correct":true,"confidence":5},{"trial_n":62,"min":82,"max":173,"target":"present","response":"present","rt":853,"correct":true,"confidence":3},{"trial_n":63,"min":82,"max":173,"target":"absent","response":"present","rt":890.99999999977,"correct":false,"confidence":3},{"trial_n":64,"min":81,"max":174,"target":"absent","response":"absent","rt":1626,"correct":true,"confidence":3},{"trial_n":65,"min":81,"max":174,"target":"absent","response":"present","rt":2377.0000000002,"correct":false,"confidence":3},{"trial_n":66,"min":80,"max":175,"target":"present","response":"present","rt":857,"correct":true,"confidence":3},{"trial_n":67,"min":80,"max":175,"target":"present","response":"present","rt":868,"correct":true,"confidence":5},{"trial_n":68,"min":81,"max":174,"target":"absent","response":"absent","rt":1193,"correct":true,"confidence":3},{"trial_n":69,"min":81,"max":174,"target":"present","response":"present","rt":1799,"correct":true,"confidence":4},{"trial_n":70,"min":82,"max":173,"target":"present","response":"present","rt":1196,"correct":true,"confidence":4},{"trial_n":71,"min":41,"max":214,"target":"present","response":"absent","rt":6502,"correct":false,"confidence":-1},{"trial_n":72,"min":41,"max":214,"target":"present","response":"present","rt":2289,"correct":true,"confidence":-1},{"trial_n":73,"min":41,"max":214,"target":"absent","response":"absent","rt":1260,"correct":true,"confidence":-1},{"trial_n":74,"min":57,"max":198,"target":"absent","response":"absent","rt":1299,"correct":true,"confidence":-1},{"trial_n":75,"min":57,"max":198,"target":"present","response":"present","rt":1801,"correct":true,"confidence":-1},{"trial_n":76,"min":73,"max":182,"target":"present","response":"present","rt":819,"correct":true,"confidence":-1},{"trial_n":77,"min":73,"max":182,"target":"absent","response":"absent","rt":3040,"correct":true,"confidence":-1},{"trial_n":78,"min":89,"max":166,"target":"absent","response":"absent","rt":4150,"correct":true,"confidence":-1},{"trial_n":79,"min":89,"max":166,"target":"present","response":"present","rt":1457,"correct":true,"confidence":-1},{"trial_n":80,"min":105,"max":150,"target":"absent","response":"present","rt":1881,"correct":false,"confidence":-1},{"trial_n":81,"min":97,"max":158,"target":"absent","response":"present","rt":1440,"correct":false,"confidence":-1},{"trial_n":82,"min":89,"max":166,"target":"absent","response":"absent","rt":2944,"correct":true,"confidence":-1},{"trial_n":83,"min":89,"max":166,"target":"absent","response":"absent","rt":1098,"correct":true,"confidence":-1},{"trial_n":84,"min":97,"max":158,"target":"present","response":"absent","rt":1009,"correct":false,"confidence":-1},{"trial_n":85,"min":89,"max":166,"target":"absent","response":"present","rt":2502,"correct":false,"confidence":-1},{"trial_n":86,"min":81,"max":174,"target":"absent","response":"absent","rt":808,"correct":true,"confidence":-1},{"trial_n":87,"min":81,"max":174,"target":"present","response":"present","rt":1087,"correct":true,"confidence":-1},{"trial_n":88,"min":89,"max":166,"target":"absent","response":"present","rt":2616.9999999998,"correct":false,"confidence":-1},{"trial_n":89,"min":81,"max":174,"target":"present","response":"present","rt":1174,"correct":true,"confidence":-1},{"trial_n":90,"min":81,"max":174,"target":"absent","response":"absent","rt":1333.0000000002,"correct":true,"confidence":-1},{"trial_n":91,"min":85,"max":170,"target":"present","response":"present","rt":1113,"correct":true,"confidence":4},{"trial_n":92,"min":85,"max":170,"target":"absent","response":"absent","rt":1510.9999999998,"correct":true,"confidence":3},{"trial_n":93,"min":89,"max":166,"target":"present","response":"present","rt":924,"correct":true,"confidence":4},{"trial_n":94,"min":89,"max":166,"target":"absent","response":"present","rt":1145,"correct":false,"confidence":1},{"trial_n":95,"min":85,"max":170,"target":"present","response":"absent","rt":1064,"correct":false,"confidence":3},{"trial_n":96,"min":81,"max":174,"target":"absent","response":"absent","rt":1756,"correct":true,"confidence":3},{"trial_n":97,"min":81,"max":174,"target":"absent","response":"absent","rt":1331,"correct":true,"confidence":2},{"trial_n":98,"min":85,"max":170,"target":"present","response":"present","rt":825,"correct":true,"confidence":4},{"trial_n":99,"min":85,"max":170,"target":"present","response":"present","rt":948,"correct":true,"confidence":4},{"trial_n":100,"min":89,"max":166,"target":"absent","response":"absent","rt":1257.9999999998,"correct":true,"confidence":1},{"trial_n":101,"min":89,"max":166,"target":"absent","response":"absent","rt":1406,"correct":true,"confidence":4},{"trial_n":102,"min":91,"max":164,"target":"present","response":"absent","rt":3914,"correct":false,"confidence":2},{"trial_n":103,"min":89,"max":166,"target":"present","response":"present","rt":3139,"correct":true,"confidence":2},{"trial_n":104,"min":89,"max":166,"target":"absent","response":"present","rt":1538,"correct":false,"confidence":1},{"trial_n":105,"min":87,"max":168,"target":"present","response":"present","rt":1553,"correct":true,"confidence":3},{"trial_n":106,"min":87,"max":168,"target":"absent","response":"absent","rt":3236,"correct":true,"confidence":2},{"trial_n":107,"min":89,"max":166,"target":"present","response":"present","rt":1075.9999999998,"correct":true,"confidence":3},{"trial_n":108,"min":89,"max":166,"target":"absent","response":"absent","rt":2753,"correct":true,"confidence":1},{"trial_n":109,"min":91,"max":164,"target":"present","response":"present","rt":967,"correct":true,"confidence":4},{"trial_n":110,"min":91,"max":164,"target":"present","response":"present","rt":1378,"correct":true,"confidence":1},{"trial_n":111,"min":92,"max":163,"target":"present","response":"present","rt":2221,"correct":true,"confidence":2},{"trial_n":112,"min":92,"max":163,"target":"present","response":"absent","rt":8681,"correct":false,"confidence":1},{"trial_n":113,"min":91,"max":164,"target":"absent","response":"present","rt":2386,"correct":false,"confidence":1},{"trial_n":114,"min":90,"max":165,"target":"absent","response":"absent","rt":1342,"correct":true,"confidence":2},{"trial_n":115,"min":90,"max":165,"target":"absent","response":"absent","rt":1711,"correct":true,"confidence":2},{"trial_n":116,"min":91,"max":164,"target":"absent","response":"present","rt":911,"correct":false,"confidence":3},{"trial_n":117,"min":90,"max":165,"target":"present","response":"present","rt":948,"correct":true,"confidence":3},{"trial_n":118,"min":90,"max":165,"target":"present","response":"present","rt":1244,"correct":true,"confidence":3},{"trial_n":119,"min":91,"max":164,"target":"present","response":"present","rt":3342,"correct":true,"confidence":1},{"trial_n":120,"min":91,"max":164,"target":"present","response":"present","rt":915,"correct":true,"confidence":3},{"trial_n":121,"min":92,"max":163,"target":"absent","response":"present","rt":1004.9999999998,"correct":false,"confidence":1},{"trial_n":122,"min":91,"max":164,"target":"absent","response":"absent","rt":2959,"correct":true,"confidence":3},{"trial_n":123,"min":91,"max":164,"target":"absent","response":"absent","rt":1668,"correct":true,"confidence":2},{"trial_n":124,"min":92,"max":163,"target":"present","response":"present","rt":1705.9999999998,"correct":true,"confidence":2},{"trial_n":125,"min":92,"max":163,"target":"present","response":"present","rt":1733,"correct":true,"confidence":1},{"trial_n":126,"min":93,"max":162,"target":"present","response":"present","rt":2885,"correct":true,"confidence":3},{"trial_n":127,"min":93,"max":162,"target":"present","response":"absent","rt":1939.0000000002,"correct":false,"confidence":1},{"trial_n":128,"min":92,"max":163,"target":"present","response":"absent","rt":1357,"correct":false,"confidence":1},{"trial_n":129,"min":91,"max":164,"target":"absent","response":"present","rt":2631,"correct":false,"confidence":2},{"trial_n":130,"min":90,"max":165,"target":"present","response":"present","rt":1171,"correct":true,"confidence":1},{"trial_n":131,"min":90,"max":165,"target":"absent","response":"absent","rt":1481,"correct":true,"confidence":1},{"trial_n":132,"min":91,"max":164,"target":"present","response":"absent","rt":991,"correct":false,"confidence":1},{"trial_n":133,"min":90,"max":165,"target":"absent","response":"absent","rt":1359,"correct":true,"confidence":1},{"trial_n":134,"min":90,"max":165,"target":"present","response":"present","rt":1564,"correct":true,"confidence":2},{"trial_n":135,"min":91,"max":164,"target":"absent","response":"absent","rt":3033,"correct":true,"confidence":1},{"trial_n":136,"min":91,"max":164,"target":"present","response":"present","rt":2319,"correct":true,"confidence":1},{"trial_n":137,"min":92,"max":163,"target":"absent","response":"absent","rt":1439,"correct":true,"confidence":3},{"trial_n":138,"min":92,"max":163,"target":"present","response":"present","rt":1016.0000000002,"correct":true,"confidence":4},{"trial_n":139,"min":93,"max":162,"target":"absent","response":"absent","rt":1703,"correct":true,"confidence":1},{"trial_n":140,"min":93,"max":162,"target":"present","response":"present","rt":1230,"correct":true,"confidence":3}]