[{"trial_n":1,"span":8,"encoder":"16841675","distractor":"96841675","target":"present","response":"present","rt":"3786","correct":true,"confidence":-1},{"trial_n":2,"span":8,"encoder":"84458132","distractor":"84458182","target":"present","response":"absent","rt":"2782.8000000119","correct":false,"confidence":-1},{"trial_n":3,"span":6,"encoder":"003973","distractor":"003673","target":"absent","response":"present","rt":"2190.8000000119","correct":false,"confidence":-1},{"trial_n":4,"span":4,"encoder":"4670","distractor":"4570","target":"absent","response":"absent","rt":"2973.1000000238","correct":true,"confidence":-1},{"trial_n":5,"span":4,"encoder":"6593","distractor":"0593","target":"present","response":"absent","rt":"1880.3000000119","correct":false,"confidence":-1},{"trial_n":6,"span":2,"encoder":"91","distractor":"94","target":"absent","response":"absent","rt":"1695.6000000238","correct":true,"confidence":-1},{"trial_n":7,"span":2,"encoder":"84","distractor":"74","target":"absent","response":"absent","rt":"1279.5","correct":true,"confidence":-1},{"trial_n":8,"span":4,"encoder":"7791","distractor":"6791","target":"absent","response":"absent","rt":"1033","correct":true,"confidence":-1},{"trial_n":9,"span":4,"encoder":"5010","distractor":"7010","target":"absent","response":"absent","rt":"1552.0999999642","correct":true,"confidence":-1},{"trial_n":10,"span":6,"encoder":"892075","distractor":"892085","target":"present","response":"absent","rt":"1549.6000000238","correct":false,"confidence":-1},{"trial_n":11,"span":4,"encoder":"8720","distractor":"8726","target":"present","response":"present","rt":"1097","correct":true,"confidence":-1},{"trial_n":12,"span":4,"encoder":"9373","distractor":"9371","target":"present","response":"absent","rt":"1157.2999999523","correct":false,"confidence":-1},{"trial_n":13,"span":3,"encoder":"368","distractor":"363","target":"present","response":"present","rt":"775.69999998808","correct":true,"confidence":-1},{"trial_n":14,"span":3,"encoder":"723","distractor":"923","target":"present","response":"present","rt":"1213.6999999881","correct":true,"confidence":-1},{"trial_n":15,"span":4,"encoder":"5008","distractor":"5005","target":"absent","response":"absent","rt":"1688.1999999881","correct":true,"confidence":-1},{"trial_n":16,"span":4,"encoder":"0397","distractor":"0395","target":"present","response":"present","rt":"875.60000002384","correct":true,"confidence":-1},{"trial_n":17,"span":5,"encoder":"65884","distractor":"67884","target":"absent","response":"absent","rt":"1954.3000000119","correct":true,"confidence":-1},{"trial_n":18,"span":5,"encoder":"36595","distractor":"36295","target":"absent","response":"present","rt":"1225.0999999642","correct":false,"confidence":-1},{"trial_n":19,"span":4,"encoder":"5637","distractor":"9637","target":"present","response":"present","rt":"1429.6999999881","correct":true,"confidence":-1},{"trial_n":20,"span":4,"encoder":"1582","distractor":"1182","target":"absent","response":"absent","rt":"2444.1999999881","correct":true,"confidence":-1},{"trial_n":21,"span":5,"encoder":"49633","distractor":"49433","target":"absent","response":"absent","rt":"2001.5","correct":true,"confidence":5},{"trial_n":22,"span":5,"encoder":"76185","distractor":"76585","target":"present","response":"present","rt":"2268","correct":true,"confidence":5},{"trial_n":23,"span":6,"encoder":"880119","distractor":"580119","target":"absent","response":"absent","rt":"5041","correct":true,"confidence":4},{"trial_n":24,"span":6,"encoder":"962154","distractor":"962159","target":"present","response":"present","rt":"3108","correct":true,"confidence":4},{"trial_n":25,"span":7,"encoder":"7825337","distractor":"7828337","target":"present","response":"present","rt":"1922.9000000358","correct":true,"confidence":5},{"trial_n":26,"span":7,"encoder":"7824011","distractor":"8824011","target":"absent","response":"absent","rt":"3000.6000000238","correct":true,"confidence":3},{"trial_n":27,"span":8,"encoder":"25393043","distractor":"25313043","target":"present","response":"present","rt":"3011.2000000477","correct":true,"confidence":2},{"trial_n":28,"span":8,"encoder":"97919379","distractor":"97918379","target":"absent","response":"present","rt":"2473.1999999881","correct":false,"confidence":3},{"trial_n":29,"span":7,"encoder":"4631990","distractor":"4931990","target":"absent","response":"present","rt":"2733.3000000119","correct":false,"confidence":3},{"trial_n":30,"span":6,"encoder":"610429","distractor":"610469","target":"absent","response":"absent","rt":"6479.3000000119","correct":true,"confidence":2},{"trial_n":31,"span":6,"encoder":"661974","distractor":"661904","target":"present","response":"present","rt":"2125.1999999881","correct":true,"confidence":4},{"trial_n":32,"span":7,"encoder":"8648419","distractor":"8648919","target":"present","response":"present","rt":"1863.7999999523","correct":true,"confidence":3},{"trial_n":33,"span":7,"encoder":"8418167","distractor":"8418067","target":"present","response":"present","rt":"1974.5","correct":true,"confidence":5},{"trial_n":34,"span":8,"encoder":"50912098","distractor":"50912078","target":"present","response":"absent","rt":"6161.3999999762","correct":false,"confidence":3},{"trial_n":35,"span":7,"encoder":"4394169","distractor":"4396169","target":"present","response":"present","rt":"2019","correct":true,"confidence":3},{"trial_n":36,"span":7,"encoder":"5167925","distractor":"5187925","target":"present","response":"present","rt":"3002.1000000238","correct":true,"confidence":3},{"trial_n":37,"span":8,"encoder":"21134280","distractor":"31134280","target":"present","response":"present","rt":"2858.9000000358","correct":true,"confidence":3},{"trial_n":38,"span":8,"encoder":"13731005","distractor":"13731095","target":"absent","response":"present","rt":"2593","correct":false,"confidence":5},{"trial_n":39,"span":7,"encoder":"8692404","distractor":"8682404","target":"absent","response":"present","rt":"2017.5","correct":false,"confidence":2},{"trial_n":40,"span":6,"encoder":"568601","distractor":"548601","target":"present","response":"present","rt":"2226.1999999881","correct":true,"confidence":5},{"trial_n":41,"span":6,"encoder":"360398","distractor":"370398","target":"absent","response":"absent","rt":"2062.6999999881","correct":true,"confidence":5},{"trial_n":42,"span":7,"encoder":"5351506","distractor":"5351505","target":"present","response":"present","rt":"2770.6999999881","correct":true,"confidence":4},{"trial_n":43,"span":7,"encoder":"9922985","distractor":"9923985","target":"present","response":"present","rt":"2184.1999999881","correct":true,"confidence":5},{"trial_n":44,"span":8,"encoder":"84103292","distractor":"84103291","target":"present","response":"absent","rt":"5984.2999999523","correct":false,"confidence":3},{"trial_n":45,"span":7,"encoder":"4908731","distractor":"4908791","target":"present","response":"present","rt":"2878.8999999762","correct":true,"confidence":4},{"trial_n":46,"span":7,"encoder":"5448800","distractor":"6448800","target":"absent","response":"present","rt":"3657.3000000119","correct":false,"confidence":3},{"trial_n":47,"span":6,"encoder":"108856","distractor":"108756","target":"absent","response":"absent","rt":"3382.6000000238","correct":true,"confidence":2},{"trial_n":48,"span":6,"encoder":"169101","distractor":"168101","target":"present","response":"present","rt":"1327.7000000477","correct":true,"confidence":5},{"trial_n":49,"span":7,"encoder":"2008776","distractor":"2508776","target":"absent","response":"absent","rt":"7691.3000000119","correct":true,"confidence":2},{"trial_n":50,"span":7,"encoder":"9216633","distractor":"9226633","target":"absent","response":"present","rt":"2156.6000000238","correct":false,"confidence":3},{"trial_n":51,"span":6,"encoder":"241151","distractor":"241651","target":"absent","response":"present","rt":"3341.6000000238","correct":false,"confidence":2},{"trial_n":52,"span":5,"encoder":"54312","distractor":"14312","target":"present","response":"absent","rt":"3958.8999999762","correct":false,"confidence":3},{"trial_n":53,"span":4,"encoder":"6719","distractor":"6119","target":"present","response":"present","rt":"1804.3999999762","correct":true,"confidence":5},{"trial_n":54,"span":4,"encoder":"1138","distractor":"1238","target":"absent","response":"absent","rt":"1594.5999999642","correct":true,"confidence":5},{"trial_n":55,"span":5,"encoder":"56380","distractor":"26380","target":"absent","response":"absent","rt":"1558.8000000119","correct":true,"confidence":5},{"trial_n":56,"span":5,"encoder":"41253","distractor":"45253","target":"present","response":"present","rt":"1348.0999999642","correct":true,"confidence":5},{"trial_n":57,"span":6,"encoder":"102673","distractor":"107673","target":"present","response":"present","rt":"2531.2000000477","correct":true,"confidence":4},{"trial_n":58,"span":6,"encoder":"796524","distractor":"796584","target":"present","response":"present","rt":"1734.1000000238","correct":true,"confidence":4},{"trial_n":59,"span":7,"encoder":"2628600","distractor":"2628607","target":"present","response":"absent","rt":"4697","correct":false,"confidence":4},{"trial_n":60,"span":6,"encoder":"375834","distractor":"315834","target":"absent","response":"absent","rt":"1947.7000000477","correct":true,"confidence":5},{"trial_n":61,"span":6,"encoder":"366883","distractor":"766883","target":"present","response":"present","rt":"1410.1999999881","correct":true,"confidence":5},{"trial_n":62,"span":7,"encoder":"7013722","distractor":"7013720","target":"absent","response":"present","rt":"3339.6999999881","correct":false,"confidence":3},{"trial_n":63,"span":6,"encoder":"930581","distractor":"930081","target":"absent","response":"absent","rt":"10895.800000012","correct":true,"confidence":1},{"trial_n":64,"span":6,"encoder":"818767","distractor":"818867","target":"present","response":"present","rt":"2182.8000000119","correct":true,"confidence":5},{"trial_n":65,"span":7,"encoder":"7420379","distractor":"7429379","target":"absent","response":"present","rt":"3294.6000000238","correct":false,"confidence":3},{"trial_n":66,"span":6,"encoder":"947981","distractor":"987981","target":"absent","response":"present","rt":"1972.6000000238","correct":false,"confidence":4},{"trial_n":67,"span":5,"encoder":"72617","distractor":"70617","target":"absent","response":"absent","rt":"9985.8000000119","correct":true,"confidence":2},{"trial_n":68,"span":5,"encoder":"08619","distractor":"58619","target":"present","response":"present","rt":"1236.0999999642","correct":true,"confidence":5},{"trial_n":69,"span":6,"encoder":"667243","distractor":"667543","target":"absent","response":"absent","rt":"1859.6000000238","correct":true,"confidence":5},{"trial_n":70,"span":6,"encoder":"137589","distractor":"137529","target":"absent","response":"absent","rt":"2653.1999999881","correct":true,"confidence":4},{"trial_n":71,"span":8,"encoder":"53209891","distractor":"53201891","target":"present","response":"present","rt":"9663","correct":true,"confidence":-1},{"trial_n":72,"span":8,"encoder":"04011447","distractor":"04011427","target":"present","response":"present","rt":"4116.9000000358","correct":true,"confidence":-1},{"trial_n":73,"span":9,"encoder":"049704187","distractor":"049704184","target":"absent","response":"absent","rt":"2061.3999999762","correct":true,"confidence":-1},{"trial_n":74,"span":9,"encoder":"428893610","distractor":"426893610","target":"absent","response":"absent","rt":"3393.2000000477","correct":true,"confidence":-1},{"trial_n":75,"span":10,"encoder":"0516933173","distractor":"5516933173","target":"present","response":"present","rt":"1829.5","correct":true,"confidence":-1},{"trial_n":76,"span":10,"encoder":"9647668082","distractor":"9447668082","target":"absent","response":"absent","rt":"619.69999998808","correct":true,"confidence":-1},{"trial_n":77,"span":11,"encoder":"22492164938","distractor":"22492164934","target":"present","response":"present","rt":"1155.1999999881","correct":true,"confidence":-1},{"trial_n":78,"span":11,"encoder":"65087189911","distractor":"65087119911","target":"absent","response":"absent","rt":"1776.1999999881","correct":true,"confidence":-1},{"trial_n":79,"span":12,"encoder":"137157681939","distractor":"107157681939","target":"absent","response":"present","rt":"1446.1000000238","correct":false,"confidence":-1},{"trial_n":80,"span":11,"encoder":"96180958724","distractor":"96180938724","target":"present","response":"absent","rt":"2826.1999999881","correct":false,"confidence":-1},{"trial_n":81,"span":10,"encoder":"7538905119","distractor":"7537905119","target":"present","response":"present","rt":"1613.1000000238","correct":true,"confidence":-1},{"trial_n":82,"span":10,"encoder":"9405673273","distractor":"9405673073","target":"present","response":"absent","rt":"442","correct":false,"confidence":-1},{"trial_n":83,"span":9,"encoder":"640701411","distractor":"640701711","target":"present","response":"present","rt":"1978.1000000238","correct":true,"confidence":-1},{"trial_n":84,"span":9,"encoder":"786517049","distractor":"786517349","target":"present","response":"present","rt":"3873.1999999881","correct":true,"confidence":-1},{"trial_n":85,"span":10,"encoder":"3916041985","distractor":"3916041982","target":"absent","response":"absent","rt":"2152.1999999881","correct":true,"confidence":-1},{"trial_n":86,"span":10,"encoder":"4980810183","distractor":"4980810181","target":"absent","response":"present","rt":"1752","correct":false,"confidence":-1},{"trial_n":87,"span":9,"encoder":"137483586","distractor":"187483586","target":"absent","response":"absent","rt":"3499.7000000477","correct":true,"confidence":-1},{"trial_n":88,"span":9,"encoder":"930343418","distractor":"530343418","target":"absent","response":"absent","rt":"2090.7999999523","correct":true,"confidence":-1},{"trial_n":89,"span":10,"encoder":"4783324433","distractor":"4786324433","target":"present","response":"absent","rt":"2913.4000000358","correct":false,"confidence":-1},{"trial_n":90,"span":9,"encoder":"946604317","distractor":"946607317","target":"absent","response":"absent","rt":"3682","correct":true,"confidence":-1},{"trial_n":91,"span":9,"encoder":"481169604","distractor":"481161604","target":"present","response":"present","rt":"6403.5","correct":true,"confidence":3},{"trial_n":92,"span":10,"encoder":"9688014718","distractor":"9488014718","target":"present","response":"present","rt":"8260.7999999523","correct":true,"confidence":4},{"trial_n":93,"span":10,"encoder":"7848374804","distractor":"7848374814","target":"present","response":"present","rt":"6616.5999999642","correct":true,"confidence":4},{"trial_n":94,"span":11,"encoder":"35285076698","distractor":"35282076698","target":"present","response":"present","rt":"6594.9000000358","correct":true,"confidence":3},{"trial_n":95,"span":11,"encoder":"52462344982","distractor":"52465344982","target":"absent","response":"absent","rt":"10467.300000012","correct":true,"confidence":2},{"trial_n":96,"span":12,"encoder":"941424913370","distractor":"541424913370","target":"present","response":"present","rt":"5928.3999999762","correct":true,"confidence":3},{"trial_n":97,"span":12,"encoder":"659911567540","distractor":"459911567540","target":"absent","response":"absent","rt":"5655","correct":true,"confidence":3},{"trial_n":98,"span":13,"encoder":"9517736961170","distractor":"9517736964170","target":"absent","response":"absent","rt":"6682.6000000238","correct":true,"confidence":4},{"trial_n":99,"span":13,"encoder":"0031836056604","distractor":"0031839056604","target":"present","response":"present","rt":"4397.6999999881","correct":true,"confidence":4},{"trial_n":100,"span":14,"encoder":"90394710774887","distractor":"90094710774887","target":"present","response":"absent","rt":"3872.5","correct":false,"confidence":4},{"trial_n":101,"span":13,"encoder":"9786972069302","distractor":"9786972099302","target":"absent","response":"absent","rt":"5770.1999999881","correct":true,"confidence":3},{"trial_n":102,"span":13,"encoder":"2495900124587","distractor":"2495600124587","target":"present","response":"present","rt":"4522.1000000238","correct":true,"confidence":3},{"trial_n":103,"span":14,"encoder":"52622985330850","distractor":"52622985336850","target":"absent","response":"present","rt":"8582","correct":false,"confidence":3},{"trial_n":104,"span":13,"encoder":"6604295612863","distractor":"6604295632863","target":"present","response":"absent","rt":"5346.3999999762","correct":false,"confidence":2},{"trial_n":105,"span":12,"encoder":"592084273383","distractor":"592034273383","target":"present","response":"absent","rt":"5253.8000000119","correct":false,"confidence":1},{"trial_n":106,"span":11,"encoder":"74025262389","distractor":"74325262389","target":"present","response":"absent","rt":"2928.5999999642","correct":false,"confidence":1},{"trial_n":107,"span":10,"encoder":"9061391174","distractor":"9961391174","target":"present","response":"present","rt":"3012.1000000238","correct":true,"confidence":3},{"trial_n":108,"span":10,"encoder":"5624440450","distractor":"5624448450","target":"absent","response":"absent","rt":"3115.3999999762","correct":true,"confidence":3},{"trial_n":109,"span":11,"encoder":"02230334284","distractor":"02930334284","target":"absent","response":"absent","rt":"6063.3999999762","correct":true,"confidence":4},{"trial_n":110,"span":11,"encoder":"18890895536","distractor":"18890899536","target":"absent","response":"absent","rt":"5184.8000000119","correct":true,"confidence":3},{"trial_n":111,"span":12,"encoder":"671048875823","distractor":"671046875823","target":"absent","response":"present","rt":"3331.1999999881","correct":false,"confidence":3},{"trial_n":112,"span":11,"encoder":"10809842151","distractor":"10809342151","target":"absent","response":"absent","rt":"7007.3000000119","correct":true,"confidence":3},{"trial_n":113,"span":11,"encoder":"94386809208","distractor":"94386109208","target":"absent","response":"absent","rt":"6275.9000000358","correct":true,"confidence":2},{"trial_n":114,"span":12,"encoder":"915751694540","distractor":"915711694540","target":"present","response":"absent","rt":"4275.0999999642","correct":false,"confidence":2},{"trial_n":115,"span":11,"encoder":"28936908736","distractor":"28934908736","target":"present","response":"present","rt":"20710.600000024","correct":true,"confidence":2},{"trial_n":116,"span":11,"encoder":"80611103771","distractor":"80610103771","target":"absent","response":"absent","rt":"5331","correct":true,"confidence":5},{"trial_n":117,"span":12,"encoder":"761854905855","distractor":"761854505855","target":"present","response":"absent","rt":"6552.5","correct":false,"confidence":3},{"trial_n":118,"span":11,"encoder":"48668391993","distractor":"48668395993","target":"present","response":"absent","rt":"8943.0999999642","correct":false,"confidence":2},{"trial_n":119,"span":10,"encoder":"0819391285","distractor":"0819291285","target":"absent","response":"absent","rt":"5217.0999999642","correct":true,"confidence":2},{"trial_n":120,"span":10,"encoder":"9386797310","distractor":"9386797810","target":"present","response":"present","rt":"4986.1999999881","correct":true,"confidence":3},{"trial_n":121,"span":11,"encoder":"83947450116","distractor":"83947450112","target":"present","response":"absent","rt":"10337.699999988","correct":false,"confidence":3},{"trial_n":122,"span":10,"encoder":"8930800254","distractor":"8930850254","target":"absent","response":"absent","rt":"3006.2000000477","correct":true,"confidence":5},{"trial_n":123,"span":10,"encoder":"9674865674","distractor":"9624865674","target":"present","response":"present","rt":"5884.6000000238","correct":true,"confidence":2},{"trial_n":124,"span":11,"encoder":"74031806644","distractor":"74831806644","target":"present","response":"absent","rt":"4699.9000000358","correct":false,"confidence":3},{"trial_n":125,"span":10,"encoder":"7467760689","distractor":"1467760689","target":"present","response":"present","rt":"4766.6999999881","correct":true,"confidence":4},{"trial_n":126,"span":10,"encoder":"3443290944","distractor":"3443290948","target":"absent","response":"absent","rt":"5861.1999999881","correct":true,"confidence":5},{"trial_n":127,"span":11,"encoder":"36464304423","distractor":"36064304423","target":"present","response":"absent","rt":"4786.5999999642","correct":false,"confidence":4},{"trial_n":128,"span":10,"encoder":"1629260775","distractor":"1629290775","target":"present","response":"present","rt":"7088.3000000119","correct":true,"confidence":3},{"trial_n":129,"span":10,"encoder":"8688979113","distractor":"8388979113","target":"absent","response":"absent","rt":"3105.1999999881","correct":true,"confidence":4},{"trial_n":130,"span":11,"encoder":"97181949514","distractor":"97081949514","target":"absent","response":"present","rt":"17605.800000012","correct":false,"confidence":2},{"trial_n":131,"span":10,"encoder":"2363693251","distractor":"2383693251","target":"present","response":"present","rt":"2038.8999999762","correct":true,"confidence":4},{"trial_n":132,"span":10,"encoder":"7849701364","distractor":"1849701364","target":"present","response":"present","rt":"4918.6999999881","correct":true,"confidence":3},{"trial_n":133,"span":11,"encoder":"28055060885","distractor":"28055030885","target":"absent","response":"absent","rt":"3931.5","correct":true,"confidence":4},{"trial_n":134,"span":11,"encoder":"53957758102","distractor":"53957758122","target":"absent","response":"absent","rt":"5565.4000000358","correct":true,"confidence":4},{"trial_n":135,"span":12,"encoder":"250501894279","distractor":"250501894274","target":"absent","response":"absent","rt":"5624","correct":true,"confidence":3},{"trial_n":136,"span":12,"encoder":"550975626575","distractor":"550975623575","target":"absent","response":"absent","rt":"7292.3000000119","correct":true,"confidence":2},{"trial_n":137,"span":13,"encoder":"9520522905767","distractor":"9520522405767","target":"present","response":"present","rt":"33080.300000012","correct":true,"confidence":2},{"trial_n":138,"span":13,"encoder":"0724904112209","distractor":"0724904112200","target":"absent","response":"absent","rt":"9399.3999999762","correct":true,"confidence":3},{"trial_n":139,"span":14,"encoder":"81776313779456","distractor":"81776313779156","target":"absent","response":"present","rt":"8800.9000000358","correct":false,"confidence":4},{"trial_n":140,"span":13,"encoder":"9874541666470","distractor":"9894541666470","target":"absent","response":"absent","rt":"4824.6000000238","correct":true,"confidence":5}]