[{"trial_n":1,"n_dots":4.25,"target":"right","response":"left","rt":4854,"correct":false,"confidence":-1},{"trial_n":2,"n_dots":4.25,"target":"right","response":"right","rt":1561,"correct":true,"confidence":-1},{"trial_n":3,"n_dots":4.25,"target":"left","response":"left","rt":1117,"correct":true,"confidence":-1},{"trial_n":4,"n_dots":3.85,"target":"right","response":"left","rt":898.00000000001,"correct":false,"confidence":-1},{"trial_n":5,"n_dots":4.25,"target":"left","response":"left","rt":169,"correct":true,"confidence":-1},{"trial_n":6,"n_dots":4.25,"target":"left","response":"right","rt":615.00000000001,"correct":false,"confidence":-1},{"trial_n":7,"n_dots":4.65,"target":"right","response":"right","rt":354,"correct":true,"confidence":-1},{"trial_n":8,"n_dots":4.65,"target":"left","response":"left","rt":311.99999999999,"correct":true,"confidence":-1},{"trial_n":9,"n_dots":4.45,"target":"left","response":"left","rt":336,"correct":true,"confidence":-1},{"trial_n":10,"n_dots":4.45,"target":"right","response":"right","rt":405.99999999999,"correct":true,"confidence":-1},{"trial_n":11,"n_dots":4.25,"target":"right","response":"right","rt":560.00000000001,"correct":true,"confidence":-1},{"trial_n":12,"n_dots":4.25,"target":"right","response":"right","rt":313,"correct":true,"confidence":-1},{"trial_n":13,"n_dots":4.15,"target":"right","response":"left","rt":985,"correct":false,"confidence":-1},{"trial_n":14,"n_dots":4.25,"target":"left","response":"left","rt":194.00000000001,"correct":true,"confidence":-1},{"trial_n":15,"n_dots":4.25,"target":"left","response":"left","rt":93,"correct":true,"confidence":-1},{"trial_n":16,"n_dots":4.15,"target":"right","response":"right","rt":52,"correct":true,"confidence":-1},{"trial_n":17,"n_dots":4.15,"target":"right","response":"right","rt":933.00000000001,"correct":true,"confidence":-1},{"trial_n":18,"n_dots":4.05,"target":"left","response":"left","rt":125,"correct":true,"confidence":-1},{"trial_n":19,"n_dots":4.05,"target":"right","response":"right","rt":323,"correct":true,"confidence":-1},{"trial_n":20,"n_dots":3.95,"target":"right","response":"right","rt":784,"correct":true,"confidence":-1},{"trial_n":21,"n_dots":3.95,"target":"right","response":"left","rt":4051,"correct":false,"confidence":1},{"trial_n":22,"n_dots":4.05,"target":"right","response":"right","rt":134,"correct":true,"confidence":5},{"trial_n":23,"n_dots":4.05,"target":"left","response":"left","rt":413,"correct":true,"confidence":4},{"trial_n":24,"n_dots":3.95,"target":"right","response":"right","rt":540,"correct":true,"confidence":3},{"trial_n":25,"n_dots":3.95,"target":"right","response":"right","rt":1014,"correct":true,"confidence":4},{"trial_n":26,"n_dots":3.85,"target":"left","response":"left","rt":677,"correct":true,"confidence":2},{"trial_n":27,"n_dots":3.85,"target":"right","response":"right","rt":120.00000000006,"correct":true,"confidence":1},{"trial_n":28,"n_dots":3.75,"target":"left","response":"left","rt":266,"correct":true,"confidence":4},{"trial_n":29,"n_dots":3.75,"target":"left","response":"left","rt":2820.0000000001,"correct":true,"confidence":3},{"trial_n":30,"n_dots":3.65,"target":"left","response":"left","rt":644,"correct":true,"confidence":4},{"trial_n":31,"n_dots":3.65,"target":"left","response":"left","rt":403,"correct":true,"confidence":4},{"trial_n":32,"n_dots":3.55,"target":"right","response":"right","rt":288,"correct":true,"confidence":1},{"trial_n":33,"n_dots":3.55,"target":"right","response":"right","rt":175,"correct":true,"confidence":4},{"trial_n":34,"n_dots":3.45,"target":"left","response":"left","rt":129,"correct":true,"confidence":2},{"trial_n":35,"n_dots":3.45,"target":"left","response":"left","rt":224,"correct":true,"confidence":1},{"trial_n":36,"n_dots":3.35,"target":"right","response":"right","rt":4706,"correct":true,"confidence":1},{"trial_n":37,"n_dots":3.35,"target":"left","response":"right","rt":25,"correct":false,"confidence":1},{"trial_n":38,"n_dots":3.45,"target":"right","response":"right","rt":471,"correct":true,"confidence":1},{"trial_n":39,"n_dots":3.45,"target":"left","response":"left","rt":3056,"correct":true,"confidence":1},{"trial_n":40,"n_dots":3.35,"target":"left","response":"left","rt":409,"correct":true,"confidence":3},{"trial_n":41,"n_dots":3.35,"target":"right","response":"right","rt":2876,"correct":true,"confidence":3},{"trial_n":42,"n_dots":3.25,"target":"left","response":"left","rt":405,"correct":true,"confidence":1},{"trial_n":43,"n_dots":3.25,"target":"left","response":"left","rt":1525,"correct":true,"confidence":4},{"trial_n":44,"n_dots":3.15,"target":"right","response":"right","rt":400,"correct":true,"confidence":3},{"trial_n":45,"n_dots":3.15,"target":"right","response":"right","rt":362,"correct":true,"confidence":2},{"trial_n":46,"n_dots":3.05,"target":"left","response":"left","rt":890,"correct":true,"confidence":4},{"trial_n":47,"n_dots":3.05,"target":"right","response":"right","rt":386,"correct":true,"confidence":3},{"trial_n":48,"n_dots":2.95,"target":"left","response":"right","rt":455,"correct":false,"confidence":1},{"trial_n":49,"n_dots":3.05,"target":"right","response":"left","rt":7,"correct":false,"confidence":5},{"trial_n":50,"n_dots":3.15,"target":"right","response":"right","rt":354,"correct":true,"confidence":4},{"trial_n":51,"n_dots":3.15,"target":"right","response":"left","rt":1747.9999999999,"correct":false,"confidence":3},{"trial_n":52,"n_dots":3.25,"target":"right","response":"right","rt":787,"correct":true,"confidence":4},{"trial_n":53,"n_dots":3.25,"target":"left","response":"left","rt":147.99999999988,"correct":true,"confidence":5},{"trial_n":54,"n_dots":3.15,"target":"right","response":"left","rt":405.00000000012,"correct":false,"confidence":4},{"trial_n":55,"n_dots":3.25,"target":"left","response":"left","rt":364.99999999988,"correct":true,"confidence":1},{"trial_n":56,"n_dots":3.25,"target":"left","response":"left","rt":208,"correct":true,"confidence":1},{"trial_n":57,"n_dots":3.15,"target":"right","response":"right","rt":986,"correct":true,"confidence":4},{"trial_n":58,"n_dots":3.15,"target":"right","response":"left","rt":211,"correct":false,"confidence":4},{"trial_n":59,"n_dots":3.25,"target":"left","response":"left","rt":1211.0000000001,"correct":true,"confidence":4},{"trial_n":60,"n_dots":3.25,"target":"left","response":"left","rt":31,"correct":true,"confidence":5},{"trial_n":61,"n_dots":3.15,"target":"left","response":"left","rt":3048.0000000149,"correct":true,"confidence":3},{"trial_n":62,"n_dots":3.15,"target":"right","response":"right","rt":2355,"correct":true,"confidence":2},{"trial_n":63,"n_dots":3.05,"target":"left","response":"left","rt":395,"correct":true,"confidence":4},{"trial_n":64,"n_dots":3.05,"target":"left","response":"left","rt":577,"correct":true,"confidence":5},{"trial_n":65,"n_dots":2.95,"target":"right","response":"left","rt":1912.0000000149,"correct":false,"confidence":2},{"trial_n":66,"n_dots":3.05,"target":"left","response":"left","rt":773,"correct":true,"confidence":5},{"trial_n":67,"n_dots":3.05,"target":"right","response":"left","rt":696,"correct":false,"confidence":2},{"trial_n":68,"n_dots":3.15,"target":"right","response":"right","rt":4,"correct":true,"confidence":3},{"trial_n":69,"n_dots":3.15,"target":"left","response":"left","rt":496,"correct":true,"confidence":2},{"trial_n":70,"n_dots":3.05,"target":"right","response":"left","rt":267,"correct":false,"confidence":3},{"trial_n":71,"n_dots":3.15,"target":"left","response":"left","rt":790,"correct":true,"confidence":5},{"trial_n":72,"n_dots":3.15,"target":"left","response":"left","rt":1469,"correct":true,"confidence":3},{"trial_n":73,"n_dots":3.05,"target":"right","response":"left","rt":585,"correct":false,"confidence":2},{"trial_n":74,"n_dots":3.15,"target":"right","response":"right","rt":462.9999999851,"correct":true,"confidence":2},{"trial_n":75,"n_dots":3.15,"target":"left","response":"left","rt":216,"correct":true,"confidence":2},{"trial_n":76,"n_dots":3.05,"target":"right","response":"left","rt":254,"correct":false,"confidence":4},{"trial_n":77,"n_dots":3.15,"target":"left","response":"right","rt":625,"correct":false,"confidence":1},{"trial_n":78,"n_dots":3.25,"target":"right","response":"left","rt":276,"correct":false,"confidence":2},{"trial_n":79,"n_dots":3.35,"target":"right","response":"left","rt":352,"correct":false,"confidence":2},{"trial_n":80,"n_dots":3.45,"target":"right","response":"left","rt":212,"correct":false,"confidence":2},{"trial_n":81,"n_dots":3.55,"target":"left","response":"left","rt":111,"correct":true,"confidence":4},{"trial_n":82,"n_dots":3.55,"target":"right","response":"right","rt":385,"correct":true,"confidence":2},{"trial_n":83,"n_dots":3.45,"target":"left","response":"left","rt":155,"correct":true,"confidence":5},{"trial_n":84,"n_dots":3.45,"target":"right","response":"right","rt":934,"correct":true,"confidence":2},{"trial_n":85,"n_dots":3.35,"target":"left","response":"left","rt":1968,"correct":true,"confidence":4},{"trial_n":86,"n_dots":3.35,"target":"right","response":"right","rt":504,"correct":true,"confidence":4},{"trial_n":87,"n_dots":3.25,"target":"left","response":"left","rt":167,"correct":true,"confidence":4},{"trial_n":88,"n_dots":3.25,"target":"left","response":"left","rt":1052,"correct":true,"confidence":4},{"trial_n":89,"n_dots":3.15,"target":"left","response":"right","rt":2072,"correct":false,"confidence":1},{"trial_n":90,"n_dots":3.25,"target":"right","response":"right","rt":853,"correct":true,"confidence":5},{"trial_n":91,"n_dots":3.25,"target":"right","response":"left","rt":515,"correct":false,"confidence":3},{"trial_n":92,"n_dots":3.35,"target":"left","response":"left","rt":658,"correct":true,"confidence":3},{"trial_n":93,"n_dots":3.35,"target":"left","response":"left","rt":388,"correct":true,"confidence":4},{"trial_n":94,"n_dots":3.25,"target":"right","response":"right","rt":507,"correct":true,"confidence":4},{"trial_n":95,"n_dots":3.25,"target":"left","response":"left","rt":339.9999999851,"correct":true,"confidence":2},{"trial_n":96,"n_dots":3.15,"target":"left","response":"left","rt":445.0000000149,"correct":true,"confidence":3},{"trial_n":97,"n_dots":3.15,"target":"left","response":"right","rt":895,"correct":false,"confidence":4},{"trial_n":98,"n_dots":3.25,"target":"right","response":"right","rt":336,"correct":true,"confidence":4},{"trial_n":99,"n_dots":3.25,"target":"left","response":"left","rt":615,"correct":true,"confidence":4},{"trial_n":100,"n_dots":3.15,"target":"left","response":"left","rt":39,"correct":true,"confidence":4},{"trial_n":101,"n_dots":3.15,"target":"right","response":"left","rt":335,"correct":false,"confidence":4},{"trial_n":102,"n_dots":3.25,"target":"left","response":"left","rt":1390.0000000149,"correct":true,"confidence":2},{"trial_n":103,"n_dots":3.25,"target":"right","response":"left","rt":419,"correct":false,"confidence":4},{"trial_n":104,"n_dots":3.35,"target":"right","response":"right","rt":1026,"correct":true,"confidence":3},{"trial_n":105,"n_dots":3.35,"target":"left","response":"left","rt":296.0000000149,"correct":true,"confidence":4},{"trial_n":106,"n_dots":3.25,"target":"left","response":"left","rt":932.9999999851,"correct":true,"confidence":3},{"trial_n":107,"n_dots":3.25,"target":"right","response":"right","rt":672,"correct":true,"confidence":4},{"trial_n":108,"n_dots":3.15,"target":"right","response":"left","rt":980,"correct":false,"confidence":3},{"trial_n":109,"n_dots":3.25,"target":"right","response":"right","rt":363,"correct":true,"confidence":4},{"trial_n":110,"n_dots":3.25,"target":"right","response":"left","rt":379,"correct":false,"confidence":3},{"trial_n":111,"n_dots":3.35,"target":"left","response":"left","rt":205,"correct":true,"confidence":5},{"trial_n":112,"n_dots":3.35,"target":"right","response":"left","rt":282.9999999851,"correct":false,"confidence":3},{"trial_n":113,"n_dots":3.45,"target":"left","response":"right","rt":717,"correct":false,"confidence":4},{"trial_n":114,"n_dots":3.55,"target":"left","response":"left","rt":255.9999999851,"correct":true,"confidence":4},{"trial_n":115,"n_dots":3.55,"target":"left","response":"right","rt":880,"correct":false,"confidence":2},{"trial_n":116,"n_dots":3.65,"target":"left","response":"left","rt":1145,"correct":true,"confidence":4},{"trial_n":117,"n_dots":3.65,"target":"left","response":"right","rt":2099.9999999851,"correct":false,"confidence":2},{"trial_n":118,"n_dots":3.75,"target":"right","response":"left","rt":1298,"correct":false,"confidence":2},{"trial_n":119,"n_dots":3.85,"target":"left","response":"left","rt":381,"correct":true,"confidence":4},{"trial_n":120,"n_dots":3.85,"target":"right","response":"right","rt":827,"correct":true,"confidence":1}]