[{"trial_n":1,"n_dots":4.25,"target":"left","response":"left","rt":9867.4000000954,"correct":true,"confidence":-1},{"trial_n":2,"n_dots":4.25,"target":"left","response":"left","rt":1891.2999999523,"correct":true,"confidence":-1},{"trial_n":3,"n_dots":3.85,"target":"right","response":"right","rt":1950,"correct":true,"confidence":-1},{"trial_n":4,"n_dots":3.85,"target":"left","response":"left","rt":946,"correct":true,"confidence":-1},{"trial_n":5,"n_dots":3.45,"target":"right","response":"right","rt":516.79999995232,"correct":true,"confidence":-1},{"trial_n":6,"n_dots":3.45,"target":"right","response":"right","rt":73.5,"correct":true,"confidence":-1},{"trial_n":7,"n_dots":3.05,"target":"right","response":"right","rt":516.79999995232,"correct":true,"confidence":-1},{"trial_n":8,"n_dots":3.05,"target":"right","response":"right","rt":104.79999995232,"correct":true,"confidence":-1},{"trial_n":9,"n_dots":2.85,"target":"left","response":"left","rt":105,"correct":true,"confidence":-1},{"trial_n":10,"n_dots":2.85,"target":"right","response":"left","rt":100.10000014305,"correct":false,"confidence":-1},{"trial_n":11,"n_dots":3.05,"target":"left","response":"right","rt":382.10000014305,"correct":false,"confidence":-1},{"trial_n":12,"n_dots":3.25,"target":"right","response":"right","rt":1233.0999999046,"correct":true,"confidence":-1},{"trial_n":13,"n_dots":3.25,"target":"left","response":"left","rt":382.59999990463,"correct":true,"confidence":-1},{"trial_n":14,"n_dots":3.15,"target":"left","response":"left","rt":495.5,"correct":true,"confidence":-1},{"trial_n":15,"n_dots":3.15,"target":"right","response":"left","rt":289.79999995232,"correct":false,"confidence":-1},{"trial_n":16,"n_dots":3.25,"target":"right","response":"left","rt":287,"correct":false,"confidence":-1},{"trial_n":17,"n_dots":3.35,"target":"right","response":"right","rt":64.900000095367,"correct":true,"confidence":-1},{"trial_n":18,"n_dots":3.35,"target":"left","response":"left","rt":138.70000004768,"correct":true,"confidence":-1},{"trial_n":19,"n_dots":3.25,"target":"left","response":"left","rt":43.899999856949,"correct":true,"confidence":-1},{"trial_n":20,"n_dots":3.25,"target":"left","response":"left","rt":171.09999990463,"correct":true,"confidence":-1},{"trial_n":21,"n_dots":3.15,"target":"right","response":"right","rt":518.90000009537,"correct":true,"confidence":5},{"trial_n":22,"n_dots":3.15,"target":"left","response":"left","rt":280.40000009537,"correct":true,"confidence":4},{"trial_n":23,"n_dots":3.05,"target":"right","response":"right","rt":1675.8999998569,"correct":true,"confidence":3},{"trial_n":24,"n_dots":3.05,"target":"left","response":"left","rt":422.5,"correct":true,"confidence":3},{"trial_n":25,"n_dots":2.95,"target":"left","response":"left","rt":409.5,"correct":true,"confidence":4},{"trial_n":26,"n_dots":2.95,"target":"left","response":"left","rt":585.40000009537,"correct":true,"confidence":4},{"trial_n":27,"n_dots":2.85,"target":"right","response":"right","rt":1054.1999998093,"correct":true,"confidence":4},{"trial_n":28,"n_dots":2.85,"target":"right","response":"right","rt":610.89999985695,"correct":true,"confidence":4},{"trial_n":29,"n_dots":2.75,"target":"right","response":"right","rt":188.19999980927,"correct":true,"confidence":4},{"trial_n":30,"n_dots":2.75,"target":"right","response":"right","rt":4627.3000001907,"correct":true,"confidence":4},{"trial_n":31,"n_dots":2.65,"target":"left","response":"left","rt":2250.3000001907,"correct":true,"confidence":4},{"trial_n":32,"n_dots":2.65,"target":"right","response":"right","rt":762.20000004768,"correct":true,"confidence":3},{"trial_n":33,"n_dots":2.55,"target":"left","response":"left","rt":336.10000014305,"correct":true,"confidence":4},{"trial_n":34,"n_dots":2.55,"target":"left","response":"left","rt":1420.8999998569,"correct":true,"confidence":4},{"trial_n":35,"n_dots":2.45,"target":"right","response":"right","rt":160,"correct":true,"confidence":4},{"trial_n":36,"n_dots":2.45,"target":"right","response":"left","rt":211.5,"correct":false,"confidence":3},{"trial_n":37,"n_dots":2.55,"target":"left","response":"left","rt":259,"correct":true,"confidence":4},{"trial_n":38,"n_dots":2.55,"target":"left","response":"left","rt":218.89999985695,"correct":true,"confidence":3},{"trial_n":39,"n_dots":2.45,"target":"right","response":"right","rt":216.79999995232,"correct":true,"confidence":3},{"trial_n":40,"n_dots":2.45,"target":"left","response":"left","rt":46,"correct":true,"confidence":3},{"trial_n":41,"n_dots":2.35,"target":"left","response":"left","rt":1074.7999999523,"correct":true,"confidence":3},{"trial_n":42,"n_dots":2.35,"target":"right","response":"left","rt":947,"correct":false,"confidence":3},{"trial_n":43,"n_dots":2.45,"target":"right","response":"right","rt":518.09999990463,"correct":true,"confidence":3},{"trial_n":44,"n_dots":2.45,"target":"left","response":"left","rt":210.80000019073,"correct":true,"confidence":3},{"trial_n":45,"n_dots":2.35,"target":"left","response":"left","rt":-0.90000009536743,"correct":true,"confidence":3},{"trial_n":46,"n_dots":2.35,"target":"right","response":"right","rt":831.5,"correct":true,"confidence":3},{"trial_n":47,"n_dots":2.25,"target":"left","response":"left","rt":701.5,"correct":true,"confidence":4},{"trial_n":48,"n_dots":2.25,"target":"right","response":"left","rt":557.29999995232,"correct":false,"confidence":4},{"trial_n":49,"n_dots":2.35,"target":"left","response":"left","rt":1883.0999999046,"correct":true,"confidence":4},{"trial_n":50,"n_dots":2.35,"target":"right","response":"left","rt":1030.7999999523,"correct":false,"confidence":4},{"trial_n":51,"n_dots":2.45,"target":"right","response":"left","rt":598,"correct":false,"confidence":3},{"trial_n":52,"n_dots":2.55,"target":"left","response":"right","rt":974.29999995232,"correct":false,"confidence":3},{"trial_n":53,"n_dots":2.65,"target":"left","response":"left","rt":338.5,"correct":true,"confidence":4},{"trial_n":54,"n_dots":2.65,"target":"left","response":"left","rt":247.5,"correct":true,"confidence":4},{"trial_n":55,"n_dots":2.55,"target":"right","response":"left","rt":284.59999990463,"correct":false,"confidence":3},{"trial_n":56,"n_dots":2.65,"target":"left","response":"right","rt":1850.7000000477,"correct":false,"confidence":3},{"trial_n":57,"n_dots":2.75,"target":"left","response":"right","rt":1575.2999999523,"correct":false,"confidence":4},{"trial_n":58,"n_dots":2.85,"target":"right","response":"right","rt":961.70000004768,"correct":true,"confidence":3},{"trial_n":59,"n_dots":2.85,"target":"right","response":"right","rt":503.40000009537,"correct":true,"confidence":4},{"trial_n":60,"n_dots":2.75,"target":"right","response":"right","rt":2115.5,"correct":true,"confidence":4},{"trial_n":61,"n_dots":2.75,"target":"right","response":"right","rt":1408.5999999046,"correct":true,"confidence":4},{"trial_n":62,"n_dots":2.65,"target":"right","response":"left","rt":1387.7999999523,"correct":false,"confidence":2},{"trial_n":63,"n_dots":2.75,"target":"right","response":"right","rt":1249.5999999046,"correct":true,"confidence":2},{"trial_n":64,"n_dots":2.75,"target":"right","response":"right","rt":486.30000019073,"correct":true,"confidence":3},{"trial_n":65,"n_dots":2.65,"target":"left","response":"left","rt":2495.2000000477,"correct":true,"confidence":3},{"trial_n":66,"n_dots":2.65,"target":"right","response":"left","rt":624.89999985695,"correct":false,"confidence":3},{"trial_n":67,"n_dots":2.75,"target":"right","response":"right","rt":685.80000019073,"correct":true,"confidence":4},{"trial_n":68,"n_dots":2.75,"target":"left","response":"right","rt":657,"correct":false,"confidence":3},{"trial_n":69,"n_dots":2.85,"target":"left","response":"right","rt":954.59999990463,"correct":false,"confidence":3},{"trial_n":70,"n_dots":2.95,"target":"left","response":"right","rt":813,"correct":false,"confidence":3},{"trial_n":71,"n_dots":3.05,"target":"right","response":"right","rt":562.70000004768,"correct":true,"confidence":4},{"trial_n":72,"n_dots":3.05,"target":"left","response":"left","rt":992.89999985695,"correct":true,"confidence":5},{"trial_n":73,"n_dots":2.95,"target":"right","response":"left","rt":2873.2999999523,"correct":false,"confidence":1},{"trial_n":74,"n_dots":3.05,"target":"right","response":"right","rt":849.59999990463,"correct":true,"confidence":4},{"trial_n":75,"n_dots":3.05,"target":"left","response":"left","rt":1293.1000001431,"correct":true,"confidence":3},{"trial_n":76,"n_dots":2.95,"target":"right","response":"left","rt":1996.6999998093,"correct":false,"confidence":4},{"trial_n":77,"n_dots":3.05,"target":"right","response":"right","rt":1110.2999999523,"correct":true,"confidence":4},{"trial_n":78,"n_dots":3.05,"target":"right","response":"right","rt":708.5,"correct":true,"confidence":4},{"trial_n":79,"n_dots":2.95,"target":"right","response":"right","rt":811.5,"correct":true,"confidence":3},{"trial_n":80,"n_dots":2.95,"target":"right","response":"right","rt":1778.4000000954,"correct":true,"confidence":3},{"trial_n":81,"n_dots":2.85,"target":"left","response":"right","rt":3531.0999999046,"correct":false,"confidence":1},{"trial_n":82,"n_dots":2.95,"target":"right","response":"right","rt":389.09999990463,"correct":true,"confidence":4},{"trial_n":83,"n_dots":2.95,"target":"right","response":"left","rt":964.59999990463,"correct":false,"confidence":3},{"trial_n":84,"n_dots":3.05,"target":"left","response":"left","rt":875,"correct":true,"confidence":3},{"trial_n":85,"n_dots":3.05,"target":"left","response":"left","rt":557.09999990463,"correct":true,"confidence":3},{"trial_n":86,"n_dots":2.95,"target":"left","response":"left","rt":1277,"correct":true,"confidence":4},{"trial_n":87,"n_dots":2.95,"target":"right","response":"left","rt":1082.7999999523,"correct":false,"confidence":3},{"trial_n":88,"n_dots":3.05,"target":"right","response":"left","rt":592,"correct":false,"confidence":3},{"trial_n":89,"n_dots":3.15,"target":"right","response":"left","rt":752.40000009537,"correct":false,"confidence":3},{"trial_n":90,"n_dots":3.25,"target":"left","response":"left","rt":1010.1000001431,"correct":true,"confidence":3},{"trial_n":91,"n_dots":3.25,"target":"left","response":"left","rt":1232.5,"correct":true,"confidence":3},{"trial_n":92,"n_dots":3.15,"target":"right","response":"left","rt":567.5,"correct":false,"confidence":4},{"trial_n":93,"n_dots":3.25,"target":"right","response":"right","rt":819.90000009537,"correct":true,"confidence":4},{"trial_n":94,"n_dots":3.25,"target":"left","response":"left","rt":15455.099999905,"correct":true,"confidence":1},{"trial_n":95,"n_dots":3.15,"target":"left","response":"left","rt":343.79999995232,"correct":true,"confidence":4},{"trial_n":96,"n_dots":3.15,"target":"right","response":"right","rt":4111,"correct":true,"confidence":3},{"trial_n":97,"n_dots":3.05,"target":"left","response":"left","rt":425.09999990463,"correct":true,"confidence":4},{"trial_n":98,"n_dots":3.05,"target":"left","response":"right","rt":579.29999995232,"correct":false,"confidence":3},{"trial_n":99,"n_dots":3.15,"target":"left","response":"left","rt":1090,"correct":true,"confidence":4},{"trial_n":100,"n_dots":3.15,"target":"left","response":"left","rt":1313.5999999046,"correct":true,"confidence":3},{"trial_n":101,"n_dots":3.05,"target":"left","response":"left","rt":220.20000004768,"correct":true,"confidence":3},{"trial_n":102,"n_dots":3.05,"target":"left","response":"left","rt":2012.2000000477,"correct":true,"confidence":1},{"trial_n":103,"n_dots":2.95,"target":"right","response":"left","rt":907.29999995232,"correct":false,"confidence":4},{"trial_n":104,"n_dots":3.05,"target":"left","response":"left","rt":405.80000019073,"correct":true,"confidence":4},{"trial_n":105,"n_dots":3.05,"target":"right","response":"right","rt":458,"correct":true,"confidence":4},{"trial_n":106,"n_dots":2.95,"target":"left","response":"left","rt":743.59999990463,"correct":true,"confidence":3},{"trial_n":107,"n_dots":2.95,"target":"right","response":"right","rt":1366.9000000954,"correct":true,"confidence":3},{"trial_n":108,"n_dots":2.85,"target":"left","response":"left","rt":1977.2000000477,"correct":true,"confidence":4},{"trial_n":109,"n_dots":2.85,"target":"left","response":"left","rt":1661.6999998093,"correct":true,"confidence":4},{"trial_n":110,"n_dots":2.75,"target":"right","response":"left","rt":491.89999985695,"correct":false,"confidence":4},{"trial_n":111,"n_dots":2.85,"target":"left","response":"left","rt":1545.5,"correct":true,"confidence":4},{"trial_n":112,"n_dots":2.85,"target":"left","response":"left","rt":509.90000009537,"correct":true,"confidence":4},{"trial_n":113,"n_dots":2.75,"target":"right","response":"left","rt":713.20000004768,"correct":false,"confidence":4},{"trial_n":114,"n_dots":2.85,"target":"left","response":"left","rt":984.29999995232,"correct":true,"confidence":4},{"trial_n":115,"n_dots":2.85,"target":"left","response":"left","rt":528,"correct":true,"confidence":4},{"trial_n":116,"n_dots":2.75,"target":"left","response":"left","rt":817.20000004768,"correct":true,"confidence":4},{"trial_n":117,"n_dots":2.75,"target":"right","response":"right","rt":860.79999995232,"correct":true,"confidence":3},{"trial_n":118,"n_dots":2.65,"target":"right","response":"left","rt":3623.5999999046,"correct":false,"confidence":1},{"trial_n":119,"n_dots":2.75,"target":"right","response":"right","rt":785.59999990463,"correct":true,"confidence":4},{"trial_n":120,"n_dots":2.75,"target":"left","response":"left","rt":997.90000009537,"correct":true,"confidence":4}]