[{"trial_n":1,"n_dots":4.25,"target":"left","response":"left","rt":6287,"correct":true,"confidence":-1},{"trial_n":2,"n_dots":4.25,"target":"right","response":"left","rt":974.5,"correct":false,"confidence":-1},{"trial_n":3,"n_dots":4.65,"target":"right","response":"right","rt":1686.3000000715,"correct":true,"confidence":-1},{"trial_n":4,"n_dots":4.65,"target":"left","response":"left","rt":455,"correct":true,"confidence":-1},{"trial_n":5,"n_dots":4.25,"target":"right","response":"right","rt":310.19999992847,"correct":true,"confidence":-1},{"trial_n":6,"n_dots":4.25,"target":"right","response":"left","rt":1228.2000000477,"correct":false,"confidence":-1},{"trial_n":7,"n_dots":4.65,"target":"left","response":"right","rt":1059.1000000238,"correct":false,"confidence":-1},{"trial_n":8,"n_dots":4.85,"target":"right","response":"right","rt":227.89999997616,"correct":true,"confidence":-1},{"trial_n":9,"n_dots":4.85,"target":"right","response":"right","rt":4.2999999523163,"correct":true,"confidence":-1},{"trial_n":10,"n_dots":4.65,"target":"right","response":"right","rt":489.39999997616,"correct":true,"confidence":-1},{"trial_n":11,"n_dots":4.65,"target":"left","response":"left","rt":101.89999997616,"correct":true,"confidence":-1},{"trial_n":12,"n_dots":4.45,"target":"right","response":"right","rt":1995.8999999762,"correct":true,"confidence":-1},{"trial_n":13,"n_dots":4.45,"target":"right","response":"right","rt":666,"correct":true,"confidence":-1},{"trial_n":14,"n_dots":4.35,"target":"right","response":"left","rt":472.39999997616,"correct":false,"confidence":-1},{"trial_n":15,"n_dots":4.45,"target":"left","response":"left","rt":186.79999995232,"correct":true,"confidence":-1},{"trial_n":16,"n_dots":4.45,"target":"right","response":"right","rt":472.20000004768,"correct":true,"confidence":-1},{"trial_n":17,"n_dots":4.35,"target":"right","response":"right","rt":439.60000002384,"correct":true,"confidence":-1},{"trial_n":18,"n_dots":4.35,"target":"left","response":"left","rt":176.10000002384,"correct":true,"confidence":-1},{"trial_n":19,"n_dots":4.25,"target":"right","response":"right","rt":9.3999999761581,"correct":true,"confidence":-1},{"trial_n":20,"n_dots":4.25,"target":"left","response":"left","rt":41.5,"correct":true,"confidence":-1},{"trial_n":21,"n_dots":4.15,"target":"right","response":"right","rt":217.39999997616,"correct":true,"confidence":4},{"trial_n":22,"n_dots":4.15,"target":"left","response":"left","rt":43.199999928474,"correct":true,"confidence":5},{"trial_n":23,"n_dots":4.05,"target":"right","response":"right","rt":540.5,"correct":true,"confidence":3},{"trial_n":24,"n_dots":4.05,"target":"right","response":"left","rt":217.59999990463,"correct":false,"confidence":1},{"trial_n":25,"n_dots":4.15,"target":"left","response":"left","rt":493.79999995232,"correct":true,"confidence":3},{"trial_n":26,"n_dots":4.15,"target":"left","response":"right","rt":1980.7999999523,"correct":false,"confidence":3},{"trial_n":27,"n_dots":4.25,"target":"right","response":"right","rt":1269.6000000238,"correct":true,"confidence":3},{"trial_n":28,"n_dots":4.25,"target":"left","response":"left","rt":896.30000007153,"correct":true,"confidence":3},{"trial_n":29,"n_dots":4.15,"target":"right","response":"right","rt":706.5,"correct":true,"confidence":4},{"trial_n":30,"n_dots":4.15,"target":"right","response":"left","rt":874.70000004768,"correct":false,"confidence":3},{"trial_n":31,"n_dots":4.25,"target":"left","response":"left","rt":507.79999995232,"correct":true,"confidence":4},{"trial_n":32,"n_dots":4.25,"target":"left","response":"left","rt":1439.8999999762,"correct":true,"confidence":4},{"trial_n":33,"n_dots":4.15,"target":"left","response":"left","rt":822.5,"correct":true,"confidence":5},{"trial_n":34,"n_dots":4.15,"target":"left","response":"left","rt":385.40000009537,"correct":true,"confidence":4},{"trial_n":35,"n_dots":4.05,"target":"left","response":"left","rt":2165.5,"correct":true,"confidence":4},{"trial_n":36,"n_dots":4.05,"target":"right","response":"right","rt":612.10000002384,"correct":true,"confidence":5},{"trial_n":37,"n_dots":3.95,"target":"left","response":"left","rt":1371.2000000477,"correct":true,"confidence":4},{"trial_n":38,"n_dots":3.95,"target":"left","response":"left","rt":534,"correct":true,"confidence":5},{"trial_n":39,"n_dots":3.85,"target":"right","response":"right","rt":773.19999992847,"correct":true,"confidence":4},{"trial_n":40,"n_dots":3.85,"target":"right","response":"right","rt":798.10000002384,"correct":true,"confidence":5},{"trial_n":41,"n_dots":3.75,"target":"left","response":"left","rt":2238.3999999762,"correct":true,"confidence":5},{"trial_n":42,"n_dots":3.75,"target":"left","response":"left","rt":405.69999992847,"correct":true,"confidence":4},{"trial_n":43,"n_dots":3.65,"target":"left","response":"left","rt":375.89999997616,"correct":true,"confidence":4},{"trial_n":44,"n_dots":3.65,"target":"right","response":"right","rt":1163.3999999762,"correct":true,"confidence":3},{"trial_n":45,"n_dots":3.55,"target":"left","response":"left","rt":2499.6999999285,"correct":true,"confidence":2},{"trial_n":46,"n_dots":3.55,"target":"right","response":"right","rt":338.69999992847,"correct":true,"confidence":4},{"trial_n":47,"n_dots":3.45,"target":"right","response":"right","rt":1612.9000000954,"correct":true,"confidence":1},{"trial_n":48,"n_dots":3.45,"target":"left","response":"left","rt":1648.8999999762,"correct":true,"confidence":3},{"trial_n":49,"n_dots":3.35,"target":"right","response":"left","rt":371.89999997616,"correct":false,"confidence":3},{"trial_n":50,"n_dots":3.45,"target":"left","response":"left","rt":564,"correct":true,"confidence":3},{"trial_n":51,"n_dots":3.45,"target":"left","response":"right","rt":1505.6999999285,"correct":false,"confidence":2},{"trial_n":52,"n_dots":3.55,"target":"right","response":"right","rt":1188,"correct":true,"confidence":4},{"trial_n":53,"n_dots":3.55,"target":"left","response":"left","rt":2276.1000000238,"correct":true,"confidence":1},{"trial_n":54,"n_dots":3.45,"target":"left","response":"left","rt":3652.7000000477,"correct":true,"confidence":1},{"trial_n":55,"n_dots":3.45,"target":"left","response":"right","rt":3977.5,"correct":false,"confidence":3},{"trial_n":56,"n_dots":3.55,"target":"left","response":"left","rt":1314,"correct":true,"confidence":2},{"trial_n":57,"n_dots":3.55,"target":"left","response":"left","rt":3463.7999999523,"correct":true,"confidence":1},{"trial_n":58,"n_dots":3.45,"target":"left","response":"left","rt":1266.1999999285,"correct":true,"confidence":4},{"trial_n":59,"n_dots":3.45,"target":"left","response":"left","rt":621.29999995232,"correct":true,"confidence":3},{"trial_n":60,"n_dots":3.35,"target":"right","response":"right","rt":969.5,"correct":true,"confidence":4},{"trial_n":61,"n_dots":3.35,"target":"left","response":"right","rt":1569.1000000238,"correct":false,"confidence":3},{"trial_n":62,"n_dots":3.45,"target":"right","response":"left","rt":2590,"correct":false,"confidence":2},{"trial_n":63,"n_dots":3.55,"target":"left","response":"left","rt":806.40000009537,"correct":true,"confidence":3},{"trial_n":64,"n_dots":3.55,"target":"right","response":"right","rt":1912,"correct":true,"confidence":3},{"trial_n":65,"n_dots":3.45,"target":"right","response":"right","rt":22063.799999952,"correct":true,"confidence":3},{"trial_n":66,"n_dots":3.45,"target":"left","response":"left","rt":721.89999997616,"correct":true,"confidence":3},{"trial_n":67,"n_dots":3.35,"target":"left","response":"left","rt":553.80000007153,"correct":true,"confidence":3},{"trial_n":68,"n_dots":3.35,"target":"right","response":"right","rt":663.79999995232,"correct":true,"confidence":3},{"trial_n":69,"n_dots":3.25,"target":"right","response":"right","rt":202.20000004768,"correct":true,"confidence":5},{"trial_n":70,"n_dots":3.25,"target":"right","response":"right","rt":1586.5999999046,"correct":true,"confidence":3},{"trial_n":71,"n_dots":3.15,"target":"left","response":"left","rt":598.89999997616,"correct":true,"confidence":3},{"trial_n":72,"n_dots":3.15,"target":"right","response":"right","rt":1399.7000000477,"correct":true,"confidence":1},{"trial_n":73,"n_dots":3.05,"target":"left","response":"right","rt":1159.2000000477,"correct":false,"confidence":1},{"trial_n":74,"n_dots":3.15,"target":"right","response":"left","rt":1066.7999999523,"correct":false,"confidence":1},{"trial_n":75,"n_dots":3.25,"target":"left","response":"left","rt":177.20000004768,"correct":true,"confidence":3},{"trial_n":76,"n_dots":3.25,"target":"right","response":"right","rt":295,"correct":true,"confidence":2},{"trial_n":77,"n_dots":3.15,"target":"right","response":"right","rt":548.59999990463,"correct":true,"confidence":2},{"trial_n":78,"n_dots":3.15,"target":"right","response":"left","rt":910.70000004768,"correct":false,"confidence":1},{"trial_n":79,"n_dots":3.25,"target":"right","response":"right","rt":206.89999997616,"correct":true,"confidence":1},{"trial_n":80,"n_dots":3.25,"target":"right","response":"left","rt":656.80000007153,"correct":false,"confidence":1},{"trial_n":81,"n_dots":3.35,"target":"left","response":"left","rt":320.10000002384,"correct":true,"confidence":3},{"trial_n":82,"n_dots":3.35,"target":"right","response":"right","rt":294.29999995232,"correct":true,"confidence":3},{"trial_n":83,"n_dots":3.25,"target":"left","response":"left","rt":163.39999997616,"correct":true,"confidence":2},{"trial_n":84,"n_dots":3.25,"target":"right","response":"left","rt":882.39999997616,"correct":false,"confidence":1},{"trial_n":85,"n_dots":3.35,"target":"right","response":"left","rt":701.5,"correct":false,"confidence":1},{"trial_n":86,"n_dots":3.45,"target":"right","response":"right","rt":368.69999992847,"correct":true,"confidence":1},{"trial_n":87,"n_dots":3.45,"target":"left","response":"left","rt":563.69999992847,"correct":true,"confidence":2},{"trial_n":88,"n_dots":3.35,"target":"right","response":"right","rt":125.89999997616,"correct":true,"confidence":3},{"trial_n":89,"n_dots":3.35,"target":"left","response":"left","rt":203.70000004768,"correct":true,"confidence":4},{"trial_n":90,"n_dots":3.25,"target":"right","response":"right","rt":418.79999995232,"correct":true,"confidence":4},{"trial_n":91,"n_dots":3.25,"target":"right","response":"left","rt":134.39999997616,"correct":false,"confidence":4},{"trial_n":92,"n_dots":3.35,"target":"right","response":"right","rt":386.80000007153,"correct":true,"confidence":2},{"trial_n":93,"n_dots":3.35,"target":"left","response":"left","rt":144.5,"correct":true,"confidence":4},{"trial_n":94,"n_dots":3.25,"target":"left","response":"left","rt":22.899999976158,"correct":true,"confidence":5},{"trial_n":95,"n_dots":3.25,"target":"left","response":"left","rt":77.600000023842,"correct":true,"confidence":5},{"trial_n":96,"n_dots":3.15,"target":"left","response":"left","rt":2.2000000476837,"correct":true,"confidence":5},{"trial_n":97,"n_dots":3.15,"target":"right","response":"left","rt":211.29999995232,"correct":false,"confidence":5},{"trial_n":98,"n_dots":3.25,"target":"left","response":"left","rt":689.79999995232,"correct":true,"confidence":3},{"trial_n":99,"n_dots":3.25,"target":"left","response":"left","rt":401.20000004768,"correct":true,"confidence":4},{"trial_n":100,"n_dots":3.15,"target":"right","response":"right","rt":687.10000002384,"correct":true,"confidence":4},{"trial_n":101,"n_dots":3.15,"target":"left","response":"left","rt":694.29999995232,"correct":true,"confidence":3},{"trial_n":102,"n_dots":3.05,"target":"left","response":"left","rt":251,"correct":true,"confidence":3},{"trial_n":103,"n_dots":3.05,"target":"right","response":"left","rt":42827.299999952,"correct":false,"confidence":3},{"trial_n":104,"n_dots":3.15,"target":"right","response":"right","rt":1611.2999999523,"correct":true,"confidence":2},{"trial_n":105,"n_dots":3.15,"target":"right","response":"left","rt":744.59999990463,"correct":false,"confidence":3},{"trial_n":106,"n_dots":3.25,"target":"right","response":"left","rt":640,"correct":false,"confidence":2},{"trial_n":107,"n_dots":3.35,"target":"left","response":"left","rt":106.89999997616,"correct":true,"confidence":5},{"trial_n":108,"n_dots":3.35,"target":"right","response":"left","rt":324,"correct":false,"confidence":1},{"trial_n":109,"n_dots":3.45,"target":"left","response":"left","rt":208.69999992847,"correct":true,"confidence":3},{"trial_n":110,"n_dots":3.45,"target":"left","response":"left","rt":686.19999992847,"correct":true,"confidence":3},{"trial_n":111,"n_dots":3.35,"target":"left","response":"left","rt":692.10000002384,"correct":true,"confidence":4},{"trial_n":112,"n_dots":3.35,"target":"left","response":"left","rt":519.20000004768,"correct":true,"confidence":4},{"trial_n":113,"n_dots":3.25,"target":"left","response":"left","rt":624.30000007153,"correct":true,"confidence":4},{"trial_n":114,"n_dots":3.25,"target":"right","response":"left","rt":331.10000002384,"correct":false,"confidence":3},{"trial_n":115,"n_dots":3.35,"target":"right","response":"right","rt":270.70000004768,"correct":true,"confidence":1},{"trial_n":116,"n_dots":3.35,"target":"right","response":"right","rt":187.70000004768,"correct":true,"confidence":5},{"trial_n":117,"n_dots":3.25,"target":"left","response":"left","rt":121.89999997616,"correct":true,"confidence":4},{"trial_n":118,"n_dots":3.25,"target":"left","response":"right","rt":465.39999997616,"correct":false,"confidence":1},{"trial_n":119,"n_dots":3.35,"target":"left","response":"left","rt":419.29999995232,"correct":true,"confidence":5},{"trial_n":120,"n_dots":3.35,"target":"right","response":"left","rt":176.70000004768,"correct":false,"confidence":5}]