[{"trial_n":1,"span":8,"encoder":"81083892","distractor":"21083892","target":"present","response":"present","rt":"7045","correct":true,"confidence":-1},{"trial_n":2,"span":8,"encoder":"16298468","distractor":"16998468","target":"present","response":"absent","rt":"3783.9999999999","correct":false,"confidence":-1},{"trial_n":3,"span":6,"encoder":"895898","distractor":"495898","target":"absent","response":"present","rt":"2005","correct":false,"confidence":-1},{"trial_n":4,"span":4,"encoder":"8730","distractor":"8739","target":"absent","response":"absent","rt":"1538.9999999999","correct":true,"confidence":-1},{"trial_n":5,"span":4,"encoder":"4631","distractor":"9631","target":"present","response":"present","rt":"1341","correct":true,"confidence":-1},{"trial_n":6,"span":6,"encoder":"799517","distractor":"799510","target":"present","response":"absent","rt":"4306","correct":false,"confidence":-1},{"trial_n":7,"span":4,"encoder":"8122","distractor":"4122","target":"absent","response":"absent","rt":"1786","correct":true,"confidence":-1},{"trial_n":8,"span":4,"encoder":"7483","distractor":"7283","target":"absent","response":"absent","rt":"2882","correct":true,"confidence":-1},{"trial_n":9,"span":6,"encoder":"107395","distractor":"007395","target":"present","response":"present","rt":"2860.9999999999","correct":true,"confidence":-1},{"trial_n":10,"span":6,"encoder":"529281","distractor":"429281","target":"present","response":"present","rt":"2721","correct":true,"confidence":-1},{"trial_n":11,"span":8,"encoder":"93470809","distractor":"93472809","target":"absent","response":"present","rt":"1161","correct":false,"confidence":-1},{"trial_n":12,"span":7,"encoder":"0007428","distractor":"3007428","target":"absent","response":"absent","rt":"2092","correct":true,"confidence":-1},{"trial_n":13,"span":7,"encoder":"0723301","distractor":"0721301","target":"present","response":"present","rt":"1433","correct":true,"confidence":-1},{"trial_n":14,"span":8,"encoder":"44253462","distractor":"44257462","target":"absent","response":"present","rt":"2539","correct":false,"confidence":-1},{"trial_n":15,"span":7,"encoder":"5169716","distractor":"5161716","target":"absent","response":"present","rt":"2461","correct":false,"confidence":-1},{"trial_n":16,"span":6,"encoder":"389713","distractor":"369713","target":"absent","response":"present","rt":"2191","correct":false,"confidence":-1},{"trial_n":17,"span":5,"encoder":"73319","distractor":"73019","target":"present","response":"present","rt":"4534","correct":true,"confidence":-1},{"trial_n":18,"span":5,"encoder":"16079","distractor":"16076","target":"present","response":"present","rt":"949","correct":true,"confidence":-1},{"trial_n":19,"span":6,"encoder":"413827","distractor":"413927","target":"present","response":"present","rt":"1239","correct":true,"confidence":-1},{"trial_n":20,"span":6,"encoder":"866733","distractor":"666733","target":"present","response":"present","rt":"834","correct":true,"confidence":-1},{"trial_n":21,"span":7,"encoder":"7204417","distractor":"9204417","target":"absent","response":"present","rt":"1690","correct":false,"confidence":4},{"trial_n":22,"span":6,"encoder":"176132","distractor":"136132","target":"present","response":"absent","rt":"3300","correct":false,"confidence":4},{"trial_n":23,"span":5,"encoder":"04695","distractor":"04690","target":"absent","response":"absent","rt":"4394","correct":true,"confidence":5},{"trial_n":24,"span":5,"encoder":"75883","distractor":"25883","target":"absent","response":"absent","rt":"3300.9999999999","correct":true,"confidence":5},{"trial_n":25,"span":6,"encoder":"257952","distractor":"251952","target":"present","response":"present","rt":"3384","correct":true,"confidence":5},{"trial_n":26,"span":6,"encoder":"868007","distractor":"898007","target":"present","response":"present","rt":"4658","correct":true,"confidence":5},{"trial_n":27,"span":7,"encoder":"3322157","distractor":"3322159","target":"absent","response":"absent","rt":"3402","correct":true,"confidence":5},{"trial_n":28,"span":7,"encoder":"2782611","distractor":"2781611","target":"present","response":"absent","rt":"8163","correct":false,"confidence":3},{"trial_n":29,"span":6,"encoder":"358278","distractor":"356278","target":"absent","response":"absent","rt":"4107","correct":true,"confidence":5},{"trial_n":30,"span":6,"encoder":"138276","distractor":"138274","target":"absent","response":"absent","rt":"4905.0000000001","correct":true,"confidence":5},{"trial_n":31,"span":7,"encoder":"0317434","distractor":"0337434","target":"present","response":"present","rt":"4592","correct":true,"confidence":5},{"trial_n":32,"span":7,"encoder":"5427730","distractor":"5227730","target":"present","response":"present","rt":"4196","correct":true,"confidence":5},{"trial_n":33,"span":8,"encoder":"60641312","distractor":"40641312","target":"absent","response":"absent","rt":"3096","correct":true,"confidence":5},{"trial_n":34,"span":8,"encoder":"43515433","distractor":"43519433","target":"present","response":"present","rt":"11497","correct":true,"confidence":3},{"trial_n":35,"span":9,"encoder":"369096442","distractor":"369091442","target":"absent","response":"absent","rt":"5855","correct":true,"confidence":3},{"trial_n":36,"span":9,"encoder":"708600777","distractor":"708640777","target":"absent","response":"absent","rt":"5809","correct":true,"confidence":5},{"trial_n":37,"span":10,"encoder":"4181776800","distractor":"4181776802","target":"absent","response":"present","rt":"3625","correct":false,"confidence":1},{"trial_n":38,"span":9,"encoder":"498982716","distractor":"498972716","target":"present","response":"present","rt":"7353","correct":true,"confidence":5},{"trial_n":39,"span":9,"encoder":"705039238","distractor":"704039238","target":"present","response":"absent","rt":"4781","correct":false,"confidence":1},{"trial_n":40,"span":8,"encoder":"57966854","distractor":"57960854","target":"present","response":"present","rt":"5341","correct":true,"confidence":5},{"trial_n":41,"span":8,"encoder":"54929993","distractor":"54928993","target":"absent","response":"absent","rt":"5107.9999999999","correct":true,"confidence":4},{"trial_n":42,"span":9,"encoder":"217700774","distractor":"217700779","target":"absent","response":"absent","rt":"6767","correct":true,"confidence":5},{"trial_n":43,"span":9,"encoder":"838076526","distractor":"838076586","target":"present","response":"present","rt":"5410","correct":true,"confidence":2},{"trial_n":44,"span":10,"encoder":"3325360697","distractor":"3325360693","target":"present","response":"absent","rt":"3863","correct":false,"confidence":5},{"trial_n":45,"span":9,"encoder":"944734464","distractor":"954734464","target":"present","response":"absent","rt":"3105","correct":false,"confidence":1},{"trial_n":46,"span":8,"encoder":"79440037","distractor":"79340037","target":"absent","response":"present","rt":"5562","correct":false,"confidence":3},{"trial_n":47,"span":7,"encoder":"6681227","distractor":"6681207","target":"absent","response":"absent","rt":"4403","correct":true,"confidence":2},{"trial_n":48,"span":7,"encoder":"4851843","distractor":"4851813","target":"absent","response":"absent","rt":"7938","correct":true,"confidence":3},{"trial_n":49,"span":8,"encoder":"96721269","distractor":"46721269","target":"absent","response":"present","rt":"6591","correct":false,"confidence":5},{"trial_n":50,"span":7,"encoder":"7280460","distractor":"0280460","target":"present","response":"present","rt":"8818","correct":true,"confidence":5},{"trial_n":51,"span":7,"encoder":"7638548","distractor":"7838548","target":"absent","response":"absent","rt":"3118","correct":true,"confidence":5},{"trial_n":52,"span":8,"encoder":"44433753","distractor":"44433756","target":"absent","response":"absent","rt":"2464.9999999999","correct":true,"confidence":5},{"trial_n":53,"span":8,"encoder":"43787171","distractor":"43787971","target":"absent","response":"absent","rt":"5107","correct":true,"confidence":5},{"trial_n":54,"span":9,"encoder":"821987774","distractor":"821983774","target":"absent","response":"present","rt":"7477","correct":false,"confidence":5},{"trial_n":55,"span":8,"encoder":"70933417","distractor":"70953417","target":"present","response":"present","rt":"1323","correct":true,"confidence":1},{"trial_n":56,"span":8,"encoder":"13895732","distractor":"13895738","target":"present","response":"present","rt":"4209","correct":true,"confidence":5},{"trial_n":57,"span":9,"encoder":"984177176","distractor":"964177176","target":"present","response":"absent","rt":"3611","correct":false,"confidence":1},{"trial_n":58,"span":8,"encoder":"22345226","distractor":"22345228","target":"present","response":"present","rt":"5833","correct":true,"confidence":3},{"trial_n":59,"span":8,"encoder":"81260571","distractor":"81260561","target":"absent","response":"absent","rt":"3177","correct":true,"confidence":4},{"trial_n":60,"span":9,"encoder":"391636796","distractor":"391636706","target":"present","response":"present","rt":"4140.9999999999","correct":true,"confidence":2},{"trial_n":61,"span":9,"encoder":"012955581","distractor":"082955581","target":"present","response":"absent","rt":"8944","correct":false,"confidence":5},{"trial_n":62,"span":8,"encoder":"28559151","distractor":"28159151","target":"absent","response":"present","rt":"3401.9999999999","correct":false,"confidence":2},{"trial_n":63,"span":7,"encoder":"8761020","distractor":"8561020","target":"present","response":"present","rt":"3618","correct":true,"confidence":5},{"trial_n":64,"span":7,"encoder":"2453706","distractor":"2450706","target":"present","response":"present","rt":"2812.0000000001","correct":true,"confidence":5},{"trial_n":65,"span":8,"encoder":"18773115","distractor":"18573115","target":"absent","response":"absent","rt":"7138","correct":true,"confidence":5},{"trial_n":66,"span":8,"encoder":"18082261","distractor":"18082241","target":"present","response":"absent","rt":"4575.0000000001","correct":false,"confidence":1},{"trial_n":67,"span":7,"encoder":"1548433","distractor":"1548403","target":"present","response":"present","rt":"3779","correct":true,"confidence":4},{"trial_n":68,"span":7,"encoder":"6304036","distractor":"6304016","target":"present","response":"present","rt":"4346","correct":true,"confidence":5},{"trial_n":69,"span":8,"encoder":"31203832","distractor":"31209832","target":"absent","response":"absent","rt":"3616","correct":true,"confidence":5},{"trial_n":70,"span":8,"encoder":"00788826","distractor":"00088826","target":"absent","response":"absent","rt":"7516","correct":true,"confidence":4},{"trial_n":71,"span":8,"encoder":"45813611","distractor":"45819611","target":"present","response":"absent","rt":"17588","correct":false,"confidence":-1},{"trial_n":72,"span":7,"encoder":"2055135","distractor":"2058135","target":"present","response":"present","rt":"1615.9999999999","correct":true,"confidence":-1},{"trial_n":73,"span":7,"encoder":"7097760","distractor":"7097360","target":"absent","response":"absent","rt":"4580","correct":true,"confidence":-1},{"trial_n":74,"span":8,"encoder":"94006812","distractor":"94506812","target":"absent","response":"absent","rt":"2497","correct":true,"confidence":-1},{"trial_n":75,"span":8,"encoder":"13149930","distractor":"13949930","target":"present","response":"present","rt":"6202","correct":true,"confidence":-1},{"trial_n":76,"span":9,"encoder":"363231149","distractor":"363231049","target":"absent","response":"absent","rt":"4766","correct":true,"confidence":-1},{"trial_n":77,"span":9,"encoder":"204848542","distractor":"204848942","target":"absent","response":"absent","rt":"6290","correct":true,"confidence":-1},{"trial_n":78,"span":10,"encoder":"6959843463","distractor":"6959843563","target":"present","response":"absent","rt":"6253","correct":false,"confidence":-1},{"trial_n":79,"span":9,"encoder":"494444163","distractor":"694444163","target":"present","response":"absent","rt":"11518","correct":false,"confidence":-1},{"trial_n":80,"span":8,"encoder":"90384137","distractor":"90384737","target":"present","response":"absent","rt":"1402.0000000002","correct":false,"confidence":-1},{"trial_n":81,"span":7,"encoder":"7626873","distractor":"7626883","target":"absent","response":"present","rt":"4287","correct":false,"confidence":-1},{"trial_n":82,"span":6,"encoder":"179199","distractor":"171199","target":"present","response":"absent","rt":"5149","correct":false,"confidence":-1},{"trial_n":83,"span":5,"encoder":"37587","distractor":"38587","target":"present","response":"present","rt":"2732","correct":true,"confidence":-1},{"trial_n":84,"span":5,"encoder":"53931","distractor":"53951","target":"absent","response":"absent","rt":"6007.9999999998","correct":true,"confidence":-1},{"trial_n":85,"span":6,"encoder":"802564","distractor":"802664","target":"present","response":"present","rt":"3268","correct":true,"confidence":-1},{"trial_n":86,"span":6,"encoder":"921435","distractor":"929435","target":"present","response":"present","rt":"1894","correct":true,"confidence":-1},{"trial_n":87,"span":7,"encoder":"3575651","distractor":"3375651","target":"absent","response":"absent","rt":"4490","correct":true,"confidence":-1},{"trial_n":88,"span":7,"encoder":"9957115","distractor":"9958115","target":"present","response":"present","rt":"3646","correct":true,"confidence":-1},{"trial_n":89,"span":8,"encoder":"63380601","distractor":"63320601","target":"present","response":"present","rt":"7422","correct":true,"confidence":-1},{"trial_n":90,"span":8,"encoder":"27437670","distractor":"27437675","target":"absent","response":"absent","rt":"5048","correct":true,"confidence":-1},{"trial_n":91,"span":9,"encoder":"650760391","distractor":"650700391","target":"present","response":"present","rt":"8046","correct":true,"confidence":3},{"trial_n":92,"span":9,"encoder":"183525949","distractor":"180525949","target":"absent","response":"absent","rt":"4939","correct":true,"confidence":4},{"trial_n":93,"span":10,"encoder":"1793431008","distractor":"1793431009","target":"absent","response":"absent","rt":"2475","correct":true,"confidence":5},{"trial_n":94,"span":10,"encoder":"0657034042","distractor":"0647034042","target":"present","response":"absent","rt":"17606","correct":false,"confidence":5},{"trial_n":95,"span":9,"encoder":"966887073","distractor":"966887773","target":"absent","response":"absent","rt":"4272","correct":true,"confidence":5},{"trial_n":96,"span":9,"encoder":"367443118","distractor":"367443110","target":"absent","response":"absent","rt":"2151","correct":true,"confidence":5},{"trial_n":97,"span":10,"encoder":"6760811319","distractor":"6260811319","target":"absent","response":"absent","rt":"10082","correct":true,"confidence":5},{"trial_n":98,"span":10,"encoder":"0892458391","distractor":"0892408391","target":"absent","response":"present","rt":"9708","correct":false,"confidence":2},{"trial_n":99,"span":9,"encoder":"870531073","distractor":"870431073","target":"absent","response":"absent","rt":"8954","correct":true,"confidence":5},{"trial_n":100,"span":9,"encoder":"374508049","distractor":"372508049","target":"absent","response":"absent","rt":"7166","correct":true,"confidence":5},{"trial_n":101,"span":10,"encoder":"9997756693","distractor":"9997757693","target":"present","response":"absent","rt":"6956","correct":false,"confidence":4},{"trial_n":102,"span":9,"encoder":"658085324","distractor":"658085424","target":"absent","response":"absent","rt":"3227","correct":true,"confidence":5},{"trial_n":103,"span":9,"encoder":"445469623","distractor":"445499623","target":"absent","response":"absent","rt":"10708","correct":true,"confidence":3},{"trial_n":104,"span":10,"encoder":"9306327794","distractor":"9306327799","target":"present","response":"present","rt":"5660","correct":true,"confidence":5},{"trial_n":105,"span":10,"encoder":"9814918623","distractor":"9814918523","target":"present","response":"present","rt":"7213","correct":true,"confidence":4},{"trial_n":106,"span":11,"encoder":"80670554657","distractor":"80650554657","target":"absent","response":"present","rt":"22452","correct":false,"confidence":5},{"trial_n":107,"span":10,"encoder":"5043192277","distractor":"5043192577","target":"absent","response":"present","rt":"5317.9999999998","correct":false,"confidence":1},{"trial_n":108,"span":9,"encoder":"043309938","distractor":"043309918","target":"present","response":"present","rt":"6544","correct":true,"confidence":5},{"trial_n":109,"span":9,"encoder":"166951203","distractor":"066951203","target":"absent","response":"present","rt":"7913.9999999998","correct":false,"confidence":5},{"trial_n":110,"span":8,"encoder":"34643481","distractor":"34645481","target":"present","response":"present","rt":"4626","correct":true,"confidence":5},{"trial_n":111,"span":8,"encoder":"25346327","distractor":"25346357","target":"absent","response":"absent","rt":"3917","correct":true,"confidence":5},{"trial_n":112,"span":9,"encoder":"822186574","distractor":"822186774","target":"absent","response":"absent","rt":"8221","correct":true,"confidence":4},{"trial_n":113,"span":9,"encoder":"607593345","distractor":"607503345","target":"present","response":"present","rt":"16417","correct":true,"confidence":5},{"trial_n":114,"span":10,"encoder":"3336583392","distractor":"3336583292","target":"present","response":"present","rt":"6491","correct":true,"confidence":4},{"trial_n":115,"span":10,"encoder":"1446623945","distractor":"1446623045","target":"present","response":"present","rt":"6877","correct":true,"confidence":1},{"trial_n":116,"span":11,"encoder":"83663871139","distractor":"83663873139","target":"present","response":"present","rt":"1912","correct":true,"confidence":5},{"trial_n":117,"span":11,"encoder":"13793189668","distractor":"13793489668","target":"present","response":"present","rt":"17088","correct":true,"confidence":1},{"trial_n":118,"span":12,"encoder":"966561210465","distractor":"966561210765","target":"present","response":"present","rt":"6067","correct":true,"confidence":5},{"trial_n":119,"span":12,"encoder":"314216159650","distractor":"314216158650","target":"present","response":"present","rt":"16217","correct":true,"confidence":3},{"trial_n":120,"span":13,"encoder":"9790792466077","distractor":"9790732466077","target":"absent","response":"absent","rt":"19852","correct":true,"confidence":5},{"trial_n":121,"span":13,"encoder":"3762713254443","distractor":"3762713254445","target":"present","response":"present","rt":"2165","correct":true,"confidence":5},{"trial_n":122,"span":14,"encoder":"88442746539404","distractor":"88442746439404","target":"present","response":"absent","rt":"10941","correct":false,"confidence":3},{"trial_n":123,"span":13,"encoder":"6602556405129","distractor":"6602456405129","target":"absent","response":"present","rt":"12279","correct":false,"confidence":3},{"trial_n":124,"span":12,"encoder":"162038384855","distractor":"162038384857","target":"absent","response":"absent","rt":"3003","correct":true,"confidence":5},{"trial_n":125,"span":12,"encoder":"045418975445","distractor":"545418975445","target":"present","response":"present","rt":"9010","correct":true,"confidence":5},{"trial_n":126,"span":13,"encoder":"7002850809023","distractor":"7002850809053","target":"present","response":"present","rt":"13364","correct":true,"confidence":5},{"trial_n":127,"span":13,"encoder":"2076259078495","distractor":"2076257078495","target":"present","response":"present","rt":"8169","correct":true,"confidence":5},{"trial_n":128,"span":14,"encoder":"67272110821205","distractor":"67272110821207","target":"absent","response":"absent","rt":"1654","correct":true,"confidence":5},{"trial_n":129,"span":14,"encoder":"12770549081375","distractor":"12710549081375","target":"present","response":"absent","rt":"9006.0000000005","correct":false,"confidence":2},{"trial_n":130,"span":13,"encoder":"6576325482538","distractor":"6576325482532","target":"absent","response":"absent","rt":"2669","correct":true,"confidence":5},{"trial_n":131,"span":13,"encoder":"8667273192304","distractor":"8667273192004","target":"absent","response":"absent","rt":"3683","correct":true,"confidence":4},{"trial_n":132,"span":14,"encoder":"75535087621985","distractor":"75535087421985","target":"absent","response":"absent","rt":"5590","correct":true,"confidence":5},{"trial_n":133,"span":14,"encoder":"88382466204871","distractor":"88382466204771","target":"present","response":"absent","rt":"15563","correct":false,"confidence":5},{"trial_n":134,"span":13,"encoder":"4216201841516","distractor":"4216001841516","target":"absent","response":"absent","rt":"4693.9999999995","correct":true,"confidence":2},{"trial_n":135,"span":13,"encoder":"7869420672201","distractor":"7869440672201","target":"absent","response":"present","rt":"7907.9999999995","correct":false,"confidence":3},{"trial_n":136,"span":12,"encoder":"866565532619","distractor":"866565592619","target":"present","response":"present","rt":"11215","correct":true,"confidence":1},{"trial_n":137,"span":12,"encoder":"778695804675","distractor":"778695804672","target":"present","response":"absent","rt":"6395","correct":false,"confidence":2},{"trial_n":138,"span":11,"encoder":"42004891014","distractor":"62004891014","target":"present","response":"absent","rt":"8566","correct":false,"confidence":1},{"trial_n":139,"span":10,"encoder":"7231311211","distractor":"7231314211","target":"absent","response":"absent","rt":"6759","correct":true,"confidence":1},{"trial_n":140,"span":10,"encoder":"3463412697","distractor":"3467412697","target":"absent","response":"absent","rt":"6995","correct":true,"confidence":5}]