[{"trial_n":1,"min":25,"max":230,"target":"present","response":"present","rt":4484.1000000238,"correct":true,"confidence":-1},{"trial_n":2,"min":25,"max":230,"target":"present","response":"present","rt":2184.3000000119,"correct":true,"confidence":-1},{"trial_n":3,"min":41,"max":214,"target":"absent","response":"present","rt":2226.7000000477,"correct":false,"confidence":-1},{"trial_n":4,"min":25,"max":230,"target":"absent","response":"absent","rt":1500.6999999881,"correct":true,"confidence":-1},{"trial_n":5,"min":25,"max":230,"target":"present","response":"present","rt":639.5,"correct":true,"confidence":-1},{"trial_n":6,"min":41,"max":214,"target":"absent","response":"absent","rt":749.59999996424,"correct":true,"confidence":-1},{"trial_n":7,"min":41,"max":214,"target":"present","response":"present","rt":566.79999995232,"correct":true,"confidence":-1},{"trial_n":8,"min":57,"max":198,"target":"absent","response":"absent","rt":600.89999997616,"correct":true,"confidence":-1},{"trial_n":9,"min":57,"max":198,"target":"absent","response":"absent","rt":599.19999998808,"correct":true,"confidence":-1},{"trial_n":10,"min":73,"max":182,"target":"present","response":"present","rt":742.39999997616,"correct":true,"confidence":-1},{"trial_n":11,"min":73,"max":182,"target":"absent","response":"absent","rt":485.59999996424,"correct":true,"confidence":-1},{"trial_n":12,"min":81,"max":174,"target":"absent","response":"absent","rt":517.39999997616,"correct":true,"confidence":-1},{"trial_n":13,"min":81,"max":174,"target":"absent","response":"absent","rt":475,"correct":true,"confidence":-1},{"trial_n":14,"min":89,"max":166,"target":"absent","response":"absent","rt":541.5,"correct":true,"confidence":-1},{"trial_n":15,"min":89,"max":166,"target":"present","response":"absent","rt":435.79999995232,"correct":false,"confidence":-1},{"trial_n":16,"min":81,"max":174,"target":"absent","response":"absent","rt":862.60000002384,"correct":true,"confidence":-1},{"trial_n":17,"min":81,"max":174,"target":"absent","response":"present","rt":1228.1999999881,"correct":false,"confidence":-1},{"trial_n":18,"min":73,"max":182,"target":"absent","response":"present","rt":1059.8000000119,"correct":false,"confidence":-1},{"trial_n":19,"min":65,"max":190,"target":"present","response":"present","rt":742.89999997616,"correct":true,"confidence":-1},{"trial_n":20,"min":65,"max":190,"target":"absent","response":"absent","rt":734.79999995232,"correct":true,"confidence":-1},{"trial_n":21,"min":69,"max":186,"target":"absent","response":"absent","rt":1136.1000000238,"correct":true,"confidence":4},{"trial_n":22,"min":69,"max":186,"target":"present","response":"present","rt":764,"correct":true,"confidence":5},{"trial_n":23,"min":73,"max":182,"target":"present","response":"present","rt":694.60000002384,"correct":true,"confidence":5},{"trial_n":24,"min":73,"max":182,"target":"present","response":"present","rt":692.60000002384,"correct":true,"confidence":5},{"trial_n":25,"min":77,"max":178,"target":"absent","response":"absent","rt":645.90000003576,"correct":true,"confidence":5},{"trial_n":26,"min":77,"max":178,"target":"absent","response":"absent","rt":926.30000001192,"correct":true,"confidence":5},{"trial_n":27,"min":81,"max":174,"target":"present","response":"present","rt":837.19999998808,"correct":true,"confidence":5},{"trial_n":28,"min":81,"max":174,"target":"present","response":"present","rt":705.5,"correct":true,"confidence":5},{"trial_n":29,"min":85,"max":170,"target":"present","response":"present","rt":610.80000001192,"correct":true,"confidence":5},{"trial_n":30,"min":85,"max":170,"target":"present","response":"present","rt":1096.8000000119,"correct":true,"confidence":4},{"trial_n":31,"min":87,"max":168,"target":"absent","response":"present","rt":2018.5999999642,"correct":false,"confidence":3},{"trial_n":32,"min":85,"max":170,"target":"present","response":"present","rt":747.80000001192,"correct":true,"confidence":5},{"trial_n":33,"min":85,"max":170,"target":"present","response":"present","rt":681,"correct":true,"confidence":5},{"trial_n":34,"min":87,"max":168,"target":"absent","response":"absent","rt":690.39999997616,"correct":true,"confidence":3},{"trial_n":35,"min":87,"max":168,"target":"absent","response":"absent","rt":953.69999998808,"correct":true,"confidence":3},{"trial_n":36,"min":89,"max":166,"target":"present","response":"present","rt":900.19999998808,"correct":true,"confidence":2},{"trial_n":37,"min":89,"max":166,"target":"present","response":"present","rt":676.39999997616,"correct":true,"confidence":3},{"trial_n":38,"min":91,"max":164,"target":"absent","response":"absent","rt":818.90000003576,"correct":true,"confidence":4},{"trial_n":39,"min":91,"max":164,"target":"present","response":"present","rt":1519.6999999881,"correct":true,"confidence":1},{"trial_n":40,"min":93,"max":162,"target":"present","response":"present","rt":1006,"correct":true,"confidence":3},{"trial_n":41,"min":93,"max":162,"target":"present","response":"present","rt":742.80000001192,"correct":true,"confidence":4},{"trial_n":42,"min":94,"max":161,"target":"absent","response":"absent","rt":1279.7999999523,"correct":true,"confidence":3},{"trial_n":43,"min":94,"max":161,"target":"absent","response":"absent","rt":1690.5999999642,"correct":true,"confidence":2},{"trial_n":44,"min":95,"max":160,"target":"present","response":"present","rt":963,"correct":true,"confidence":2},{"trial_n":45,"min":95,"max":160,"target":"present","response":"present","rt":1055.2999999523,"correct":true,"confidence":2},{"trial_n":46,"min":96,"max":159,"target":"absent","response":"absent","rt":1119.6999999881,"correct":true,"confidence":2},{"trial_n":47,"min":96,"max":159,"target":"absent","response":"present","rt":718.80000001192,"correct":false,"confidence":3},{"trial_n":48,"min":95,"max":160,"target":"absent","response":"absent","rt":840.59999996424,"correct":true,"confidence":2},{"trial_n":49,"min":95,"max":160,"target":"present","response":"absent","rt":1325.2999999523,"correct":false,"confidence":2},{"trial_n":50,"min":94,"max":161,"target":"absent","response":"absent","rt":830.90000003576,"correct":true,"confidence":3},{"trial_n":51,"min":94,"max":161,"target":"present","response":"absent","rt":898.90000003576,"correct":false,"confidence":3},{"trial_n":52,"min":93,"max":162,"target":"present","response":"absent","rt":1279.3000000119,"correct":false,"confidence":3},{"trial_n":53,"min":92,"max":163,"target":"present","response":"absent","rt":1064.8999999762,"correct":false,"confidence":3},{"trial_n":54,"min":91,"max":164,"target":"present","response":"present","rt":2774.6999999881,"correct":true,"confidence":3},{"trial_n":55,"min":91,"max":164,"target":"present","response":"absent","rt":985.90000003576,"correct":false,"confidence":4},{"trial_n":56,"min":90,"max":165,"target":"present","response":"absent","rt":672,"correct":false,"confidence":4},{"trial_n":57,"min":89,"max":166,"target":"present","response":"present","rt":1034.6000000238,"correct":true,"confidence":3},{"trial_n":58,"min":89,"max":166,"target":"absent","response":"absent","rt":648.69999998808,"correct":true,"confidence":4},{"trial_n":59,"min":90,"max":165,"target":"absent","response":"absent","rt":627.19999998808,"correct":true,"confidence":4},{"trial_n":60,"min":90,"max":165,"target":"present","response":"present","rt":644.89999997616,"correct":true,"confidence":3},{"trial_n":61,"min":91,"max":164,"target":"present","response":"present","rt":873.10000002384,"correct":true,"confidence":4},{"trial_n":62,"min":91,"max":164,"target":"present","response":"present","rt":629.40000003576,"correct":true,"confidence":4},{"trial_n":63,"min":92,"max":163,"target":"present","response":"absent","rt":629.10000002384,"correct":false,"confidence":4},{"trial_n":64,"min":91,"max":164,"target":"absent","response":"absent","rt":658,"correct":true,"confidence":4},{"trial_n":65,"min":91,"max":164,"target":"absent","response":"absent","rt":608.59999996424,"correct":true,"confidence":4},{"trial_n":66,"min":92,"max":163,"target":"absent","response":"absent","rt":582.69999998808,"correct":true,"confidence":4},{"trial_n":67,"min":92,"max":163,"target":"absent","response":"present","rt":733,"correct":false,"confidence":3},{"trial_n":68,"min":91,"max":164,"target":"absent","response":"absent","rt":694.59999996424,"correct":true,"confidence":4},{"trial_n":69,"min":91,"max":164,"target":"absent","response":"absent","rt":596.60000002384,"correct":true,"confidence":4},{"trial_n":70,"min":92,"max":163,"target":"present","response":"present","rt":1268.0999999642,"correct":true,"confidence":4},{"trial_n":71,"min":41,"max":214,"target":"present","response":"present","rt":1190.9000000358,"correct":true,"confidence":-1},{"trial_n":72,"min":41,"max":214,"target":"present","response":"present","rt":748.10000002384,"correct":true,"confidence":-1},{"trial_n":73,"min":57,"max":198,"target":"absent","response":"absent","rt":975.19999998808,"correct":true,"confidence":-1},{"trial_n":74,"min":57,"max":198,"target":"absent","response":"absent","rt":745.59999996424,"correct":true,"confidence":-1},{"trial_n":75,"min":73,"max":182,"target":"present","response":"present","rt":706.10000002384,"correct":true,"confidence":-1},{"trial_n":76,"min":73,"max":182,"target":"absent","response":"absent","rt":1824.8999999762,"correct":true,"confidence":-1},{"trial_n":77,"min":89,"max":166,"target":"present","response":"absent","rt":1081.3000000119,"correct":false,"confidence":-1},{"trial_n":78,"min":73,"max":182,"target":"present","response":"present","rt":953,"correct":true,"confidence":-1},{"trial_n":79,"min":73,"max":182,"target":"absent","response":"absent","rt":646.70000004768,"correct":true,"confidence":-1},{"trial_n":80,"min":89,"max":166,"target":"absent","response":"absent","rt":634.19999998808,"correct":true,"confidence":-1},{"trial_n":81,"min":89,"max":166,"target":"absent","response":"present","rt":698.89999997616,"correct":false,"confidence":-1},{"trial_n":82,"min":81,"max":174,"target":"absent","response":"absent","rt":801.40000003576,"correct":true,"confidence":-1},{"trial_n":83,"min":81,"max":174,"target":"present","response":"present","rt":570.89999997616,"correct":true,"confidence":-1},{"trial_n":84,"min":89,"max":166,"target":"absent","response":"present","rt":822.09999996424,"correct":false,"confidence":-1},{"trial_n":85,"min":81,"max":174,"target":"present","response":"present","rt":799.69999998808,"correct":true,"confidence":-1},{"trial_n":86,"min":81,"max":174,"target":"present","response":"present","rt":632.19999998808,"correct":true,"confidence":-1},{"trial_n":87,"min":89,"max":166,"target":"present","response":"present","rt":742.79999995232,"correct":true,"confidence":-1},{"trial_n":88,"min":89,"max":166,"target":"present","response":"present","rt":864,"correct":true,"confidence":-1},{"trial_n":89,"min":97,"max":158,"target":"absent","response":"present","rt":761.40000003576,"correct":false,"confidence":-1},{"trial_n":90,"min":89,"max":166,"target":"absent","response":"absent","rt":896.39999997616,"correct":true,"confidence":-1},{"trial_n":91,"min":89,"max":166,"target":"absent","response":"present","rt":2319.8000000119,"correct":false,"confidence":3},{"trial_n":92,"min":85,"max":170,"target":"present","response":"present","rt":886.60000002384,"correct":true,"confidence":4},{"trial_n":93,"min":85,"max":170,"target":"absent","response":"absent","rt":877.19999998808,"correct":true,"confidence":4},{"trial_n":94,"min":89,"max":166,"target":"present","response":"present","rt":1018.3999999762,"correct":true,"confidence":3},{"trial_n":95,"min":89,"max":166,"target":"present","response":"present","rt":1261.3999999762,"correct":true,"confidence":4},{"trial_n":96,"min":93,"max":162,"target":"present","response":"present","rt":1762.8000000119,"correct":true,"confidence":3},{"trial_n":97,"min":93,"max":162,"target":"present","response":"present","rt":668.89999997616,"correct":true,"confidence":3},{"trial_n":98,"min":97,"max":158,"target":"absent","response":"absent","rt":1121.2999999523,"correct":true,"confidence":3},{"trial_n":99,"min":97,"max":158,"target":"present","response":"present","rt":918.30000001192,"correct":true,"confidence":3},{"trial_n":100,"min":101,"max":154,"target":"absent","response":"present","rt":839,"correct":false,"confidence":3},{"trial_n":101,"min":99,"max":156,"target":"absent","response":"absent","rt":904.80000001192,"correct":true,"confidence":3},{"trial_n":102,"min":99,"max":156,"target":"present","response":"present","rt":697.09999996424,"correct":true,"confidence":3},{"trial_n":103,"min":101,"max":154,"target":"absent","response":"absent","rt":1076.9000000358,"correct":true,"confidence":2},{"trial_n":104,"min":101,"max":154,"target":"present","response":"absent","rt":1328.9000000358,"correct":false,"confidence":2},{"trial_n":105,"min":99,"max":156,"target":"present","response":"present","rt":689.59999996424,"correct":true,"confidence":2},{"trial_n":106,"min":99,"max":156,"target":"absent","response":"present","rt":575.59999996424,"correct":false,"confidence":2},{"trial_n":107,"min":97,"max":158,"target":"present","response":"absent","rt":908.10000002384,"correct":false,"confidence":3},{"trial_n":108,"min":95,"max":160,"target":"absent","response":"present","rt":787.19999998808,"correct":false,"confidence":2},{"trial_n":109,"min":93,"max":162,"target":"present","response":"present","rt":600.5,"correct":true,"confidence":2},{"trial_n":110,"min":93,"max":162,"target":"absent","response":"absent","rt":950.80000001192,"correct":true,"confidence":2},{"trial_n":111,"min":94,"max":161,"target":"present","response":"present","rt":704.90000003576,"correct":true,"confidence":3},{"trial_n":112,"min":94,"max":161,"target":"present","response":"present","rt":766.5,"correct":true,"confidence":2},{"trial_n":113,"min":95,"max":160,"target":"present","response":"present","rt":858.40000003576,"correct":true,"confidence":2},{"trial_n":114,"min":95,"max":160,"target":"absent","response":"present","rt":685.30000001192,"correct":false,"confidence":3},{"trial_n":115,"min":94,"max":161,"target":"present","response":"present","rt":800.19999998808,"correct":true,"confidence":2},{"trial_n":116,"min":94,"max":161,"target":"present","response":"present","rt":1141.5,"correct":true,"confidence":3},{"trial_n":117,"min":95,"max":160,"target":"present","response":"present","rt":699.29999995232,"correct":true,"confidence":3},{"trial_n":118,"min":95,"max":160,"target":"present","response":"present","rt":689.40000003576,"correct":true,"confidence":3},{"trial_n":119,"min":96,"max":159,"target":"present","response":"present","rt":726.30000001192,"correct":true,"confidence":2},{"trial_n":120,"min":96,"max":159,"target":"absent","response":"present","rt":568.80000001192,"correct":false,"confidence":3},{"trial_n":121,"min":95,"max":160,"target":"absent","response":"present","rt":769.90000003576,"correct":false,"confidence":3},{"trial_n":122,"min":94,"max":161,"target":"absent","response":"present","rt":994.80000001192,"correct":false,"confidence":2},{"trial_n":123,"min":93,"max":162,"target":"absent","response":"absent","rt":776.69999998808,"correct":true,"confidence":2},{"trial_n":124,"min":93,"max":162,"target":"present","response":"present","rt":633.5,"correct":true,"confidence":3},{"trial_n":125,"min":94,"max":161,"target":"absent","response":"absent","rt":756.10000002384,"correct":true,"confidence":3},{"trial_n":126,"min":94,"max":161,"target":"present","response":"present","rt":885.60000002384,"correct":true,"confidence":2},{"trial_n":127,"min":95,"max":160,"target":"absent","response":"present","rt":671.5,"correct":false,"confidence":2},{"trial_n":128,"min":94,"max":161,"target":"absent","response":"absent","rt":738.10000002384,"correct":true,"confidence":3},{"trial_n":129,"min":94,"max":161,"target":"present","response":"present","rt":894.69999998808,"correct":true,"confidence":3},{"trial_n":130,"min":95,"max":160,"target":"absent","response":"absent","rt":720.90000003576,"correct":true,"confidence":3},{"trial_n":131,"min":95,"max":160,"target":"absent","response":"present","rt":619.60000002384,"correct":false,"confidence":4},{"trial_n":132,"min":94,"max":161,"target":"absent","response":"present","rt":660.59999996424,"correct":false,"confidence":4},{"trial_n":133,"min":93,"max":162,"target":"present","response":"present","rt":587,"correct":true,"confidence":4},{"trial_n":134,"min":93,"max":162,"target":"absent","response":"present","rt":834.80000001192,"correct":false,"confidence":3},{"trial_n":135,"min":92,"max":163,"target":"absent","response":"absent","rt":762.19999998808,"correct":true,"confidence":2},{"trial_n":136,"min":92,"max":163,"target":"present","response":"present","rt":678.60000002384,"correct":true,"confidence":3},{"trial_n":137,"min":93,"max":162,"target":"absent","response":"absent","rt":1184,"correct":true,"confidence":3},{"trial_n":138,"min":93,"max":162,"target":"absent","response":"present","rt":741.39999997616,"correct":false,"confidence":3},{"trial_n":139,"min":92,"max":163,"target":"present","response":"present","rt":1580.8000000119,"correct":true,"confidence":3},{"trial_n":140,"min":92,"max":163,"target":"present","response":"present","rt":742.30000001192,"correct":true,"confidence":3}]