[{"trial_n":1,"span":8,"encoder":"10726567","distractor":"10826567","target":"present","response":"present","rt":"12845","correct":true,"confidence":-1},{"trial_n":2,"span":8,"encoder":"29185600","distractor":"29145600","target":"present","response":"absent","rt":"3068","correct":false,"confidence":-1},{"trial_n":3,"span":6,"encoder":"536308","distractor":"536398","target":"absent","response":"absent","rt":"1742","correct":true,"confidence":-1},{"trial_n":4,"span":6,"encoder":"659745","distractor":"659785","target":"absent","response":"present","rt":"2328","correct":false,"confidence":-1},{"trial_n":5,"span":4,"encoder":"9038","distractor":"9538","target":"present","response":"present","rt":"1513","correct":true,"confidence":-1},{"trial_n":6,"span":4,"encoder":"8872","distractor":"4872","target":"absent","response":"absent","rt":"1550","correct":true,"confidence":-1},{"trial_n":7,"span":6,"encoder":"950199","distractor":"900199","target":"absent","response":"absent","rt":"1855","correct":true,"confidence":-1},{"trial_n":8,"span":6,"encoder":"587592","distractor":"557592","target":"absent","response":"absent","rt":"2088","correct":true,"confidence":-1},{"trial_n":9,"span":8,"encoder":"99571102","distractor":"99571105","target":"absent","response":"absent","rt":"1292","correct":true,"confidence":-1},{"trial_n":10,"span":8,"encoder":"23402821","distractor":"63402821","target":"present","response":"absent","rt":"1983","correct":false,"confidence":-1},{"trial_n":11,"span":6,"encoder":"855873","distractor":"855173","target":"absent","response":"absent","rt":"1449","correct":true,"confidence":-1},{"trial_n":12,"span":6,"encoder":"775695","distractor":"775295","target":"absent","response":"present","rt":"1395","correct":false,"confidence":-1},{"trial_n":13,"span":5,"encoder":"48541","distractor":"48544","target":"absent","response":"present","rt":"1945","correct":false,"confidence":-1},{"trial_n":14,"span":4,"encoder":"4038","distractor":"4058","target":"absent","response":"present","rt":"1482","correct":false,"confidence":-1},{"trial_n":15,"span":3,"encoder":"543","distractor":"545","target":"present","response":"present","rt":"1481","correct":true,"confidence":-1},{"trial_n":16,"span":3,"encoder":"303","distractor":"302","target":"absent","response":"absent","rt":"1882","correct":true,"confidence":-1},{"trial_n":17,"span":4,"encoder":"3628","distractor":"3328","target":"absent","response":"absent","rt":"2019","correct":true,"confidence":-1},{"trial_n":18,"span":4,"encoder":"8699","distractor":"8693","target":"absent","response":"absent","rt":"1433","correct":true,"confidence":-1},{"trial_n":19,"span":5,"encoder":"94243","distractor":"94643","target":"present","response":"present","rt":"2539","correct":true,"confidence":-1},{"trial_n":20,"span":5,"encoder":"93581","distractor":"93511","target":"absent","response":"absent","rt":"1898","correct":true,"confidence":-1},{"trial_n":21,"span":6,"encoder":"423443","distractor":"423943","target":"absent","response":"absent","rt":"3359","correct":true,"confidence":4},{"trial_n":22,"span":6,"encoder":"033010","distractor":"233010","target":"present","response":"absent","rt":"5089","correct":false,"confidence":5},{"trial_n":23,"span":5,"encoder":"84670","distractor":"84270","target":"present","response":"present","rt":"2369","correct":true,"confidence":5},{"trial_n":24,"span":5,"encoder":"24372","distractor":"24302","target":"absent","response":"absent","rt":"3702","correct":true,"confidence":3},{"trial_n":25,"span":6,"encoder":"725045","distractor":"225045","target":"present","response":"absent","rt":"3231","correct":false,"confidence":2},{"trial_n":26,"span":5,"encoder":"31903","distractor":"31906","target":"absent","response":"absent","rt":"3509","correct":true,"confidence":4},{"trial_n":27,"span":5,"encoder":"09234","distractor":"09264","target":"present","response":"present","rt":"5107","correct":true,"confidence":4},{"trial_n":28,"span":6,"encoder":"188003","distractor":"188004","target":"present","response":"absent","rt":"2693","correct":false,"confidence":5},{"trial_n":29,"span":5,"encoder":"19959","distractor":"19950","target":"present","response":"absent","rt":"2270.0000000001","correct":false,"confidence":5},{"trial_n":30,"span":4,"encoder":"5343","distractor":"5323","target":"absent","response":"absent","rt":"2452","correct":true,"confidence":5},{"trial_n":31,"span":4,"encoder":"6086","distractor":"6089","target":"absent","response":"absent","rt":"3762","correct":true,"confidence":5},{"trial_n":32,"span":5,"encoder":"39325","distractor":"39365","target":"present","response":"present","rt":"2125.9999999999","correct":true,"confidence":5},{"trial_n":33,"span":5,"encoder":"38923","distractor":"48923","target":"present","response":"absent","rt":"3095","correct":false,"confidence":4},{"trial_n":34,"span":4,"encoder":"2406","distractor":"9406","target":"present","response":"present","rt":"2014","correct":true,"confidence":5},{"trial_n":35,"span":4,"encoder":"2818","distractor":"2810","target":"present","response":"present","rt":"5131","correct":true,"confidence":3},{"trial_n":36,"span":5,"encoder":"41619","distractor":"41699","target":"absent","response":"absent","rt":"2867.9999999999","correct":true,"confidence":3},{"trial_n":37,"span":5,"encoder":"37798","distractor":"37898","target":"present","response":"absent","rt":"1869","correct":false,"confidence":4},{"trial_n":38,"span":4,"encoder":"5273","distractor":"5203","target":"absent","response":"absent","rt":"1723","correct":true,"confidence":4},{"trial_n":39,"span":4,"encoder":"4723","distractor":"4023","target":"present","response":"present","rt":"1868","correct":true,"confidence":5},{"trial_n":40,"span":5,"encoder":"45320","distractor":"45520","target":"absent","response":"absent","rt":"2514.9999999999","correct":true,"confidence":4},{"trial_n":41,"span":5,"encoder":"48119","distractor":"41119","target":"present","response":"present","rt":"2696","correct":true,"confidence":5},{"trial_n":42,"span":6,"encoder":"950518","distractor":"950618","target":"present","response":"present","rt":"2792","correct":true,"confidence":5},{"trial_n":43,"span":6,"encoder":"161428","distractor":"121428","target":"absent","response":"absent","rt":"2029","correct":true,"confidence":3},{"trial_n":44,"span":7,"encoder":"3402179","distractor":"0402179","target":"absent","response":"present","rt":"4482","correct":false,"confidence":2},{"trial_n":45,"span":6,"encoder":"775625","distractor":"775925","target":"absent","response":"present","rt":"3117","correct":false,"confidence":3},{"trial_n":46,"span":5,"encoder":"98842","distractor":"08842","target":"present","response":"present","rt":"2608","correct":true,"confidence":2},{"trial_n":47,"span":5,"encoder":"00247","distractor":"00217","target":"present","response":"present","rt":"3160","correct":true,"confidence":1},{"trial_n":48,"span":6,"encoder":"634416","distractor":"631416","target":"present","response":"absent","rt":"3072","correct":false,"confidence":2},{"trial_n":49,"span":5,"encoder":"09549","distractor":"09349","target":"absent","response":"absent","rt":"2043","correct":true,"confidence":4},{"trial_n":50,"span":5,"encoder":"14684","distractor":"14694","target":"absent","response":"present","rt":"2211","correct":false,"confidence":4},{"trial_n":51,"span":4,"encoder":"4791","distractor":"1791","target":"present","response":"present","rt":"1520","correct":true,"confidence":5},{"trial_n":52,"span":4,"encoder":"6564","distractor":"6567","target":"present","response":"absent","rt":"1216","correct":false,"confidence":3},{"trial_n":53,"span":3,"encoder":"195","distractor":"795","target":"absent","response":"absent","rt":"2446","correct":true,"confidence":5},{"trial_n":54,"span":3,"encoder":"468","distractor":"768","target":"present","response":"present","rt":"1291","correct":true,"confidence":5},{"trial_n":55,"span":4,"encoder":"4536","distractor":"4539","target":"present","response":"present","rt":"1666","correct":true,"confidence":5},{"trial_n":56,"span":4,"encoder":"8983","distractor":"8981","target":"present","response":"present","rt":"2333.9999999998","correct":true,"confidence":5},{"trial_n":57,"span":5,"encoder":"70738","distractor":"70731","target":"present","response":"present","rt":"2501.9999999998","correct":true,"confidence":4},{"trial_n":58,"span":5,"encoder":"58098","distractor":"58058","target":"absent","response":"absent","rt":"2459.0000000002","correct":true,"confidence":3},{"trial_n":59,"span":6,"encoder":"708132","distractor":"708131","target":"present","response":"absent","rt":"1393","correct":false,"confidence":1},{"trial_n":60,"span":5,"encoder":"70326","distractor":"20326","target":"absent","response":"absent","rt":"1749","correct":true,"confidence":5},{"trial_n":61,"span":5,"encoder":"94792","distractor":"14792","target":"present","response":"present","rt":"2301","correct":true,"confidence":5},{"trial_n":62,"span":6,"encoder":"016851","distractor":"016853","target":"present","response":"absent","rt":"2924","correct":false,"confidence":4},{"trial_n":63,"span":5,"encoder":"83866","distractor":"89866","target":"present","response":"present","rt":"1841","correct":true,"confidence":5},{"trial_n":64,"span":5,"encoder":"88541","distractor":"88591","target":"present","response":"present","rt":"1740","correct":true,"confidence":5},{"trial_n":65,"span":6,"encoder":"604511","distractor":"604311","target":"present","response":"absent","rt":"3313","correct":false,"confidence":4},{"trial_n":66,"span":5,"encoder":"97301","distractor":"90301","target":"present","response":"present","rt":"1845","correct":true,"confidence":5},{"trial_n":67,"span":5,"encoder":"10034","distractor":"19034","target":"absent","response":"absent","rt":"2249","correct":true,"confidence":3},{"trial_n":68,"span":6,"encoder":"065798","distractor":"065795","target":"absent","response":"absent","rt":"3819","correct":true,"confidence":4},{"trial_n":69,"span":6,"encoder":"388209","distractor":"338209","target":"absent","response":"absent","rt":"1577","correct":true,"confidence":3},{"trial_n":70,"span":7,"encoder":"2291155","distractor":"2291855","target":"absent","response":"absent","rt":"2111.9999999998","correct":true,"confidence":2},{"trial_n":71,"span":8,"encoder":"87219293","distractor":"83219293","target":"present","response":"present","rt":"5266","correct":true,"confidence":-1},{"trial_n":72,"span":8,"encoder":"88006151","distractor":"88007151","target":"present","response":"absent","rt":"3430","correct":false,"confidence":-1},{"trial_n":73,"span":7,"encoder":"0272631","distractor":"0272331","target":"absent","response":"absent","rt":"2270","correct":true,"confidence":-1},{"trial_n":74,"span":7,"encoder":"1761426","distractor":"1661426","target":"absent","response":"absent","rt":"3146","correct":true,"confidence":-1},{"trial_n":75,"span":8,"encoder":"72107332","distractor":"76107332","target":"present","response":"absent","rt":"3944","correct":false,"confidence":-1},{"trial_n":76,"span":7,"encoder":"9352190","distractor":"9356190","target":"present","response":"present","rt":"3469","correct":true,"confidence":-1},{"trial_n":77,"span":7,"encoder":"2448172","distractor":"2448162","target":"present","response":"absent","rt":"3279","correct":false,"confidence":-1},{"trial_n":78,"span":6,"encoder":"373617","distractor":"373614","target":"present","response":"present","rt":"1331.9999999998","correct":true,"confidence":-1},{"trial_n":79,"span":6,"encoder":"530168","distractor":"532168","target":"present","response":"absent","rt":"1122.9999999998","correct":false,"confidence":-1},{"trial_n":80,"span":5,"encoder":"87665","distractor":"87865","target":"present","response":"present","rt":"1840.9999999998","correct":true,"confidence":-1},{"trial_n":81,"span":5,"encoder":"05749","distractor":"07749","target":"absent","response":"present","rt":"521","correct":false,"confidence":-1},{"trial_n":82,"span":4,"encoder":"6682","distractor":"6182","target":"present","response":"present","rt":"337.00000000023","correct":true,"confidence":-1},{"trial_n":83,"span":4,"encoder":"0024","distractor":"0064","target":"absent","response":"absent","rt":"1579","correct":true,"confidence":-1},{"trial_n":84,"span":5,"encoder":"06831","distractor":"06231","target":"absent","response":"absent","rt":"3916","correct":true,"confidence":-1},{"trial_n":85,"span":5,"encoder":"90262","distractor":"90762","target":"present","response":"present","rt":"2055.9999999998","correct":true,"confidence":-1},{"trial_n":86,"span":6,"encoder":"195532","distractor":"895532","target":"absent","response":"absent","rt":"1440","correct":true,"confidence":-1},{"trial_n":87,"span":6,"encoder":"546677","distractor":"566677","target":"absent","response":"absent","rt":"3565","correct":true,"confidence":-1},{"trial_n":88,"span":7,"encoder":"3332686","distractor":"3332186","target":"absent","response":"present","rt":"1418","correct":false,"confidence":-1},{"trial_n":89,"span":6,"encoder":"631342","distractor":"631242","target":"absent","response":"absent","rt":"2219","correct":true,"confidence":-1},{"trial_n":90,"span":6,"encoder":"048115","distractor":"068115","target":"present","response":"absent","rt":"2677.0000000002","correct":false,"confidence":-1},{"trial_n":91,"span":5,"encoder":"51142","distractor":"59142","target":"present","response":"present","rt":"1752","correct":true,"confidence":5},{"trial_n":92,"span":5,"encoder":"82307","distractor":"82397","target":"absent","response":"absent","rt":"4403","correct":true,"confidence":4},{"trial_n":93,"span":6,"encoder":"715979","distractor":"915979","target":"absent","response":"absent","rt":"5722","correct":true,"confidence":2},{"trial_n":94,"span":6,"encoder":"196721","distractor":"196722","target":"present","response":"present","rt":"3461","correct":true,"confidence":4},{"trial_n":95,"span":7,"encoder":"4175185","distractor":"4179185","target":"absent","response":"present","rt":"5282.0000000002","correct":false,"confidence":3},{"trial_n":96,"span":6,"encoder":"227425","distractor":"221425","target":"present","response":"present","rt":"2835.0000000002","correct":true,"confidence":5},{"trial_n":97,"span":6,"encoder":"456178","distractor":"456173","target":"absent","response":"absent","rt":"3542.9999999998","correct":true,"confidence":5},{"trial_n":98,"span":7,"encoder":"1474965","distractor":"1474465","target":"absent","response":"absent","rt":"3922","correct":true,"confidence":3},{"trial_n":99,"span":7,"encoder":"4782999","distractor":"4789999","target":"present","response":"present","rt":"1402.9999999998","correct":true,"confidence":1},{"trial_n":100,"span":8,"encoder":"73291431","distractor":"73891431","target":"absent","response":"absent","rt":"2241","correct":true,"confidence":2},{"trial_n":101,"span":8,"encoder":"28655012","distractor":"28655010","target":"present","response":"present","rt":"3676","correct":true,"confidence":2},{"trial_n":102,"span":9,"encoder":"992102525","distractor":"992102524","target":"present","response":"present","rt":"3341","correct":true,"confidence":4},{"trial_n":103,"span":9,"encoder":"875734537","distractor":"175734537","target":"present","response":"present","rt":"4466","correct":true,"confidence":4},{"trial_n":104,"span":10,"encoder":"5643373969","distractor":"5643373989","target":"present","response":"absent","rt":"4360","correct":false,"confidence":2},{"trial_n":105,"span":9,"encoder":"955667999","distractor":"965667999","target":"absent","response":"absent","rt":"1966","correct":true,"confidence":5},{"trial_n":106,"span":9,"encoder":"395852736","distractor":"395852796","target":"absent","response":"present","rt":"9083","correct":false,"confidence":2},{"trial_n":107,"span":8,"encoder":"61190010","distractor":"62190010","target":"present","response":"present","rt":"3277","correct":true,"confidence":4},{"trial_n":108,"span":8,"encoder":"11371301","distractor":"17371301","target":"present","response":"absent","rt":"4083","correct":false,"confidence":3},{"trial_n":109,"span":7,"encoder":"0345800","distractor":"0145800","target":"absent","response":"absent","rt":"1874","correct":true,"confidence":5},{"trial_n":110,"span":7,"encoder":"7198661","distractor":"7198621","target":"present","response":"present","rt":"3897","correct":true,"confidence":3},{"trial_n":111,"span":8,"encoder":"56828922","distractor":"54828922","target":"present","response":"present","rt":"5618","correct":true,"confidence":5},{"trial_n":112,"span":8,"encoder":"80777057","distractor":"89777057","target":"absent","response":"absent","rt":"1717","correct":true,"confidence":5},{"trial_n":113,"span":9,"encoder":"428277795","distractor":"428227795","target":"present","response":"present","rt":"7426","correct":true,"confidence":3},{"trial_n":114,"span":9,"encoder":"927608149","distractor":"947608149","target":"present","response":"present","rt":"3239","correct":true,"confidence":4},{"trial_n":115,"span":10,"encoder":"3703816035","distractor":"3003816035","target":"present","response":"present","rt":"3739","correct":true,"confidence":2},{"trial_n":116,"span":10,"encoder":"0266247465","distractor":"0266747465","target":"absent","response":"present","rt":"1894","correct":false,"confidence":1},{"trial_n":117,"span":9,"encoder":"968710478","distractor":"968010478","target":"present","response":"present","rt":"4777","correct":true,"confidence":3},{"trial_n":118,"span":9,"encoder":"599915058","distractor":"599115058","target":"absent","response":"absent","rt":"1877","correct":true,"confidence":5},{"trial_n":119,"span":10,"encoder":"0891320724","distractor":"0891320734","target":"present","response":"absent","rt":"1006","correct":false,"confidence":1},{"trial_n":120,"span":9,"encoder":"013018002","distractor":"013012002","target":"absent","response":"absent","rt":"2608","correct":true,"confidence":4},{"trial_n":121,"span":9,"encoder":"247018096","distractor":"247018396","target":"absent","response":"present","rt":"5397","correct":false,"confidence":2},{"trial_n":122,"span":8,"encoder":"73525295","distractor":"73529295","target":"present","response":"present","rt":"6023.9999999991","correct":true,"confidence":3},{"trial_n":123,"span":8,"encoder":"82221440","distractor":"89221440","target":"absent","response":"absent","rt":"3860","correct":true,"confidence":4},{"trial_n":124,"span":9,"encoder":"528122697","distractor":"528162697","target":"absent","response":"absent","rt":"2357","correct":true,"confidence":5},{"trial_n":125,"span":9,"encoder":"621500420","distractor":"621500820","target":"absent","response":"absent","rt":"3513","correct":true,"confidence":5},{"trial_n":126,"span":10,"encoder":"0296278273","distractor":"0296278276","target":"absent","response":"absent","rt":"4322","correct":true,"confidence":1},{"trial_n":127,"span":10,"encoder":"1611076694","distractor":"1611076094","target":"present","response":"absent","rt":"4361.0000000009","correct":false,"confidence":2},{"trial_n":128,"span":9,"encoder":"707229104","distractor":"707229144","target":"absent","response":"absent","rt":"4678","correct":true,"confidence":2},{"trial_n":129,"span":9,"encoder":"396201060","distractor":"396201070","target":"present","response":"present","rt":"4254","correct":true,"confidence":4},{"trial_n":130,"span":10,"encoder":"5306493993","distractor":"5309493993","target":"present","response":"absent","rt":"3099","correct":false,"confidence":1},{"trial_n":131,"span":9,"encoder":"686059192","distractor":"636059192","target":"absent","response":"present","rt":"3670","correct":false,"confidence":3},{"trial_n":132,"span":8,"encoder":"53644118","distractor":"53644128","target":"absent","response":"absent","rt":"8127","correct":true,"confidence":4},{"trial_n":133,"span":8,"encoder":"57741373","distractor":"57941373","target":"present","response":"absent","rt":"2085","correct":false,"confidence":2},{"trial_n":134,"span":7,"encoder":"8630429","distractor":"8630129","target":"present","response":"present","rt":"5201","correct":true,"confidence":4},{"trial_n":135,"span":7,"encoder":"9915559","distractor":"9914559","target":"absent","response":"present","rt":"3109","correct":false,"confidence":5},{"trial_n":136,"span":6,"encoder":"917080","distractor":"957080","target":"present","response":"absent","rt":"4151","correct":false,"confidence":4},{"trial_n":137,"span":5,"encoder":"36124","distractor":"32124","target":"absent","response":"absent","rt":"1679","correct":true,"confidence":5},{"trial_n":138,"span":5,"encoder":"80087","distractor":"60087","target":"present","response":"present","rt":"2268","correct":true,"confidence":5},{"trial_n":139,"span":6,"encoder":"885885","distractor":"885883","target":"absent","response":"absent","rt":"3247","correct":true,"confidence":5},{"trial_n":140,"span":6,"encoder":"703753","distractor":"704753","target":"absent","response":"absent","rt":"1773","correct":true,"confidence":5}]