[{"trial_n":1,"min":25,"max":230,"target":"present","response":"present","rt":6086.9000000358,"correct":true,"confidence":-1},{"trial_n":2,"min":25,"max":230,"target":"present","response":"present","rt":957.80000001192,"correct":true,"confidence":-1},{"trial_n":3,"min":41,"max":214,"target":"absent","response":"present","rt":767.30000001192,"correct":false,"confidence":-1},{"trial_n":4,"min":25,"max":230,"target":"absent","response":"absent","rt":1014.6000000238,"correct":true,"confidence":-1},{"trial_n":5,"min":25,"max":230,"target":"present","response":"present","rt":750.5,"correct":true,"confidence":-1},{"trial_n":6,"min":41,"max":214,"target":"absent","response":"present","rt":868.5,"correct":false,"confidence":-1},{"trial_n":7,"min":25,"max":230,"target":"present","response":"present","rt":1139.7999999523,"correct":true,"confidence":-1},{"trial_n":8,"min":25,"max":230,"target":"present","response":"present","rt":731.30000001192,"correct":true,"confidence":-1},{"trial_n":9,"min":41,"max":214,"target":"present","response":"present","rt":1028,"correct":true,"confidence":-1},{"trial_n":10,"min":41,"max":214,"target":"absent","response":"absent","rt":820.10000002384,"correct":true,"confidence":-1},{"trial_n":11,"min":49,"max":206,"target":"present","response":"present","rt":877.20000004768,"correct":true,"confidence":-1},{"trial_n":12,"min":49,"max":206,"target":"present","response":"present","rt":842.30000001192,"correct":true,"confidence":-1},{"trial_n":13,"min":57,"max":198,"target":"absent","response":"absent","rt":776.5,"correct":true,"confidence":-1},{"trial_n":14,"min":57,"max":198,"target":"absent","response":"present","rt":1263.3000000119,"correct":false,"confidence":-1},{"trial_n":15,"min":49,"max":206,"target":"present","response":"present","rt":840.30000001192,"correct":true,"confidence":-1},{"trial_n":16,"min":49,"max":206,"target":"absent","response":"absent","rt":712.90000003576,"correct":true,"confidence":-1},{"trial_n":17,"min":57,"max":198,"target":"absent","response":"absent","rt":769.5,"correct":true,"confidence":-1},{"trial_n":18,"min":57,"max":198,"target":"present","response":"present","rt":1079.7999999523,"correct":true,"confidence":-1},{"trial_n":19,"min":65,"max":190,"target":"present","response":"present","rt":639.69999998808,"correct":true,"confidence":-1},{"trial_n":20,"min":65,"max":190,"target":"present","response":"present","rt":579,"correct":true,"confidence":-1},{"trial_n":21,"min":69,"max":186,"target":"present","response":"present","rt":796.30000001192,"correct":true,"confidence":5},{"trial_n":22,"min":69,"max":186,"target":"present","response":"present","rt":1002.1999999881,"correct":true,"confidence":3},{"trial_n":23,"min":73,"max":182,"target":"absent","response":"absent","rt":774.79999995232,"correct":true,"confidence":4},{"trial_n":24,"min":73,"max":182,"target":"absent","response":"absent","rt":875.80000001192,"correct":true,"confidence":4},{"trial_n":25,"min":77,"max":178,"target":"present","response":"present","rt":950.69999998808,"correct":true,"confidence":2},{"trial_n":26,"min":77,"max":178,"target":"absent","response":"absent","rt":901.80000001192,"correct":true,"confidence":4},{"trial_n":27,"min":81,"max":174,"target":"present","response":"absent","rt":1526.5,"correct":false,"confidence":4},{"trial_n":28,"min":77,"max":178,"target":"present","response":"present","rt":674.70000004768,"correct":true,"confidence":4},{"trial_n":29,"min":77,"max":178,"target":"absent","response":"absent","rt":1791.6999999881,"correct":true,"confidence":5},{"trial_n":30,"min":81,"max":174,"target":"present","response":"absent","rt":832.39999997616,"correct":false,"confidence":4},{"trial_n":31,"min":79,"max":176,"target":"absent","response":"absent","rt":970.10000002384,"correct":true,"confidence":4},{"trial_n":32,"min":79,"max":176,"target":"present","response":"present","rt":1193,"correct":true,"confidence":3},{"trial_n":33,"min":81,"max":174,"target":"absent","response":"absent","rt":929.30000001192,"correct":true,"confidence":4},{"trial_n":34,"min":81,"max":174,"target":"absent","response":"absent","rt":819.30000001192,"correct":true,"confidence":3},{"trial_n":35,"min":83,"max":172,"target":"absent","response":"absent","rt":1270.4000000358,"correct":true,"confidence":3},{"trial_n":36,"min":83,"max":172,"target":"absent","response":"absent","rt":1095.7000000477,"correct":true,"confidence":3},{"trial_n":37,"min":85,"max":170,"target":"present","response":"present","rt":760.80000001192,"correct":true,"confidence":4},{"trial_n":38,"min":85,"max":170,"target":"absent","response":"absent","rt":912.39999997616,"correct":true,"confidence":2},{"trial_n":39,"min":87,"max":168,"target":"present","response":"present","rt":827.90000003576,"correct":true,"confidence":3},{"trial_n":40,"min":87,"max":168,"target":"absent","response":"present","rt":804,"correct":false,"confidence":3},{"trial_n":41,"min":86,"max":169,"target":"present","response":"present","rt":765.69999998808,"correct":true,"confidence":4},{"trial_n":42,"min":86,"max":169,"target":"absent","response":"absent","rt":1446,"correct":true,"confidence":4},{"trial_n":43,"min":87,"max":168,"target":"absent","response":"absent","rt":1337.5,"correct":true,"confidence":3},{"trial_n":44,"min":87,"max":168,"target":"present","response":"absent","rt":953.40000003576,"correct":false,"confidence":3},{"trial_n":45,"min":86,"max":169,"target":"absent","response":"absent","rt":858.59999996424,"correct":true,"confidence":3},{"trial_n":46,"min":86,"max":169,"target":"present","response":"absent","rt":1346.9000000358,"correct":false,"confidence":3},{"trial_n":47,"min":85,"max":170,"target":"absent","response":"absent","rt":819.69999998808,"correct":true,"confidence":4},{"trial_n":48,"min":85,"max":170,"target":"absent","response":"absent","rt":723.39999997616,"correct":true,"confidence":4},{"trial_n":49,"min":86,"max":169,"target":"absent","response":"absent","rt":706,"correct":true,"confidence":4},{"trial_n":50,"min":86,"max":169,"target":"present","response":"present","rt":977,"correct":true,"confidence":5},{"trial_n":51,"min":87,"max":168,"target":"present","response":"present","rt":682.5,"correct":true,"confidence":5},{"trial_n":52,"min":87,"max":168,"target":"present","response":"absent","rt":703.19999998808,"correct":false,"confidence":2},{"trial_n":53,"min":86,"max":169,"target":"present","response":"absent","rt":1140.6999999881,"correct":false,"confidence":2},{"trial_n":54,"min":85,"max":170,"target":"absent","response":"absent","rt":1174.7999999523,"correct":true,"confidence":1},{"trial_n":55,"min":85,"max":170,"target":"present","response":"present","rt":776.60000002384,"correct":true,"confidence":2},{"trial_n":56,"min":86,"max":169,"target":"absent","response":"present","rt":1215.1999999881,"correct":false,"confidence":4},{"trial_n":57,"min":85,"max":170,"target":"present","response":"absent","rt":1384.5999999642,"correct":false,"confidence":3},{"trial_n":58,"min":84,"max":171,"target":"absent","response":"present","rt":1867.4000000358,"correct":false,"confidence":3},{"trial_n":59,"min":83,"max":172,"target":"absent","response":"absent","rt":680,"correct":true,"confidence":4},{"trial_n":60,"min":83,"max":172,"target":"present","response":"absent","rt":662.10000002384,"correct":false,"confidence":3},{"trial_n":61,"min":82,"max":173,"target":"absent","response":"present","rt":1135.6000000238,"correct":false,"confidence":3},{"trial_n":62,"min":81,"max":174,"target":"absent","response":"present","rt":849,"correct":false,"confidence":3},{"trial_n":63,"min":80,"max":175,"target":"present","response":"present","rt":680.20000004768,"correct":true,"confidence":5},{"trial_n":64,"min":80,"max":175,"target":"present","response":"present","rt":878.5,"correct":true,"confidence":5},{"trial_n":65,"min":81,"max":174,"target":"present","response":"absent","rt":612.59999996424,"correct":false,"confidence":4},{"trial_n":66,"min":80,"max":175,"target":"present","response":"present","rt":841.60000002384,"correct":true,"confidence":5},{"trial_n":67,"min":80,"max":175,"target":"absent","response":"present","rt":846.40000003576,"correct":false,"confidence":3},{"trial_n":68,"min":79,"max":176,"target":"absent","response":"present","rt":762.80000001192,"correct":false,"confidence":3},{"trial_n":69,"min":78,"max":177,"target":"absent","response":"present","rt":742.70000004768,"correct":false,"confidence":3},{"trial_n":70,"min":77,"max":178,"target":"present","response":"present","rt":693.60000002384,"correct":true,"confidence":4},{"trial_n":71,"min":41,"max":214,"target":"present","response":"present","rt":1366.1000000238,"correct":true,"confidence":-1},{"trial_n":72,"min":41,"max":214,"target":"present","response":"present","rt":701.59999996424,"correct":true,"confidence":-1},{"trial_n":73,"min":57,"max":198,"target":"absent","response":"absent","rt":1292.5,"correct":true,"confidence":-1},{"trial_n":74,"min":57,"max":198,"target":"absent","response":"absent","rt":284.5,"correct":true,"confidence":-1},{"trial_n":75,"min":73,"max":182,"target":"present","response":"present","rt":112.89999997616,"correct":true,"confidence":-1},{"trial_n":76,"min":73,"max":182,"target":"present","response":"present","rt":207.30000001192,"correct":true,"confidence":-1},{"trial_n":77,"min":89,"max":166,"target":"absent","response":"absent","rt":374.40000003576,"correct":true,"confidence":-1},{"trial_n":78,"min":89,"max":166,"target":"present","response":"absent","rt":887.60000002384,"correct":false,"confidence":-1},{"trial_n":79,"min":73,"max":182,"target":"absent","response":"absent","rt":380.5,"correct":true,"confidence":-1},{"trial_n":80,"min":73,"max":182,"target":"absent","response":"absent","rt":304.60000002384,"correct":true,"confidence":-1},{"trial_n":81,"min":81,"max":174,"target":"absent","response":"absent","rt":642,"correct":true,"confidence":-1},{"trial_n":82,"min":81,"max":174,"target":"absent","response":"absent","rt":305.59999996424,"correct":true,"confidence":-1},{"trial_n":83,"min":89,"max":166,"target":"absent","response":"present","rt":455.90000003576,"correct":false,"confidence":-1},{"trial_n":84,"min":81,"max":174,"target":"present","response":"absent","rt":1362.3000000119,"correct":false,"confidence":-1},{"trial_n":85,"min":73,"max":182,"target":"absent","response":"absent","rt":372.39999997616,"correct":true,"confidence":-1},{"trial_n":86,"min":73,"max":182,"target":"present","response":"present","rt":289.19999998808,"correct":true,"confidence":-1},{"trial_n":87,"min":81,"max":174,"target":"absent","response":"absent","rt":478.80000001192,"correct":true,"confidence":-1},{"trial_n":88,"min":81,"max":174,"target":"present","response":"present","rt":410.69999998808,"correct":true,"confidence":-1},{"trial_n":89,"min":89,"max":166,"target":"absent","response":"present","rt":433,"correct":false,"confidence":-1},{"trial_n":90,"min":81,"max":174,"target":"absent","response":"absent","rt":384.19999998808,"correct":true,"confidence":-1},{"trial_n":91,"min":81,"max":174,"target":"present","response":"present","rt":1259.6999999881,"correct":true,"confidence":5},{"trial_n":92,"min":85,"max":170,"target":"present","response":"present","rt":876.80000001192,"correct":true,"confidence":3},{"trial_n":93,"min":85,"max":170,"target":"absent","response":"absent","rt":764,"correct":true,"confidence":4},{"trial_n":94,"min":89,"max":166,"target":"present","response":"present","rt":870.60000002384,"correct":true,"confidence":4},{"trial_n":95,"min":89,"max":166,"target":"present","response":"present","rt":672.89999997616,"correct":true,"confidence":5},{"trial_n":96,"min":93,"max":162,"target":"present","response":"present","rt":1477.1000000238,"correct":true,"confidence":1},{"trial_n":97,"min":93,"max":162,"target":"absent","response":"present","rt":958.09999996424,"correct":false,"confidence":1},{"trial_n":98,"min":89,"max":166,"target":"absent","response":"present","rt":905.90000003576,"correct":false,"confidence":2},{"trial_n":99,"min":85,"max":170,"target":"absent","response":"absent","rt":1042.8000000119,"correct":true,"confidence":4},{"trial_n":100,"min":85,"max":170,"target":"present","response":"absent","rt":1065.6999999881,"correct":false,"confidence":1},{"trial_n":101,"min":83,"max":172,"target":"absent","response":"absent","rt":813.20000004768,"correct":true,"confidence":4},{"trial_n":102,"min":83,"max":172,"target":"present","response":"present","rt":609.5,"correct":true,"confidence":5},{"trial_n":103,"min":85,"max":170,"target":"absent","response":"absent","rt":869,"correct":true,"confidence":4},{"trial_n":104,"min":85,"max":170,"target":"present","response":"present","rt":707.5,"correct":true,"confidence":5},{"trial_n":105,"min":87,"max":168,"target":"absent","response":"absent","rt":1114.3999999762,"correct":true,"confidence":4},{"trial_n":106,"min":87,"max":168,"target":"present","response":"present","rt":889.5,"correct":true,"confidence":4},{"trial_n":107,"min":89,"max":166,"target":"absent","response":"present","rt":1308,"correct":false,"confidence":1},{"trial_n":108,"min":87,"max":168,"target":"absent","response":"absent","rt":806.90000003576,"correct":true,"confidence":2},{"trial_n":109,"min":87,"max":168,"target":"present","response":"present","rt":664.39999997616,"correct":true,"confidence":5},{"trial_n":110,"min":89,"max":166,"target":"present","response":"present","rt":864.69999998808,"correct":true,"confidence":3},{"trial_n":111,"min":89,"max":166,"target":"absent","response":"present","rt":825.89999997616,"correct":false,"confidence":4},{"trial_n":112,"min":88,"max":167,"target":"present","response":"present","rt":754.69999998808,"correct":true,"confidence":4},{"trial_n":113,"min":88,"max":167,"target":"present","response":"present","rt":641.30000001192,"correct":true,"confidence":5},{"trial_n":114,"min":89,"max":166,"target":"present","response":"present","rt":605.5,"correct":true,"confidence":3},{"trial_n":115,"min":89,"max":166,"target":"present","response":"present","rt":647.60000002384,"correct":true,"confidence":5},{"trial_n":116,"min":90,"max":165,"target":"present","response":"present","rt":620.09999996424,"correct":true,"confidence":5},{"trial_n":117,"min":90,"max":165,"target":"present","response":"present","rt":634.69999998808,"correct":true,"confidence":5},{"trial_n":118,"min":91,"max":164,"target":"absent","response":"absent","rt":1103.8999999762,"correct":true,"confidence":1},{"trial_n":119,"min":91,"max":164,"target":"absent","response":"present","rt":850.40000003576,"correct":false,"confidence":2},{"trial_n":120,"min":90,"max":165,"target":"absent","response":"present","rt":768.10000002384,"correct":false,"confidence":3},{"trial_n":121,"min":89,"max":166,"target":"absent","response":"absent","rt":1121.1999999881,"correct":true,"confidence":1},{"trial_n":122,"min":89,"max":166,"target":"absent","response":"absent","rt":1398.1999999881,"correct":true,"confidence":1},{"trial_n":123,"min":90,"max":165,"target":"absent","response":"absent","rt":991.80000001192,"correct":true,"confidence":3},{"trial_n":124,"min":90,"max":165,"target":"present","response":"present","rt":1098.8000000119,"correct":true,"confidence":1},{"trial_n":125,"min":91,"max":164,"target":"absent","response":"present","rt":776.09999996424,"correct":false,"confidence":1},{"trial_n":126,"min":90,"max":165,"target":"present","response":"present","rt":619.5,"correct":true,"confidence":5},{"trial_n":127,"min":90,"max":165,"target":"absent","response":"present","rt":1239,"correct":false,"confidence":2},{"trial_n":128,"min":89,"max":166,"target":"present","response":"present","rt":597.30000001192,"correct":true,"confidence":5},{"trial_n":129,"min":89,"max":166,"target":"present","response":"present","rt":608.5,"correct":true,"confidence":5},{"trial_n":130,"min":90,"max":165,"target":"present","response":"present","rt":640.39999997616,"correct":true,"confidence":5},{"trial_n":131,"min":90,"max":165,"target":"present","response":"present","rt":1275.4000000358,"correct":true,"confidence":5},{"trial_n":132,"min":91,"max":164,"target":"absent","response":"absent","rt":1266.6000000238,"correct":true,"confidence":1},{"trial_n":133,"min":91,"max":164,"target":"present","response":"present","rt":1050.4000000358,"correct":true,"confidence":2},{"trial_n":134,"min":92,"max":163,"target":"present","response":"present","rt":818.09999996424,"correct":true,"confidence":1},{"trial_n":135,"min":92,"max":163,"target":"present","response":"present","rt":848.5,"correct":true,"confidence":1},{"trial_n":136,"min":93,"max":162,"target":"absent","response":"absent","rt":869.89999997616,"correct":true,"confidence":1},{"trial_n":137,"min":93,"max":162,"target":"present","response":"present","rt":594,"correct":true,"confidence":4},{"trial_n":138,"min":94,"max":161,"target":"absent","response":"absent","rt":1473.4000000358,"correct":true,"confidence":3},{"trial_n":139,"min":94,"max":161,"target":"present","response":"present","rt":1094.0999999642,"correct":true,"confidence":1},{"trial_n":140,"min":95,"max":160,"target":"absent","response":"absent","rt":959.90000003576,"correct":true,"confidence":3}]