[{"trial_n":1,"n_dots":4.25,"target":"left","response":"left","rt":3293.2000000477,"correct":true,"confidence":-1},{"trial_n":2,"n_dots":4.25,"target":"right","response":"right","rt":978.19999998808,"correct":true,"confidence":-1},{"trial_n":3,"n_dots":3.85,"target":"right","response":"right","rt":651.10000002384,"correct":true,"confidence":-1},{"trial_n":4,"n_dots":3.85,"target":"right","response":"right","rt":487.5,"correct":true,"confidence":-1},{"trial_n":5,"n_dots":3.45,"target":"left","response":"left","rt":474.80000001192,"correct":true,"confidence":-1},{"trial_n":6,"n_dots":3.45,"target":"left","response":"right","rt":824.10000002384,"correct":false,"confidence":-1},{"trial_n":7,"n_dots":3.85,"target":"right","response":"right","rt":453.10000002384,"correct":true,"confidence":-1},{"trial_n":8,"n_dots":3.85,"target":"right","response":"left","rt":468.59999996424,"correct":false,"confidence":-1},{"trial_n":9,"n_dots":4.05,"target":"right","response":"right","rt":256.10000002384,"correct":true,"confidence":-1},{"trial_n":10,"n_dots":4.05,"target":"right","response":"right","rt":256.59999996424,"correct":true,"confidence":-1},{"trial_n":11,"n_dots":3.85,"target":"left","response":"left","rt":547.80000001192,"correct":true,"confidence":-1},{"trial_n":12,"n_dots":3.85,"target":"left","response":"left","rt":436.69999998808,"correct":true,"confidence":-1},{"trial_n":13,"n_dots":3.75,"target":"right","response":"right","rt":312.5,"correct":true,"confidence":-1},{"trial_n":14,"n_dots":3.75,"target":"left","response":"left","rt":250.30000001192,"correct":true,"confidence":-1},{"trial_n":15,"n_dots":3.65,"target":"right","response":"right","rt":281.5,"correct":true,"confidence":-1},{"trial_n":16,"n_dots":3.65,"target":"left","response":"left","rt":251.5,"correct":true,"confidence":-1},{"trial_n":17,"n_dots":3.55,"target":"right","response":"right","rt":319.60000002384,"correct":true,"confidence":-1},{"trial_n":18,"n_dots":3.55,"target":"left","response":"left","rt":262.80000001192,"correct":true,"confidence":-1},{"trial_n":19,"n_dots":3.45,"target":"right","response":"left","rt":362.5,"correct":false,"confidence":-1},{"trial_n":20,"n_dots":3.55,"target":"left","response":"left","rt":340.89999997616,"correct":true,"confidence":-1},{"trial_n":21,"n_dots":3.55,"target":"right","response":"right","rt":526.20000004768,"correct":true,"confidence":4},{"trial_n":22,"n_dots":3.45,"target":"right","response":"right","rt":426.89999997616,"correct":true,"confidence":4},{"trial_n":23,"n_dots":3.45,"target":"left","response":"left","rt":452.90000003576,"correct":true,"confidence":5},{"trial_n":24,"n_dots":3.35,"target":"right","response":"right","rt":997.90000003576,"correct":true,"confidence":2},{"trial_n":25,"n_dots":3.35,"target":"right","response":"left","rt":736.60000002384,"correct":false,"confidence":3},{"trial_n":26,"n_dots":3.45,"target":"right","response":"right","rt":470.40000003576,"correct":true,"confidence":5},{"trial_n":27,"n_dots":3.45,"target":"right","response":"right","rt":1067.6000000238,"correct":true,"confidence":2},{"trial_n":28,"n_dots":3.35,"target":"right","response":"right","rt":560.30000001192,"correct":true,"confidence":2},{"trial_n":29,"n_dots":3.35,"target":"left","response":"left","rt":337.69999998808,"correct":true,"confidence":5},{"trial_n":30,"n_dots":3.25,"target":"right","response":"left","rt":415.30000001192,"correct":false,"confidence":4},{"trial_n":31,"n_dots":3.35,"target":"left","response":"left","rt":270.60000002384,"correct":true,"confidence":5},{"trial_n":32,"n_dots":3.35,"target":"right","response":"left","rt":1734,"correct":false,"confidence":1},{"trial_n":33,"n_dots":3.45,"target":"left","response":"left","rt":300.89999997616,"correct":true,"confidence":5},{"trial_n":34,"n_dots":3.45,"target":"left","response":"left","rt":307.79999995232,"correct":true,"confidence":5},{"trial_n":35,"n_dots":3.35,"target":"right","response":"left","rt":290.10000002384,"correct":false,"confidence":5},{"trial_n":36,"n_dots":3.45,"target":"right","response":"left","rt":313.89999997616,"correct":false,"confidence":4},{"trial_n":37,"n_dots":3.55,"target":"left","response":"left","rt":287.39999997616,"correct":true,"confidence":5},{"trial_n":38,"n_dots":3.55,"target":"right","response":"left","rt":325.60000002384,"correct":false,"confidence":3},{"trial_n":39,"n_dots":3.65,"target":"left","response":"left","rt":290.40000003576,"correct":true,"confidence":5},{"trial_n":40,"n_dots":3.65,"target":"right","response":"left","rt":945.30000001192,"correct":false,"confidence":2},{"trial_n":41,"n_dots":3.75,"target":"right","response":"left","rt":453.39999997616,"correct":false,"confidence":2},{"trial_n":42,"n_dots":3.85,"target":"left","response":"left","rt":512.10000002384,"correct":true,"confidence":3},{"trial_n":43,"n_dots":3.85,"target":"right","response":"right","rt":328.09999996424,"correct":true,"confidence":3},{"trial_n":44,"n_dots":3.75,"target":"left","response":"left","rt":303.90000003576,"correct":true,"confidence":5},{"trial_n":45,"n_dots":3.75,"target":"left","response":"left","rt":247.30000001192,"correct":true,"confidence":5},{"trial_n":46,"n_dots":3.65,"target":"right","response":"right","rt":1208.3000000119,"correct":true,"confidence":2},{"trial_n":47,"n_dots":3.65,"target":"left","response":"left","rt":321.20000004768,"correct":true,"confidence":5},{"trial_n":48,"n_dots":3.55,"target":"left","response":"left","rt":111.5,"correct":true,"confidence":5},{"trial_n":49,"n_dots":3.55,"target":"left","response":"left","rt":74.199999988079,"correct":true,"confidence":5},{"trial_n":50,"n_dots":3.45,"target":"right","response":"right","rt":431.30000001192,"correct":true,"confidence":1},{"trial_n":51,"n_dots":3.45,"target":"left","response":"left","rt":529.09999996424,"correct":true,"confidence":4},{"trial_n":52,"n_dots":3.35,"target":"right","response":"right","rt":708,"correct":true,"confidence":3},{"trial_n":53,"n_dots":3.35,"target":"right","response":"right","rt":1274.8999999762,"correct":true,"confidence":3},{"trial_n":54,"n_dots":3.25,"target":"right","response":"right","rt":317.90000003576,"correct":true,"confidence":3},{"trial_n":55,"n_dots":3.25,"target":"left","response":"left","rt":352.69999998808,"correct":true,"confidence":4},{"trial_n":56,"n_dots":3.15,"target":"right","response":"right","rt":1051.0999999642,"correct":true,"confidence":2},{"trial_n":57,"n_dots":3.15,"target":"left","response":"left","rt":302.5,"correct":true,"confidence":5},{"trial_n":58,"n_dots":3.05,"target":"right","response":"left","rt":882.5,"correct":false,"confidence":1},{"trial_n":59,"n_dots":3.15,"target":"right","response":"right","rt":1513.2000000477,"correct":true,"confidence":1},{"trial_n":60,"n_dots":3.15,"target":"left","response":"left","rt":987.70000004768,"correct":true,"confidence":3},{"trial_n":61,"n_dots":3.05,"target":"left","response":"left","rt":374.59999996424,"correct":true,"confidence":4},{"trial_n":62,"n_dots":3.05,"target":"left","response":"left","rt":712.80000001192,"correct":true,"confidence":4},{"trial_n":63,"n_dots":2.95,"target":"right","response":"left","rt":441.80000001192,"correct":false,"confidence":3},{"trial_n":64,"n_dots":3.05,"target":"left","response":"left","rt":1371,"correct":true,"confidence":5},{"trial_n":65,"n_dots":3.05,"target":"left","response":"left","rt":803.30000001192,"correct":true,"confidence":5},{"trial_n":66,"n_dots":2.95,"target":"left","response":"left","rt":976.5,"correct":true,"confidence":5},{"trial_n":67,"n_dots":2.95,"target":"left","response":"left","rt":338.69999998808,"correct":true,"confidence":5},{"trial_n":68,"n_dots":2.85,"target":"left","response":"left","rt":690.09999996424,"correct":true,"confidence":1},{"trial_n":69,"n_dots":2.85,"target":"right","response":"right","rt":2208,"correct":true,"confidence":2},{"trial_n":70,"n_dots":2.75,"target":"left","response":"left","rt":341.60000002384,"correct":true,"confidence":4},{"trial_n":71,"n_dots":2.75,"target":"right","response":"right","rt":580.19999998808,"correct":true,"confidence":2},{"trial_n":72,"n_dots":2.65,"target":"right","response":"right","rt":1512.1000000238,"correct":true,"confidence":1},{"trial_n":73,"n_dots":2.65,"target":"right","response":"right","rt":478.10000002384,"correct":true,"confidence":3},{"trial_n":74,"n_dots":2.55,"target":"right","response":"left","rt":548.60000002384,"correct":false,"confidence":2},{"trial_n":75,"n_dots":2.65,"target":"right","response":"right","rt":350.39999997616,"correct":true,"confidence":2},{"trial_n":76,"n_dots":2.65,"target":"left","response":"left","rt":1243.3000000119,"correct":true,"confidence":1},{"trial_n":77,"n_dots":2.55,"target":"right","response":"right","rt":372.69999998808,"correct":true,"confidence":3},{"trial_n":78,"n_dots":2.55,"target":"left","response":"left","rt":553.30000001192,"correct":true,"confidence":4},{"trial_n":79,"n_dots":2.45,"target":"left","response":"left","rt":375.5,"correct":true,"confidence":5},{"trial_n":80,"n_dots":2.45,"target":"left","response":"left","rt":1162.5999999642,"correct":true,"confidence":1},{"trial_n":81,"n_dots":2.35,"target":"right","response":"left","rt":329.59999996424,"correct":false,"confidence":4},{"trial_n":82,"n_dots":2.45,"target":"right","response":"right","rt":428.79999995232,"correct":true,"confidence":2},{"trial_n":83,"n_dots":2.45,"target":"left","response":"left","rt":369.60000002384,"correct":true,"confidence":4},{"trial_n":84,"n_dots":2.35,"target":"left","response":"left","rt":337.20000004768,"correct":true,"confidence":4},{"trial_n":85,"n_dots":2.35,"target":"right","response":"right","rt":1819.8000000119,"correct":true,"confidence":2},{"trial_n":86,"n_dots":2.25,"target":"right","response":"left","rt":370.69999998808,"correct":false,"confidence":2},{"trial_n":87,"n_dots":2.35,"target":"right","response":"left","rt":499.80000001192,"correct":false,"confidence":3},{"trial_n":88,"n_dots":2.45,"target":"right","response":"left","rt":1374.3000000119,"correct":false,"confidence":1},{"trial_n":89,"n_dots":2.55,"target":"left","response":"left","rt":2705.3000000119,"correct":true,"confidence":2},{"trial_n":90,"n_dots":2.55,"target":"left","response":"left","rt":471.10000002384,"correct":true,"confidence":5},{"trial_n":91,"n_dots":2.45,"target":"right","response":"left","rt":411.19999998808,"correct":false,"confidence":4},{"trial_n":92,"n_dots":2.55,"target":"left","response":"left","rt":581.69999998808,"correct":true,"confidence":2},{"trial_n":93,"n_dots":2.55,"target":"left","response":"left","rt":598.39999997616,"correct":true,"confidence":4},{"trial_n":94,"n_dots":2.45,"target":"left","response":"left","rt":928.60000002384,"correct":true,"confidence":5},{"trial_n":95,"n_dots":2.45,"target":"left","response":"left","rt":1276.8000000119,"correct":true,"confidence":3},{"trial_n":96,"n_dots":2.35,"target":"right","response":"right","rt":571.19999998808,"correct":true,"confidence":4},{"trial_n":97,"n_dots":2.35,"target":"left","response":"left","rt":651.09999996424,"correct":true,"confidence":2},{"trial_n":98,"n_dots":2.25,"target":"right","response":"left","rt":509.10000002384,"correct":false,"confidence":2},{"trial_n":99,"n_dots":2.35,"target":"right","response":"left","rt":475.39999997616,"correct":false,"confidence":2},{"trial_n":100,"n_dots":2.45,"target":"left","response":"left","rt":1046.8999999762,"correct":true,"confidence":2},{"trial_n":101,"n_dots":2.45,"target":"left","response":"right","rt":480.09999996424,"correct":false,"confidence":3},{"trial_n":102,"n_dots":2.55,"target":"right","response":"left","rt":2185.1000000238,"correct":false,"confidence":2},{"trial_n":103,"n_dots":2.65,"target":"left","response":"left","rt":1073,"correct":true,"confidence":2},{"trial_n":104,"n_dots":2.65,"target":"left","response":"left","rt":583.19999998808,"correct":true,"confidence":5},{"trial_n":105,"n_dots":2.55,"target":"right","response":"left","rt":579,"correct":false,"confidence":4},{"trial_n":106,"n_dots":2.65,"target":"right","response":"right","rt":575.09999996424,"correct":true,"confidence":4},{"trial_n":107,"n_dots":2.65,"target":"left","response":"left","rt":327.69999998808,"correct":true,"confidence":5},{"trial_n":108,"n_dots":2.55,"target":"right","response":"right","rt":716.80000001192,"correct":true,"confidence":4},{"trial_n":109,"n_dots":2.55,"target":"left","response":"left","rt":816.59999996424,"correct":true,"confidence":5},{"trial_n":110,"n_dots":2.45,"target":"right","response":"left","rt":1109.8999999762,"correct":false,"confidence":3},{"trial_n":111,"n_dots":2.55,"target":"right","response":"right","rt":763.80000001192,"correct":true,"confidence":3},{"trial_n":112,"n_dots":2.55,"target":"left","response":"left","rt":2109.8000000119,"correct":true,"confidence":4},{"trial_n":113,"n_dots":2.45,"target":"right","response":"left","rt":296.09999996424,"correct":false,"confidence":4},{"trial_n":114,"n_dots":2.55,"target":"right","response":"left","rt":393.5,"correct":false,"confidence":4},{"trial_n":115,"n_dots":2.65,"target":"left","response":"left","rt":320.70000004768,"correct":true,"confidence":4},{"trial_n":116,"n_dots":2.65,"target":"left","response":"left","rt":742,"correct":true,"confidence":5},{"trial_n":117,"n_dots":2.55,"target":"left","response":"left","rt":396.5,"correct":true,"confidence":5},{"trial_n":118,"n_dots":2.55,"target":"left","response":"left","rt":1180.0999999642,"correct":true,"confidence":4},{"trial_n":119,"n_dots":2.45,"target":"left","response":"left","rt":476.59999996424,"correct":true,"confidence":5},{"trial_n":120,"n_dots":2.45,"target":"left","response":"left","rt":949,"correct":true,"confidence":5}]