[{"trial_n":1,"span":8,"encoder":"16081555","distractor":"16081525","target":"present","response":"present","rt":"3475.7999999523","correct":true,"confidence":-1},{"trial_n":2,"span":8,"encoder":"91328747","distractor":"91328727","target":"present","response":"present","rt":"1852.5","correct":true,"confidence":-1},{"trial_n":3,"span":10,"encoder":"1002648217","distractor":"1002643217","target":"absent","response":"present","rt":"1401","correct":false,"confidence":-1},{"trial_n":4,"span":8,"encoder":"05228736","distractor":"08228736","target":"absent","response":"absent","rt":"2243.8999999762","correct":true,"confidence":-1},{"trial_n":5,"span":8,"encoder":"00148222","distractor":"00148022","target":"present","response":"present","rt":"1667.6000000238","correct":true,"confidence":-1},{"trial_n":6,"span":10,"encoder":"7311456395","distractor":"7311456390","target":"present","response":"present","rt":"2382.3999999762","correct":true,"confidence":-1},{"trial_n":7,"span":10,"encoder":"1851852667","distractor":"1851852267","target":"absent","response":"present","rt":"6247","correct":false,"confidence":-1},{"trial_n":8,"span":8,"encoder":"24421846","distractor":"24421842","target":"present","response":"present","rt":"1525.3999999762","correct":true,"confidence":-1},{"trial_n":9,"span":8,"encoder":"70461844","distractor":"80461844","target":"present","response":"absent","rt":"2598.3000000119","correct":false,"confidence":-1},{"trial_n":10,"span":6,"encoder":"101796","distractor":"001796","target":"present","response":"present","rt":"1185.2999999523","correct":true,"confidence":-1},{"trial_n":11,"span":6,"encoder":"275134","distractor":"275124","target":"absent","response":"present","rt":"897.89999997616","correct":false,"confidence":-1},{"trial_n":12,"span":5,"encoder":"07743","distractor":"07748","target":"present","response":"present","rt":"1625.1999999881","correct":true,"confidence":-1},{"trial_n":13,"span":5,"encoder":"98307","distractor":"98337","target":"present","response":"present","rt":"918.59999996424","correct":true,"confidence":-1},{"trial_n":14,"span":6,"encoder":"746209","distractor":"706209","target":"present","response":"present","rt":"840","correct":true,"confidence":-1},{"trial_n":15,"span":6,"encoder":"636740","distractor":"736740","target":"absent","response":"present","rt":"3108.5","correct":false,"confidence":-1},{"trial_n":16,"span":5,"encoder":"55928","distractor":"55028","target":"absent","response":"present","rt":"1079.8999999762","correct":false,"confidence":-1},{"trial_n":17,"span":4,"encoder":"1038","distractor":"1238","target":"absent","response":"present","rt":"906.30000001192","correct":false,"confidence":-1},{"trial_n":18,"span":3,"encoder":"753","distractor":"763","target":"absent","response":"present","rt":"1219.8000000119","correct":false,"confidence":-1},{"trial_n":19,"span":2,"encoder":"14","distractor":"54","target":"absent","response":"absent","rt":"1617.1000000238","correct":true,"confidence":-1},{"trial_n":20,"span":2,"encoder":"32","distractor":"34","target":"present","response":"present","rt":"1372.3999999762","correct":true,"confidence":-1},{"trial_n":21,"span":3,"encoder":"880","distractor":"820","target":"present","response":"present","rt":"1676.5","correct":true,"confidence":5},{"trial_n":22,"span":3,"encoder":"656","distractor":"856","target":"absent","response":"absent","rt":"2233.1000000238","correct":true,"confidence":5},{"trial_n":23,"span":4,"encoder":"6103","distractor":"3103","target":"present","response":"present","rt":"1271.3999999762","correct":true,"confidence":5},{"trial_n":24,"span":4,"encoder":"4596","distractor":"4516","target":"present","response":"present","rt":"1781.1999999881","correct":true,"confidence":5},{"trial_n":25,"span":5,"encoder":"48859","distractor":"48259","target":"present","response":"present","rt":"1172.5999999642","correct":true,"confidence":5},{"trial_n":26,"span":5,"encoder":"16046","distractor":"16016","target":"present","response":"present","rt":"1964.6999999881","correct":true,"confidence":5},{"trial_n":27,"span":6,"encoder":"379119","distractor":"379219","target":"present","response":"present","rt":"2616.6000000238","correct":true,"confidence":4},{"trial_n":28,"span":6,"encoder":"060607","distractor":"060601","target":"present","response":"present","rt":"1672.9000000358","correct":true,"confidence":5},{"trial_n":29,"span":7,"encoder":"1752984","distractor":"1752974","target":"present","response":"present","rt":"3343.6999999881","correct":true,"confidence":4},{"trial_n":30,"span":7,"encoder":"3399468","distractor":"3399467","target":"present","response":"present","rt":"1956.3000000119","correct":true,"confidence":5},{"trial_n":31,"span":8,"encoder":"60198726","distractor":"60198526","target":"present","response":"absent","rt":"5017.3999999762","correct":false,"confidence":2},{"trial_n":32,"span":7,"encoder":"6472043","distractor":"6472093","target":"absent","response":"absent","rt":"3761.0999999642","correct":true,"confidence":4},{"trial_n":33,"span":7,"encoder":"2088130","distractor":"2038130","target":"present","response":"present","rt":"1942.3000000119","correct":true,"confidence":5},{"trial_n":34,"span":8,"encoder":"47720891","distractor":"47720091","target":"present","response":"present","rt":"2897.1999999881","correct":true,"confidence":4},{"trial_n":35,"span":8,"encoder":"37837601","distractor":"97837601","target":"absent","response":"absent","rt":"2965.1999999881","correct":true,"confidence":5},{"trial_n":36,"span":9,"encoder":"619997121","distractor":"819997121","target":"present","response":"present","rt":"3308.6000000238","correct":true,"confidence":4},{"trial_n":37,"span":9,"encoder":"289040136","distractor":"289060136","target":"absent","response":"absent","rt":"3087","correct":true,"confidence":2},{"trial_n":38,"span":10,"encoder":"0402188176","distractor":"0402288176","target":"absent","response":"present","rt":"4923.3999999762","correct":false,"confidence":4},{"trial_n":39,"span":9,"encoder":"776588946","distractor":"736588946","target":"present","response":"present","rt":"3847.1999999881","correct":true,"confidence":3},{"trial_n":40,"span":9,"encoder":"781123227","distractor":"781121227","target":"present","response":"absent","rt":"5931.0999999642","correct":false,"confidence":3},{"trial_n":41,"span":8,"encoder":"36143662","distractor":"36143632","target":"present","response":"present","rt":"2878.3000000119","correct":true,"confidence":5},{"trial_n":42,"span":8,"encoder":"40558492","distractor":"40558392","target":"absent","response":"absent","rt":"3959","correct":true,"confidence":3},{"trial_n":43,"span":9,"encoder":"778700707","distractor":"778700107","target":"present","response":"absent","rt":"3970.8000000119","correct":false,"confidence":2},{"trial_n":44,"span":8,"encoder":"82979235","distractor":"82978235","target":"absent","response":"present","rt":"3857.1999999881","correct":false,"confidence":3},{"trial_n":45,"span":7,"encoder":"1979630","distractor":"2979630","target":"absent","response":"absent","rt":"1873.2000000477","correct":true,"confidence":5},{"trial_n":46,"span":7,"encoder":"7132093","distractor":"9132093","target":"absent","response":"absent","rt":"3477.5","correct":true,"confidence":4},{"trial_n":47,"span":8,"encoder":"26865662","distractor":"46865662","target":"absent","response":"absent","rt":"1481.0999999642","correct":true,"confidence":5},{"trial_n":48,"span":8,"encoder":"28288528","distractor":"28288538","target":"present","response":"present","rt":"3242.3000000119","correct":true,"confidence":4},{"trial_n":49,"span":9,"encoder":"195580250","distractor":"195580257","target":"absent","response":"present","rt":"4448.8000000119","correct":false,"confidence":2},{"trial_n":50,"span":8,"encoder":"96976560","distractor":"96976565","target":"absent","response":"absent","rt":"1935.7999999523","correct":true,"confidence":5},{"trial_n":51,"span":8,"encoder":"17255095","distractor":"15255095","target":"present","response":"present","rt":"3878.8000000119","correct":true,"confidence":1},{"trial_n":52,"span":9,"encoder":"878426104","distractor":"878426106","target":"absent","response":"absent","rt":"1401.3999999762","correct":true,"confidence":5},{"trial_n":53,"span":9,"encoder":"544086929","distractor":"844086929","target":"present","response":"present","rt":"2539.6999999881","correct":true,"confidence":4},{"trial_n":54,"span":10,"encoder":"1031383539","distractor":"1031333539","target":"absent","response":"absent","rt":"2816.8000000119","correct":true,"confidence":3},{"trial_n":55,"span":10,"encoder":"4803865663","distractor":"4403865663","target":"absent","response":"present","rt":"53231","correct":false,"confidence":1},{"trial_n":56,"span":9,"encoder":"889724421","distractor":"889024421","target":"absent","response":"present","rt":"3955.1999999881","correct":false,"confidence":3},{"trial_n":57,"span":8,"encoder":"85616466","distractor":"85686466","target":"present","response":"present","rt":"3589.1999999881","correct":true,"confidence":3},{"trial_n":58,"span":8,"encoder":"88685596","distractor":"88685296","target":"absent","response":"present","rt":"3287.3999999762","correct":false,"confidence":4},{"trial_n":59,"span":7,"encoder":"6991998","distractor":"6291998","target":"absent","response":"absent","rt":"4302.0999999642","correct":true,"confidence":3},{"trial_n":60,"span":7,"encoder":"1545621","distractor":"1545601","target":"absent","response":"absent","rt":"4229.0999999642","correct":true,"confidence":2},{"trial_n":61,"span":8,"encoder":"92054805","distractor":"92054855","target":"absent","response":"absent","rt":"1613.7000000477","correct":true,"confidence":4},{"trial_n":62,"span":8,"encoder":"75719823","distractor":"75739823","target":"present","response":"present","rt":"2634.5","correct":true,"confidence":5},{"trial_n":63,"span":9,"encoder":"805740807","distractor":"405740807","target":"absent","response":"present","rt":"3453.4000000358","correct":false,"confidence":3},{"trial_n":64,"span":8,"encoder":"32486384","distractor":"32486314","target":"present","response":"present","rt":"3793.0999999642","correct":true,"confidence":3},{"trial_n":65,"span":8,"encoder":"89256113","distractor":"83256113","target":"absent","response":"absent","rt":"4070.4000000358","correct":true,"confidence":2},{"trial_n":66,"span":9,"encoder":"384800382","distractor":"384820382","target":"present","response":"present","rt":"4202.5","correct":true,"confidence":4},{"trial_n":67,"span":9,"encoder":"508669671","distractor":"508669971","target":"absent","response":"absent","rt":"2918.8999999762","correct":true,"confidence":3},{"trial_n":68,"span":10,"encoder":"6183805309","distractor":"6183805409","target":"absent","response":"absent","rt":"3767.8999999762","correct":true,"confidence":4},{"trial_n":69,"span":10,"encoder":"8577475035","distractor":"8377475035","target":"absent","response":"absent","rt":"3224.6999999881","correct":true,"confidence":4},{"trial_n":70,"span":11,"encoder":"15590096509","distractor":"15190096509","target":"present","response":"present","rt":"5046.5","correct":true,"confidence":2},{"trial_n":71,"span":8,"encoder":"51874447","distractor":"31874447","target":"present","response":"present","rt":"1991","correct":true,"confidence":-1},{"trial_n":72,"span":8,"encoder":"39442213","distractor":"29442213","target":"present","response":"present","rt":"4558","correct":true,"confidence":-1},{"trial_n":73,"span":9,"encoder":"506950523","distractor":"506950223","target":"absent","response":"absent","rt":"1804.9000000358","correct":true,"confidence":-1},{"trial_n":74,"span":9,"encoder":"630424310","distractor":"630404310","target":"absent","response":"absent","rt":"3061.3999999762","correct":true,"confidence":-1},{"trial_n":75,"span":10,"encoder":"2544978462","distractor":"2544973462","target":"present","response":"present","rt":"4045.5","correct":true,"confidence":-1},{"trial_n":76,"span":10,"encoder":"0618925123","distractor":"0618925023","target":"present","response":"present","rt":"1311.6999999881","correct":true,"confidence":-1},{"trial_n":77,"span":11,"encoder":"76847318079","distractor":"76847312079","target":"present","response":"present","rt":"2105.1999999881","correct":true,"confidence":-1},{"trial_n":78,"span":11,"encoder":"03928275969","distractor":"03921275969","target":"present","response":"absent","rt":"5513.5999999642","correct":false,"confidence":-1},{"trial_n":79,"span":10,"encoder":"5530508496","distractor":"5530588496","target":"present","response":"present","rt":"2936.8999999762","correct":true,"confidence":-1},{"trial_n":80,"span":10,"encoder":"5297294792","distractor":"5597294792","target":"absent","response":"present","rt":"821.89999997616","correct":false,"confidence":-1},{"trial_n":81,"span":9,"encoder":"420016107","distractor":"420016167","target":"present","response":"present","rt":"1361.5","correct":true,"confidence":-1},{"trial_n":82,"span":9,"encoder":"841550500","distractor":"841450500","target":"absent","response":"present","rt":"3628.9000000358","correct":false,"confidence":-1},{"trial_n":83,"span":8,"encoder":"81692716","distractor":"81692706","target":"absent","response":"absent","rt":"1672.3999999762","correct":true,"confidence":-1},{"trial_n":84,"span":8,"encoder":"40458103","distractor":"40458303","target":"present","response":"present","rt":"1849.6999999881","correct":true,"confidence":-1},{"trial_n":85,"span":9,"encoder":"271059763","distractor":"271359763","target":"present","response":"present","rt":"5226.5999999642","correct":true,"confidence":-1},{"trial_n":86,"span":9,"encoder":"361807224","distractor":"381807224","target":"present","response":"present","rt":"2725.2000000477","correct":true,"confidence":-1},{"trial_n":87,"span":10,"encoder":"3495613639","distractor":"3405613639","target":"present","response":"present","rt":"3793.2000000477","correct":true,"confidence":-1},{"trial_n":88,"span":10,"encoder":"8583518287","distractor":"8583518087","target":"present","response":"present","rt":"1988.0999999642","correct":true,"confidence":-1},{"trial_n":89,"span":11,"encoder":"91606936052","distractor":"11606936052","target":"absent","response":"absent","rt":"2305.8999999762","correct":true,"confidence":-1},{"trial_n":90,"span":11,"encoder":"42389207118","distractor":"42389207178","target":"present","response":"present","rt":"1728.4000000358","correct":true,"confidence":-1},{"trial_n":91,"span":12,"encoder":"730992947349","distractor":"780992947349","target":"absent","response":"present","rt":"4338.4000000358","correct":false,"confidence":3},{"trial_n":92,"span":11,"encoder":"99329417639","distractor":"49329417639","target":"absent","response":"absent","rt":"4203.1000000238","correct":true,"confidence":4},{"trial_n":93,"span":11,"encoder":"54348765019","distractor":"51348765019","target":"present","response":"absent","rt":"7737.8000000119","correct":false,"confidence":1},{"trial_n":94,"span":10,"encoder":"8301309912","distractor":"8301309212","target":"absent","response":"absent","rt":"6419.1999999881","correct":true,"confidence":5},{"trial_n":95,"span":10,"encoder":"4874869900","distractor":"4894869900","target":"absent","response":"absent","rt":"2566.1999999881","correct":true,"confidence":5},{"trial_n":96,"span":11,"encoder":"48906436676","distractor":"48906436672","target":"absent","response":"absent","rt":"2496.3000000119","correct":true,"confidence":5},{"trial_n":97,"span":11,"encoder":"11146035228","distractor":"11146135228","target":"absent","response":"absent","rt":"5923.1999999881","correct":true,"confidence":4},{"trial_n":98,"span":12,"encoder":"334626739972","distractor":"034626739972","target":"present","response":"present","rt":"5968.1999999881","correct":true,"confidence":5},{"trial_n":99,"span":12,"encoder":"937827308194","distractor":"937827308190","target":"present","response":"present","rt":"1678.5","correct":true,"confidence":5},{"trial_n":100,"span":13,"encoder":"0257420112638","distractor":"0257420152638","target":"absent","response":"absent","rt":"3286.9000000358","correct":true,"confidence":3},{"trial_n":101,"span":13,"encoder":"5128752342929","distractor":"5124752342929","target":"present","response":"present","rt":"220149.20000005","correct":true,"confidence":1},{"trial_n":102,"span":14,"encoder":"94495255857722","distractor":"94495258857722","target":"absent","response":"absent","rt":"9452.3000000119","correct":true,"confidence":3},{"trial_n":103,"span":14,"encoder":"14702270311992","distractor":"19702270311992","target":"absent","response":"present","rt":"3920","correct":false,"confidence":3},{"trial_n":104,"span":13,"encoder":"5945998499961","distractor":"5965998499961","target":"absent","response":"absent","rt":"5367.3000000119","correct":true,"confidence":4},{"trial_n":105,"span":13,"encoder":"7200436715841","distractor":"7200436711841","target":"absent","response":"absent","rt":"2564.3999999762","correct":true,"confidence":5},{"trial_n":106,"span":14,"encoder":"19832124836532","distractor":"19832624836532","target":"absent","response":"absent","rt":"14828.799999952","correct":true,"confidence":1},{"trial_n":107,"span":14,"encoder":"49057279889437","distractor":"49557279889437","target":"absent","response":"present","rt":"5163","correct":false,"confidence":2},{"trial_n":108,"span":13,"encoder":"2388643191382","distractor":"2388645191382","target":"absent","response":"present","rt":"97414.399999976","correct":false,"confidence":1},{"trial_n":109,"span":12,"encoder":"450658329652","distractor":"450658309652","target":"present","response":"present","rt":"3052.5","correct":true,"confidence":3},{"trial_n":110,"span":12,"encoder":"445212903529","distractor":"442212903529","target":"absent","response":"absent","rt":"5048.5","correct":true,"confidence":2},{"trial_n":111,"span":13,"encoder":"3557739656174","distractor":"3557739656274","target":"absent","response":"absent","rt":"2237","correct":true,"confidence":5},{"trial_n":112,"span":13,"encoder":"3091389610909","distractor":"3091389615909","target":"present","response":"present","rt":"2261.2000000477","correct":true,"confidence":5},{"trial_n":113,"span":14,"encoder":"58869235432975","distractor":"58867235432975","target":"present","response":"present","rt":"5678.3999999762","correct":true,"confidence":1},{"trial_n":114,"span":14,"encoder":"25589685113344","distractor":"25589685111344","target":"absent","response":"present","rt":"3090.7999999523","correct":false,"confidence":4},{"trial_n":115,"span":13,"encoder":"0816224840316","distractor":"0816824840316","target":"present","response":"present","rt":"5413.5","correct":true,"confidence":2},{"trial_n":116,"span":13,"encoder":"4172823079410","distractor":"4172823079460","target":"present","response":"present","rt":"1644.4000000358","correct":true,"confidence":5},{"trial_n":117,"span":14,"encoder":"26415117780596","distractor":"26455117780596","target":"present","response":"present","rt":"8144.8999999762","correct":true,"confidence":2},{"trial_n":118,"span":14,"encoder":"88348892998057","distractor":"88048892998057","target":"present","response":"absent","rt":"7734","correct":false,"confidence":2},{"trial_n":119,"span":13,"encoder":"6552660391903","distractor":"6552960391903","target":"present","response":"present","rt":"9312.4000000358","correct":true,"confidence":1},{"trial_n":120,"span":13,"encoder":"1506368102098","distractor":"1906368102098","target":"present","response":"present","rt":"6812.8999999762","correct":true,"confidence":1},{"trial_n":121,"span":14,"encoder":"92556287323406","distractor":"92557287323406","target":"present","response":"present","rt":"7116","correct":true,"confidence":3},{"trial_n":122,"span":14,"encoder":"96763645726780","distractor":"96763645729780","target":"absent","response":"absent","rt":"8814.3000000119","correct":true,"confidence":2},{"trial_n":123,"span":15,"encoder":"121841239132755","distractor":"121848239132755","target":"absent","response":"absent","rt":"10721.400000036","correct":true,"confidence":2},{"trial_n":124,"span":15,"encoder":"952841297627401","distractor":"952841297623401","target":"absent","response":"absent","rt":"6883.1999999881","correct":true,"confidence":2},{"trial_n":125,"span":16,"encoder":"7717929386221683","distractor":"7717929386225683","target":"absent","response":"absent","rt":"4873.6999999881","correct":true,"confidence":5},{"trial_n":126,"span":16,"encoder":"9108484334857444","distractor":"9108484304857444","target":"present","response":"present","rt":"10561.800000012","correct":true,"confidence":1},{"trial_n":127,"span":17,"encoder":"83923347498946151","distractor":"83923047498946151","target":"present","response":"present","rt":"10541.5","correct":true,"confidence":4},{"trial_n":128,"span":17,"encoder":"88651223522796185","distractor":"88651226522796185","target":"present","response":"present","rt":"9534.6000000238","correct":true,"confidence":1},{"trial_n":129,"span":18,"encoder":"574131964440009625","distractor":"577131964440009625","target":"present","response":"absent","rt":"6265.1000000238","correct":false,"confidence":3},{"trial_n":130,"span":17,"encoder":"97732029334811138","distractor":"97712029334811138","target":"absent","response":"present","rt":"4350.4000000358","correct":false,"confidence":3},{"trial_n":131,"span":16,"encoder":"3187891206931723","distractor":"3187891206931323","target":"absent","response":"absent","rt":"2447.6999999881","correct":true,"confidence":4},{"trial_n":132,"span":16,"encoder":"5872519117127151","distractor":"5872519117027151","target":"present","response":"present","rt":"5544.5","correct":true,"confidence":3},{"trial_n":133,"span":17,"encoder":"41187528996970233","distractor":"41137528996970233","target":"absent","response":"absent","rt":"3381.1999999881","correct":true,"confidence":1},{"trial_n":134,"span":17,"encoder":"80027174772083024","distractor":"80027174770083024","target":"absent","response":"absent","rt":"5120.8000000119","correct":true,"confidence":4},{"trial_n":135,"span":18,"encoder":"544611931752811472","distractor":"544611931752811442","target":"absent","response":"absent","rt":"2685.5","correct":true,"confidence":5},{"trial_n":136,"span":18,"encoder":"494957687509970332","distractor":"494957687509970362","target":"present","response":"present","rt":"5195.1999999881","correct":true,"confidence":1},{"trial_n":137,"span":19,"encoder":"8675529494880922333","distractor":"8675529494889922333","target":"absent","response":"present","rt":"10609.300000012","correct":false,"confidence":1},{"trial_n":138,"span":18,"encoder":"315249912156535723","distractor":"315249972156535723","target":"present","response":"absent","rt":"5031.5","correct":false,"confidence":2},{"trial_n":139,"span":17,"encoder":"16360561929217901","distractor":"16360561929017901","target":"absent","response":"absent","rt":"4388.6999999881","correct":true,"confidence":5},{"trial_n":140,"span":17,"encoder":"33296660285973417","distractor":"33296660285983417","target":"present","response":"absent","rt":"9925.7999999523","correct":false,"confidence":2}]