[{"trial_n":1,"n_dots":4.25,"target":"left","response":"left","rt":3479.7999999523,"correct":true,"confidence":-1},{"trial_n":2,"n_dots":4.25,"target":"left","response":"left","rt":1107,"correct":true,"confidence":-1},{"trial_n":3,"n_dots":3.85,"target":"left","response":"left","rt":793.30000001192,"correct":true,"confidence":-1},{"trial_n":4,"n_dots":3.85,"target":"left","response":"right","rt":1423.3000000119,"correct":false,"confidence":-1},{"trial_n":5,"n_dots":4.25,"target":"right","response":"right","rt":435,"correct":true,"confidence":-1},{"trial_n":6,"n_dots":4.25,"target":"left","response":"right","rt":453,"correct":false,"confidence":-1},{"trial_n":7,"n_dots":4.65,"target":"left","response":"left","rt":743.80000001192,"correct":true,"confidence":-1},{"trial_n":8,"n_dots":4.65,"target":"left","response":"left","rt":425.69999998808,"correct":true,"confidence":-1},{"trial_n":9,"n_dots":4.45,"target":"left","response":"right","rt":509.19999998808,"correct":false,"confidence":-1},{"trial_n":10,"n_dots":4.65,"target":"left","response":"left","rt":939.80000001192,"correct":true,"confidence":-1},{"trial_n":11,"n_dots":4.65,"target":"right","response":"right","rt":151.40000003576,"correct":true,"confidence":-1},{"trial_n":12,"n_dots":4.45,"target":"right","response":"right","rt":728,"correct":true,"confidence":-1},{"trial_n":13,"n_dots":4.45,"target":"right","response":"right","rt":370.89999997616,"correct":true,"confidence":-1},{"trial_n":14,"n_dots":4.35,"target":"right","response":"right","rt":446.90000003576,"correct":true,"confidence":-1},{"trial_n":15,"n_dots":4.35,"target":"right","response":"right","rt":373.19999998808,"correct":true,"confidence":-1},{"trial_n":16,"n_dots":4.25,"target":"right","response":"right","rt":443.19999998808,"correct":true,"confidence":-1},{"trial_n":17,"n_dots":4.25,"target":"right","response":"right","rt":235.59999996424,"correct":true,"confidence":-1},{"trial_n":18,"n_dots":4.15,"target":"left","response":"right","rt":993.10000002384,"correct":false,"confidence":-1},{"trial_n":19,"n_dots":4.25,"target":"right","response":"right","rt":156.80000001192,"correct":true,"confidence":-1},{"trial_n":20,"n_dots":4.25,"target":"left","response":"right","rt":404,"correct":false,"confidence":-1},{"trial_n":21,"n_dots":4.35,"target":"right","response":"right","rt":93.300000011921,"correct":true,"confidence":4},{"trial_n":22,"n_dots":4.35,"target":"left","response":"left","rt":1390.3000000119,"correct":true,"confidence":4},{"trial_n":23,"n_dots":4.25,"target":"left","response":"left","rt":1194.5,"correct":true,"confidence":4},{"trial_n":24,"n_dots":4.25,"target":"right","response":"right","rt":1784.8000000119,"correct":true,"confidence":5},{"trial_n":25,"n_dots":4.15,"target":"right","response":"right","rt":994.10000002384,"correct":true,"confidence":5},{"trial_n":26,"n_dots":4.15,"target":"right","response":"right","rt":1313.8000000119,"correct":true,"confidence":5},{"trial_n":27,"n_dots":4.05,"target":"left","response":"left","rt":935.5,"correct":true,"confidence":4},{"trial_n":28,"n_dots":4.05,"target":"right","response":"right","rt":1286.3999999762,"correct":true,"confidence":4},{"trial_n":29,"n_dots":3.95,"target":"right","response":"right","rt":1164,"correct":true,"confidence":4},{"trial_n":30,"n_dots":3.95,"target":"left","response":"left","rt":842.80000001192,"correct":true,"confidence":3},{"trial_n":31,"n_dots":3.85,"target":"right","response":"right","rt":778.39999997616,"correct":true,"confidence":5},{"trial_n":32,"n_dots":3.85,"target":"right","response":"right","rt":1110.8999999762,"correct":true,"confidence":5},{"trial_n":33,"n_dots":3.75,"target":"left","response":"right","rt":684.90000003576,"correct":false,"confidence":4},{"trial_n":34,"n_dots":3.85,"target":"right","response":"right","rt":759.19999998808,"correct":true,"confidence":4},{"trial_n":35,"n_dots":3.85,"target":"left","response":"left","rt":1923.6000000238,"correct":true,"confidence":3},{"trial_n":36,"n_dots":3.75,"target":"right","response":"right","rt":745.39999997616,"correct":true,"confidence":4},{"trial_n":37,"n_dots":3.75,"target":"right","response":"right","rt":630.89999997616,"correct":true,"confidence":5},{"trial_n":38,"n_dots":3.65,"target":"left","response":"left","rt":990,"correct":true,"confidence":3},{"trial_n":39,"n_dots":3.65,"target":"left","response":"left","rt":907.30000001192,"correct":true,"confidence":3},{"trial_n":40,"n_dots":3.55,"target":"left","response":"left","rt":831.5,"correct":true,"confidence":3},{"trial_n":41,"n_dots":3.55,"target":"right","response":"right","rt":1142,"correct":true,"confidence":4},{"trial_n":42,"n_dots":3.45,"target":"left","response":"left","rt":985.5,"correct":true,"confidence":3},{"trial_n":43,"n_dots":3.45,"target":"right","response":"left","rt":1039.1000000238,"correct":false,"confidence":3},{"trial_n":44,"n_dots":3.55,"target":"right","response":"right","rt":2862.1999999881,"correct":true,"confidence":4},{"trial_n":45,"n_dots":3.55,"target":"left","response":"right","rt":1814.5999999642,"correct":false,"confidence":3},{"trial_n":46,"n_dots":3.65,"target":"left","response":"left","rt":1188.5999999642,"correct":true,"confidence":2},{"trial_n":47,"n_dots":3.65,"target":"left","response":"left","rt":1597.1000000238,"correct":true,"confidence":2},{"trial_n":48,"n_dots":3.55,"target":"left","response":"left","rt":1670.6999999881,"correct":true,"confidence":3},{"trial_n":49,"n_dots":3.55,"target":"left","response":"left","rt":838.90000003576,"correct":true,"confidence":4},{"trial_n":50,"n_dots":3.45,"target":"right","response":"right","rt":780.30000001192,"correct":true,"confidence":5},{"trial_n":51,"n_dots":3.45,"target":"left","response":"right","rt":2158.5,"correct":false,"confidence":4},{"trial_n":52,"n_dots":3.55,"target":"right","response":"right","rt":1834.5,"correct":true,"confidence":3},{"trial_n":53,"n_dots":3.55,"target":"left","response":"left","rt":796.10000002384,"correct":true,"confidence":3},{"trial_n":54,"n_dots":3.45,"target":"right","response":"left","rt":1082.1999999881,"correct":false,"confidence":4},{"trial_n":55,"n_dots":3.55,"target":"right","response":"left","rt":1296.6999999881,"correct":false,"confidence":3},{"trial_n":56,"n_dots":3.65,"target":"left","response":"left","rt":786.29999995232,"correct":true,"confidence":4},{"trial_n":57,"n_dots":3.65,"target":"right","response":"right","rt":1752.8000000119,"correct":true,"confidence":4},{"trial_n":58,"n_dots":3.55,"target":"left","response":"left","rt":608.69999998808,"correct":true,"confidence":4},{"trial_n":59,"n_dots":3.55,"target":"left","response":"left","rt":793.30000001192,"correct":true,"confidence":3},{"trial_n":60,"n_dots":3.45,"target":"right","response":"right","rt":791.5,"correct":true,"confidence":5},{"trial_n":61,"n_dots":3.45,"target":"left","response":"right","rt":1387.1000000238,"correct":false,"confidence":4},{"trial_n":62,"n_dots":3.55,"target":"right","response":"right","rt":1176.1000000238,"correct":true,"confidence":4},{"trial_n":63,"n_dots":3.55,"target":"right","response":"right","rt":2853,"correct":true,"confidence":4},{"trial_n":64,"n_dots":3.45,"target":"right","response":"right","rt":992,"correct":true,"confidence":4},{"trial_n":65,"n_dots":3.45,"target":"left","response":"left","rt":740.30000001192,"correct":true,"confidence":3},{"trial_n":66,"n_dots":3.35,"target":"right","response":"left","rt":1582.3999999762,"correct":false,"confidence":2},{"trial_n":67,"n_dots":3.45,"target":"right","response":"right","rt":1270.1000000238,"correct":true,"confidence":4},{"trial_n":68,"n_dots":3.45,"target":"right","response":"left","rt":3106.5999999642,"correct":false,"confidence":3},{"trial_n":69,"n_dots":3.55,"target":"right","response":"right","rt":959.5,"correct":true,"confidence":3},{"trial_n":70,"n_dots":3.55,"target":"left","response":"left","rt":1439,"correct":true,"confidence":2},{"trial_n":71,"n_dots":3.45,"target":"right","response":"left","rt":1367.6000000238,"correct":false,"confidence":4},{"trial_n":72,"n_dots":3.55,"target":"left","response":"left","rt":784.80000001192,"correct":true,"confidence":3},{"trial_n":73,"n_dots":3.55,"target":"left","response":"left","rt":1241.6999999881,"correct":true,"confidence":5},{"trial_n":74,"n_dots":3.45,"target":"left","response":"right","rt":2032.5,"correct":false,"confidence":3},{"trial_n":75,"n_dots":3.55,"target":"right","response":"left","rt":873.69999998808,"correct":false,"confidence":3},{"trial_n":76,"n_dots":3.65,"target":"left","response":"right","rt":1388.0999999642,"correct":false,"confidence":4},{"trial_n":77,"n_dots":3.75,"target":"right","response":"left","rt":924.60000002384,"correct":false,"confidence":4},{"trial_n":78,"n_dots":3.85,"target":"right","response":"right","rt":879.19999998808,"correct":true,"confidence":4},{"trial_n":79,"n_dots":3.85,"target":"right","response":"right","rt":1069.8999999762,"correct":true,"confidence":5},{"trial_n":80,"n_dots":3.75,"target":"right","response":"right","rt":841.39999997616,"correct":true,"confidence":5},{"trial_n":81,"n_dots":3.75,"target":"left","response":"left","rt":708.89999997616,"correct":true,"confidence":4},{"trial_n":82,"n_dots":3.65,"target":"right","response":"right","rt":568.89999997616,"correct":true,"confidence":5},{"trial_n":83,"n_dots":3.65,"target":"left","response":"right","rt":1856.1999999881,"correct":false,"confidence":3},{"trial_n":84,"n_dots":3.75,"target":"left","response":"left","rt":622.10000002384,"correct":true,"confidence":4},{"trial_n":85,"n_dots":3.75,"target":"left","response":"left","rt":249.60000002384,"correct":true,"confidence":5},{"trial_n":86,"n_dots":3.65,"target":"left","response":"left","rt":602.19999998808,"correct":true,"confidence":4},{"trial_n":87,"n_dots":3.65,"target":"left","response":"right","rt":3261.3000000119,"correct":false,"confidence":3},{"trial_n":88,"n_dots":3.75,"target":"right","response":"left","rt":865.80000001192,"correct":false,"confidence":5},{"trial_n":89,"n_dots":3.85,"target":"left","response":"right","rt":874.09999996424,"correct":false,"confidence":2},{"trial_n":90,"n_dots":3.95,"target":"right","response":"right","rt":921.30000001192,"correct":true,"confidence":5},{"trial_n":91,"n_dots":3.95,"target":"right","response":"right","rt":503.69999998808,"correct":true,"confidence":5},{"trial_n":92,"n_dots":3.85,"target":"left","response":"left","rt":728.30000001192,"correct":true,"confidence":4},{"trial_n":93,"n_dots":3.85,"target":"right","response":"right","rt":904.29999995232,"correct":true,"confidence":5},{"trial_n":94,"n_dots":3.75,"target":"right","response":"right","rt":869,"correct":true,"confidence":4},{"trial_n":95,"n_dots":3.75,"target":"right","response":"right","rt":3462.9000000358,"correct":true,"confidence":4},{"trial_n":96,"n_dots":3.65,"target":"right","response":"right","rt":479.19999998808,"correct":true,"confidence":5},{"trial_n":97,"n_dots":3.65,"target":"left","response":"right","rt":949.10000002384,"correct":false,"confidence":5},{"trial_n":98,"n_dots":3.75,"target":"left","response":"right","rt":700.19999998808,"correct":false,"confidence":4},{"trial_n":99,"n_dots":3.85,"target":"left","response":"left","rt":1046.7999999523,"correct":true,"confidence":4},{"trial_n":100,"n_dots":3.85,"target":"left","response":"left","rt":922.80000001192,"correct":true,"confidence":4},{"trial_n":101,"n_dots":3.75,"target":"right","response":"right","rt":748.80000001192,"correct":true,"confidence":5},{"trial_n":102,"n_dots":3.75,"target":"right","response":"right","rt":707.69999998808,"correct":true,"confidence":4},{"trial_n":103,"n_dots":3.65,"target":"left","response":"left","rt":1271.5,"correct":true,"confidence":4},{"trial_n":104,"n_dots":3.65,"target":"left","response":"left","rt":726.80000001192,"correct":true,"confidence":4},{"trial_n":105,"n_dots":3.55,"target":"right","response":"right","rt":865.59999996424,"correct":true,"confidence":4},{"trial_n":106,"n_dots":3.55,"target":"right","response":"left","rt":1779.1999999881,"correct":false,"confidence":3},{"trial_n":107,"n_dots":3.65,"target":"left","response":"left","rt":753.5,"correct":true,"confidence":3},{"trial_n":108,"n_dots":3.65,"target":"right","response":"left","rt":978.10000002384,"correct":false,"confidence":3},{"trial_n":109,"n_dots":3.75,"target":"right","response":"right","rt":1538.1000000238,"correct":true,"confidence":4},{"trial_n":110,"n_dots":3.75,"target":"left","response":"left","rt":2220.8000000119,"correct":true,"confidence":3},{"trial_n":111,"n_dots":3.65,"target":"right","response":"right","rt":650.40000003576,"correct":true,"confidence":5},{"trial_n":112,"n_dots":3.65,"target":"right","response":"left","rt":3782.0999999642,"correct":false,"confidence":3},{"trial_n":113,"n_dots":3.75,"target":"right","response":"right","rt":783.5,"correct":true,"confidence":4},{"trial_n":114,"n_dots":3.75,"target":"left","response":"left","rt":1935.6999999881,"correct":true,"confidence":2},{"trial_n":115,"n_dots":3.65,"target":"left","response":"left","rt":831,"correct":true,"confidence":5},{"trial_n":116,"n_dots":3.65,"target":"left","response":"left","rt":838.5,"correct":true,"confidence":5},{"trial_n":117,"n_dots":3.55,"target":"left","response":"left","rt":822.19999998808,"correct":true,"confidence":5},{"trial_n":118,"n_dots":3.55,"target":"left","response":"left","rt":991.40000003576,"correct":true,"confidence":4},{"trial_n":119,"n_dots":3.45,"target":"right","response":"left","rt":848.70000004768,"correct":false,"confidence":5},{"trial_n":120,"n_dots":3.55,"target":"left","response":"left","rt":713.69999998808,"correct":true,"confidence":4}]