[{"trial_n":1,"min":25,"max":230,"target":"present","response":"absent","rt":6201,"correct":false,"confidence":-1},{"trial_n":2,"min":25,"max":230,"target":"present","response":"present","rt":1573,"correct":true,"confidence":-1},{"trial_n":3,"min":25,"max":230,"target":"absent","response":"absent","rt":1971.6000000238,"correct":true,"confidence":-1},{"trial_n":4,"min":41,"max":214,"target":"absent","response":"absent","rt":849,"correct":true,"confidence":-1},{"trial_n":5,"min":41,"max":214,"target":"present","response":"present","rt":1279.1999999881,"correct":true,"confidence":-1},{"trial_n":6,"min":57,"max":198,"target":"absent","response":"absent","rt":3371.9000000358,"correct":true,"confidence":-1},{"trial_n":7,"min":57,"max":198,"target":"present","response":"present","rt":722.39999997616,"correct":true,"confidence":-1},{"trial_n":8,"min":73,"max":182,"target":"absent","response":"absent","rt":689.69999998808,"correct":true,"confidence":-1},{"trial_n":9,"min":73,"max":182,"target":"present","response":"absent","rt":605.70000004768,"correct":false,"confidence":-1},{"trial_n":10,"min":57,"max":198,"target":"present","response":"present","rt":429.10000002384,"correct":true,"confidence":-1},{"trial_n":11,"min":57,"max":198,"target":"absent","response":"absent","rt":535.90000003576,"correct":true,"confidence":-1},{"trial_n":12,"min":65,"max":190,"target":"present","response":"present","rt":494.39999997616,"correct":true,"confidence":-1},{"trial_n":13,"min":65,"max":190,"target":"absent","response":"absent","rt":474.19999998808,"correct":true,"confidence":-1},{"trial_n":14,"min":73,"max":182,"target":"present","response":"present","rt":473.69999998808,"correct":true,"confidence":-1},{"trial_n":15,"min":73,"max":182,"target":"present","response":"present","rt":634,"correct":true,"confidence":-1},{"trial_n":16,"min":81,"max":174,"target":"absent","response":"absent","rt":616.39999997616,"correct":true,"confidence":-1},{"trial_n":17,"min":81,"max":174,"target":"absent","response":"absent","rt":526,"correct":true,"confidence":-1},{"trial_n":18,"min":89,"max":166,"target":"absent","response":"absent","rt":529.5,"correct":true,"confidence":-1},{"trial_n":19,"min":89,"max":166,"target":"present","response":"present","rt":684.10000002384,"correct":true,"confidence":-1},{"trial_n":20,"min":97,"max":158,"target":"absent","response":"absent","rt":374.89999997616,"correct":true,"confidence":-1},{"trial_n":21,"min":97,"max":158,"target":"present","response":"absent","rt":1107.7000000477,"correct":false,"confidence":3},{"trial_n":22,"min":93,"max":162,"target":"absent","response":"present","rt":989.19999998808,"correct":false,"confidence":5},{"trial_n":23,"min":89,"max":166,"target":"present","response":"absent","rt":670.69999998808,"correct":false,"confidence":4},{"trial_n":24,"min":85,"max":170,"target":"present","response":"present","rt":864.90000003576,"correct":true,"confidence":5},{"trial_n":25,"min":85,"max":170,"target":"present","response":"present","rt":679.10000002384,"correct":true,"confidence":5},{"trial_n":26,"min":89,"max":166,"target":"present","response":"present","rt":749.19999998808,"correct":true,"confidence":3},{"trial_n":27,"min":89,"max":166,"target":"absent","response":"absent","rt":1172.4000000358,"correct":true,"confidence":4},{"trial_n":28,"min":93,"max":162,"target":"absent","response":"absent","rt":1084.8999999762,"correct":true,"confidence":5},{"trial_n":29,"min":93,"max":162,"target":"present","response":"present","rt":731.69999998808,"correct":true,"confidence":5},{"trial_n":30,"min":97,"max":158,"target":"present","response":"absent","rt":1024.3999999762,"correct":false,"confidence":3},{"trial_n":31,"min":95,"max":160,"target":"present","response":"present","rt":838.59999996424,"correct":true,"confidence":3},{"trial_n":32,"min":95,"max":160,"target":"present","response":"absent","rt":1475.5,"correct":false,"confidence":4},{"trial_n":33,"min":93,"max":162,"target":"present","response":"absent","rt":3343,"correct":false,"confidence":3},{"trial_n":34,"min":91,"max":164,"target":"absent","response":"absent","rt":1039.5,"correct":true,"confidence":5},{"trial_n":35,"min":91,"max":164,"target":"present","response":"absent","rt":1100.8999999762,"correct":false,"confidence":4},{"trial_n":36,"min":89,"max":166,"target":"present","response":"present","rt":3338.6999999881,"correct":true,"confidence":5},{"trial_n":37,"min":89,"max":166,"target":"present","response":"absent","rt":857.20000004768,"correct":false,"confidence":5},{"trial_n":38,"min":87,"max":168,"target":"absent","response":"absent","rt":971.20000004768,"correct":true,"confidence":5},{"trial_n":39,"min":87,"max":168,"target":"absent","response":"absent","rt":1160.6999999881,"correct":true,"confidence":3},{"trial_n":40,"min":89,"max":166,"target":"present","response":"present","rt":1524.6000000238,"correct":true,"confidence":4},{"trial_n":41,"min":89,"max":166,"target":"present","response":"present","rt":964.60000002384,"correct":true,"confidence":5},{"trial_n":42,"min":90,"max":165,"target":"present","response":"absent","rt":790.39999997616,"correct":false,"confidence":5},{"trial_n":43,"min":89,"max":166,"target":"absent","response":"absent","rt":2436.3000000119,"correct":true,"confidence":5},{"trial_n":44,"min":89,"max":166,"target":"present","response":"present","rt":1101.8000000119,"correct":true,"confidence":5},{"trial_n":45,"min":90,"max":165,"target":"absent","response":"present","rt":2150.9000000358,"correct":false,"confidence":5},{"trial_n":46,"min":89,"max":166,"target":"absent","response":"absent","rt":726.30000001192,"correct":true,"confidence":4},{"trial_n":47,"min":89,"max":166,"target":"absent","response":"absent","rt":1587.9000000358,"correct":true,"confidence":3},{"trial_n":48,"min":90,"max":165,"target":"absent","response":"absent","rt":832.09999996424,"correct":true,"confidence":4},{"trial_n":49,"min":90,"max":165,"target":"absent","response":"absent","rt":1050.6999999881,"correct":true,"confidence":4},{"trial_n":50,"min":91,"max":164,"target":"absent","response":"absent","rt":1182.4000000358,"correct":true,"confidence":3},{"trial_n":51,"min":91,"max":164,"target":"absent","response":"absent","rt":818.10000002384,"correct":true,"confidence":3},{"trial_n":52,"min":92,"max":163,"target":"absent","response":"absent","rt":868.30000001192,"correct":true,"confidence":4},{"trial_n":53,"min":92,"max":163,"target":"present","response":"absent","rt":2813.4000000358,"correct":false,"confidence":3},{"trial_n":54,"min":91,"max":164,"target":"absent","response":"present","rt":1789.8000000119,"correct":false,"confidence":3},{"trial_n":55,"min":90,"max":165,"target":"present","response":"absent","rt":1803.3999999762,"correct":false,"confidence":4},{"trial_n":56,"min":89,"max":166,"target":"absent","response":"absent","rt":1157.5,"correct":true,"confidence":5},{"trial_n":57,"min":89,"max":166,"target":"present","response":"absent","rt":1016.1000000238,"correct":false,"confidence":5},{"trial_n":58,"min":88,"max":167,"target":"present","response":"absent","rt":944.40000003576,"correct":false,"confidence":5},{"trial_n":59,"min":87,"max":168,"target":"absent","response":"absent","rt":837.80000001192,"correct":true,"confidence":5},{"trial_n":60,"min":87,"max":168,"target":"absent","response":"absent","rt":795.19999998808,"correct":true,"confidence":5},{"trial_n":61,"min":88,"max":167,"target":"absent","response":"absent","rt":871.20000004768,"correct":true,"confidence":4},{"trial_n":62,"min":88,"max":167,"target":"absent","response":"absent","rt":663.39999997616,"correct":true,"confidence":5},{"trial_n":63,"min":89,"max":166,"target":"present","response":"absent","rt":726.60000002384,"correct":false,"confidence":5},{"trial_n":64,"min":88,"max":167,"target":"present","response":"present","rt":2056.5,"correct":true,"confidence":4},{"trial_n":65,"min":88,"max":167,"target":"present","response":"absent","rt":667.69999998808,"correct":false,"confidence":5},{"trial_n":66,"min":87,"max":168,"target":"absent","response":"absent","rt":707.80000001192,"correct":true,"confidence":4},{"trial_n":67,"min":87,"max":168,"target":"absent","response":"absent","rt":657.09999996424,"correct":true,"confidence":4},{"trial_n":68,"min":88,"max":167,"target":"absent","response":"absent","rt":951.19999998808,"correct":true,"confidence":4},{"trial_n":69,"min":88,"max":167,"target":"present","response":"present","rt":2055.6000000238,"correct":true,"confidence":3},{"trial_n":70,"min":89,"max":166,"target":"present","response":"present","rt":1820.8999999762,"correct":true,"confidence":5},{"trial_n":71,"min":41,"max":214,"target":"present","response":"present","rt":2796.5,"correct":true,"confidence":-1},{"trial_n":72,"min":41,"max":214,"target":"present","response":"present","rt":892.80000001192,"correct":true,"confidence":-1},{"trial_n":73,"min":57,"max":198,"target":"absent","response":"absent","rt":1307.5,"correct":true,"confidence":-1},{"trial_n":74,"min":57,"max":198,"target":"absent","response":"absent","rt":593.90000003576,"correct":true,"confidence":-1},{"trial_n":75,"min":73,"max":182,"target":"present","response":"present","rt":365.80000001192,"correct":true,"confidence":-1},{"trial_n":76,"min":73,"max":182,"target":"absent","response":"absent","rt":500.10000002384,"correct":true,"confidence":-1},{"trial_n":77,"min":89,"max":166,"target":"absent","response":"absent","rt":469.39999997616,"correct":true,"confidence":-1},{"trial_n":78,"min":89,"max":166,"target":"absent","response":"absent","rt":613.80000001192,"correct":true,"confidence":-1},{"trial_n":79,"min":105,"max":150,"target":"absent","response":"absent","rt":570.10000002384,"correct":true,"confidence":-1},{"trial_n":80,"min":105,"max":150,"target":"present","response":"present","rt":1074,"correct":true,"confidence":-1},{"trial_n":81,"min":113,"max":142,"target":"absent","response":"absent","rt":497,"correct":true,"confidence":-1},{"trial_n":82,"min":113,"max":142,"target":"present","response":"present","rt":1571,"correct":true,"confidence":-1},{"trial_n":83,"min":121,"max":134,"target":"present","response":"present","rt":652.19999998808,"correct":true,"confidence":-1},{"trial_n":84,"min":121,"max":134,"target":"present","response":"present","rt":567.10000002384,"correct":true,"confidence":-1},{"trial_n":85,"min":121,"max":134,"target":"absent","response":"absent","rt":1178.5,"correct":true,"confidence":-1},{"trial_n":86,"min":121,"max":134,"target":"absent","response":"absent","rt":631.30000001192,"correct":true,"confidence":-1},{"trial_n":87,"min":121,"max":134,"target":"absent","response":"present","rt":710.89999997616,"correct":false,"confidence":-1},{"trial_n":88,"min":121,"max":134,"target":"absent","response":"absent","rt":521,"correct":true,"confidence":-1},{"trial_n":89,"min":121,"max":134,"target":"present","response":"present","rt":1840.6999999881,"correct":true,"confidence":-1},{"trial_n":90,"min":121,"max":134,"target":"present","response":"present","rt":706.10000002384,"correct":true,"confidence":-1},{"trial_n":91,"min":121,"max":134,"target":"absent","response":"present","rt":963.30000001192,"correct":false,"confidence":4},{"trial_n":92,"min":117,"max":138,"target":"present","response":"present","rt":770.60000002384,"correct":true,"confidence":5},{"trial_n":93,"min":117,"max":138,"target":"present","response":"present","rt":571.29999995232,"correct":true,"confidence":5},{"trial_n":94,"min":121,"max":134,"target":"absent","response":"present","rt":1595,"correct":false,"confidence":4},{"trial_n":95,"min":117,"max":138,"target":"absent","response":"absent","rt":1780.6999999881,"correct":true,"confidence":4},{"trial_n":96,"min":117,"max":138,"target":"absent","response":"present","rt":4636.8999999762,"correct":false,"confidence":3},{"trial_n":97,"min":113,"max":142,"target":"present","response":"present","rt":824.69999998808,"correct":true,"confidence":5},{"trial_n":98,"min":113,"max":142,"target":"present","response":"present","rt":908.90000003576,"correct":true,"confidence":4},{"trial_n":99,"min":117,"max":138,"target":"absent","response":"present","rt":1298.6999999881,"correct":false,"confidence":4},{"trial_n":100,"min":113,"max":142,"target":"absent","response":"present","rt":2561,"correct":false,"confidence":2},{"trial_n":101,"min":111,"max":144,"target":"absent","response":"present","rt":1985.8000000119,"correct":false,"confidence":3},{"trial_n":102,"min":109,"max":146,"target":"present","response":"present","rt":524.30000001192,"correct":true,"confidence":2},{"trial_n":103,"min":109,"max":146,"target":"present","response":"present","rt":1118.1999999881,"correct":true,"confidence":3},{"trial_n":104,"min":111,"max":144,"target":"present","response":"present","rt":480.69999998808,"correct":true,"confidence":4},{"trial_n":105,"min":111,"max":144,"target":"present","response":"present","rt":871.30000001192,"correct":true,"confidence":5},{"trial_n":106,"min":113,"max":142,"target":"present","response":"present","rt":662.40000003576,"correct":true,"confidence":5},{"trial_n":107,"min":113,"max":142,"target":"present","response":"absent","rt":1908.3000000119,"correct":false,"confidence":2},{"trial_n":108,"min":111,"max":144,"target":"absent","response":"absent","rt":1511.3999999762,"correct":true,"confidence":1},{"trial_n":109,"min":111,"max":144,"target":"present","response":"present","rt":1799.6999999881,"correct":true,"confidence":1},{"trial_n":110,"min":113,"max":142,"target":"present","response":"present","rt":5817.5,"correct":true,"confidence":2},{"trial_n":111,"min":113,"max":142,"target":"absent","response":"absent","rt":3576,"correct":true,"confidence":3},{"trial_n":112,"min":114,"max":141,"target":"present","response":"present","rt":595.30000001192,"correct":true,"confidence":5},{"trial_n":113,"min":114,"max":141,"target":"present","response":"present","rt":2333.8999999762,"correct":true,"confidence":3},{"trial_n":114,"min":115,"max":140,"target":"present","response":"absent","rt":1714.6999999881,"correct":false,"confidence":2},{"trial_n":115,"min":114,"max":141,"target":"present","response":"present","rt":685.89999997616,"correct":true,"confidence":5},{"trial_n":116,"min":114,"max":141,"target":"absent","response":"absent","rt":1266.1999999881,"correct":true,"confidence":3},{"trial_n":117,"min":115,"max":140,"target":"absent","response":"absent","rt":2422.4000000358,"correct":true,"confidence":3},{"trial_n":118,"min":115,"max":140,"target":"absent","response":"present","rt":2332.8000000119,"correct":false,"confidence":3},{"trial_n":119,"min":114,"max":141,"target":"present","response":"present","rt":673.09999996424,"correct":true,"confidence":3},{"trial_n":120,"min":114,"max":141,"target":"absent","response":"present","rt":696.20000004768,"correct":false,"confidence":3},{"trial_n":121,"min":113,"max":142,"target":"absent","response":"present","rt":1613.8999999762,"correct":false,"confidence":2},{"trial_n":122,"min":112,"max":143,"target":"present","response":"present","rt":1061.8000000119,"correct":true,"confidence":2},{"trial_n":123,"min":112,"max":143,"target":"absent","response":"present","rt":748.19999998808,"correct":false,"confidence":2},{"trial_n":124,"min":111,"max":144,"target":"absent","response":"absent","rt":1444.3999999762,"correct":true,"confidence":3},{"trial_n":125,"min":111,"max":144,"target":"present","response":"absent","rt":2342.5,"correct":false,"confidence":3},{"trial_n":126,"min":110,"max":145,"target":"absent","response":"present","rt":1657.0999999642,"correct":false,"confidence":1},{"trial_n":127,"min":109,"max":146,"target":"absent","response":"present","rt":732.40000003576,"correct":false,"confidence":1},{"trial_n":128,"min":108,"max":147,"target":"present","response":"present","rt":785.60000002384,"correct":true,"confidence":1},{"trial_n":129,"min":108,"max":147,"target":"present","response":"present","rt":404.39999997616,"correct":true,"confidence":1},{"trial_n":130,"min":109,"max":146,"target":"present","response":"present","rt":743.80000001192,"correct":true,"confidence":1},{"trial_n":131,"min":109,"max":146,"target":"present","response":"present","rt":1540.1999999881,"correct":true,"confidence":1},{"trial_n":132,"min":110,"max":145,"target":"present","response":"present","rt":1973,"correct":true,"confidence":4},{"trial_n":133,"min":110,"max":145,"target":"present","response":"absent","rt":1926.5,"correct":false,"confidence":4},{"trial_n":134,"min":109,"max":146,"target":"present","response":"present","rt":2100.2999999523,"correct":true,"confidence":3},{"trial_n":135,"min":109,"max":146,"target":"absent","response":"absent","rt":1886.6999999881,"correct":true,"confidence":3},{"trial_n":136,"min":110,"max":145,"target":"absent","response":"absent","rt":1448.3999999762,"correct":true,"confidence":3},{"trial_n":137,"min":110,"max":145,"target":"absent","response":"present","rt":1631.2999999523,"correct":false,"confidence":3},{"trial_n":138,"min":109,"max":146,"target":"absent","response":"absent","rt":820.5,"correct":true,"confidence":3},{"trial_n":139,"min":109,"max":146,"target":"absent","response":"present","rt":950.5,"correct":false,"confidence":1},{"trial_n":140,"min":108,"max":147,"target":"present","response":"present","rt":1164.5,"correct":true,"confidence":1}]