[{"trial_n":1,"span":8,"encoder":"87023059","distractor":"87523059","target":"present","response":"present","rt":"4736.3000000119","correct":true,"confidence":-1},{"trial_n":2,"span":8,"encoder":"28028946","distractor":"78028946","target":"present","response":"present","rt":"3145.4000000358","correct":true,"confidence":-1},{"trial_n":3,"span":10,"encoder":"3411663868","distractor":"3411663863","target":"absent","response":"present","rt":"3682.5999999642","correct":false,"confidence":-1},{"trial_n":4,"span":8,"encoder":"34040046","distractor":"34040946","target":"absent","response":"absent","rt":"3205.3000000119","correct":true,"confidence":-1},{"trial_n":5,"span":8,"encoder":"87048584","distractor":"87048586","target":"present","response":"present","rt":"2963.9000000358","correct":true,"confidence":-1},{"trial_n":6,"span":10,"encoder":"9400451293","distractor":"9400491293","target":"present","response":"present","rt":"2767.8999999762","correct":true,"confidence":-1},{"trial_n":7,"span":10,"encoder":"4851390001","distractor":"4851390401","target":"absent","response":"absent","rt":"2694","correct":true,"confidence":-1},{"trial_n":8,"span":12,"encoder":"130671794529","distractor":"130671794029","target":"present","response":"present","rt":"4661.5999999642","correct":true,"confidence":-1},{"trial_n":9,"span":12,"encoder":"267791319371","distractor":"267791319374","target":"absent","response":"present","rt":"3808.8999999762","correct":false,"confidence":-1},{"trial_n":10,"span":10,"encoder":"3325723013","distractor":"3325723213","target":"present","response":"present","rt":"2558.5","correct":true,"confidence":-1},{"trial_n":11,"span":10,"encoder":"4696154384","distractor":"4696154387","target":"absent","response":"absent","rt":"2910.5","correct":true,"confidence":-1},{"trial_n":12,"span":11,"encoder":"00337876570","distractor":"00337846570","target":"present","response":"present","rt":"3693","correct":true,"confidence":-1},{"trial_n":13,"span":11,"encoder":"65605890772","distractor":"65605894772","target":"absent","response":"present","rt":"2329.3999999762","correct":false,"confidence":-1},{"trial_n":14,"span":10,"encoder":"6498839190","distractor":"6798839190","target":"present","response":"present","rt":"3003.1000000238","correct":true,"confidence":-1},{"trial_n":15,"span":10,"encoder":"8472176099","distractor":"8472176049","target":"present","response":"present","rt":"1591.4000000358","correct":true,"confidence":-1},{"trial_n":16,"span":11,"encoder":"51420815696","distractor":"51420815616","target":"present","response":"present","rt":"2615.1999999881","correct":true,"confidence":-1},{"trial_n":17,"span":11,"encoder":"91347923423","distractor":"91337923423","target":"absent","response":"absent","rt":"4070.7000000477","correct":true,"confidence":-1},{"trial_n":18,"span":12,"encoder":"703909709867","distractor":"703909709367","target":"present","response":"present","rt":"3580.6999999881","correct":true,"confidence":-1},{"trial_n":19,"span":12,"encoder":"654677756819","distractor":"614677756819","target":"present","response":"present","rt":"2381.6999999881","correct":true,"confidence":-1},{"trial_n":20,"span":13,"encoder":"0921448574011","distractor":"0921448574411","target":"absent","response":"present","rt":"2622.6999999881","correct":false,"confidence":-1},{"trial_n":21,"span":12,"encoder":"008665615832","distractor":"078665615832","target":"absent","response":"absent","rt":"12125.100000024","correct":true,"confidence":3},{"trial_n":22,"span":12,"encoder":"071416107180","distractor":"471416107180","target":"absent","response":"present","rt":"3834.7000000477","correct":false,"confidence":4},{"trial_n":23,"span":11,"encoder":"78769414367","distractor":"78769414377","target":"absent","response":"present","rt":"3103.5","correct":false,"confidence":4},{"trial_n":24,"span":10,"encoder":"3906280757","distractor":"3904280757","target":"absent","response":"present","rt":"1718.8999999762","correct":false,"confidence":5},{"trial_n":25,"span":9,"encoder":"657036630","distractor":"657096630","target":"absent","response":"present","rt":"2073.1999999881","correct":false,"confidence":4},{"trial_n":26,"span":8,"encoder":"62928839","distractor":"62928639","target":"absent","response":"absent","rt":"1840.8999999762","correct":true,"confidence":5},{"trial_n":27,"span":8,"encoder":"95802953","distractor":"95882953","target":"absent","response":"absent","rt":"5737.3999999762","correct":true,"confidence":3},{"trial_n":28,"span":9,"encoder":"057839565","distractor":"057859565","target":"present","response":"present","rt":"2177.4000000358","correct":true,"confidence":5},{"trial_n":29,"span":9,"encoder":"661465712","distractor":"661465312","target":"present","response":"present","rt":"2987.6999999881","correct":true,"confidence":5},{"trial_n":30,"span":10,"encoder":"4239050653","distractor":"4239050663","target":"absent","response":"absent","rt":"3549.8999999762","correct":true,"confidence":4},{"trial_n":31,"span":10,"encoder":"8013634065","distractor":"8017634065","target":"present","response":"present","rt":"2911.0999999642","correct":true,"confidence":4},{"trial_n":32,"span":11,"encoder":"77237654522","distractor":"77237684522","target":"present","response":"absent","rt":"3499.4000000358","correct":false,"confidence":3},{"trial_n":33,"span":10,"encoder":"2752622765","distractor":"2752622665","target":"absent","response":"absent","rt":"2338.0999999642","correct":true,"confidence":3},{"trial_n":34,"span":10,"encoder":"6551847432","distractor":"6554847432","target":"present","response":"present","rt":"1595.2000000477","correct":true,"confidence":4},{"trial_n":35,"span":11,"encoder":"01524010135","distractor":"01525010135","target":"absent","response":"present","rt":"2456.1000000238","correct":false,"confidence":4},{"trial_n":36,"span":10,"encoder":"2747830460","distractor":"2747230460","target":"present","response":"present","rt":"1974.8000000119","correct":true,"confidence":4},{"trial_n":37,"span":10,"encoder":"5993464288","distractor":"5993464281","target":"present","response":"absent","rt":"7281.5999999642","correct":false,"confidence":3},{"trial_n":38,"span":9,"encoder":"312778246","distractor":"392778246","target":"absent","response":"present","rt":"1551.3000000119","correct":false,"confidence":5},{"trial_n":39,"span":8,"encoder":"62472918","distractor":"62472968","target":"absent","response":"present","rt":"1859.5","correct":false,"confidence":4},{"trial_n":40,"span":7,"encoder":"2633527","distractor":"2633627","target":"absent","response":"present","rt":"1970.6999999881","correct":false,"confidence":5},{"trial_n":41,"span":6,"encoder":"940347","distractor":"940747","target":"present","response":"present","rt":"1682.6000000238","correct":true,"confidence":5},{"trial_n":42,"span":6,"encoder":"198582","distractor":"198583","target":"absent","response":"absent","rt":"1790.2000000477","correct":true,"confidence":5},{"trial_n":43,"span":7,"encoder":"5280960","distractor":"5280967","target":"present","response":"present","rt":"2679.9000000358","correct":true,"confidence":4},{"trial_n":44,"span":7,"encoder":"7502463","distractor":"7502468","target":"present","response":"present","rt":"3715.8000000119","correct":true,"confidence":2},{"trial_n":45,"span":8,"encoder":"22365651","distractor":"22365661","target":"absent","response":"absent","rt":"3502.8000000119","correct":true,"confidence":3},{"trial_n":46,"span":8,"encoder":"37910673","distractor":"37910676","target":"absent","response":"absent","rt":"2540.1999999881","correct":true,"confidence":4},{"trial_n":47,"span":9,"encoder":"040879970","distractor":"047879970","target":"present","response":"present","rt":"4354.0999999642","correct":true,"confidence":3},{"trial_n":48,"span":9,"encoder":"883075641","distractor":"873075641","target":"absent","response":"absent","rt":"3206.5","correct":true,"confidence":5},{"trial_n":49,"span":10,"encoder":"3800385657","distractor":"3800387657","target":"present","response":"present","rt":"4704.2999999523","correct":true,"confidence":4},{"trial_n":50,"span":10,"encoder":"7858457373","distractor":"7858455373","target":"present","response":"present","rt":"3711.1999999881","correct":true,"confidence":3},{"trial_n":51,"span":11,"encoder":"86143063774","distractor":"36143063774","target":"absent","response":"present","rt":"2490.8000000119","correct":false,"confidence":4},{"trial_n":52,"span":10,"encoder":"6297533923","distractor":"6297533963","target":"present","response":"present","rt":"2227.1000000238","correct":true,"confidence":4},{"trial_n":53,"span":10,"encoder":"5401377435","distractor":"5401377485","target":"absent","response":"present","rt":"3188.1000000238","correct":false,"confidence":3},{"trial_n":54,"span":9,"encoder":"085952298","distractor":"081952298","target":"absent","response":"present","rt":"1897.0999999642","correct":false,"confidence":5},{"trial_n":55,"span":8,"encoder":"36054351","distractor":"36054350","target":"absent","response":"absent","rt":"2217","correct":true,"confidence":5},{"trial_n":56,"span":8,"encoder":"20980898","distractor":"00980898","target":"present","response":"present","rt":"3174.8000000119","correct":true,"confidence":5},{"trial_n":57,"span":9,"encoder":"689566480","distractor":"089566480","target":"present","response":"present","rt":"2043.4000000358","correct":true,"confidence":4},{"trial_n":58,"span":9,"encoder":"784087907","distractor":"764087907","target":"present","response":"present","rt":"1945.5","correct":true,"confidence":3},{"trial_n":59,"span":10,"encoder":"4833403209","distractor":"4873403209","target":"present","response":"present","rt":"2181.1999999881","correct":true,"confidence":4},{"trial_n":60,"span":10,"encoder":"3572371579","distractor":"3572351579","target":"present","response":"absent","rt":"2558.0999999642","correct":false,"confidence":3},{"trial_n":61,"span":9,"encoder":"865517701","distractor":"865557701","target":"present","response":"present","rt":"1938.9000000358","correct":true,"confidence":3},{"trial_n":62,"span":9,"encoder":"570580287","distractor":"570580227","target":"absent","response":"absent","rt":"2868.5","correct":true,"confidence":4},{"trial_n":63,"span":10,"encoder":"1855410418","distractor":"1855410818","target":"present","response":"present","rt":"3240.6999999881","correct":true,"confidence":4},{"trial_n":64,"span":10,"encoder":"5804715863","distractor":"5804745863","target":"absent","response":"absent","rt":"2826.6999999881","correct":true,"confidence":4},{"trial_n":65,"span":11,"encoder":"78194624206","distractor":"78194624216","target":"present","response":"present","rt":"2183.5","correct":true,"confidence":4},{"trial_n":66,"span":11,"encoder":"13122923909","distractor":"13122923609","target":"absent","response":"present","rt":"4276.8000000119","correct":false,"confidence":4},{"trial_n":67,"span":10,"encoder":"2303770570","distractor":"2303770577","target":"absent","response":"absent","rt":"4782.5999999642","correct":true,"confidence":3},{"trial_n":68,"span":10,"encoder":"6874550094","distractor":"6274550094","target":"present","response":"present","rt":"1933.1999999881","correct":true,"confidence":4},{"trial_n":69,"span":11,"encoder":"46767323090","distractor":"46767323092","target":"absent","response":"absent","rt":"4455.3999999762","correct":true,"confidence":3},{"trial_n":70,"span":11,"encoder":"31109301358","distractor":"31189301358","target":"present","response":"present","rt":"4100.6999999881","correct":true,"confidence":4},{"trial_n":71,"span":8,"encoder":"51754925","distractor":"51754725","target":"present","response":"present","rt":"3040.2000000477","correct":true,"confidence":-1},{"trial_n":72,"span":8,"encoder":"42095967","distractor":"42095927","target":"present","response":"present","rt":"1857.5","correct":true,"confidence":-1},{"trial_n":73,"span":9,"encoder":"254030050","distractor":"254130050","target":"absent","response":"absent","rt":"6556.6999999881","correct":true,"confidence":-1},{"trial_n":74,"span":9,"encoder":"253734746","distractor":"253734796","target":"absent","response":"absent","rt":"3367.5999999642","correct":true,"confidence":-1},{"trial_n":75,"span":10,"encoder":"9531870215","distractor":"9531570215","target":"present","response":"absent","rt":"8714.6999999881","correct":false,"confidence":-1},{"trial_n":76,"span":9,"encoder":"956986756","distractor":"956986716","target":"absent","response":"absent","rt":"2528.1999999881","correct":true,"confidence":-1},{"trial_n":77,"span":9,"encoder":"955160627","distractor":"955160623","target":"absent","response":"absent","rt":"1777.3999999762","correct":true,"confidence":-1},{"trial_n":78,"span":10,"encoder":"4368207429","distractor":"4368203429","target":"present","response":"present","rt":"4999.5999999642","correct":true,"confidence":-1},{"trial_n":79,"span":10,"encoder":"7101711794","distractor":"7101721794","target":"absent","response":"present","rt":"3635.5","correct":false,"confidence":-1},{"trial_n":80,"span":9,"encoder":"163651454","distractor":"167651454","target":"absent","response":"present","rt":"10307.800000012","correct":false,"confidence":-1},{"trial_n":81,"span":8,"encoder":"41342020","distractor":"41341020","target":"present","response":"present","rt":"6512.8999999762","correct":true,"confidence":-1},{"trial_n":82,"span":8,"encoder":"71856877","distractor":"51856877","target":"absent","response":"present","rt":"13529.800000012","correct":false,"confidence":-1},{"trial_n":83,"span":7,"encoder":"4750747","distractor":"4757747","target":"absent","response":"absent","rt":"8010.8000000119","correct":true,"confidence":-1},{"trial_n":84,"span":7,"encoder":"7864922","distractor":"7854922","target":"present","response":"absent","rt":"3485.5999999642","correct":false,"confidence":-1},{"trial_n":85,"span":6,"encoder":"646887","distractor":"643887","target":"absent","response":"absent","rt":"4125.3999999762","correct":true,"confidence":-1},{"trial_n":86,"span":6,"encoder":"050091","distractor":"550091","target":"absent","response":"absent","rt":"3010.0999999642","correct":true,"confidence":-1},{"trial_n":87,"span":7,"encoder":"2871977","distractor":"2851977","target":"absent","response":"absent","rt":"4295.6999999881","correct":true,"confidence":-1},{"trial_n":88,"span":7,"encoder":"9063413","distractor":"9063493","target":"present","response":"present","rt":"5585","correct":true,"confidence":-1},{"trial_n":89,"span":8,"encoder":"99743161","distractor":"49743161","target":"absent","response":"absent","rt":"4595.5999999642","correct":true,"confidence":-1},{"trial_n":90,"span":8,"encoder":"84984069","distractor":"84984066","target":"present","response":"present","rt":"7909.5999999642","correct":true,"confidence":-1},{"trial_n":91,"span":9,"encoder":"955693386","distractor":"955692386","target":"absent","response":"present","rt":"9883.0999999642","correct":false,"confidence":3},{"trial_n":92,"span":8,"encoder":"84242471","distractor":"84242474","target":"present","response":"present","rt":"3269.6000000238","correct":true,"confidence":5},{"trial_n":93,"span":8,"encoder":"86594397","distractor":"86599397","target":"absent","response":"absent","rt":"2481.1999999881","correct":true,"confidence":5},{"trial_n":94,"span":9,"encoder":"548023186","distractor":"548025186","target":"present","response":"present","rt":"6680.1000000238","correct":true,"confidence":2},{"trial_n":95,"span":9,"encoder":"653034468","distractor":"653024468","target":"present","response":"present","rt":"4906.1999999881","correct":true,"confidence":3},{"trial_n":96,"span":10,"encoder":"4341435278","distractor":"6341435278","target":"absent","response":"present","rt":"6147.5","correct":false,"confidence":3},{"trial_n":97,"span":9,"encoder":"471863090","distractor":"471843090","target":"present","response":"present","rt":"3203.9000000358","correct":true,"confidence":5},{"trial_n":98,"span":9,"encoder":"277227934","distractor":"277220934","target":"absent","response":"absent","rt":"4090.6999999881","correct":true,"confidence":4},{"trial_n":99,"span":10,"encoder":"8293106761","distractor":"8293166761","target":"absent","response":"present","rt":"4684.1999999881","correct":false,"confidence":4},{"trial_n":100,"span":9,"encoder":"727758760","distractor":"727738760","target":"absent","response":"absent","rt":"4791","correct":true,"confidence":5},{"trial_n":101,"span":9,"encoder":"462840041","distractor":"462640041","target":"present","response":"absent","rt":"3536.7000000477","correct":false,"confidence":4},{"trial_n":102,"span":8,"encoder":"40493413","distractor":"46493413","target":"absent","response":"absent","rt":"2123.5999999642","correct":true,"confidence":5},{"trial_n":103,"span":8,"encoder":"78876639","distractor":"78875639","target":"present","response":"present","rt":"2410.6000000238","correct":true,"confidence":5},{"trial_n":104,"span":9,"encoder":"235242632","distractor":"265242632","target":"present","response":"absent","rt":"3009.3999999762","correct":false,"confidence":4},{"trial_n":105,"span":8,"encoder":"83271801","distractor":"83271802","target":"present","response":"present","rt":"4213.3000000119","correct":true,"confidence":4},{"trial_n":106,"span":8,"encoder":"14103564","distractor":"14103565","target":"present","response":"present","rt":"4299.0999999642","correct":true,"confidence":4},{"trial_n":107,"span":9,"encoder":"674807822","distractor":"673807822","target":"present","response":"absent","rt":"3692.8000000119","correct":false,"confidence":3},{"trial_n":108,"span":8,"encoder":"84765203","distractor":"84465203","target":"present","response":"absent","rt":"8767.1000000238","correct":false,"confidence":3},{"trial_n":109,"span":7,"encoder":"9411354","distractor":"9411351","target":"absent","response":"absent","rt":"3362.5","correct":true,"confidence":5},{"trial_n":110,"span":7,"encoder":"2794530","distractor":"2794534","target":"present","response":"present","rt":"1307.5999999642","correct":true,"confidence":5},{"trial_n":111,"span":8,"encoder":"65523701","distractor":"65523201","target":"present","response":"present","rt":"2373.5","correct":true,"confidence":4},{"trial_n":112,"span":8,"encoder":"21636093","distractor":"21635093","target":"absent","response":"absent","rt":"2511.5999999642","correct":true,"confidence":5},{"trial_n":113,"span":9,"encoder":"589491076","distractor":"589191076","target":"present","response":"absent","rt":"5501.8000000119","correct":false,"confidence":3},{"trial_n":114,"span":8,"encoder":"42639675","distractor":"42639605","target":"present","response":"absent","rt":"7136.5","correct":false,"confidence":3},{"trial_n":115,"span":7,"encoder":"8256387","distractor":"8216387","target":"absent","response":"absent","rt":"2645.5","correct":true,"confidence":4},{"trial_n":116,"span":7,"encoder":"3300567","distractor":"3360567","target":"present","response":"present","rt":"4256.1999999881","correct":true,"confidence":4},{"trial_n":117,"span":8,"encoder":"98094475","distractor":"98094495","target":"absent","response":"absent","rt":"4766.5","correct":true,"confidence":3},{"trial_n":118,"span":8,"encoder":"19304886","distractor":"19334886","target":"present","response":"present","rt":"4919.2999999523","correct":true,"confidence":4},{"trial_n":119,"span":9,"encoder":"639991084","distractor":"639991484","target":"absent","response":"absent","rt":"2013.9000000358","correct":true,"confidence":4},{"trial_n":120,"span":9,"encoder":"606416852","distractor":"606416822","target":"absent","response":"absent","rt":"1615.9000000358","correct":true,"confidence":5},{"trial_n":121,"span":10,"encoder":"3885422110","distractor":"3785422110","target":"absent","response":"absent","rt":"2520.5","correct":true,"confidence":5},{"trial_n":122,"span":10,"encoder":"3352379925","distractor":"3352379955","target":"present","response":"present","rt":"1936.1000000238","correct":true,"confidence":5},{"trial_n":123,"span":11,"encoder":"64442656217","distractor":"64447656217","target":"present","response":"present","rt":"6749.7999999523","correct":true,"confidence":3},{"trial_n":124,"span":11,"encoder":"12275356895","distractor":"12275356795","target":"present","response":"present","rt":"1842.6000000238","correct":true,"confidence":5},{"trial_n":125,"span":12,"encoder":"514663436819","distractor":"514663466819","target":"absent","response":"absent","rt":"3605.3000000119","correct":true,"confidence":4},{"trial_n":126,"span":12,"encoder":"095247246368","distractor":"098247246368","target":"present","response":"absent","rt":"5664.3000000119","correct":false,"confidence":3},{"trial_n":127,"span":11,"encoder":"99979603394","distractor":"99279603394","target":"present","response":"present","rt":"8128.5","correct":true,"confidence":4},{"trial_n":128,"span":11,"encoder":"06767192888","distractor":"36767192888","target":"present","response":"present","rt":"5252.5","correct":true,"confidence":4},{"trial_n":129,"span":12,"encoder":"340564000775","distractor":"345564000775","target":"present","response":"present","rt":"6807.8000000119","correct":true,"confidence":3},{"trial_n":130,"span":12,"encoder":"590248338868","distractor":"590248328868","target":"present","response":"present","rt":"2426.8000000119","correct":true,"confidence":5},{"trial_n":131,"span":13,"encoder":"7494955598260","distractor":"7494955598230","target":"absent","response":"absent","rt":"2253.6999999881","correct":true,"confidence":5},{"trial_n":132,"span":13,"encoder":"9695638520402","distractor":"9698638520402","target":"absent","response":"absent","rt":"6029.4000000358","correct":true,"confidence":3},{"trial_n":133,"span":14,"encoder":"00559501134376","distractor":"10559501134376","target":"present","response":"present","rt":"7372","correct":true,"confidence":4},{"trial_n":134,"span":14,"encoder":"52599995156038","distractor":"52599995156035","target":"present","response":"absent","rt":"8440.7000000477","correct":false,"confidence":4},{"trial_n":135,"span":13,"encoder":"7504990191728","distractor":"7204990191728","target":"absent","response":"absent","rt":"5832.2999999523","correct":true,"confidence":4},{"trial_n":136,"span":13,"encoder":"3037819596354","distractor":"3037859596354","target":"absent","response":"present","rt":"8915.8999999762","correct":false,"confidence":3},{"trial_n":137,"span":12,"encoder":"901560898326","distractor":"901560098326","target":"present","response":"present","rt":"5269.0999999642","correct":true,"confidence":4},{"trial_n":138,"span":12,"encoder":"965582966966","distractor":"965582916966","target":"absent","response":"absent","rt":"7848.8000000119","correct":true,"confidence":4},{"trial_n":139,"span":13,"encoder":"5430542099075","distractor":"5430842099075","target":"absent","response":"absent","rt":"5995.4000000358","correct":true,"confidence":3},{"trial_n":140,"span":13,"encoder":"7864985348896","distractor":"7864985343896","target":"absent","response":"absent","rt":"12677.399999976","correct":true,"confidence":4}]