[{"trial_n":1,"min":25,"max":230,"target":"present","response":"absent","rt":7113.900000006,"correct":false,"confidence":-1},{"trial_n":2,"min":25,"max":230,"target":"present","response":"present","rt":2377.599999994,"correct":true,"confidence":-1},{"trial_n":3,"min":25,"max":230,"target":"absent","response":"absent","rt":2163.400000006,"correct":true,"confidence":-1},{"trial_n":4,"min":41,"max":214,"target":"absent","response":"absent","rt":881.79999999702,"correct":true,"confidence":-1},{"trial_n":5,"min":41,"max":214,"target":"present","response":"present","rt":2261.200000003,"correct":true,"confidence":-1},{"trial_n":6,"min":57,"max":198,"target":"present","response":"present","rt":2011.5,"correct":true,"confidence":-1},{"trial_n":7,"min":57,"max":198,"target":"present","response":"present","rt":1737.900000006,"correct":true,"confidence":-1},{"trial_n":8,"min":73,"max":182,"target":"absent","response":"present","rt":1127.200000003,"correct":false,"confidence":-1},{"trial_n":9,"min":57,"max":198,"target":"present","response":"present","rt":1301.299999997,"correct":true,"confidence":-1},{"trial_n":10,"min":57,"max":198,"target":"present","response":"present","rt":810.40000000596,"correct":true,"confidence":-1},{"trial_n":11,"min":65,"max":190,"target":"absent","response":"absent","rt":1574.700000003,"correct":true,"confidence":-1},{"trial_n":12,"min":65,"max":190,"target":"absent","response":"absent","rt":912.29999999702,"correct":true,"confidence":-1},{"trial_n":13,"min":73,"max":182,"target":"present","response":"absent","rt":702.70000000298,"correct":false,"confidence":-1},{"trial_n":14,"min":65,"max":190,"target":"absent","response":"absent","rt":1022.5,"correct":true,"confidence":-1},{"trial_n":15,"min":65,"max":190,"target":"present","response":"present","rt":2563.3999999911,"correct":true,"confidence":-1},{"trial_n":16,"min":73,"max":182,"target":"present","response":"present","rt":657,"correct":true,"confidence":-1},{"trial_n":17,"min":73,"max":182,"target":"absent","response":"absent","rt":1859.8000000119,"correct":true,"confidence":-1},{"trial_n":18,"min":81,"max":174,"target":"present","response":"absent","rt":1170.1000000089,"correct":false,"confidence":-1},{"trial_n":19,"min":73,"max":182,"target":"absent","response":"absent","rt":1248.5,"correct":true,"confidence":-1},{"trial_n":20,"min":73,"max":182,"target":"present","response":"present","rt":2210.1000000089,"correct":true,"confidence":-1},{"trial_n":21,"min":77,"max":178,"target":"absent","response":"present","rt":1466.200000003,"correct":false,"confidence":2},{"trial_n":22,"min":73,"max":182,"target":"present","response":"present","rt":2749.099999994,"correct":true,"confidence":3},{"trial_n":23,"min":73,"max":182,"target":"present","response":"present","rt":2452,"correct":true,"confidence":4},{"trial_n":24,"min":77,"max":178,"target":"present","response":"present","rt":2152.200000003,"correct":true,"confidence":4},{"trial_n":25,"min":77,"max":178,"target":"absent","response":"absent","rt":1437.599999994,"correct":true,"confidence":2},{"trial_n":26,"min":81,"max":174,"target":"absent","response":"absent","rt":1747.299999997,"correct":true,"confidence":1},{"trial_n":27,"min":81,"max":174,"target":"absent","response":"present","rt":1664.5,"correct":false,"confidence":2},{"trial_n":28,"min":77,"max":178,"target":"absent","response":"present","rt":1895.599999994,"correct":false,"confidence":3},{"trial_n":29,"min":73,"max":182,"target":"absent","response":"absent","rt":1973.8000000119,"correct":true,"confidence":3},{"trial_n":30,"min":73,"max":182,"target":"present","response":"present","rt":1276,"correct":true,"confidence":5},{"trial_n":31,"min":75,"max":180,"target":"absent","response":"present","rt":1788.700000003,"correct":false,"confidence":4},{"trial_n":32,"min":73,"max":182,"target":"present","response":"present","rt":1496.599999994,"correct":true,"confidence":5},{"trial_n":33,"min":73,"max":182,"target":"absent","response":"absent","rt":1289.5,"correct":true,"confidence":3},{"trial_n":34,"min":75,"max":180,"target":"present","response":"absent","rt":1596.299999997,"correct":false,"confidence":2},{"trial_n":35,"min":73,"max":182,"target":"present","response":"present","rt":1201.6000000089,"correct":true,"confidence":5},{"trial_n":36,"min":73,"max":182,"target":"absent","response":"present","rt":2056.799999997,"correct":false,"confidence":3},{"trial_n":37,"min":71,"max":184,"target":"present","response":"present","rt":1480.200000003,"correct":true,"confidence":2},{"trial_n":38,"min":71,"max":184,"target":"present","response":"present","rt":1284.5,"correct":true,"confidence":5},{"trial_n":39,"min":73,"max":182,"target":"absent","response":"absent","rt":6058.299999997,"correct":true,"confidence":1},{"trial_n":40,"min":73,"max":182,"target":"present","response":"present","rt":1539.099999994,"correct":true,"confidence":5},{"trial_n":41,"min":74,"max":181,"target":"absent","response":"present","rt":1595.700000003,"correct":false,"confidence":3},{"trial_n":42,"min":73,"max":182,"target":"present","response":"present","rt":1084.3999999911,"correct":true,"confidence":5},{"trial_n":43,"min":73,"max":182,"target":"present","response":"present","rt":1567.900000006,"correct":true,"confidence":5},{"trial_n":44,"min":74,"max":181,"target":"absent","response":"present","rt":1119.3999999911,"correct":false,"confidence":4},{"trial_n":45,"min":73,"max":182,"target":"absent","response":"absent","rt":1605.200000003,"correct":true,"confidence":2},{"trial_n":46,"min":73,"max":182,"target":"absent","response":"present","rt":2277.099999994,"correct":false,"confidence":2},{"trial_n":47,"min":72,"max":183,"target":"present","response":"present","rt":1707.5,"correct":true,"confidence":4},{"trial_n":48,"min":72,"max":183,"target":"present","response":"present","rt":1195,"correct":true,"confidence":5},{"trial_n":49,"min":73,"max":182,"target":"absent","response":"absent","rt":1410.700000003,"correct":true,"confidence":4},{"trial_n":50,"min":73,"max":182,"target":"absent","response":"present","rt":1280.6999999881,"correct":false,"confidence":3},{"trial_n":51,"min":72,"max":183,"target":"absent","response":"absent","rt":1692.6000000089,"correct":true,"confidence":2},{"trial_n":52,"min":72,"max":183,"target":"present","response":"absent","rt":1326.799999997,"correct":false,"confidence":3},{"trial_n":53,"min":71,"max":184,"target":"absent","response":"present","rt":1226.6000000089,"correct":false,"confidence":4},{"trial_n":54,"min":70,"max":185,"target":"absent","response":"absent","rt":1403.400000006,"correct":true,"confidence":4},{"trial_n":55,"min":70,"max":185,"target":"absent","response":"absent","rt":1382.900000006,"correct":true,"confidence":3},{"trial_n":56,"min":71,"max":184,"target":"present","response":"present","rt":1261.299999997,"correct":true,"confidence":4},{"trial_n":57,"min":71,"max":184,"target":"present","response":"present","rt":1494.400000006,"correct":true,"confidence":5},{"trial_n":58,"min":72,"max":183,"target":"present","response":"present","rt":1090.700000003,"correct":true,"confidence":5},{"trial_n":59,"min":72,"max":183,"target":"present","response":"present","rt":2691.200000003,"correct":true,"confidence":2},{"trial_n":60,"min":73,"max":182,"target":"absent","response":"present","rt":1887.700000003,"correct":false,"confidence":4},{"trial_n":61,"min":72,"max":183,"target":"absent","response":"present","rt":1400.799999997,"correct":false,"confidence":3},{"trial_n":62,"min":71,"max":184,"target":"absent","response":"absent","rt":1210,"correct":true,"confidence":4},{"trial_n":63,"min":71,"max":184,"target":"present","response":"absent","rt":1305.200000003,"correct":false,"confidence":4},{"trial_n":64,"min":70,"max":185,"target":"present","response":"present","rt":1019.200000003,"correct":true,"confidence":5},{"trial_n":65,"min":70,"max":185,"target":"present","response":"present","rt":1573.3999999911,"correct":true,"confidence":3},{"trial_n":66,"min":71,"max":184,"target":"absent","response":"absent","rt":1718,"correct":true,"confidence":2},{"trial_n":67,"min":71,"max":184,"target":"present","response":"present","rt":1017.200000003,"correct":true,"confidence":5},{"trial_n":68,"min":72,"max":183,"target":"present","response":"absent","rt":3203,"correct":false,"confidence":4},{"trial_n":69,"min":71,"max":184,"target":"absent","response":"present","rt":1154.200000003,"correct":false,"confidence":4},{"trial_n":70,"min":70,"max":185,"target":"absent","response":"absent","rt":1650,"correct":true,"confidence":2},{"trial_n":71,"min":41,"max":214,"target":"present","response":"present","rt":3460.6000000089,"correct":true,"confidence":-1},{"trial_n":72,"min":41,"max":214,"target":"present","response":"present","rt":1428.299999997,"correct":true,"confidence":-1},{"trial_n":73,"min":57,"max":198,"target":"absent","response":"absent","rt":1638.400000006,"correct":true,"confidence":-1},{"trial_n":74,"min":57,"max":198,"target":"absent","response":"absent","rt":918.89999999106,"correct":true,"confidence":-1},{"trial_n":75,"min":73,"max":182,"target":"present","response":"absent","rt":921.09999999404,"correct":false,"confidence":-1},{"trial_n":76,"min":57,"max":198,"target":"absent","response":"absent","rt":2854.200000003,"correct":true,"confidence":-1},{"trial_n":77,"min":57,"max":198,"target":"present","response":"present","rt":1117.3000000119,"correct":true,"confidence":-1},{"trial_n":78,"min":73,"max":182,"target":"present","response":"present","rt":897.40000000596,"correct":true,"confidence":-1},{"trial_n":79,"min":73,"max":182,"target":"absent","response":"absent","rt":1276.200000003,"correct":true,"confidence":-1},{"trial_n":80,"min":89,"max":166,"target":"present","response":"present","rt":2146.3999999911,"correct":true,"confidence":-1},{"trial_n":81,"min":89,"max":166,"target":"absent","response":"absent","rt":1356.5,"correct":true,"confidence":-1},{"trial_n":82,"min":97,"max":158,"target":"absent","response":"present","rt":1316.299999997,"correct":false,"confidence":-1},{"trial_n":83,"min":89,"max":166,"target":"absent","response":"present","rt":1371.099999994,"correct":false,"confidence":-1},{"trial_n":84,"min":81,"max":174,"target":"absent","response":"absent","rt":1229.6000000089,"correct":true,"confidence":-1},{"trial_n":85,"min":81,"max":174,"target":"present","response":"present","rt":1239.200000003,"correct":true,"confidence":-1},{"trial_n":86,"min":89,"max":166,"target":"present","response":"present","rt":1031.099999994,"correct":true,"confidence":-1},{"trial_n":87,"min":89,"max":166,"target":"present","response":"present","rt":1604.5,"correct":true,"confidence":-1},{"trial_n":88,"min":97,"max":158,"target":"absent","response":"present","rt":1127.400000006,"correct":false,"confidence":-1},{"trial_n":89,"min":89,"max":166,"target":"present","response":"present","rt":1097.8999999911,"correct":true,"confidence":-1},{"trial_n":90,"min":89,"max":166,"target":"absent","response":"absent","rt":1166.8999999911,"correct":true,"confidence":-1},{"trial_n":91,"min":93,"max":162,"target":"absent","response":"present","rt":1617.6000000089,"correct":false,"confidence":2},{"trial_n":92,"min":89,"max":166,"target":"present","response":"present","rt":1531.6999999881,"correct":true,"confidence":3},{"trial_n":93,"min":89,"max":166,"target":"absent","response":"present","rt":1363.200000003,"correct":false,"confidence":4},{"trial_n":94,"min":85,"max":170,"target":"absent","response":"absent","rt":1332,"correct":true,"confidence":4},{"trial_n":95,"min":85,"max":170,"target":"absent","response":"absent","rt":1309.5,"correct":true,"confidence":4},{"trial_n":96,"min":89,"max":166,"target":"absent","response":"absent","rt":1370.700000003,"correct":true,"confidence":3},{"trial_n":97,"min":89,"max":166,"target":"present","response":"present","rt":2625.6000000089,"correct":true,"confidence":1},{"trial_n":98,"min":93,"max":162,"target":"absent","response":"present","rt":1312.299999997,"correct":false,"confidence":1},{"trial_n":99,"min":89,"max":166,"target":"present","response":"present","rt":1150.1999999881,"correct":true,"confidence":5},{"trial_n":100,"min":89,"max":166,"target":"present","response":"present","rt":1372.400000006,"correct":true,"confidence":4},{"trial_n":101,"min":91,"max":164,"target":"present","response":"present","rt":1287.6000000089,"correct":true,"confidence":2},{"trial_n":102,"min":91,"max":164,"target":"present","response":"present","rt":1888.200000003,"correct":true,"confidence":3},{"trial_n":103,"min":93,"max":162,"target":"present","response":"present","rt":1224.599999994,"correct":true,"confidence":2},{"trial_n":104,"min":93,"max":162,"target":"absent","response":"absent","rt":1248.6000000089,"correct":true,"confidence":2},{"trial_n":105,"min":95,"max":160,"target":"present","response":"present","rt":1173.3999999911,"correct":true,"confidence":1},{"trial_n":106,"min":95,"max":160,"target":"absent","response":"present","rt":1678.799999997,"correct":false,"confidence":1},{"trial_n":107,"min":93,"max":162,"target":"absent","response":"absent","rt":2324.900000006,"correct":true,"confidence":2},{"trial_n":108,"min":93,"max":162,"target":"absent","response":"present","rt":1183,"correct":false,"confidence":4},{"trial_n":109,"min":91,"max":164,"target":"present","response":"present","rt":1160.099999994,"correct":true,"confidence":5},{"trial_n":110,"min":91,"max":164,"target":"present","response":"absent","rt":2376.6000000089,"correct":false,"confidence":2},{"trial_n":111,"min":90,"max":165,"target":"absent","response":"present","rt":1343,"correct":false,"confidence":3},{"trial_n":112,"min":89,"max":166,"target":"present","response":"present","rt":1889.900000006,"correct":true,"confidence":2},{"trial_n":113,"min":89,"max":166,"target":"present","response":"present","rt":2337.5,"correct":true,"confidence":2},{"trial_n":114,"min":90,"max":165,"target":"present","response":"absent","rt":2259.799999997,"correct":false,"confidence":2},{"trial_n":115,"min":89,"max":166,"target":"present","response":"present","rt":1714.099999994,"correct":true,"confidence":4},{"trial_n":116,"min":89,"max":166,"target":"absent","response":"present","rt":1918,"correct":false,"confidence":2},{"trial_n":117,"min":88,"max":167,"target":"absent","response":"absent","rt":1532.6999999881,"correct":true,"confidence":4},{"trial_n":118,"min":88,"max":167,"target":"absent","response":"present","rt":1118.1999999881,"correct":false,"confidence":4},{"trial_n":119,"min":87,"max":168,"target":"present","response":"present","rt":1522.8999999911,"correct":true,"confidence":1},{"trial_n":120,"min":87,"max":168,"target":"present","response":"absent","rt":1595.8999999911,"correct":false,"confidence":1},{"trial_n":121,"min":86,"max":169,"target":"absent","response":"present","rt":1454.200000003,"correct":false,"confidence":3},{"trial_n":122,"min":85,"max":170,"target":"absent","response":"present","rt":2746.799999997,"correct":false,"confidence":1},{"trial_n":123,"min":84,"max":171,"target":"present","response":"present","rt":1450.5,"correct":true,"confidence":4},{"trial_n":124,"min":84,"max":171,"target":"absent","response":"absent","rt":1255.700000003,"correct":true,"confidence":5},{"trial_n":125,"min":85,"max":170,"target":"present","response":"present","rt":3143,"correct":true,"confidence":4},{"trial_n":126,"min":85,"max":170,"target":"absent","response":"present","rt":1323.599999994,"correct":false,"confidence":4},{"trial_n":127,"min":84,"max":171,"target":"absent","response":"absent","rt":1267.5,"correct":true,"confidence":1},{"trial_n":128,"min":84,"max":171,"target":"present","response":"present","rt":1131,"correct":true,"confidence":5},{"trial_n":129,"min":85,"max":170,"target":"present","response":"present","rt":1115.200000003,"correct":true,"confidence":5},{"trial_n":130,"min":85,"max":170,"target":"present","response":"present","rt":1572.900000006,"correct":true,"confidence":3},{"trial_n":131,"min":86,"max":169,"target":"present","response":"present","rt":1465.3000000119,"correct":true,"confidence":3},{"trial_n":132,"min":86,"max":169,"target":"absent","response":"absent","rt":2787.299999997,"correct":true,"confidence":2},{"trial_n":133,"min":87,"max":168,"target":"present","response":"present","rt":1427.299999997,"correct":true,"confidence":2},{"trial_n":134,"min":87,"max":168,"target":"present","response":"present","rt":1109.700000003,"correct":true,"confidence":5},{"trial_n":135,"min":88,"max":167,"target":"present","response":"absent","rt":2206.299999997,"correct":false,"confidence":1},{"trial_n":136,"min":87,"max":168,"target":"absent","response":"absent","rt":1766,"correct":true,"confidence":2},{"trial_n":137,"min":87,"max":168,"target":"present","response":"present","rt":1020.8000000119,"correct":true,"confidence":5},{"trial_n":138,"min":88,"max":167,"target":"absent","response":"present","rt":2509.5,"correct":false,"confidence":2},{"trial_n":139,"min":87,"max":168,"target":"absent","response":"absent","rt":1677.799999997,"correct":true,"confidence":3},{"trial_n":140,"min":87,"max":168,"target":"absent","response":"absent","rt":1357,"correct":true,"confidence":4}]