[{"trial_n":1,"span":8,"encoder":"16034012","distractor":"12034012","target":"present","response":"present","rt":"5732","correct":true,"confidence":-1},{"trial_n":2,"span":8,"encoder":"78566363","distractor":"78566303","target":"present","response":"present","rt":"2200.3000000119","correct":true,"confidence":-1},{"trial_n":3,"span":10,"encoder":"3681159859","distractor":"3681759859","target":"absent","response":"absent","rt":"3180.900000006","correct":true,"confidence":-1},{"trial_n":4,"span":10,"encoder":"9564387105","distractor":"9564357105","target":"absent","response":"present","rt":"4677.6000000089","correct":false,"confidence":-1},{"trial_n":5,"span":8,"encoder":"13479334","distractor":"13479434","target":"present","response":"present","rt":"3561.900000006","correct":true,"confidence":-1},{"trial_n":6,"span":8,"encoder":"34528122","distractor":"34598122","target":"absent","response":"absent","rt":"3893.799999997","correct":true,"confidence":-1},{"trial_n":7,"span":10,"encoder":"7781408922","distractor":"7781408522","target":"present","response":"present","rt":"3862.6000000089","correct":true,"confidence":-1},{"trial_n":8,"span":10,"encoder":"3686261231","distractor":"3686261233","target":"present","response":"present","rt":"2325.200000003","correct":true,"confidence":-1},{"trial_n":9,"span":12,"encoder":"078594598874","distractor":"078594798874","target":"present","response":"present","rt":"1933.599999994","correct":true,"confidence":-1},{"trial_n":10,"span":12,"encoder":"939302674175","distractor":"939302074175","target":"present","response":"present","rt":"1918.6000000089","correct":true,"confidence":-1},{"trial_n":11,"span":14,"encoder":"49532719944123","distractor":"99532719944123","target":"present","response":"present","rt":"1888.799999997","correct":true,"confidence":-1},{"trial_n":12,"span":14,"encoder":"65728691946076","distractor":"65728691956076","target":"present","response":"present","rt":"5614.8999999911","correct":true,"confidence":-1},{"trial_n":13,"span":15,"encoder":"556777099874674","distractor":"556777099474674","target":"absent","response":"present","rt":"2941.200000003","correct":false,"confidence":-1},{"trial_n":14,"span":14,"encoder":"46953269519846","distractor":"46953269589846","target":"absent","response":"absent","rt":"3195.1999999881","correct":true,"confidence":-1},{"trial_n":15,"span":14,"encoder":"79705218426375","distractor":"79705258426375","target":"present","response":"present","rt":"3424.299999997","correct":true,"confidence":-1},{"trial_n":16,"span":15,"encoder":"624574028573286","distractor":"624574028273286","target":"absent","response":"present","rt":"2710.5","correct":false,"confidence":-1},{"trial_n":17,"span":14,"encoder":"41053492901660","distractor":"11053492901660","target":"absent","response":"absent","rt":"3884.6000000089","correct":true,"confidence":-1},{"trial_n":18,"span":14,"encoder":"73463997475589","distractor":"73463797475589","target":"absent","response":"absent","rt":"4515.3999999911","correct":true,"confidence":-1},{"trial_n":19,"span":15,"encoder":"702753539138439","distractor":"702753539138489","target":"absent","response":"present","rt":"4557.8999999911","correct":false,"confidence":-1},{"trial_n":20,"span":14,"encoder":"18869658923069","distractor":"12869658923069","target":"absent","response":"absent","rt":"3431.900000006","correct":true,"confidence":-1},{"trial_n":21,"span":14,"encoder":"63361589213928","distractor":"63261589213928","target":"absent","response":"absent","rt":"4967.8000000119","correct":true,"confidence":3},{"trial_n":22,"span":15,"encoder":"450650349529560","distractor":"450650343529560","target":"present","response":"present","rt":"2819.400000006","correct":true,"confidence":2},{"trial_n":23,"span":15,"encoder":"931104609380706","distractor":"931104609380700","target":"absent","response":"absent","rt":"2851.400000006","correct":true,"confidence":3},{"trial_n":24,"span":16,"encoder":"0766375868722730","distractor":"0766355868722730","target":"present","response":"present","rt":"2642.299999997","correct":true,"confidence":4},{"trial_n":25,"span":16,"encoder":"9551281140052155","distractor":"9551081140052155","target":"absent","response":"present","rt":"6233.5","correct":false,"confidence":3},{"trial_n":26,"span":15,"encoder":"445883864590684","distractor":"485883864590684","target":"present","response":"present","rt":"4643.299999997","correct":true,"confidence":4},{"trial_n":27,"span":15,"encoder":"482605251472921","distractor":"482608251472921","target":"present","response":"present","rt":"4293.6000000089","correct":true,"confidence":3},{"trial_n":28,"span":16,"encoder":"4217778093450853","distractor":"4217770093450853","target":"present","response":"present","rt":"5466.799999997","correct":true,"confidence":4},{"trial_n":29,"span":16,"encoder":"4987602880483524","distractor":"4987642880483524","target":"present","response":"present","rt":"3083.3999999911","correct":true,"confidence":1},{"trial_n":30,"span":17,"encoder":"49959674099302393","distractor":"49959874099302393","target":"present","response":"present","rt":"3557.3999999911","correct":true,"confidence":4},{"trial_n":31,"span":17,"encoder":"14022280418331019","distractor":"14092280418331019","target":"present","response":"present","rt":"3251.400000006","correct":true,"confidence":3},{"trial_n":32,"span":18,"encoder":"360550041283201241","distractor":"360550041283201641","target":"present","response":"present","rt":"5357.5","correct":true,"confidence":2},{"trial_n":33,"span":18,"encoder":"689696738286683468","distractor":"689696738283683468","target":"present","response":"present","rt":"5827.099999994","correct":true,"confidence":4},{"trial_n":34,"span":19,"encoder":"0697706133848477597","distractor":"0697706133848477537","target":"present","response":"present","rt":"3278.8999999911","correct":true,"confidence":1},{"trial_n":35,"span":19,"encoder":"2720468407854931180","distractor":"2720468407854931120","target":"absent","response":"present","rt":"3061.5","correct":false,"confidence":1},{"trial_n":36,"span":18,"encoder":"777430252050952691","distractor":"777430258050952691","target":"absent","response":"absent","rt":"6635.299999997","correct":true,"confidence":2},{"trial_n":37,"span":18,"encoder":"520892468306665711","distractor":"520892467306665711","target":"absent","response":"present","rt":"3417.200000003","correct":false,"confidence":3},{"trial_n":38,"span":17,"encoder":"30200457100190589","distractor":"30200497100190589","target":"absent","response":"present","rt":"4557.900000006","correct":false,"confidence":2},{"trial_n":39,"span":16,"encoder":"6932392593611088","distractor":"9932392593611088","target":"present","response":"present","rt":"3379.400000006","correct":true,"confidence":4},{"trial_n":40,"span":16,"encoder":"0632566941167335","distractor":"0632566941167235","target":"present","response":"present","rt":"4505.400000006","correct":true,"confidence":4},{"trial_n":41,"span":17,"encoder":"17322454115231487","distractor":"17322454115281487","target":"present","response":"present","rt":"4628.299999997","correct":true,"confidence":3},{"trial_n":42,"span":17,"encoder":"72779765435354101","distractor":"72779765435355101","target":"absent","response":"absent","rt":"4295.1000000089","correct":true,"confidence":3},{"trial_n":43,"span":18,"encoder":"143282923930987234","distractor":"143282923930987254","target":"absent","response":"present","rt":"5090.299999997","correct":false,"confidence":3},{"trial_n":44,"span":17,"encoder":"13899260686253396","distractor":"13899260684253396","target":"absent","response":"present","rt":"3565.400000006","correct":false,"confidence":3},{"trial_n":45,"span":16,"encoder":"6352594014979505","distractor":"6352594014979503","target":"absent","response":"absent","rt":"3631.5","correct":true,"confidence":5},{"trial_n":46,"span":16,"encoder":"3147776037851360","distractor":"3147776037851363","target":"absent","response":"absent","rt":"2789.299999997","correct":true,"confidence":5},{"trial_n":47,"span":17,"encoder":"06728983440335336","distractor":"06728983440735336","target":"present","response":"present","rt":"3365.5","correct":true,"confidence":2},{"trial_n":48,"span":17,"encoder":"48155792056771504","distractor":"48155792026771504","target":"present","response":"present","rt":"2655.1999999881","correct":true,"confidence":3},{"trial_n":49,"span":18,"encoder":"154336916957197215","distractor":"154336916957197715","target":"absent","response":"absent","rt":"3852.299999997","correct":true,"confidence":4},{"trial_n":50,"span":18,"encoder":"355115543111499469","distractor":"355115563111499469","target":"present","response":"present","rt":"4648.5","correct":true,"confidence":3},{"trial_n":51,"span":19,"encoder":"2045637699762565857","distractor":"2045637699742565857","target":"present","response":"present","rt":"4286.700000003","correct":true,"confidence":4},{"trial_n":52,"span":19,"encoder":"2677606600983753803","distractor":"2657606600983753803","target":"absent","response":"present","rt":"6069.799999997","correct":false,"confidence":3},{"trial_n":53,"span":18,"encoder":"791670778422108045","distractor":"391670778422108045","target":"absent","response":"present","rt":"6855.700000003","correct":false,"confidence":1},{"trial_n":54,"span":17,"encoder":"85036896739068462","distractor":"85030896739068462","target":"absent","response":"absent","rt":"3303.900000006","correct":true,"confidence":4},{"trial_n":55,"span":17,"encoder":"53785588947861985","distractor":"53705588947861985","target":"present","response":"present","rt":"3962.299999997","correct":true,"confidence":4},{"trial_n":56,"span":18,"encoder":"154566627617213403","distractor":"154566607617213403","target":"present","response":"present","rt":"3534.8999999911","correct":true,"confidence":4},{"trial_n":57,"span":18,"encoder":"054904401230613803","distractor":"054904401232613803","target":"present","response":"present","rt":"4334","correct":true,"confidence":3},{"trial_n":58,"span":19,"encoder":"0506948234485527073","distractor":"4506948234485527073","target":"absent","response":"present","rt":"4742.700000003","correct":false,"confidence":3},{"trial_n":59,"span":18,"encoder":"283237439138443354","distractor":"283237436138443354","target":"absent","response":"present","rt":"2833.599999994","correct":false,"confidence":3},{"trial_n":60,"span":17,"encoder":"49582244303181362","distractor":"49582204303181362","target":"present","response":"present","rt":"3358.299999997","correct":true,"confidence":2},{"trial_n":61,"span":17,"encoder":"58340559693592889","distractor":"58330559693592889","target":"absent","response":"present","rt":"4712","correct":false,"confidence":3},{"trial_n":62,"span":16,"encoder":"8185119592146142","distractor":"8185179592146142","target":"absent","response":"present","rt":"3573.200000003","correct":false,"confidence":4},{"trial_n":63,"span":15,"encoder":"885592228534575","distractor":"889592228534575","target":"present","response":"present","rt":"5091.599999994","correct":true,"confidence":3},{"trial_n":64,"span":15,"encoder":"424046833327737","distractor":"424146833327737","target":"absent","response":"present","rt":"6169.8999999911","correct":false,"confidence":4},{"trial_n":65,"span":14,"encoder":"24670558036689","distractor":"24670558039689","target":"present","response":"present","rt":"3363.599999994","correct":true,"confidence":4},{"trial_n":66,"span":14,"encoder":"74701686908521","distractor":"74701626908521","target":"absent","response":"present","rt":"3900.900000006","correct":false,"confidence":4},{"trial_n":67,"span":13,"encoder":"1298501723513","distractor":"1298501723533","target":"present","response":"present","rt":"6880.900000006","correct":true,"confidence":1},{"trial_n":68,"span":13,"encoder":"6936559220150","distractor":"6936556220150","target":"absent","response":"present","rt":"3563","correct":false,"confidence":2},{"trial_n":69,"span":12,"encoder":"558452370752","distractor":"568452370752","target":"present","response":"present","rt":"3958.299999997","correct":true,"confidence":3},{"trial_n":70,"span":12,"encoder":"581106262439","distractor":"581106262459","target":"absent","response":"present","rt":"3135.099999994","correct":false,"confidence":2},{"trial_n":71,"span":8,"encoder":"94638811","distractor":"94638831","target":"present","response":"present","rt":"4272.400000006","correct":true,"confidence":-1},{"trial_n":72,"span":8,"encoder":"15200613","distractor":"15200693","target":"present","response":"present","rt":"7497.5","correct":true,"confidence":-1},{"trial_n":73,"span":9,"encoder":"647273142","distractor":"640273142","target":"absent","response":"absent","rt":"4728.6000000089","correct":true,"confidence":-1},{"trial_n":74,"span":9,"encoder":"906522717","distractor":"906523717","target":"absent","response":"absent","rt":"3442","correct":true,"confidence":-1},{"trial_n":75,"span":10,"encoder":"1026039986","distractor":"4026039986","target":"present","response":"absent","rt":"4376","correct":false,"confidence":-1},{"trial_n":76,"span":9,"encoder":"659612569","distractor":"659682569","target":"absent","response":"absent","rt":"4171.799999997","correct":true,"confidence":-1},{"trial_n":77,"span":9,"encoder":"779251920","distractor":"779251910","target":"present","response":"present","rt":"5859.3999999911","correct":true,"confidence":-1},{"trial_n":78,"span":10,"encoder":"1529238026","distractor":"1522238026","target":"present","response":"present","rt":"3749.599999994","correct":true,"confidence":-1},{"trial_n":79,"span":10,"encoder":"6463814719","distractor":"6453814719","target":"absent","response":"absent","rt":"4602","correct":true,"confidence":-1},{"trial_n":80,"span":11,"encoder":"07833837098","distractor":"07833832098","target":"present","response":"absent","rt":"6775.799999997","correct":false,"confidence":-1},{"trial_n":81,"span":10,"encoder":"6437814466","distractor":"6436814466","target":"absent","response":"absent","rt":"4431.5","correct":true,"confidence":-1},{"trial_n":82,"span":10,"encoder":"0013547076","distractor":"0013547476","target":"present","response":"present","rt":"5218.8000000119","correct":true,"confidence":-1},{"trial_n":83,"span":11,"encoder":"45340965688","distractor":"05340965688","target":"present","response":"present","rt":"3503.299999997","correct":true,"confidence":-1},{"trial_n":84,"span":11,"encoder":"74449418524","distractor":"74649418524","target":"absent","response":"present","rt":"4574.8999999911","correct":false,"confidence":-1},{"trial_n":85,"span":10,"encoder":"5533033094","distractor":"5533063094","target":"present","response":"present","rt":"4786.5","correct":true,"confidence":-1},{"trial_n":86,"span":10,"encoder":"2910729127","distractor":"5910729127","target":"absent","response":"absent","rt":"3707.299999997","correct":true,"confidence":-1},{"trial_n":87,"span":11,"encoder":"66468277857","distractor":"66468277850","target":"absent","response":"absent","rt":"8977.200000003","correct":true,"confidence":-1},{"trial_n":88,"span":11,"encoder":"99323594752","distractor":"99323594702","target":"present","response":"present","rt":"8005.200000003","correct":true,"confidence":-1},{"trial_n":89,"span":12,"encoder":"928279025562","distractor":"948279025562","target":"present","response":"absent","rt":"4182.599999994","correct":false,"confidence":-1},{"trial_n":90,"span":11,"encoder":"24121315132","distractor":"24141315132","target":"present","response":"present","rt":"9129.5","correct":true,"confidence":-1},{"trial_n":91,"span":11,"encoder":"58825821891","distractor":"58823821891","target":"present","response":"present","rt":"5112.900000006","correct":true,"confidence":3},{"trial_n":92,"span":12,"encoder":"544611175226","distractor":"544611175926","target":"absent","response":"absent","rt":"2874.5","correct":true,"confidence":5},{"trial_n":93,"span":12,"encoder":"115537770547","distractor":"115537778547","target":"present","response":"present","rt":"3448.700000003","correct":true,"confidence":4},{"trial_n":94,"span":13,"encoder":"1890004505123","distractor":"1890004504123","target":"absent","response":"absent","rt":"3749.3999999911","correct":true,"confidence":5},{"trial_n":95,"span":13,"encoder":"2688700701437","distractor":"2688700701487","target":"absent","response":"absent","rt":"3708.5","correct":true,"confidence":5},{"trial_n":96,"span":14,"encoder":"27612456135245","distractor":"27612456135242","target":"absent","response":"absent","rt":"7264.400000006","correct":true,"confidence":3},{"trial_n":97,"span":14,"encoder":"28631916060057","distractor":"28631916060067","target":"present","response":"present","rt":"2935.5","correct":true,"confidence":5},{"trial_n":98,"span":15,"encoder":"987317264851807","distractor":"987317864851807","target":"absent","response":"absent","rt":"10959.599999994","correct":true,"confidence":1},{"trial_n":99,"span":15,"encoder":"580256667943643","distractor":"580256663943643","target":"present","response":"absent","rt":"10548.399999991","correct":false,"confidence":2},{"trial_n":100,"span":14,"encoder":"91845650910907","distractor":"97845650910907","target":"absent","response":"absent","rt":"4332.8000000119","correct":true,"confidence":2},{"trial_n":101,"span":14,"encoder":"77097960366418","distractor":"77097967366418","target":"present","response":"absent","rt":"7151.299999997","correct":false,"confidence":2},{"trial_n":102,"span":13,"encoder":"3009447406562","distractor":"3029447406562","target":"present","response":"present","rt":"5634","correct":true,"confidence":3},{"trial_n":103,"span":13,"encoder":"7505616386086","distractor":"7535616386086","target":"present","response":"present","rt":"5055.8999999911","correct":true,"confidence":3},{"trial_n":104,"span":14,"encoder":"16977117432751","distractor":"16977112432751","target":"absent","response":"present","rt":"10479.599999994","correct":false,"confidence":2},{"trial_n":105,"span":13,"encoder":"6417237623518","distractor":"6417237623514","target":"absent","response":"absent","rt":"3196.3000000119","correct":true,"confidence":5},{"trial_n":106,"span":13,"encoder":"9141368758402","distractor":"9141368798402","target":"present","response":"present","rt":"8960.6000000089","correct":true,"confidence":1},{"trial_n":107,"span":14,"encoder":"17829251050148","distractor":"17821251050148","target":"present","response":"present","rt":"7546.8999999911","correct":true,"confidence":2},{"trial_n":108,"span":14,"encoder":"71698938625401","distractor":"72698938625401","target":"present","response":"present","rt":"5334.900000006","correct":true,"confidence":4},{"trial_n":109,"span":15,"encoder":"177540668678262","distractor":"177540668618262","target":"absent","response":"absent","rt":"9046.599999994","correct":true,"confidence":2},{"trial_n":110,"span":15,"encoder":"924426238803940","distractor":"924426238804940","target":"absent","response":"absent","rt":"4754.5","correct":true,"confidence":5},{"trial_n":111,"span":16,"encoder":"6140849566824150","distractor":"6140849566820150","target":"present","response":"present","rt":"3838.6000000089","correct":true,"confidence":5},{"trial_n":112,"span":16,"encoder":"0460727863725879","distractor":"0460727863720879","target":"present","response":"absent","rt":"9795.299999997","correct":false,"confidence":4},{"trial_n":113,"span":15,"encoder":"149313904850860","distractor":"149313904650860","target":"present","response":"absent","rt":"7666.8999999911","correct":false,"confidence":2},{"trial_n":114,"span":14,"encoder":"86275331635685","distractor":"86275331535685","target":"absent","response":"absent","rt":"14377.800000012","correct":true,"confidence":1},{"trial_n":115,"span":14,"encoder":"70140152717260","distractor":"10140152717260","target":"present","response":"present","rt":"4212.900000006","correct":true,"confidence":5},{"trial_n":116,"span":15,"encoder":"271421830577901","distractor":"271421830977901","target":"present","response":"present","rt":"10123.599999994","correct":true,"confidence":2},{"trial_n":117,"span":15,"encoder":"705358609568187","distractor":"705358609568177","target":"present","response":"present","rt":"4851.5","correct":true,"confidence":4},{"trial_n":118,"span":16,"encoder":"2993650936817330","distractor":"2993650936317330","target":"absent","response":"absent","rt":"7019.799999997","correct":true,"confidence":4},{"trial_n":119,"span":16,"encoder":"5959671718244955","distractor":"5959678718244955","target":"present","response":"absent","rt":"10878.799999997","correct":false,"confidence":2},{"trial_n":120,"span":15,"encoder":"532264585109916","distractor":"932264585109916","target":"absent","response":"present","rt":"8170","correct":false,"confidence":2},{"trial_n":121,"span":14,"encoder":"52984314213086","distractor":"52984314263086","target":"absent","response":"present","rt":"15242.400000006","correct":false,"confidence":3},{"trial_n":122,"span":13,"encoder":"8286438585101","distractor":"8886438585101","target":"absent","response":"absent","rt":"3718.3999999911","correct":true,"confidence":4},{"trial_n":123,"span":13,"encoder":"4010249209236","distractor":"4010049209236","target":"present","response":"present","rt":"6315.8999999911","correct":true,"confidence":4},{"trial_n":124,"span":14,"encoder":"87042290115677","distractor":"85042290115677","target":"present","response":"present","rt":"12189.5","correct":true,"confidence":3},{"trial_n":125,"span":14,"encoder":"33565540114755","distractor":"33565540414755","target":"absent","response":"absent","rt":"9610.099999994","correct":true,"confidence":3},{"trial_n":126,"span":15,"encoder":"303203815010462","distractor":"303203815410462","target":"absent","response":"absent","rt":"4527.099999994","correct":true,"confidence":5},{"trial_n":127,"span":15,"encoder":"071356143117714","distractor":"071356143117734","target":"present","response":"present","rt":"15716.400000006","correct":true,"confidence":4},{"trial_n":128,"span":16,"encoder":"3454716795649864","distractor":"3154716795649864","target":"absent","response":"absent","rt":"10293.5","correct":true,"confidence":2},{"trial_n":129,"span":16,"encoder":"8473360441260309","distractor":"8479360441260309","target":"absent","response":"present","rt":"7709.200000003","correct":false,"confidence":2},{"trial_n":130,"span":15,"encoder":"875950922411337","distractor":"875950922411335","target":"present","response":"absent","rt":"6898.200000003","correct":false,"confidence":1},{"trial_n":131,"span":14,"encoder":"93989073519197","distractor":"93989073569197","target":"absent","response":"absent","rt":"4573.200000003","correct":true,"confidence":4},{"trial_n":132,"span":14,"encoder":"27070557339638","distractor":"27070457339638","target":"absent","response":"absent","rt":"5978.900000006","correct":true,"confidence":3},{"trial_n":133,"span":15,"encoder":"199385477271664","distractor":"199385474271664","target":"absent","response":"absent","rt":"10167.600000009","correct":true,"confidence":3},{"trial_n":134,"span":15,"encoder":"121161992643722","distractor":"121161992543722","target":"absent","response":"present","rt":"7450.599999994","correct":false,"confidence":2},{"trial_n":135,"span":14,"encoder":"36941842341666","distractor":"36941842331666","target":"absent","response":"absent","rt":"6555.3000000119","correct":true,"confidence":1},{"trial_n":136,"span":14,"encoder":"06619699567744","distractor":"86619699567744","target":"present","response":"present","rt":"6206.1999999881","correct":true,"confidence":5},{"trial_n":137,"span":15,"encoder":"913137765676799","distractor":"913137765176799","target":"absent","response":"present","rt":"6783.799999997","correct":false,"confidence":2},{"trial_n":138,"span":14,"encoder":"15277360826639","distractor":"15277360826630","target":"present","response":"present","rt":"3794.3999999911","correct":true,"confidence":5},{"trial_n":139,"span":14,"encoder":"51062136273803","distractor":"51062136233803","target":"present","response":"present","rt":"4705.299999997","correct":true,"confidence":4},{"trial_n":140,"span":15,"encoder":"460227824217084","distractor":"460227884217084","target":"absent","response":"present","rt":"10005.599999994","correct":false,"confidence":2}]