[{"trial_n":1,"n_dots":4.25,"target":"left","response":"left","rt":11859.399999991,"correct":true,"confidence":-1},{"trial_n":2,"n_dots":4.25,"target":"left","response":"left","rt":922.20000000298,"correct":true,"confidence":-1},{"trial_n":3,"n_dots":3.85,"target":"left","response":"left","rt":1183,"correct":true,"confidence":-1},{"trial_n":4,"n_dots":3.85,"target":"left","response":"right","rt":797.5,"correct":false,"confidence":-1},{"trial_n":5,"n_dots":4.25,"target":"left","response":"left","rt":604.39999999106,"correct":true,"confidence":-1},{"trial_n":6,"n_dots":4.25,"target":"right","response":"right","rt":345.29999999702,"correct":true,"confidence":-1},{"trial_n":7,"n_dots":3.85,"target":"right","response":"right","rt":731.89999999106,"correct":true,"confidence":-1},{"trial_n":8,"n_dots":3.85,"target":"right","response":"left","rt":1070,"correct":false,"confidence":-1},{"trial_n":9,"n_dots":4.05,"target":"right","response":"right","rt":59.29999999702,"correct":true,"confidence":-1},{"trial_n":10,"n_dots":4.05,"target":"right","response":"right","rt":788.79999999702,"correct":true,"confidence":-1},{"trial_n":11,"n_dots":3.85,"target":"left","response":"left","rt":24.899999991059,"correct":true,"confidence":-1},{"trial_n":12,"n_dots":3.85,"target":"right","response":"right","rt":553.09999999404,"correct":true,"confidence":-1},{"trial_n":13,"n_dots":3.75,"target":"right","response":"right","rt":441.5,"correct":true,"confidence":-1},{"trial_n":14,"n_dots":3.75,"target":"left","response":"left","rt":0.80000001192093,"correct":true,"confidence":-1},{"trial_n":15,"n_dots":3.65,"target":"right","response":"right","rt":486.5,"correct":true,"confidence":-1},{"trial_n":16,"n_dots":3.65,"target":"right","response":"right","rt":180.59999999404,"correct":true,"confidence":-1},{"trial_n":17,"n_dots":3.55,"target":"right","response":"right","rt":656,"correct":true,"confidence":-1},{"trial_n":18,"n_dots":3.55,"target":"right","response":"right","rt":94,"correct":true,"confidence":-1},{"trial_n":19,"n_dots":3.45,"target":"right","response":"left","rt":3039.900000006,"correct":false,"confidence":-1},{"trial_n":20,"n_dots":3.55,"target":"left","response":"left","rt":674.5,"correct":true,"confidence":-1},{"trial_n":21,"n_dots":3.55,"target":"right","response":"right","rt":298.20000000298,"correct":true,"confidence":2},{"trial_n":22,"n_dots":3.45,"target":"right","response":"right","rt":1835.799999997,"correct":true,"confidence":2},{"trial_n":23,"n_dots":3.45,"target":"left","response":"left","rt":800.09999999404,"correct":true,"confidence":4},{"trial_n":24,"n_dots":3.35,"target":"left","response":"right","rt":1712.599999994,"correct":false,"confidence":3},{"trial_n":25,"n_dots":3.45,"target":"right","response":"right","rt":1545.299999997,"correct":true,"confidence":5},{"trial_n":26,"n_dots":3.45,"target":"left","response":"left","rt":1047.5,"correct":true,"confidence":5},{"trial_n":27,"n_dots":3.35,"target":"right","response":"right","rt":1212.5,"correct":true,"confidence":5},{"trial_n":28,"n_dots":3.35,"target":"left","response":"left","rt":304.59999999404,"correct":true,"confidence":4},{"trial_n":29,"n_dots":3.25,"target":"left","response":"right","rt":868.5,"correct":false,"confidence":4},{"trial_n":30,"n_dots":3.35,"target":"left","response":"left","rt":995.29999999702,"correct":true,"confidence":5},{"trial_n":31,"n_dots":3.35,"target":"right","response":"right","rt":2043.8999999911,"correct":true,"confidence":5},{"trial_n":32,"n_dots":3.25,"target":"left","response":"left","rt":1103.200000003,"correct":true,"confidence":4},{"trial_n":33,"n_dots":3.25,"target":"left","response":"left","rt":1268.3999999911,"correct":true,"confidence":3},{"trial_n":34,"n_dots":3.15,"target":"left","response":"left","rt":1109.599999994,"correct":true,"confidence":3},{"trial_n":35,"n_dots":3.15,"target":"right","response":"left","rt":1767.3999999911,"correct":false,"confidence":2},{"trial_n":36,"n_dots":3.25,"target":"left","response":"left","rt":941.09999999404,"correct":true,"confidence":3},{"trial_n":37,"n_dots":3.25,"target":"right","response":"right","rt":600.39999999106,"correct":true,"confidence":4},{"trial_n":38,"n_dots":3.15,"target":"left","response":"left","rt":76.600000008941,"correct":true,"confidence":5},{"trial_n":39,"n_dots":3.15,"target":"right","response":"right","rt":578.79999999702,"correct":true,"confidence":4},{"trial_n":40,"n_dots":3.05,"target":"left","response":"left","rt":1293.3999999911,"correct":true,"confidence":5},{"trial_n":41,"n_dots":3.05,"target":"left","response":"left","rt":989.40000000596,"correct":true,"confidence":3},{"trial_n":42,"n_dots":2.95,"target":"left","response":"left","rt":590.90000000596,"correct":true,"confidence":3},{"trial_n":43,"n_dots":2.95,"target":"left","response":"left","rt":211.60000000894,"correct":true,"confidence":5},{"trial_n":44,"n_dots":2.85,"target":"left","response":"left","rt":42,"correct":true,"confidence":4},{"trial_n":45,"n_dots":2.85,"target":"right","response":"right","rt":424.70000000298,"correct":true,"confidence":5},{"trial_n":46,"n_dots":2.75,"target":"right","response":"left","rt":1749.8999999911,"correct":false,"confidence":1},{"trial_n":47,"n_dots":2.85,"target":"right","response":"right","rt":1913.299999997,"correct":true,"confidence":2},{"trial_n":48,"n_dots":2.85,"target":"right","response":"left","rt":3.3999999910593,"correct":false,"confidence":5},{"trial_n":49,"n_dots":2.95,"target":"right","response":"left","rt":1004.8999999911,"correct":false,"confidence":3},{"trial_n":50,"n_dots":3.05,"target":"left","response":"left","rt":690.90000000596,"correct":true,"confidence":3},{"trial_n":51,"n_dots":3.05,"target":"right","response":"right","rt":44,"correct":true,"confidence":5},{"trial_n":52,"n_dots":2.95,"target":"right","response":"left","rt":12.29999999702,"correct":false,"confidence":4},{"trial_n":53,"n_dots":3.05,"target":"right","response":"right","rt":779,"correct":true,"confidence":3},{"trial_n":54,"n_dots":3.05,"target":"left","response":"left","rt":1203.900000006,"correct":true,"confidence":5},{"trial_n":55,"n_dots":2.95,"target":"left","response":"right","rt":727.89999999106,"correct":false,"confidence":5},{"trial_n":56,"n_dots":3.05,"target":"right","response":"right","rt":693.5,"correct":true,"confidence":4},{"trial_n":57,"n_dots":3.05,"target":"left","response":"right","rt":1121,"correct":false,"confidence":3},{"trial_n":58,"n_dots":3.15,"target":"left","response":"left","rt":615.20000000298,"correct":true,"confidence":5},{"trial_n":59,"n_dots":3.15,"target":"left","response":"left","rt":1349.900000006,"correct":true,"confidence":2},{"trial_n":60,"n_dots":3.05,"target":"right","response":"right","rt":555.20000000298,"correct":true,"confidence":4},{"trial_n":61,"n_dots":3.05,"target":"right","response":"left","rt":1024.6999999881,"correct":false,"confidence":2},{"trial_n":62,"n_dots":3.15,"target":"left","response":"left","rt":227.20000000298,"correct":true,"confidence":4},{"trial_n":63,"n_dots":3.15,"target":"left","response":"left","rt":550.20000000298,"correct":true,"confidence":3},{"trial_n":64,"n_dots":3.05,"target":"left","response":"left","rt":954,"correct":true,"confidence":3},{"trial_n":65,"n_dots":3.05,"target":"left","response":"left","rt":1841,"correct":true,"confidence":2},{"trial_n":66,"n_dots":2.95,"target":"left","response":"left","rt":1411.700000003,"correct":true,"confidence":2},{"trial_n":67,"n_dots":2.95,"target":"left","response":"right","rt":608.79999999702,"correct":false,"confidence":3},{"trial_n":68,"n_dots":3.05,"target":"right","response":"right","rt":323.89999999106,"correct":true,"confidence":3},{"trial_n":69,"n_dots":3.05,"target":"left","response":"left","rt":1693.6000000089,"correct":true,"confidence":2},{"trial_n":70,"n_dots":2.95,"target":"right","response":"right","rt":1065.400000006,"correct":true,"confidence":4},{"trial_n":71,"n_dots":2.95,"target":"right","response":"right","rt":644.5,"correct":true,"confidence":4},{"trial_n":72,"n_dots":2.85,"target":"left","response":"left","rt":1370.1999999881,"correct":true,"confidence":5},{"trial_n":73,"n_dots":2.85,"target":"right","response":"right","rt":1001.5,"correct":true,"confidence":3},{"trial_n":74,"n_dots":2.75,"target":"right","response":"left","rt":1888.299999997,"correct":false,"confidence":2},{"trial_n":75,"n_dots":2.85,"target":"right","response":"right","rt":536.70000000298,"correct":true,"confidence":4},{"trial_n":76,"n_dots":2.85,"target":"left","response":"right","rt":563.30000001192,"correct":false,"confidence":3},{"trial_n":77,"n_dots":2.95,"target":"right","response":"right","rt":493.59999999404,"correct":true,"confidence":3},{"trial_n":78,"n_dots":2.95,"target":"left","response":"left","rt":2924.099999994,"correct":true,"confidence":2},{"trial_n":79,"n_dots":2.85,"target":"right","response":"right","rt":778.29999999702,"correct":true,"confidence":5},{"trial_n":80,"n_dots":2.85,"target":"right","response":"left","rt":1959.599999994,"correct":false,"confidence":3},{"trial_n":81,"n_dots":2.95,"target":"right","response":"left","rt":1659.200000003,"correct":false,"confidence":3},{"trial_n":82,"n_dots":3.05,"target":"left","response":"right","rt":832.90000000596,"correct":false,"confidence":3},{"trial_n":83,"n_dots":3.15,"target":"right","response":"left","rt":2123.200000003,"correct":false,"confidence":3},{"trial_n":84,"n_dots":3.25,"target":"right","response":"right","rt":1827.5,"correct":true,"confidence":4},{"trial_n":85,"n_dots":3.25,"target":"left","response":"left","rt":1192.400000006,"correct":true,"confidence":5},{"trial_n":86,"n_dots":3.15,"target":"left","response":"left","rt":770.5,"correct":true,"confidence":3},{"trial_n":87,"n_dots":3.15,"target":"left","response":"left","rt":2107.3999999911,"correct":true,"confidence":4},{"trial_n":88,"n_dots":3.05,"target":"left","response":"left","rt":1105.299999997,"correct":true,"confidence":3},{"trial_n":89,"n_dots":3.05,"target":"left","response":"left","rt":1755.799999997,"correct":true,"confidence":4},{"trial_n":90,"n_dots":2.95,"target":"left","response":"right","rt":2356.5,"correct":false,"confidence":2},{"trial_n":91,"n_dots":3.05,"target":"left","response":"left","rt":3466.6999999881,"correct":true,"confidence":1},{"trial_n":92,"n_dots":3.05,"target":"right","response":"right","rt":1971.3999999911,"correct":true,"confidence":2},{"trial_n":93,"n_dots":2.95,"target":"right","response":"right","rt":2274.200000003,"correct":true,"confidence":1},{"trial_n":94,"n_dots":2.95,"target":"right","response":"right","rt":3113.400000006,"correct":true,"confidence":1},{"trial_n":95,"n_dots":2.85,"target":"right","response":"right","rt":1692.6999999881,"correct":true,"confidence":3},{"trial_n":96,"n_dots":2.85,"target":"left","response":"left","rt":1601.900000006,"correct":true,"confidence":3},{"trial_n":97,"n_dots":2.75,"target":"right","response":"right","rt":2004.5,"correct":true,"confidence":5},{"trial_n":98,"n_dots":2.75,"target":"right","response":"left","rt":1596.1999999881,"correct":false,"confidence":4},{"trial_n":99,"n_dots":2.85,"target":"left","response":"right","rt":1889.8999999911,"correct":false,"confidence":4},{"trial_n":100,"n_dots":2.95,"target":"left","response":"left","rt":1774.200000003,"correct":true,"confidence":5},{"trial_n":101,"n_dots":2.95,"target":"left","response":"left","rt":1546.599999994,"correct":true,"confidence":2},{"trial_n":102,"n_dots":2.85,"target":"left","response":"right","rt":2818.5,"correct":false,"confidence":1},{"trial_n":103,"n_dots":2.95,"target":"right","response":"right","rt":1205.3000000119,"correct":true,"confidence":4},{"trial_n":104,"n_dots":2.95,"target":"right","response":"left","rt":1097.200000003,"correct":false,"confidence":3},{"trial_n":105,"n_dots":3.05,"target":"right","response":"right","rt":1603,"correct":true,"confidence":5},{"trial_n":106,"n_dots":3.05,"target":"left","response":"left","rt":1461.200000003,"correct":true,"confidence":4},{"trial_n":107,"n_dots":2.95,"target":"right","response":"right","rt":822.79999999702,"correct":true,"confidence":5},{"trial_n":108,"n_dots":2.95,"target":"right","response":"right","rt":1171.8000000119,"correct":true,"confidence":5},{"trial_n":109,"n_dots":2.85,"target":"left","response":"left","rt":2572.900000006,"correct":true,"confidence":2},{"trial_n":110,"n_dots":2.85,"target":"right","response":"right","rt":1162.6000000089,"correct":true,"confidence":3},{"trial_n":111,"n_dots":2.75,"target":"left","response":"right","rt":1299.6999999881,"correct":false,"confidence":3},{"trial_n":112,"n_dots":2.85,"target":"left","response":"right","rt":401.89999999106,"correct":false,"confidence":4},{"trial_n":113,"n_dots":2.95,"target":"left","response":"left","rt":520.70000000298,"correct":true,"confidence":5},{"trial_n":114,"n_dots":2.95,"target":"right","response":"right","rt":898.09999999404,"correct":true,"confidence":5},{"trial_n":115,"n_dots":2.85,"target":"right","response":"left","rt":622,"correct":false,"confidence":4},{"trial_n":116,"n_dots":2.95,"target":"right","response":"right","rt":444.29999999702,"correct":true,"confidence":5},{"trial_n":117,"n_dots":2.95,"target":"right","response":"left","rt":1629,"correct":false,"confidence":4},{"trial_n":118,"n_dots":3.05,"target":"left","response":"right","rt":1370,"correct":false,"confidence":5},{"trial_n":119,"n_dots":3.15,"target":"left","response":"left","rt":1250.5,"correct":true,"confidence":5},{"trial_n":120,"n_dots":3.15,"target":"right","response":"right","rt":293.10000000894,"correct":true,"confidence":5}]