[{"trial_n":1,"min":25,"max":230,"target":"present","response":"present","rt":5398.3999999762,"correct":true,"confidence":-1},{"trial_n":2,"min":25,"max":230,"target":"present","response":"present","rt":4125.1999999881,"correct":true,"confidence":-1},{"trial_n":3,"min":41,"max":214,"target":"absent","response":"absent","rt":1266.9000000358,"correct":true,"confidence":-1},{"trial_n":4,"min":41,"max":214,"target":"absent","response":"present","rt":1274.8999999762,"correct":false,"confidence":-1},{"trial_n":5,"min":25,"max":230,"target":"present","response":"present","rt":972.79999995232,"correct":true,"confidence":-1},{"trial_n":6,"min":25,"max":230,"target":"absent","response":"present","rt":1992.8999999762,"correct":false,"confidence":-1},{"trial_n":7,"min":9,"max":246,"target":"absent","response":"absent","rt":2261,"correct":true,"confidence":-1},{"trial_n":8,"min":9,"max":246,"target":"absent","response":"present","rt":2392.6000000238,"correct":false,"confidence":-1},{"trial_n":9,"min":0,"max":255,"target":"present","response":"present","rt":1412.6999999881,"correct":true,"confidence":-1},{"trial_n":10,"min":0,"max":255,"target":"present","response":"present","rt":588.39999997616,"correct":true,"confidence":-1},{"trial_n":11,"min":8,"max":247,"target":"absent","response":"absent","rt":1315.6000000238,"correct":true,"confidence":-1},{"trial_n":12,"min":8,"max":247,"target":"present","response":"present","rt":789.89999997616,"correct":true,"confidence":-1},{"trial_n":13,"min":16,"max":239,"target":"present","response":"present","rt":1052.8999999762,"correct":true,"confidence":-1},{"trial_n":14,"min":16,"max":239,"target":"absent","response":"absent","rt":1595.6000000238,"correct":true,"confidence":-1},{"trial_n":15,"min":24,"max":231,"target":"absent","response":"present","rt":1490.1000000238,"correct":false,"confidence":-1},{"trial_n":16,"min":16,"max":239,"target":"absent","response":"absent","rt":1139.5999999642,"correct":true,"confidence":-1},{"trial_n":17,"min":16,"max":239,"target":"absent","response":"absent","rt":1574.5,"correct":true,"confidence":-1},{"trial_n":18,"min":24,"max":231,"target":"present","response":"present","rt":961.59999996424,"correct":true,"confidence":-1},{"trial_n":19,"min":24,"max":231,"target":"present","response":"present","rt":569.09999996424,"correct":true,"confidence":-1},{"trial_n":20,"min":32,"max":223,"target":"absent","response":"absent","rt":1342.8999999762,"correct":true,"confidence":-1},{"trial_n":21,"min":32,"max":223,"target":"absent","response":"absent","rt":1011,"correct":true,"confidence":5},{"trial_n":22,"min":36,"max":219,"target":"present","response":"present","rt":1171.1999999881,"correct":true,"confidence":4},{"trial_n":23,"min":36,"max":219,"target":"present","response":"present","rt":949.19999998808,"correct":true,"confidence":5},{"trial_n":24,"min":40,"max":215,"target":"absent","response":"absent","rt":888.89999997616,"correct":true,"confidence":4},{"trial_n":25,"min":40,"max":215,"target":"absent","response":"absent","rt":830,"correct":true,"confidence":5},{"trial_n":26,"min":44,"max":211,"target":"present","response":"present","rt":924.10000002384,"correct":true,"confidence":5},{"trial_n":27,"min":44,"max":211,"target":"absent","response":"absent","rt":702,"correct":true,"confidence":4},{"trial_n":28,"min":48,"max":207,"target":"present","response":"present","rt":1017.1000000238,"correct":true,"confidence":5},{"trial_n":29,"min":48,"max":207,"target":"present","response":"present","rt":993.80000001192,"correct":true,"confidence":5},{"trial_n":30,"min":52,"max":203,"target":"present","response":"present","rt":975.19999998808,"correct":true,"confidence":5},{"trial_n":31,"min":52,"max":203,"target":"present","response":"present","rt":1149.6000000238,"correct":true,"confidence":4},{"trial_n":32,"min":54,"max":201,"target":"present","response":"present","rt":1240.2000000477,"correct":true,"confidence":5},{"trial_n":33,"min":54,"max":201,"target":"present","response":"present","rt":2533.1000000238,"correct":true,"confidence":3},{"trial_n":34,"min":56,"max":199,"target":"present","response":"absent","rt":1048.8999999762,"correct":false,"confidence":4},{"trial_n":35,"min":54,"max":201,"target":"absent","response":"present","rt":3996.2000000477,"correct":false,"confidence":2},{"trial_n":36,"min":52,"max":203,"target":"absent","response":"absent","rt":973.29999995232,"correct":true,"confidence":4},{"trial_n":37,"min":52,"max":203,"target":"absent","response":"absent","rt":893,"correct":true,"confidence":3},{"trial_n":38,"min":54,"max":201,"target":"present","response":"present","rt":927.30000001192,"correct":true,"confidence":5},{"trial_n":39,"min":54,"max":201,"target":"present","response":"present","rt":1330.5,"correct":true,"confidence":3},{"trial_n":40,"min":56,"max":199,"target":"present","response":"present","rt":1316.4000000358,"correct":true,"confidence":3},{"trial_n":41,"min":56,"max":199,"target":"present","response":"present","rt":1152.5,"correct":true,"confidence":5},{"trial_n":42,"min":57,"max":198,"target":"absent","response":"present","rt":1505.2999999523,"correct":false,"confidence":3},{"trial_n":43,"min":56,"max":199,"target":"absent","response":"absent","rt":1101.1999999881,"correct":true,"confidence":2},{"trial_n":44,"min":56,"max":199,"target":"absent","response":"absent","rt":930.90000003576,"correct":true,"confidence":4},{"trial_n":45,"min":57,"max":198,"target":"absent","response":"present","rt":2607.1999999881,"correct":false,"confidence":3},{"trial_n":46,"min":56,"max":199,"target":"absent","response":"absent","rt":982,"correct":true,"confidence":3},{"trial_n":47,"min":56,"max":199,"target":"present","response":"present","rt":1436.3999999762,"correct":true,"confidence":4},{"trial_n":48,"min":57,"max":198,"target":"present","response":"present","rt":1143.6000000238,"correct":true,"confidence":5},{"trial_n":49,"min":57,"max":198,"target":"absent","response":"absent","rt":1003.3000000119,"correct":true,"confidence":3},{"trial_n":50,"min":58,"max":197,"target":"absent","response":"absent","rt":1379.6999999881,"correct":true,"confidence":3},{"trial_n":51,"min":58,"max":197,"target":"absent","response":"absent","rt":907.09999996424,"correct":true,"confidence":3},{"trial_n":52,"min":59,"max":196,"target":"present","response":"absent","rt":918,"correct":false,"confidence":3},{"trial_n":53,"min":58,"max":197,"target":"present","response":"present","rt":1098.3999999762,"correct":true,"confidence":5},{"trial_n":54,"min":58,"max":197,"target":"present","response":"present","rt":940.40000003576,"correct":true,"confidence":5},{"trial_n":55,"min":59,"max":196,"target":"present","response":"present","rt":1177.1000000238,"correct":true,"confidence":5},{"trial_n":56,"min":59,"max":196,"target":"absent","response":"present","rt":1672.0999999642,"correct":false,"confidence":3},{"trial_n":57,"min":58,"max":197,"target":"present","response":"present","rt":789.5,"correct":true,"confidence":5},{"trial_n":58,"min":58,"max":197,"target":"present","response":"absent","rt":1164,"correct":false,"confidence":2},{"trial_n":59,"min":57,"max":198,"target":"present","response":"present","rt":962.39999997616,"correct":true,"confidence":4},{"trial_n":60,"min":57,"max":198,"target":"absent","response":"absent","rt":908.89999997616,"correct":true,"confidence":4},{"trial_n":61,"min":58,"max":197,"target":"present","response":"present","rt":1716.6000000238,"correct":true,"confidence":4},{"trial_n":62,"min":58,"max":197,"target":"absent","response":"absent","rt":811.09999996424,"correct":true,"confidence":4},{"trial_n":63,"min":59,"max":196,"target":"absent","response":"absent","rt":928,"correct":true,"confidence":3},{"trial_n":64,"min":59,"max":196,"target":"present","response":"present","rt":1152.8999999762,"correct":true,"confidence":5},{"trial_n":65,"min":60,"max":195,"target":"absent","response":"absent","rt":1331.1000000238,"correct":true,"confidence":2},{"trial_n":66,"min":60,"max":195,"target":"absent","response":"absent","rt":1105.9000000358,"correct":true,"confidence":4},{"trial_n":67,"min":61,"max":194,"target":"present","response":"present","rt":1672.1999999881,"correct":true,"confidence":4},{"trial_n":68,"min":61,"max":194,"target":"absent","response":"absent","rt":781.40000003576,"correct":true,"confidence":4},{"trial_n":69,"min":62,"max":193,"target":"absent","response":"absent","rt":833.60000002384,"correct":true,"confidence":5},{"trial_n":70,"min":62,"max":193,"target":"present","response":"present","rt":1551.3000000119,"correct":true,"confidence":3},{"trial_n":71,"min":41,"max":214,"target":"present","response":"absent","rt":5438.3999999762,"correct":false,"confidence":-1},{"trial_n":72,"min":41,"max":214,"target":"present","response":"present","rt":3641,"correct":true,"confidence":-1},{"trial_n":73,"min":41,"max":214,"target":"absent","response":"absent","rt":2129.4000000358,"correct":true,"confidence":-1},{"trial_n":74,"min":57,"max":198,"target":"absent","response":"absent","rt":767.89999997616,"correct":true,"confidence":-1},{"trial_n":75,"min":57,"max":198,"target":"present","response":"present","rt":1764,"correct":true,"confidence":-1},{"trial_n":76,"min":73,"max":182,"target":"present","response":"present","rt":924.69999998808,"correct":true,"confidence":-1},{"trial_n":77,"min":73,"max":182,"target":"absent","response":"absent","rt":1709.6999999881,"correct":true,"confidence":-1},{"trial_n":78,"min":89,"max":166,"target":"absent","response":"present","rt":1362.5,"correct":false,"confidence":-1},{"trial_n":79,"min":73,"max":182,"target":"absent","response":"absent","rt":1077.7999999523,"correct":true,"confidence":-1},{"trial_n":80,"min":73,"max":182,"target":"absent","response":"present","rt":2365.5,"correct":false,"confidence":-1},{"trial_n":81,"min":65,"max":190,"target":"absent","response":"absent","rt":988.40000003576,"correct":true,"confidence":-1},{"trial_n":82,"min":65,"max":190,"target":"absent","response":"absent","rt":808.10000002384,"correct":true,"confidence":-1},{"trial_n":83,"min":73,"max":182,"target":"absent","response":"absent","rt":741.40000003576,"correct":true,"confidence":-1},{"trial_n":84,"min":73,"max":182,"target":"present","response":"absent","rt":697.59999996424,"correct":false,"confidence":-1},{"trial_n":85,"min":65,"max":190,"target":"present","response":"present","rt":986.5,"correct":true,"confidence":-1},{"trial_n":86,"min":65,"max":190,"target":"present","response":"present","rt":1328,"correct":true,"confidence":-1},{"trial_n":87,"min":73,"max":182,"target":"present","response":"present","rt":1209.8999999762,"correct":true,"confidence":-1},{"trial_n":88,"min":73,"max":182,"target":"absent","response":"absent","rt":1381.6999999881,"correct":true,"confidence":-1},{"trial_n":89,"min":81,"max":174,"target":"absent","response":"absent","rt":944.89999997616,"correct":true,"confidence":-1},{"trial_n":90,"min":81,"max":174,"target":"absent","response":"present","rt":1089.1999999881,"correct":false,"confidence":-1},{"trial_n":91,"min":77,"max":178,"target":"absent","response":"absent","rt":2279.5,"correct":true,"confidence":2},{"trial_n":92,"min":77,"max":178,"target":"present","response":"present","rt":1003.8999999762,"correct":true,"confidence":3},{"trial_n":93,"min":81,"max":174,"target":"present","response":"present","rt":4197,"correct":true,"confidence":2},{"trial_n":94,"min":81,"max":174,"target":"absent","response":"absent","rt":1292.3000000119,"correct":true,"confidence":3},{"trial_n":95,"min":85,"max":170,"target":"absent","response":"absent","rt":947.5,"correct":true,"confidence":3},{"trial_n":96,"min":85,"max":170,"target":"present","response":"absent","rt":1089.5,"correct":false,"confidence":3},{"trial_n":97,"min":81,"max":174,"target":"absent","response":"present","rt":917.69999998808,"correct":false,"confidence":2},{"trial_n":98,"min":77,"max":178,"target":"absent","response":"absent","rt":1293.8999999762,"correct":true,"confidence":3},{"trial_n":99,"min":77,"max":178,"target":"absent","response":"absent","rt":1579.0999999642,"correct":true,"confidence":2},{"trial_n":100,"min":81,"max":174,"target":"absent","response":"absent","rt":2040.6999999881,"correct":true,"confidence":5},{"trial_n":101,"min":81,"max":174,"target":"present","response":"present","rt":3361.4000000358,"correct":true,"confidence":3},{"trial_n":102,"min":83,"max":172,"target":"present","response":"present","rt":2919,"correct":true,"confidence":2},{"trial_n":103,"min":83,"max":172,"target":"present","response":"present","rt":1925.6999999881,"correct":true,"confidence":3},{"trial_n":104,"min":85,"max":170,"target":"present","response":"present","rt":915.69999998808,"correct":true,"confidence":3},{"trial_n":105,"min":85,"max":170,"target":"absent","response":"absent","rt":1182.8999999762,"correct":true,"confidence":4},{"trial_n":106,"min":87,"max":168,"target":"present","response":"present","rt":849.30000001192,"correct":true,"confidence":5},{"trial_n":107,"min":87,"max":168,"target":"present","response":"present","rt":1774.8999999762,"correct":true,"confidence":4},{"trial_n":108,"min":89,"max":166,"target":"present","response":"present","rt":844.90000003576,"correct":true,"confidence":4},{"trial_n":109,"min":89,"max":166,"target":"present","response":"present","rt":915.59999996424,"correct":true,"confidence":4},{"trial_n":110,"min":91,"max":164,"target":"absent","response":"absent","rt":1561.9000000358,"correct":true,"confidence":2},{"trial_n":111,"min":91,"max":164,"target":"present","response":"absent","rt":1202.1000000238,"correct":false,"confidence":3},{"trial_n":112,"min":90,"max":165,"target":"present","response":"present","rt":777.5,"correct":true,"confidence":5},{"trial_n":113,"min":90,"max":165,"target":"absent","response":"absent","rt":1483.5,"correct":true,"confidence":5},{"trial_n":114,"min":91,"max":164,"target":"present","response":"present","rt":808.20000004768,"correct":true,"confidence":4},{"trial_n":115,"min":91,"max":164,"target":"present","response":"absent","rt":2785.8999999762,"correct":false,"confidence":3},{"trial_n":116,"min":90,"max":165,"target":"present","response":"absent","rt":1261.8000000119,"correct":false,"confidence":4},{"trial_n":117,"min":89,"max":166,"target":"present","response":"present","rt":721.60000002384,"correct":true,"confidence":5},{"trial_n":118,"min":89,"max":166,"target":"absent","response":"present","rt":2182.3999999762,"correct":false,"confidence":3},{"trial_n":119,"min":88,"max":167,"target":"present","response":"present","rt":2139.5,"correct":true,"confidence":3},{"trial_n":120,"min":88,"max":167,"target":"present","response":"present","rt":838.19999998808,"correct":true,"confidence":4},{"trial_n":121,"min":89,"max":166,"target":"absent","response":"absent","rt":1288.1999999881,"correct":true,"confidence":3},{"trial_n":122,"min":89,"max":166,"target":"present","response":"absent","rt":1136.0999999642,"correct":false,"confidence":3},{"trial_n":123,"min":88,"max":167,"target":"present","response":"present","rt":656.89999997616,"correct":true,"confidence":5},{"trial_n":124,"min":88,"max":167,"target":"absent","response":"absent","rt":1172.7999999523,"correct":true,"confidence":5},{"trial_n":125,"min":89,"max":166,"target":"absent","response":"present","rt":1068.3000000119,"correct":false,"confidence":4},{"trial_n":126,"min":88,"max":167,"target":"absent","response":"absent","rt":890.09999996424,"correct":true,"confidence":5},{"trial_n":127,"min":88,"max":167,"target":"present","response":"present","rt":2157.8999999762,"correct":true,"confidence":3},{"trial_n":128,"min":89,"max":166,"target":"present","response":"present","rt":827.69999998808,"correct":true,"confidence":5},{"trial_n":129,"min":89,"max":166,"target":"present","response":"absent","rt":1869.2999999523,"correct":false,"confidence":3},{"trial_n":130,"min":88,"max":167,"target":"absent","response":"present","rt":2373,"correct":false,"confidence":2},{"trial_n":131,"min":87,"max":168,"target":"absent","response":"absent","rt":1126.4000000358,"correct":true,"confidence":5},{"trial_n":132,"min":87,"max":168,"target":"absent","response":"absent","rt":1006,"correct":true,"confidence":5},{"trial_n":133,"min":88,"max":167,"target":"present","response":"present","rt":1291,"correct":true,"confidence":3},{"trial_n":134,"min":88,"max":167,"target":"present","response":"present","rt":1076.8999999762,"correct":true,"confidence":4},{"trial_n":135,"min":89,"max":166,"target":"present","response":"absent","rt":2499,"correct":false,"confidence":3},{"trial_n":136,"min":88,"max":167,"target":"absent","response":"absent","rt":882.90000003576,"correct":true,"confidence":3},{"trial_n":137,"min":88,"max":167,"target":"absent","response":"present","rt":1728.8000000119,"correct":false,"confidence":3},{"trial_n":138,"min":87,"max":168,"target":"absent","response":"absent","rt":1101.3999999762,"correct":true,"confidence":3},{"trial_n":139,"min":87,"max":168,"target":"present","response":"present","rt":688.59999996424,"correct":true,"confidence":5},{"trial_n":140,"min":88,"max":167,"target":"absent","response":"present","rt":2624.1999999881,"correct":false,"confidence":4}]