[{"trial_n":1,"n_dots":4.25,"target":"left","response":"left","rt":7687.6999999881,"correct":true,"confidence":-1},{"trial_n":2,"n_dots":4.25,"target":"left","response":"left","rt":940.80000001192,"correct":true,"confidence":-1},{"trial_n":3,"n_dots":3.85,"target":"left","response":"left","rt":5561,"correct":true,"confidence":-1},{"trial_n":4,"n_dots":3.85,"target":"right","response":"right","rt":2183.1999999881,"correct":true,"confidence":-1},{"trial_n":5,"n_dots":3.45,"target":"right","response":"right","rt":1841.8000000119,"correct":true,"confidence":-1},{"trial_n":6,"n_dots":3.45,"target":"right","response":"right","rt":895.79999998212,"correct":true,"confidence":-1},{"trial_n":7,"n_dots":3.05,"target":"left","response":"left","rt":1852.099999994,"correct":true,"confidence":-1},{"trial_n":8,"n_dots":3.05,"target":"right","response":"left","rt":1103.3000000119,"correct":false,"confidence":-1},{"trial_n":9,"n_dots":3.25,"target":"right","response":"right","rt":333.59999999404,"correct":true,"confidence":-1},{"trial_n":10,"n_dots":3.25,"target":"left","response":"left","rt":693.90000000596,"correct":true,"confidence":-1},{"trial_n":11,"n_dots":3.05,"target":"right","response":"right","rt":279.30000001192,"correct":true,"confidence":-1},{"trial_n":12,"n_dots":3.05,"target":"right","response":"right","rt":105.29999998212,"correct":true,"confidence":-1},{"trial_n":13,"n_dots":2.95,"target":"right","response":"right","rt":246.5,"correct":true,"confidence":-1},{"trial_n":14,"n_dots":2.95,"target":"right","response":"right","rt":367.30000001192,"correct":true,"confidence":-1},{"trial_n":15,"n_dots":2.85,"target":"left","response":"right","rt":35.59999999404,"correct":false,"confidence":-1},{"trial_n":16,"n_dots":2.95,"target":"left","response":"right","rt":123.10000002384,"correct":false,"confidence":-1},{"trial_n":17,"n_dots":3.05,"target":"right","response":"right","rt":4323.5,"correct":true,"confidence":-1},{"trial_n":18,"n_dots":3.05,"target":"right","response":"right","rt":1152.5,"correct":true,"confidence":-1},{"trial_n":19,"n_dots":2.95,"target":"right","response":"right","rt":581.5,"correct":true,"confidence":-1},{"trial_n":20,"n_dots":2.95,"target":"left","response":"left","rt":1136.5,"correct":true,"confidence":-1},{"trial_n":21,"n_dots":2.85,"target":"right","response":"right","rt":261.5,"correct":true,"confidence":3},{"trial_n":22,"n_dots":2.85,"target":"left","response":"left","rt":438.69999998808,"correct":true,"confidence":3},{"trial_n":23,"n_dots":2.75,"target":"right","response":"right","rt":327.19999998808,"correct":true,"confidence":2},{"trial_n":24,"n_dots":2.75,"target":"left","response":"right","rt":693.70000001788,"correct":false,"confidence":2},{"trial_n":25,"n_dots":2.85,"target":"left","response":"right","rt":215.39999997616,"correct":false,"confidence":2},{"trial_n":26,"n_dots":2.95,"target":"left","response":"left","rt":763.19999998808,"correct":true,"confidence":3},{"trial_n":27,"n_dots":2.95,"target":"left","response":"left","rt":335.90000000596,"correct":true,"confidence":4},{"trial_n":28,"n_dots":2.85,"target":"right","response":"left","rt":263.69999998808,"correct":false,"confidence":4},{"trial_n":29,"n_dots":2.95,"target":"left","response":"right","rt":638.79999998212,"correct":false,"confidence":4},{"trial_n":30,"n_dots":3.05,"target":"left","response":"left","rt":391.70000001788,"correct":true,"confidence":4},{"trial_n":31,"n_dots":3.05,"target":"right","response":"right","rt":335.69999998808,"correct":true,"confidence":4},{"trial_n":32,"n_dots":2.95,"target":"right","response":"right","rt":278.59999999404,"correct":true,"confidence":4},{"trial_n":33,"n_dots":2.95,"target":"right","response":"right","rt":534.5,"correct":true,"confidence":4},{"trial_n":34,"n_dots":2.85,"target":"right","response":"right","rt":381.5,"correct":true,"confidence":4},{"trial_n":35,"n_dots":2.85,"target":"right","response":"right","rt":1055,"correct":true,"confidence":2},{"trial_n":36,"n_dots":2.75,"target":"left","response":"left","rt":203.09999999404,"correct":true,"confidence":3},{"trial_n":37,"n_dots":2.75,"target":"left","response":"left","rt":199.29999998212,"correct":true,"confidence":3},{"trial_n":38,"n_dots":2.65,"target":"left","response":"left","rt":490.09999999404,"correct":true,"confidence":3},{"trial_n":39,"n_dots":2.65,"target":"left","response":"left","rt":441,"correct":true,"confidence":3},{"trial_n":40,"n_dots":2.55,"target":"right","response":"left","rt":415.29999998212,"correct":false,"confidence":3},{"trial_n":41,"n_dots":2.65,"target":"left","response":"right","rt":733.20000001788,"correct":false,"confidence":3},{"trial_n":42,"n_dots":2.75,"target":"right","response":"right","rt":466.09999999404,"correct":true,"confidence":1},{"trial_n":43,"n_dots":2.75,"target":"right","response":"right","rt":815.79999998212,"correct":true,"confidence":1},{"trial_n":44,"n_dots":2.65,"target":"left","response":"right","rt":161.59999999404,"correct":false,"confidence":3},{"trial_n":45,"n_dots":2.75,"target":"right","response":"right","rt":223.59999999404,"correct":true,"confidence":4},{"trial_n":46,"n_dots":2.75,"target":"left","response":"left","rt":239.29999998212,"correct":true,"confidence":4},{"trial_n":47,"n_dots":2.65,"target":"right","response":"left","rt":655.59999999404,"correct":false,"confidence":4},{"trial_n":48,"n_dots":2.75,"target":"right","response":"right","rt":367.89999997616,"correct":true,"confidence":2},{"trial_n":49,"n_dots":2.75,"target":"left","response":"right","rt":231.5,"correct":false,"confidence":3},{"trial_n":50,"n_dots":2.85,"target":"right","response":"left","rt":745.90000000596,"correct":false,"confidence":3},{"trial_n":51,"n_dots":2.95,"target":"right","response":"right","rt":430,"correct":true,"confidence":3},{"trial_n":52,"n_dots":2.95,"target":"right","response":"right","rt":677.29999998212,"correct":true,"confidence":3},{"trial_n":53,"n_dots":2.85,"target":"right","response":"right","rt":847.19999998808,"correct":true,"confidence":3},{"trial_n":54,"n_dots":2.85,"target":"left","response":"left","rt":855,"correct":true,"confidence":2},{"trial_n":55,"n_dots":2.75,"target":"right","response":"right","rt":862.09999999404,"correct":true,"confidence":3},{"trial_n":56,"n_dots":2.75,"target":"right","response":"right","rt":303.79999998212,"correct":true,"confidence":3},{"trial_n":57,"n_dots":2.65,"target":"left","response":"left","rt":977.89999997616,"correct":true,"confidence":2},{"trial_n":58,"n_dots":2.65,"target":"right","response":"right","rt":349.40000000596,"correct":true,"confidence":2},{"trial_n":59,"n_dots":2.55,"target":"left","response":"left","rt":494.5,"correct":true,"confidence":3},{"trial_n":60,"n_dots":2.55,"target":"right","response":"left","rt":324.5,"correct":false,"confidence":2},{"trial_n":61,"n_dots":2.65,"target":"left","response":"right","rt":518.39999997616,"correct":false,"confidence":2},{"trial_n":62,"n_dots":2.75,"target":"right","response":"left","rt":1095.900000006,"correct":false,"confidence":3},{"trial_n":63,"n_dots":2.85,"target":"left","response":"left","rt":573.10000002384,"correct":true,"confidence":4},{"trial_n":64,"n_dots":2.85,"target":"left","response":"left","rt":902,"correct":true,"confidence":4},{"trial_n":65,"n_dots":2.75,"target":"right","response":"right","rt":185.90000000596,"correct":true,"confidence":3},{"trial_n":66,"n_dots":2.75,"target":"right","response":"left","rt":384.10000002384,"correct":false,"confidence":4},{"trial_n":67,"n_dots":2.85,"target":"left","response":"left","rt":231.70000001788,"correct":true,"confidence":5},{"trial_n":68,"n_dots":2.85,"target":"left","response":"left","rt":331.90000000596,"correct":true,"confidence":5},{"trial_n":69,"n_dots":2.75,"target":"right","response":"right","rt":753.89999997616,"correct":true,"confidence":3},{"trial_n":70,"n_dots":2.75,"target":"left","response":"left","rt":368.20000001788,"correct":true,"confidence":5},{"trial_n":71,"n_dots":2.65,"target":"left","response":"left","rt":205.40000000596,"correct":true,"confidence":4},{"trial_n":72,"n_dots":2.65,"target":"left","response":"left","rt":223.20000001788,"correct":true,"confidence":5},{"trial_n":73,"n_dots":2.55,"target":"left","response":"left","rt":408,"correct":true,"confidence":5},{"trial_n":74,"n_dots":2.55,"target":"right","response":"left","rt":53.800000011921,"correct":false,"confidence":5},{"trial_n":75,"n_dots":2.65,"target":"left","response":"left","rt":383.70000001788,"correct":true,"confidence":5},{"trial_n":76,"n_dots":2.65,"target":"left","response":"left","rt":62.800000011921,"correct":true,"confidence":5},{"trial_n":77,"n_dots":2.55,"target":"left","response":"right","rt":951.29999998212,"correct":false,"confidence":3},{"trial_n":78,"n_dots":2.65,"target":"right","response":"right","rt":302.80000001192,"correct":true,"confidence":3},{"trial_n":79,"n_dots":2.65,"target":"right","response":"right","rt":484.90000000596,"correct":true,"confidence":3},{"trial_n":80,"n_dots":2.55,"target":"left","response":"right","rt":350.80000001192,"correct":false,"confidence":3},{"trial_n":81,"n_dots":2.65,"target":"right","response":"right","rt":219.5,"correct":true,"confidence":3},{"trial_n":82,"n_dots":2.65,"target":"left","response":"left","rt":730.90000000596,"correct":true,"confidence":3},{"trial_n":83,"n_dots":2.55,"target":"right","response":"left","rt":280.09999999404,"correct":false,"confidence":3},{"trial_n":84,"n_dots":2.65,"target":"left","response":"left","rt":206.40000000596,"correct":true,"confidence":4},{"trial_n":85,"n_dots":2.65,"target":"left","response":"left","rt":510.19999998808,"correct":true,"confidence":4},{"trial_n":86,"n_dots":2.55,"target":"left","response":"left","rt":747.5,"correct":true,"confidence":4},{"trial_n":87,"n_dots":2.55,"target":"left","response":"left","rt":456.80000001192,"correct":true,"confidence":4},{"trial_n":88,"n_dots":2.45,"target":"right","response":"left","rt":658.19999998808,"correct":false,"confidence":4},{"trial_n":89,"n_dots":2.55,"target":"left","response":"left","rt":471.69999998808,"correct":true,"confidence":3},{"trial_n":90,"n_dots":2.55,"target":"right","response":"left","rt":575.69999998808,"correct":false,"confidence":3},{"trial_n":91,"n_dots":2.65,"target":"right","response":"right","rt":230.5,"correct":true,"confidence":2},{"trial_n":92,"n_dots":2.65,"target":"right","response":"left","rt":437.09999999404,"correct":false,"confidence":3},{"trial_n":93,"n_dots":2.75,"target":"left","response":"right","rt":855,"correct":false,"confidence":1},{"trial_n":94,"n_dots":2.85,"target":"left","response":"left","rt":334.80000001192,"correct":true,"confidence":2},{"trial_n":95,"n_dots":2.85,"target":"right","response":"left","rt":3055.6000000238,"correct":false,"confidence":1},{"trial_n":96,"n_dots":2.95,"target":"right","response":"right","rt":73.699999988079,"correct":true,"confidence":4},{"trial_n":97,"n_dots":2.95,"target":"right","response":"right","rt":111.69999998808,"correct":true,"confidence":4},{"trial_n":98,"n_dots":2.85,"target":"right","response":"right","rt":397.19999998808,"correct":true,"confidence":4},{"trial_n":99,"n_dots":2.85,"target":"right","response":"right","rt":343.90000000596,"correct":true,"confidence":1},{"trial_n":100,"n_dots":2.75,"target":"right","response":"right","rt":697.09999999404,"correct":true,"confidence":4},{"trial_n":101,"n_dots":2.75,"target":"right","response":"right","rt":784.10000002384,"correct":true,"confidence":2},{"trial_n":102,"n_dots":2.65,"target":"left","response":"left","rt":765.69999998808,"correct":true,"confidence":2},{"trial_n":103,"n_dots":2.65,"target":"left","response":"right","rt":343.09999999404,"correct":false,"confidence":4},{"trial_n":104,"n_dots":2.75,"target":"left","response":"right","rt":269.59999999404,"correct":false,"confidence":3},{"trial_n":105,"n_dots":2.85,"target":"right","response":"right","rt":1019.900000006,"correct":true,"confidence":5},{"trial_n":106,"n_dots":2.85,"target":"right","response":"left","rt":398.90000000596,"correct":false,"confidence":5},{"trial_n":107,"n_dots":2.95,"target":"left","response":"right","rt":287.5,"correct":false,"confidence":3},{"trial_n":108,"n_dots":3.05,"target":"left","response":"left","rt":255.19999998808,"correct":true,"confidence":4},{"trial_n":109,"n_dots":3.05,"target":"left","response":"right","rt":1020.6999999881,"correct":false,"confidence":4},{"trial_n":110,"n_dots":3.15,"target":"left","response":"left","rt":455.40000000596,"correct":true,"confidence":1},{"trial_n":111,"n_dots":3.15,"target":"right","response":"right","rt":753,"correct":true,"confidence":3},{"trial_n":112,"n_dots":3.05,"target":"left","response":"left","rt":135.79999998212,"correct":true,"confidence":3},{"trial_n":113,"n_dots":3.05,"target":"right","response":"left","rt":387.69999998808,"correct":false,"confidence":3},{"trial_n":114,"n_dots":3.15,"target":"left","response":"right","rt":86.40000000596,"correct":false,"confidence":2},{"trial_n":115,"n_dots":3.25,"target":"right","response":"right","rt":335.59999999404,"correct":true,"confidence":4},{"trial_n":116,"n_dots":3.25,"target":"left","response":"left","rt":306.29999998212,"correct":true,"confidence":3},{"trial_n":117,"n_dots":3.15,"target":"left","response":"right","rt":302.89999997616,"correct":false,"confidence":3},{"trial_n":118,"n_dots":3.25,"target":"left","response":"right","rt":514.59999999404,"correct":false,"confidence":4},{"trial_n":119,"n_dots":3.35,"target":"right","response":"right","rt":99.200000017881,"correct":true,"confidence":4},{"trial_n":120,"n_dots":3.35,"target":"left","response":"left","rt":895.59999999404,"correct":true,"confidence":3}]