[{"trial_n":1,"span":8,"encoder":"41876587","distractor":"51876587","target":"present","response":"absent","rt":"6000.1000000238","correct":false,"confidence":-1},{"trial_n":2,"span":6,"encoder":"091905","distractor":"099905","target":"present","response":"present","rt":"1677.1999999881","correct":true,"confidence":-1},{"trial_n":3,"span":6,"encoder":"641166","distractor":"641126","target":"absent","response":"absent","rt":"2287.6999999881","correct":true,"confidence":-1},{"trial_n":4,"span":8,"encoder":"54168527","distractor":"34168527","target":"absent","response":"present","rt":"1726","correct":false,"confidence":-1},{"trial_n":5,"span":6,"encoder":"281298","distractor":"281299","target":"present","response":"present","rt":"1509.8999999762","correct":true,"confidence":-1},{"trial_n":6,"span":6,"encoder":"855245","distractor":"855225","target":"present","response":"present","rt":"2061.3999999762","correct":true,"confidence":-1},{"trial_n":7,"span":8,"encoder":"11864691","distractor":"11864694","target":"absent","response":"absent","rt":"2915.6999999881","correct":true,"confidence":-1},{"trial_n":8,"span":8,"encoder":"37154627","distractor":"37454627","target":"present","response":"present","rt":"1381.1999999881","correct":true,"confidence":-1},{"trial_n":9,"span":10,"encoder":"0564526427","distractor":"0564526420","target":"present","response":"present","rt":"1616.8999999762","correct":true,"confidence":-1},{"trial_n":10,"span":10,"encoder":"3010841132","distractor":"0010841132","target":"present","response":"present","rt":"1418","correct":true,"confidence":-1},{"trial_n":11,"span":12,"encoder":"972454943668","distractor":"972454943638","target":"present","response":"present","rt":"1725.0999999642","correct":true,"confidence":-1},{"trial_n":12,"span":12,"encoder":"219869727880","distractor":"239869727880","target":"present","response":"present","rt":"1321.2999999523","correct":true,"confidence":-1},{"trial_n":13,"span":13,"encoder":"9600091116527","distractor":"9600091156527","target":"absent","response":"present","rt":"1885.3000000119","correct":false,"confidence":-1},{"trial_n":14,"span":12,"encoder":"917798732060","distractor":"017798732060","target":"absent","response":"present","rt":"1154","correct":false,"confidence":-1},{"trial_n":15,"span":11,"encoder":"83680616197","distractor":"83680686197","target":"absent","response":"present","rt":"1741.5","correct":false,"confidence":-1},{"trial_n":16,"span":10,"encoder":"1196518865","distractor":"1196515865","target":"present","response":"absent","rt":"1578.6000000238","correct":false,"confidence":-1},{"trial_n":17,"span":9,"encoder":"814212403","distractor":"814282403","target":"present","response":"present","rt":"1293","correct":true,"confidence":-1},{"trial_n":18,"span":9,"encoder":"615413797","distractor":"615412797","target":"absent","response":"present","rt":"2089.8999999762","correct":false,"confidence":-1},{"trial_n":19,"span":8,"encoder":"44386242","distractor":"44386243","target":"present","response":"present","rt":"1533.7999999523","correct":true,"confidence":-1},{"trial_n":20,"span":8,"encoder":"23258350","distractor":"93258350","target":"present","response":"present","rt":"1925.9000000358","correct":true,"confidence":-1},{"trial_n":21,"span":9,"encoder":"702528429","distractor":"742528429","target":"present","response":"present","rt":"3258.1000000238","correct":true,"confidence":4},{"trial_n":22,"span":9,"encoder":"137140118","distractor":"137140018","target":"absent","response":"absent","rt":"3819.5999999642","correct":true,"confidence":3},{"trial_n":23,"span":10,"encoder":"4842317059","distractor":"6842317059","target":"present","response":"present","rt":"4224.3999999762","correct":true,"confidence":3},{"trial_n":24,"span":10,"encoder":"3554238591","distractor":"3554208591","target":"absent","response":"present","rt":"1631.1999999881","correct":false,"confidence":4},{"trial_n":25,"span":9,"encoder":"886277715","distractor":"886277705","target":"present","response":"present","rt":"1829.3000000119","correct":true,"confidence":5},{"trial_n":26,"span":9,"encoder":"283989884","distractor":"273989884","target":"present","response":"present","rt":"5967.6999999881","correct":true,"confidence":3},{"trial_n":27,"span":10,"encoder":"7137730925","distractor":"7137030925","target":"absent","response":"present","rt":"3738.5","correct":false,"confidence":5},{"trial_n":28,"span":9,"encoder":"429537482","distractor":"449537482","target":"present","response":"present","rt":"4611.0999999642","correct":true,"confidence":3},{"trial_n":29,"span":9,"encoder":"455479450","distractor":"454479450","target":"present","response":"present","rt":"3530.2000000477","correct":true,"confidence":4},{"trial_n":30,"span":10,"encoder":"3011028363","distractor":"3011928363","target":"absent","response":"absent","rt":"8114.0999999642","correct":true,"confidence":2},{"trial_n":31,"span":10,"encoder":"7289509761","distractor":"7289509461","target":"present","response":"present","rt":"4304.3000000119","correct":true,"confidence":3},{"trial_n":32,"span":11,"encoder":"59726790178","distractor":"59726390178","target":"absent","response":"present","rt":"3424.5","correct":false,"confidence":4},{"trial_n":33,"span":10,"encoder":"4586951559","distractor":"4586951759","target":"absent","response":"absent","rt":"2322.5999999642","correct":true,"confidence":4},{"trial_n":34,"span":10,"encoder":"9402183360","distractor":"9502183360","target":"absent","response":"present","rt":"2068.6999999881","correct":false,"confidence":4},{"trial_n":35,"span":9,"encoder":"893402650","distractor":"893202650","target":"absent","response":"present","rt":"2414","correct":false,"confidence":4},{"trial_n":36,"span":8,"encoder":"42721649","distractor":"42721699","target":"absent","response":"absent","rt":"7721.0999999642","correct":true,"confidence":3},{"trial_n":37,"span":8,"encoder":"66328736","distractor":"86328736","target":"absent","response":"absent","rt":"3351.8999999762","correct":true,"confidence":3},{"trial_n":38,"span":9,"encoder":"153491815","distractor":"153491895","target":"absent","response":"present","rt":"2785.5","correct":false,"confidence":4},{"trial_n":39,"span":8,"encoder":"53531988","distractor":"53531488","target":"present","response":"present","rt":"1665.1000000238","correct":true,"confidence":4},{"trial_n":40,"span":8,"encoder":"72726002","distractor":"72796002","target":"present","response":"present","rt":"2985.8000000119","correct":true,"confidence":4},{"trial_n":41,"span":9,"encoder":"654568025","distractor":"654568625","target":"absent","response":"present","rt":"3356.3999999762","correct":false,"confidence":4},{"trial_n":42,"span":8,"encoder":"15748689","distractor":"15948689","target":"absent","response":"absent","rt":"4726.6999999881","correct":true,"confidence":3},{"trial_n":43,"span":8,"encoder":"45616120","distractor":"45616820","target":"present","response":"present","rt":"3045","correct":true,"confidence":4},{"trial_n":44,"span":9,"encoder":"780571097","distractor":"180571097","target":"absent","response":"present","rt":"2822.5","correct":false,"confidence":3},{"trial_n":45,"span":8,"encoder":"54111449","distractor":"14111449","target":"absent","response":"present","rt":"1688.1999999881","correct":false,"confidence":5},{"trial_n":46,"span":7,"encoder":"4302675","distractor":"4305675","target":"absent","response":"present","rt":"1525.1000000238","correct":false,"confidence":4},{"trial_n":47,"span":6,"encoder":"186790","distractor":"106790","target":"present","response":"present","rt":"1232.1000000238","correct":true,"confidence":4},{"trial_n":48,"span":6,"encoder":"141192","distractor":"641192","target":"present","response":"present","rt":"1654.3999999762","correct":true,"confidence":5},{"trial_n":49,"span":7,"encoder":"0061619","distractor":"0061679","target":"present","response":"present","rt":"1529.5","correct":true,"confidence":5},{"trial_n":50,"span":7,"encoder":"8291498","distractor":"8291448","target":"absent","response":"absent","rt":"3260.9000000358","correct":true,"confidence":5},{"trial_n":51,"span":8,"encoder":"73260337","distractor":"73260437","target":"present","response":"present","rt":"2522.6999999881","correct":true,"confidence":4},{"trial_n":52,"span":8,"encoder":"53934429","distractor":"23934429","target":"absent","response":"present","rt":"1772.3000000119","correct":false,"confidence":5},{"trial_n":53,"span":7,"encoder":"6792609","distractor":"6795609","target":"absent","response":"present","rt":"1507.5","correct":false,"confidence":4},{"trial_n":54,"span":6,"encoder":"460903","distractor":"460905","target":"absent","response":"absent","rt":"3729.6000000238","correct":true,"confidence":4},{"trial_n":55,"span":6,"encoder":"488865","distractor":"408865","target":"present","response":"present","rt":"1707.3000000119","correct":true,"confidence":5},{"trial_n":56,"span":7,"encoder":"4986542","distractor":"4986545","target":"present","response":"present","rt":"2722.8000000119","correct":true,"confidence":4},{"trial_n":57,"span":7,"encoder":"2103730","distractor":"2103737","target":"absent","response":"absent","rt":"2616.1999999881","correct":true,"confidence":4},{"trial_n":58,"span":8,"encoder":"46280203","distractor":"46180203","target":"absent","response":"absent","rt":"2529.5","correct":true,"confidence":3},{"trial_n":59,"span":8,"encoder":"64529075","distractor":"74529075","target":"present","response":"present","rt":"2063.1999999881","correct":true,"confidence":4},{"trial_n":60,"span":9,"encoder":"625978229","distractor":"625974229","target":"present","response":"present","rt":"1502.6000000238","correct":true,"confidence":4},{"trial_n":61,"span":9,"encoder":"914930210","distractor":"914930310","target":"present","response":"present","rt":"1180.3999999762","correct":true,"confidence":4},{"trial_n":62,"span":10,"encoder":"4966749918","distractor":"4066749918","target":"absent","response":"present","rt":"1334.0999999642","correct":false,"confidence":4},{"trial_n":63,"span":9,"encoder":"161320144","distractor":"161720144","target":"absent","response":"present","rt":"1401.1000000238","correct":false,"confidence":4},{"trial_n":64,"span":8,"encoder":"28693116","distractor":"28693115","target":"present","response":"present","rt":"1083.8000000119","correct":true,"confidence":5},{"trial_n":65,"span":8,"encoder":"40153596","distractor":"41153596","target":"absent","response":"present","rt":"1692.8000000119","correct":false,"confidence":5},{"trial_n":66,"span":7,"encoder":"1897060","distractor":"1897860","target":"present","response":"present","rt":"1075.8000000119","correct":true,"confidence":5},{"trial_n":67,"span":7,"encoder":"0934576","distractor":"0934376","target":"absent","response":"present","rt":"1087.1999999881","correct":false,"confidence":5},{"trial_n":68,"span":6,"encoder":"796014","distractor":"996014","target":"present","response":"present","rt":"1172.3999999762","correct":true,"confidence":5},{"trial_n":69,"span":6,"encoder":"785800","distractor":"785805","target":"present","response":"present","rt":"1341.1999999881","correct":true,"confidence":5},{"trial_n":70,"span":7,"encoder":"8431379","distractor":"8431079","target":"absent","response":"present","rt":"1029.3999999762","correct":false,"confidence":5},{"trial_n":71,"span":8,"encoder":"37771779","distractor":"37771079","target":"present","response":"present","rt":"3929.3999999762","correct":true,"confidence":-1},{"trial_n":72,"span":8,"encoder":"89350420","distractor":"89370420","target":"present","response":"present","rt":"4211.5","correct":true,"confidence":-1},{"trial_n":73,"span":9,"encoder":"011709971","distractor":"011703971","target":"absent","response":"absent","rt":"1955.3999999762","correct":true,"confidence":-1},{"trial_n":74,"span":9,"encoder":"756479097","distractor":"756979097","target":"absent","response":"absent","rt":"1504.0999999642","correct":true,"confidence":-1},{"trial_n":75,"span":10,"encoder":"8251786669","distractor":"8251786269","target":"present","response":"absent","rt":"1813.5","correct":false,"confidence":-1},{"trial_n":76,"span":9,"encoder":"792747761","distractor":"792744761","target":"present","response":"present","rt":"2228","correct":true,"confidence":-1},{"trial_n":77,"span":9,"encoder":"297531987","distractor":"227531987","target":"present","response":"absent","rt":"1306","correct":false,"confidence":-1},{"trial_n":78,"span":8,"encoder":"85648269","distractor":"89648269","target":"present","response":"absent","rt":"1649.8999999762","correct":false,"confidence":-1},{"trial_n":79,"span":7,"encoder":"9293069","distractor":"9283069","target":"absent","response":"absent","rt":"1429.1000000238","correct":true,"confidence":-1},{"trial_n":80,"span":7,"encoder":"1913148","distractor":"1913145","target":"present","response":"present","rt":"1581.0999999642","correct":true,"confidence":-1},{"trial_n":81,"span":8,"encoder":"30042034","distractor":"40042034","target":"absent","response":"absent","rt":"1159.5","correct":true,"confidence":-1},{"trial_n":82,"span":8,"encoder":"78777490","distractor":"78797490","target":"absent","response":"present","rt":"1551.8000000119","correct":false,"confidence":-1},{"trial_n":83,"span":7,"encoder":"8945078","distractor":"8945070","target":"absent","response":"absent","rt":"1079.3999999762","correct":true,"confidence":-1},{"trial_n":84,"span":7,"encoder":"9240928","distractor":"9140928","target":"absent","response":"absent","rt":"1634.2999999523","correct":true,"confidence":-1},{"trial_n":85,"span":8,"encoder":"92806253","distractor":"92801253","target":"absent","response":"absent","rt":"1310.3000000119","correct":true,"confidence":-1},{"trial_n":86,"span":8,"encoder":"67091822","distractor":"67091812","target":"present","response":"present","rt":"1414.1999999881","correct":true,"confidence":-1},{"trial_n":87,"span":9,"encoder":"812358291","distractor":"812358211","target":"absent","response":"absent","rt":"1189.1999999881","correct":true,"confidence":-1},{"trial_n":88,"span":9,"encoder":"307533172","distractor":"307533174","target":"absent","response":"absent","rt":"2404.8000000119","correct":true,"confidence":-1},{"trial_n":89,"span":10,"encoder":"9543806020","distractor":"9543806320","target":"present","response":"absent","rt":"2205","correct":false,"confidence":-1},{"trial_n":90,"span":9,"encoder":"518082016","distractor":"558082016","target":"absent","response":"absent","rt":"2947.1000000238","correct":true,"confidence":-1},{"trial_n":91,"span":9,"encoder":"206388991","distractor":"206328991","target":"present","response":"present","rt":"3390.3999999762","correct":true,"confidence":5},{"trial_n":92,"span":10,"encoder":"3733792739","distractor":"3783792739","target":"present","response":"present","rt":"3054.7999999523","correct":true,"confidence":5},{"trial_n":93,"span":10,"encoder":"5796723251","distractor":"5746723251","target":"absent","response":"present","rt":"3796.3999999762","correct":false,"confidence":3},{"trial_n":94,"span":9,"encoder":"629166184","distractor":"629164184","target":"absent","response":"absent","rt":"1987.5","correct":true,"confidence":5},{"trial_n":95,"span":9,"encoder":"749945762","distractor":"749045762","target":"absent","response":"absent","rt":"2055.8999999762","correct":true,"confidence":5},{"trial_n":96,"span":10,"encoder":"6337773503","distractor":"6337673503","target":"absent","response":"absent","rt":"2245.8000000119","correct":true,"confidence":5},{"trial_n":97,"span":10,"encoder":"5551272498","distractor":"5551272468","target":"absent","response":"absent","rt":"6414.9000000358","correct":true,"confidence":3},{"trial_n":98,"span":11,"encoder":"44930991953","distractor":"44950991953","target":"present","response":"present","rt":"7467.8000000119","correct":true,"confidence":3},{"trial_n":99,"span":11,"encoder":"31842417587","distractor":"31842417586","target":"absent","response":"absent","rt":"2104.1999999881","correct":true,"confidence":5},{"trial_n":100,"span":12,"encoder":"067303001355","distractor":"067307001355","target":"present","response":"absent","rt":"10589.800000012","correct":false,"confidence":3},{"trial_n":101,"span":11,"encoder":"44673269631","distractor":"44673369631","target":"absent","response":"absent","rt":"4120.8999999762","correct":true,"confidence":4},{"trial_n":102,"span":11,"encoder":"84607553076","distractor":"54607553076","target":"absent","response":"absent","rt":"4389.8000000119","correct":true,"confidence":4},{"trial_n":103,"span":12,"encoder":"729481468092","distractor":"729981468092","target":"absent","response":"absent","rt":"2536.3000000119","correct":true,"confidence":5},{"trial_n":104,"span":12,"encoder":"138057894544","distractor":"138057694544","target":"absent","response":"absent","rt":"5021.1999999881","correct":true,"confidence":4},{"trial_n":105,"span":13,"encoder":"3580513917448","distractor":"3680513917448","target":"absent","response":"absent","rt":"3274.1999999881","correct":true,"confidence":3},{"trial_n":106,"span":13,"encoder":"7586146288284","distractor":"7586146258284","target":"present","response":"present","rt":"1874.1999999881","correct":true,"confidence":5},{"trial_n":107,"span":14,"encoder":"46664702213031","distractor":"46664762213031","target":"present","response":"present","rt":"6614.9000000358","correct":true,"confidence":1},{"trial_n":108,"span":14,"encoder":"17836047488491","distractor":"17836047488461","target":"present","response":"present","rt":"1868.3000000119","correct":true,"confidence":4},{"trial_n":109,"span":15,"encoder":"670168799503497","distractor":"670168799509497","target":"absent","response":"absent","rt":"6717.1999999881","correct":true,"confidence":3},{"trial_n":110,"span":15,"encoder":"015735229526449","distractor":"075735229526449","target":"present","response":"present","rt":"7986.1000000238","correct":true,"confidence":4},{"trial_n":111,"span":16,"encoder":"9109079952828427","distractor":"6109079952828427","target":"present","response":"present","rt":"8785.3999999762","correct":true,"confidence":5},{"trial_n":112,"span":16,"encoder":"8699158113405463","distractor":"8699158113405363","target":"present","response":"present","rt":"8201.9000000358","correct":true,"confidence":3},{"trial_n":113,"span":17,"encoder":"69074663354314591","distractor":"69075663354314591","target":"absent","response":"present","rt":"11029.699999988","correct":false,"confidence":3},{"trial_n":114,"span":16,"encoder":"3215886057628103","distractor":"3215880057628103","target":"absent","response":"absent","rt":"8521","correct":true,"confidence":4},{"trial_n":115,"span":16,"encoder":"2650720947932101","distractor":"2650720987932101","target":"present","response":"absent","rt":"9108.3999999762","correct":false,"confidence":2},{"trial_n":116,"span":15,"encoder":"689413006910482","distractor":"689213006910482","target":"absent","response":"present","rt":"4750.7000000477","correct":false,"confidence":3},{"trial_n":117,"span":14,"encoder":"40690872555752","distractor":"40690872555759","target":"present","response":"absent","rt":"2856.3999999762","correct":false,"confidence":3},{"trial_n":118,"span":13,"encoder":"1366390465617","distractor":"1366392465617","target":"present","response":"present","rt":"4063.3000000119","correct":true,"confidence":3},{"trial_n":119,"span":13,"encoder":"4022499220608","distractor":"4022409220608","target":"present","response":"present","rt":"4666.0999999642","correct":true,"confidence":4},{"trial_n":120,"span":14,"encoder":"54431811500637","distractor":"54431811200637","target":"present","response":"absent","rt":"4054.6999999881","correct":false,"confidence":3},{"trial_n":121,"span":13,"encoder":"4534873766331","distractor":"4534873666331","target":"absent","response":"absent","rt":"3690","correct":true,"confidence":4},{"trial_n":122,"span":13,"encoder":"2440545073694","distractor":"2440545073294","target":"absent","response":"present","rt":"10028.400000036","correct":false,"confidence":3},{"trial_n":123,"span":12,"encoder":"072930749334","distractor":"072930739334","target":"absent","response":"absent","rt":"3540.6999999881","correct":true,"confidence":3},{"trial_n":124,"span":12,"encoder":"836793839156","distractor":"836793839150","target":"present","response":"present","rt":"1939.2999999523","correct":true,"confidence":5},{"trial_n":125,"span":13,"encoder":"7281065911884","distractor":"7281165911884","target":"absent","response":"absent","rt":"7065.3999999762","correct":true,"confidence":4},{"trial_n":126,"span":13,"encoder":"7334146630717","distractor":"7334146630017","target":"present","response":"present","rt":"5069.4000000358","correct":true,"confidence":5},{"trial_n":127,"span":14,"encoder":"02475573202894","distractor":"02475573252894","target":"present","response":"present","rt":"6198","correct":true,"confidence":3},{"trial_n":128,"span":14,"encoder":"14388943737169","distractor":"14387943737169","target":"absent","response":"present","rt":"5244.1000000238","correct":false,"confidence":4},{"trial_n":129,"span":13,"encoder":"2147078823951","distractor":"2147008823951","target":"present","response":"absent","rt":"5045.5","correct":false,"confidence":4},{"trial_n":130,"span":12,"encoder":"504197686307","distractor":"504197688307","target":"present","response":"present","rt":"3343.5","correct":true,"confidence":3},{"trial_n":131,"span":12,"encoder":"504938680565","distractor":"524938680565","target":"present","response":"absent","rt":"6841.8000000119","correct":false,"confidence":3},{"trial_n":132,"span":11,"encoder":"73797907661","distractor":"73797707661","target":"present","response":"present","rt":"4581.3999999762","correct":true,"confidence":5},{"trial_n":133,"span":11,"encoder":"23848625680","distractor":"23848625685","target":"present","response":"absent","rt":"6721.8000000119","correct":false,"confidence":4},{"trial_n":134,"span":10,"encoder":"4814926498","distractor":"4814926098","target":"present","response":"absent","rt":"4173.8999999762","correct":false,"confidence":2},{"trial_n":135,"span":9,"encoder":"910700117","distractor":"911700117","target":"absent","response":"present","rt":"3423.1000000238","correct":false,"confidence":1},{"trial_n":136,"span":8,"encoder":"12039704","distractor":"12019704","target":"absent","response":"present","rt":"3738.5","correct":false,"confidence":3},{"trial_n":137,"span":7,"encoder":"5510791","distractor":"5510741","target":"present","response":"present","rt":"4134.6999999881","correct":true,"confidence":3},{"trial_n":138,"span":7,"encoder":"0460287","distractor":"0470287","target":"present","response":"present","rt":"2794.6000000238","correct":true,"confidence":4},{"trial_n":139,"span":8,"encoder":"45280810","distractor":"45780810","target":"present","response":"present","rt":"4515.8999999762","correct":true,"confidence":4},{"trial_n":140,"span":8,"encoder":"16940806","distractor":"13940806","target":"absent","response":"present","rt":"2930","correct":false,"confidence":4}]