[{"trial_n":1,"min":25,"max":230,"target":"present","response":"present","rt":8425.6000000238,"correct":true,"confidence":-1},{"trial_n":2,"min":25,"max":230,"target":"present","response":"present","rt":1763.1999999285,"correct":true,"confidence":-1},{"trial_n":3,"min":41,"max":214,"target":"absent","response":"absent","rt":1082.2000000477,"correct":true,"confidence":-1},{"trial_n":4,"min":41,"max":214,"target":"absent","response":"absent","rt":793.70000004768,"correct":true,"confidence":-1},{"trial_n":5,"min":57,"max":198,"target":"present","response":"present","rt":739,"correct":true,"confidence":-1},{"trial_n":6,"min":57,"max":198,"target":"present","response":"present","rt":1075.9000000954,"correct":true,"confidence":-1},{"trial_n":7,"min":73,"max":182,"target":"present","response":"absent","rt":1432.5,"correct":false,"confidence":-1},{"trial_n":8,"min":57,"max":198,"target":"absent","response":"absent","rt":785.29999995232,"correct":true,"confidence":-1},{"trial_n":9,"min":57,"max":198,"target":"absent","response":"present","rt":2622.5,"correct":false,"confidence":-1},{"trial_n":10,"min":41,"max":214,"target":"absent","response":"absent","rt":835.39999997616,"correct":true,"confidence":-1},{"trial_n":11,"min":41,"max":214,"target":"absent","response":"absent","rt":924.79999995232,"correct":true,"confidence":-1},{"trial_n":12,"min":49,"max":206,"target":"absent","response":"absent","rt":590.69999992847,"correct":true,"confidence":-1},{"trial_n":13,"min":49,"max":206,"target":"absent","response":"absent","rt":804.20000004768,"correct":true,"confidence":-1},{"trial_n":14,"min":57,"max":198,"target":"present","response":"present","rt":893,"correct":true,"confidence":-1},{"trial_n":15,"min":57,"max":198,"target":"absent","response":"absent","rt":446.5,"correct":true,"confidence":-1},{"trial_n":16,"min":65,"max":190,"target":"present","response":"present","rt":938.89999997616,"correct":true,"confidence":-1},{"trial_n":17,"min":65,"max":190,"target":"present","response":"present","rt":1027.8999999762,"correct":true,"confidence":-1},{"trial_n":18,"min":73,"max":182,"target":"present","response":"present","rt":1080.1000000238,"correct":true,"confidence":-1},{"trial_n":19,"min":73,"max":182,"target":"present","response":"present","rt":818.29999995232,"correct":true,"confidence":-1},{"trial_n":20,"min":81,"max":174,"target":"absent","response":"absent","rt":970.79999995232,"correct":true,"confidence":-1},{"trial_n":21,"min":81,"max":174,"target":"absent","response":"absent","rt":5091.3999999762,"correct":true,"confidence":4},{"trial_n":22,"min":85,"max":170,"target":"absent","response":"absent","rt":1325.1999999285,"correct":true,"confidence":5},{"trial_n":23,"min":85,"max":170,"target":"absent","response":"absent","rt":1665.6999999285,"correct":true,"confidence":5},{"trial_n":24,"min":89,"max":166,"target":"absent","response":"absent","rt":1752.5,"correct":true,"confidence":5},{"trial_n":25,"min":89,"max":166,"target":"present","response":"present","rt":5083.6000000238,"correct":true,"confidence":4},{"trial_n":26,"min":93,"max":162,"target":"present","response":"present","rt":1683,"correct":true,"confidence":4},{"trial_n":27,"min":93,"max":162,"target":"present","response":"present","rt":3876.6000000238,"correct":true,"confidence":4},{"trial_n":28,"min":97,"max":158,"target":"present","response":"absent","rt":2348.2999999523,"correct":false,"confidence":3},{"trial_n":29,"min":93,"max":162,"target":"absent","response":"absent","rt":1189.2000000477,"correct":true,"confidence":3},{"trial_n":30,"min":93,"max":162,"target":"present","response":"absent","rt":1737.2999999523,"correct":false,"confidence":4},{"trial_n":31,"min":91,"max":164,"target":"present","response":"absent","rt":1827.0999999046,"correct":false,"confidence":4},{"trial_n":32,"min":89,"max":166,"target":"absent","response":"present","rt":7557.8999999762,"correct":false,"confidence":4},{"trial_n":33,"min":87,"max":168,"target":"absent","response":"absent","rt":1958.3000000715,"correct":true,"confidence":4},{"trial_n":34,"min":87,"max":168,"target":"absent","response":"absent","rt":15180.399999976,"correct":true,"confidence":4},{"trial_n":35,"min":89,"max":166,"target":"present","response":"absent","rt":16981.800000072,"correct":false,"confidence":5},{"trial_n":36,"min":87,"max":168,"target":"absent","response":"absent","rt":3839,"correct":true,"confidence":5},{"trial_n":37,"min":87,"max":168,"target":"present","response":"present","rt":1749.8999999762,"correct":true,"confidence":4},{"trial_n":38,"min":89,"max":166,"target":"absent","response":"absent","rt":963.5,"correct":true,"confidence":5},{"trial_n":39,"min":89,"max":166,"target":"present","response":"absent","rt":1344.5,"correct":false,"confidence":5},{"trial_n":40,"min":87,"max":168,"target":"present","response":"present","rt":1520.1999999285,"correct":true,"confidence":4},{"trial_n":41,"min":87,"max":168,"target":"absent","response":"absent","rt":5936.6000000238,"correct":true,"confidence":3},{"trial_n":42,"min":88,"max":167,"target":"present","response":"present","rt":5279.3000000715,"correct":true,"confidence":5},{"trial_n":43,"min":88,"max":167,"target":"present","response":"present","rt":1179.3000000715,"correct":true,"confidence":5},{"trial_n":44,"min":89,"max":166,"target":"absent","response":"absent","rt":880.70000004768,"correct":true,"confidence":4},{"trial_n":45,"min":89,"max":166,"target":"present","response":"present","rt":6771.4000000954,"correct":true,"confidence":3},{"trial_n":46,"min":90,"max":165,"target":"present","response":"present","rt":1731.2999999523,"correct":true,"confidence":4},{"trial_n":47,"min":90,"max":165,"target":"present","response":"present","rt":3371.3000000715,"correct":true,"confidence":4},{"trial_n":48,"min":91,"max":164,"target":"absent","response":"present","rt":3518.7000000477,"correct":false,"confidence":4},{"trial_n":49,"min":90,"max":165,"target":"present","response":"present","rt":1493.7999999523,"correct":true,"confidence":4},{"trial_n":50,"min":90,"max":165,"target":"present","response":"present","rt":1757,"correct":true,"confidence":4},{"trial_n":51,"min":91,"max":164,"target":"present","response":"present","rt":2083,"correct":true,"confidence":4},{"trial_n":52,"min":91,"max":164,"target":"present","response":"present","rt":959.19999992847,"correct":true,"confidence":5},{"trial_n":53,"min":92,"max":163,"target":"absent","response":"present","rt":7485.6999999285,"correct":false,"confidence":3},{"trial_n":54,"min":91,"max":164,"target":"present","response":"present","rt":1003.7999999523,"correct":true,"confidence":5},{"trial_n":55,"min":91,"max":164,"target":"absent","response":"absent","rt":3694.5,"correct":true,"confidence":3},{"trial_n":56,"min":92,"max":163,"target":"absent","response":"present","rt":1155.1999999285,"correct":false,"confidence":4},{"trial_n":57,"min":91,"max":164,"target":"absent","response":"present","rt":899.39999997616,"correct":false,"confidence":4},{"trial_n":58,"min":90,"max":165,"target":"present","response":"present","rt":1010.7999999523,"correct":true,"confidence":5},{"trial_n":59,"min":90,"max":165,"target":"absent","response":"present","rt":949.70000004768,"correct":false,"confidence":4},{"trial_n":60,"min":89,"max":166,"target":"present","response":"present","rt":1487.2999999523,"correct":true,"confidence":4},{"trial_n":61,"min":89,"max":166,"target":"present","response":"present","rt":1394.8000000715,"correct":true,"confidence":5},{"trial_n":62,"min":90,"max":165,"target":"absent","response":"present","rt":1338.2999999523,"correct":false,"confidence":4},{"trial_n":63,"min":89,"max":166,"target":"absent","response":"present","rt":1472.5,"correct":false,"confidence":4},{"trial_n":64,"min":88,"max":167,"target":"present","response":"present","rt":15209,"correct":true,"confidence":5},{"trial_n":65,"min":88,"max":167,"target":"present","response":"present","rt":782.70000004768,"correct":true,"confidence":5},{"trial_n":66,"min":89,"max":166,"target":"absent","response":"absent","rt":1506.8999999762,"correct":true,"confidence":4},{"trial_n":67,"min":89,"max":166,"target":"absent","response":"present","rt":9150.1000000238,"correct":false,"confidence":4},{"trial_n":68,"min":88,"max":167,"target":"absent","response":"absent","rt":8419,"correct":true,"confidence":5},{"trial_n":69,"min":88,"max":167,"target":"absent","response":"absent","rt":5104,"correct":true,"confidence":3},{"trial_n":70,"min":89,"max":166,"target":"present","response":"present","rt":841.09999990463,"correct":true,"confidence":5},{"trial_n":71,"min":41,"max":214,"target":"present","response":"present","rt":4005.5,"correct":true,"confidence":-1},{"trial_n":72,"min":41,"max":214,"target":"present","response":"present","rt":688.29999995232,"correct":true,"confidence":-1},{"trial_n":73,"min":57,"max":198,"target":"absent","response":"present","rt":712.5,"correct":false,"confidence":-1},{"trial_n":74,"min":41,"max":214,"target":"absent","response":"absent","rt":1376.7999999523,"correct":true,"confidence":-1},{"trial_n":75,"min":41,"max":214,"target":"present","response":"present","rt":691.19999992847,"correct":true,"confidence":-1},{"trial_n":76,"min":57,"max":198,"target":"present","response":"present","rt":554.89999997616,"correct":true,"confidence":-1},{"trial_n":77,"min":57,"max":198,"target":"present","response":"present","rt":656.79999995232,"correct":true,"confidence":-1},{"trial_n":78,"min":73,"max":182,"target":"absent","response":"absent","rt":1019.8999999762,"correct":true,"confidence":-1},{"trial_n":79,"min":73,"max":182,"target":"absent","response":"absent","rt":1048.4000000954,"correct":true,"confidence":-1},{"trial_n":80,"min":89,"max":166,"target":"absent","response":"absent","rt":1165.2000000477,"correct":true,"confidence":-1},{"trial_n":81,"min":89,"max":166,"target":"present","response":"absent","rt":1093.2000000477,"correct":false,"confidence":-1},{"trial_n":82,"min":81,"max":174,"target":"present","response":"present","rt":1087.5,"correct":true,"confidence":-1},{"trial_n":83,"min":81,"max":174,"target":"present","response":"present","rt":707.5,"correct":true,"confidence":-1},{"trial_n":84,"min":89,"max":166,"target":"absent","response":"present","rt":2230.5999999046,"correct":false,"confidence":-1},{"trial_n":85,"min":81,"max":174,"target":"present","response":"absent","rt":900.19999992847,"correct":false,"confidence":-1},{"trial_n":86,"min":73,"max":182,"target":"absent","response":"absent","rt":984,"correct":true,"confidence":-1},{"trial_n":87,"min":73,"max":182,"target":"present","response":"present","rt":1500.7000000477,"correct":true,"confidence":-1},{"trial_n":88,"min":81,"max":174,"target":"absent","response":"absent","rt":1029.1000000238,"correct":true,"confidence":-1},{"trial_n":89,"min":81,"max":174,"target":"absent","response":"absent","rt":1042.2000000477,"correct":true,"confidence":-1},{"trial_n":90,"min":89,"max":166,"target":"present","response":"present","rt":1745.2000000477,"correct":true,"confidence":-1},{"trial_n":91,"min":89,"max":166,"target":"present","response":"present","rt":853.89999997616,"correct":true,"confidence":5},{"trial_n":92,"min":93,"max":162,"target":"present","response":"absent","rt":2890.6999999285,"correct":false,"confidence":3},{"trial_n":93,"min":89,"max":166,"target":"present","response":"present","rt":3414.9000000954,"correct":true,"confidence":4},{"trial_n":94,"min":89,"max":166,"target":"present","response":"present","rt":488,"correct":true,"confidence":5},{"trial_n":95,"min":93,"max":162,"target":"absent","response":"present","rt":3526,"correct":false,"confidence":3},{"trial_n":96,"min":89,"max":166,"target":"absent","response":"present","rt":2462,"correct":false,"confidence":3},{"trial_n":97,"min":85,"max":170,"target":"present","response":"present","rt":394.59999990463,"correct":true,"confidence":5},{"trial_n":98,"min":85,"max":170,"target":"present","response":"present","rt":275.39999997616,"correct":true,"confidence":5},{"trial_n":99,"min":89,"max":166,"target":"absent","response":"absent","rt":891,"correct":true,"confidence":5},{"trial_n":100,"min":89,"max":166,"target":"present","response":"absent","rt":1553.3000000715,"correct":false,"confidence":5},{"trial_n":101,"min":87,"max":168,"target":"absent","response":"absent","rt":888.29999995232,"correct":true,"confidence":5},{"trial_n":102,"min":87,"max":168,"target":"present","response":"absent","rt":1082.8999999762,"correct":false,"confidence":5},{"trial_n":103,"min":85,"max":170,"target":"absent","response":"absent","rt":1729.1000000238,"correct":true,"confidence":3},{"trial_n":104,"min":85,"max":170,"target":"present","response":"present","rt":350.89999997616,"correct":true,"confidence":5},{"trial_n":105,"min":87,"max":168,"target":"absent","response":"absent","rt":855,"correct":true,"confidence":5},{"trial_n":106,"min":87,"max":168,"target":"absent","response":"absent","rt":3992.3000000715,"correct":true,"confidence":3},{"trial_n":107,"min":89,"max":166,"target":"absent","response":"present","rt":1589.6000000238,"correct":false,"confidence":2},{"trial_n":108,"min":87,"max":168,"target":"present","response":"absent","rt":1144.3999999762,"correct":false,"confidence":4},{"trial_n":109,"min":85,"max":170,"target":"present","response":"present","rt":485.5,"correct":true,"confidence":5},{"trial_n":110,"min":85,"max":170,"target":"present","response":"present","rt":2335.2000000477,"correct":true,"confidence":5},{"trial_n":111,"min":86,"max":169,"target":"absent","response":"absent","rt":773.39999997616,"correct":true,"confidence":5},{"trial_n":112,"min":86,"max":169,"target":"absent","response":"absent","rt":753.39999997616,"correct":true,"confidence":5},{"trial_n":113,"min":87,"max":168,"target":"absent","response":"absent","rt":1014.5,"correct":true,"confidence":3},{"trial_n":114,"min":87,"max":168,"target":"present","response":"present","rt":386.40000009537,"correct":true,"confidence":5},{"trial_n":115,"min":88,"max":167,"target":"absent","response":"absent","rt":741.10000002384,"correct":true,"confidence":5},{"trial_n":116,"min":88,"max":167,"target":"present","response":"present","rt":751.10000002384,"correct":true,"confidence":5},{"trial_n":117,"min":89,"max":166,"target":"present","response":"present","rt":630.29999995232,"correct":true,"confidence":5},{"trial_n":118,"min":89,"max":166,"target":"absent","response":"absent","rt":788.20000004768,"correct":true,"confidence":5},{"trial_n":119,"min":90,"max":165,"target":"present","response":"present","rt":567,"correct":true,"confidence":5},{"trial_n":120,"min":90,"max":165,"target":"absent","response":"present","rt":1514.7999999523,"correct":false,"confidence":3},{"trial_n":121,"min":89,"max":166,"target":"absent","response":"present","rt":1992,"correct":false,"confidence":3},{"trial_n":122,"min":88,"max":167,"target":"absent","response":"absent","rt":931.39999997616,"correct":true,"confidence":4},{"trial_n":123,"min":88,"max":167,"target":"absent","response":"absent","rt":1140.3999999762,"correct":true,"confidence":4},{"trial_n":124,"min":89,"max":166,"target":"absent","response":"absent","rt":1238.1000000238,"correct":true,"confidence":4},{"trial_n":125,"min":89,"max":166,"target":"absent","response":"absent","rt":866.80000007153,"correct":true,"confidence":4},{"trial_n":126,"min":90,"max":165,"target":"absent","response":"absent","rt":2390.6000000238,"correct":true,"confidence":3},{"trial_n":127,"min":90,"max":165,"target":"present","response":"present","rt":1582.0999999046,"correct":true,"confidence":2},{"trial_n":128,"min":91,"max":164,"target":"present","response":"absent","rt":3927,"correct":false,"confidence":4},{"trial_n":129,"min":90,"max":165,"target":"absent","response":"present","rt":5432,"correct":false,"confidence":3},{"trial_n":130,"min":89,"max":166,"target":"present","response":"present","rt":13066,"correct":true,"confidence":5},{"trial_n":131,"min":89,"max":166,"target":"absent","response":"present","rt":3981.1000000238,"correct":false,"confidence":3},{"trial_n":132,"min":88,"max":167,"target":"present","response":"absent","rt":1377.3999999762,"correct":false,"confidence":3},{"trial_n":133,"min":87,"max":168,"target":"absent","response":"absent","rt":916.60000002384,"correct":true,"confidence":5},{"trial_n":134,"min":87,"max":168,"target":"present","response":"absent","rt":2207.2999999523,"correct":false,"confidence":3},{"trial_n":135,"min":86,"max":169,"target":"present","response":"present","rt":368.60000002384,"correct":true,"confidence":5},{"trial_n":136,"min":86,"max":169,"target":"present","response":"present","rt":292.60000002384,"correct":true,"confidence":5},{"trial_n":137,"min":87,"max":168,"target":"absent","response":"absent","rt":703.5,"correct":true,"confidence":5},{"trial_n":138,"min":87,"max":168,"target":"present","response":"present","rt":555.79999995232,"correct":true,"confidence":5},{"trial_n":139,"min":88,"max":167,"target":"present","response":"present","rt":1599.2999999523,"correct":true,"confidence":3},{"trial_n":140,"min":88,"max":167,"target":"absent","response":"absent","rt":1033.5,"correct":true,"confidence":3}]