[{"trial_n":1,"n_dots":4.25,"target":"right","response":"left","rt":2844.3999999762,"correct":false,"confidence":-1},{"trial_n":2,"n_dots":4.25,"target":"left","response":"left","rt":1835.1000000238,"correct":true,"confidence":-1},{"trial_n":3,"n_dots":4.25,"target":"left","response":"left","rt":72.399999976158,"correct":true,"confidence":-1},{"trial_n":4,"n_dots":3.85,"target":"left","response":"left","rt":795.89999997616,"correct":true,"confidence":-1},{"trial_n":5,"n_dots":3.85,"target":"right","response":"right","rt":1643.6999999285,"correct":true,"confidence":-1},{"trial_n":6,"n_dots":3.45,"target":"left","response":"left","rt":361,"correct":true,"confidence":-1},{"trial_n":7,"n_dots":3.45,"target":"right","response":"right","rt":571.39999997616,"correct":true,"confidence":-1},{"trial_n":8,"n_dots":3.25,"target":"right","response":"left","rt":527,"correct":false,"confidence":-1},{"trial_n":9,"n_dots":3.45,"target":"left","response":"right","rt":896.69999992847,"correct":false,"confidence":-1},{"trial_n":10,"n_dots":3.65,"target":"left","response":"left","rt":665.89999997616,"correct":true,"confidence":-1},{"trial_n":11,"n_dots":3.65,"target":"right","response":"right","rt":940.89999997616,"correct":true,"confidence":-1},{"trial_n":12,"n_dots":3.45,"target":"left","response":"left","rt":622.80000007153,"correct":true,"confidence":-1},{"trial_n":13,"n_dots":3.45,"target":"left","response":"left","rt":326.19999992847,"correct":true,"confidence":-1},{"trial_n":14,"n_dots":3.35,"target":"left","response":"left","rt":562.20000004768,"correct":true,"confidence":-1},{"trial_n":15,"n_dots":3.35,"target":"left","response":"right","rt":706.80000007153,"correct":false,"confidence":-1},{"trial_n":16,"n_dots":3.45,"target":"right","response":"right","rt":620.89999997616,"correct":true,"confidence":-1},{"trial_n":17,"n_dots":3.45,"target":"left","response":"left","rt":667.89999997616,"correct":true,"confidence":-1},{"trial_n":18,"n_dots":3.35,"target":"right","response":"right","rt":404.19999992847,"correct":true,"confidence":-1},{"trial_n":19,"n_dots":3.35,"target":"left","response":"left","rt":569.90000009537,"correct":true,"confidence":-1},{"trial_n":20,"n_dots":3.25,"target":"right","response":"right","rt":849.70000004768,"correct":true,"confidence":-1},{"trial_n":21,"n_dots":3.25,"target":"right","response":"right","rt":996.39999997616,"correct":true,"confidence":3},{"trial_n":22,"n_dots":3.15,"target":"right","response":"right","rt":525.10000002384,"correct":true,"confidence":3},{"trial_n":23,"n_dots":3.15,"target":"right","response":"right","rt":1414.1999999285,"correct":true,"confidence":5},{"trial_n":24,"n_dots":3.05,"target":"right","response":"right","rt":548.5,"correct":true,"confidence":5},{"trial_n":25,"n_dots":3.05,"target":"left","response":"left","rt":447.60000002384,"correct":true,"confidence":5},{"trial_n":26,"n_dots":2.95,"target":"right","response":"left","rt":1292.5,"correct":false,"confidence":3},{"trial_n":27,"n_dots":3.05,"target":"right","response":"right","rt":496.80000007153,"correct":true,"confidence":5},{"trial_n":28,"n_dots":3.05,"target":"left","response":"left","rt":1680.7999999523,"correct":true,"confidence":3},{"trial_n":29,"n_dots":2.95,"target":"right","response":"right","rt":477.09999990463,"correct":true,"confidence":5},{"trial_n":30,"n_dots":2.95,"target":"right","response":"right","rt":397.29999995232,"correct":true,"confidence":5},{"trial_n":31,"n_dots":2.85,"target":"right","response":"right","rt":504.19999992847,"correct":true,"confidence":5},{"trial_n":32,"n_dots":2.85,"target":"right","response":"right","rt":615.29999995232,"correct":true,"confidence":5},{"trial_n":33,"n_dots":2.75,"target":"right","response":"right","rt":312.5,"correct":true,"confidence":5},{"trial_n":34,"n_dots":2.75,"target":"right","response":"right","rt":373.29999995232,"correct":true,"confidence":5},{"trial_n":35,"n_dots":2.65,"target":"right","response":"right","rt":2.3000000715256,"correct":true,"confidence":5},{"trial_n":36,"n_dots":2.65,"target":"left","response":"right","rt":126.70000004768,"correct":false,"confidence":5},{"trial_n":37,"n_dots":2.75,"target":"left","response":"left","rt":1010.2999999523,"correct":true,"confidence":3},{"trial_n":38,"n_dots":2.75,"target":"left","response":"left","rt":1022.6000000238,"correct":true,"confidence":3},{"trial_n":39,"n_dots":2.65,"target":"right","response":"right","rt":448.5,"correct":true,"confidence":5},{"trial_n":40,"n_dots":2.65,"target":"left","response":"right","rt":1615.1000000238,"correct":false,"confidence":5},{"trial_n":41,"n_dots":2.75,"target":"left","response":"right","rt":736.30000007153,"correct":false,"confidence":3},{"trial_n":42,"n_dots":2.85,"target":"right","response":"right","rt":148.30000007153,"correct":true,"confidence":5},{"trial_n":43,"n_dots":2.85,"target":"right","response":"right","rt":605.90000009537,"correct":true,"confidence":5},{"trial_n":44,"n_dots":2.75,"target":"right","response":"right","rt":545.39999997616,"correct":true,"confidence":5},{"trial_n":45,"n_dots":2.75,"target":"right","response":"left","rt":2481.2000000477,"correct":false,"confidence":3},{"trial_n":46,"n_dots":2.85,"target":"right","response":"right","rt":1216.2000000477,"correct":true,"confidence":3},{"trial_n":47,"n_dots":2.85,"target":"left","response":"left","rt":1278.6000000238,"correct":true,"confidence":3},{"trial_n":48,"n_dots":2.75,"target":"right","response":"right","rt":672.5,"correct":true,"confidence":5},{"trial_n":49,"n_dots":2.75,"target":"left","response":"left","rt":2053.1000000238,"correct":true,"confidence":3},{"trial_n":50,"n_dots":2.65,"target":"left","response":"left","rt":560,"correct":true,"confidence":5},{"trial_n":51,"n_dots":2.65,"target":"left","response":"left","rt":1309.1000000238,"correct":true,"confidence":3},{"trial_n":52,"n_dots":2.55,"target":"right","response":"right","rt":1117.8999999762,"correct":true,"confidence":4},{"trial_n":53,"n_dots":2.55,"target":"right","response":"left","rt":960.10000002384,"correct":false,"confidence":3},{"trial_n":54,"n_dots":2.65,"target":"left","response":"right","rt":843.09999990463,"correct":false,"confidence":3},{"trial_n":55,"n_dots":2.75,"target":"right","response":"right","rt":543.40000009537,"correct":true,"confidence":5},{"trial_n":56,"n_dots":2.75,"target":"left","response":"left","rt":3242.3999999762,"correct":true,"confidence":3},{"trial_n":57,"n_dots":2.65,"target":"left","response":"left","rt":1297,"correct":true,"confidence":3},{"trial_n":58,"n_dots":2.65,"target":"left","response":"right","rt":736.10000002384,"correct":false,"confidence":5},{"trial_n":59,"n_dots":2.75,"target":"left","response":"left","rt":934.60000002384,"correct":true,"confidence":4},{"trial_n":60,"n_dots":2.75,"target":"right","response":"left","rt":2201.5,"correct":false,"confidence":3},{"trial_n":61,"n_dots":2.85,"target":"left","response":"left","rt":1804.7000000477,"correct":true,"confidence":3},{"trial_n":62,"n_dots":2.85,"target":"left","response":"right","rt":1003.3000000715,"correct":false,"confidence":3},{"trial_n":63,"n_dots":2.95,"target":"right","response":"right","rt":662.29999995232,"correct":true,"confidence":3},{"trial_n":64,"n_dots":2.95,"target":"left","response":"left","rt":654.70000004768,"correct":true,"confidence":4},{"trial_n":65,"n_dots":2.85,"target":"left","response":"left","rt":827.70000004768,"correct":true,"confidence":4},{"trial_n":66,"n_dots":2.85,"target":"left","response":"right","rt":1043.1000000238,"correct":false,"confidence":4},{"trial_n":67,"n_dots":2.95,"target":"left","response":"left","rt":1049.2000000477,"correct":true,"confidence":3},{"trial_n":68,"n_dots":2.95,"target":"right","response":"right","rt":692.19999992847,"correct":true,"confidence":4},{"trial_n":69,"n_dots":2.85,"target":"left","response":"right","rt":602.80000007153,"correct":false,"confidence":4},{"trial_n":70,"n_dots":2.95,"target":"left","response":"left","rt":531.5,"correct":true,"confidence":3},{"trial_n":71,"n_dots":2.95,"target":"left","response":"right","rt":1048.1000000238,"correct":false,"confidence":3},{"trial_n":72,"n_dots":3.05,"target":"left","response":"left","rt":781.89999997616,"correct":true,"confidence":3},{"trial_n":73,"n_dots":3.05,"target":"left","response":"left","rt":2584.2000000477,"correct":true,"confidence":3},{"trial_n":74,"n_dots":2.95,"target":"right","response":"right","rt":2430.8999999762,"correct":true,"confidence":3},{"trial_n":75,"n_dots":2.95,"target":"left","response":"left","rt":788.39999997616,"correct":true,"confidence":3},{"trial_n":76,"n_dots":2.85,"target":"right","response":"right","rt":886.10000002384,"correct":true,"confidence":3},{"trial_n":77,"n_dots":2.85,"target":"right","response":"right","rt":898.39999997616,"correct":true,"confidence":3},{"trial_n":78,"n_dots":2.75,"target":"left","response":"left","rt":2940.6999999285,"correct":true,"confidence":3},{"trial_n":79,"n_dots":2.75,"target":"right","response":"right","rt":497.70000004768,"correct":true,"confidence":4},{"trial_n":80,"n_dots":2.65,"target":"right","response":"right","rt":565.20000004768,"correct":true,"confidence":4},{"trial_n":81,"n_dots":2.65,"target":"left","response":"right","rt":746.89999997616,"correct":false,"confidence":4},{"trial_n":82,"n_dots":2.75,"target":"right","response":"right","rt":613.20000004768,"correct":true,"confidence":5},{"trial_n":83,"n_dots":2.75,"target":"right","response":"right","rt":604.80000007153,"correct":true,"confidence":4},{"trial_n":84,"n_dots":2.65,"target":"left","response":"left","rt":1735.1000000238,"correct":true,"confidence":4},{"trial_n":85,"n_dots":2.65,"target":"right","response":"right","rt":383,"correct":true,"confidence":5},{"trial_n":86,"n_dots":2.55,"target":"right","response":"right","rt":948.89999997616,"correct":true,"confidence":3},{"trial_n":87,"n_dots":2.55,"target":"right","response":"right","rt":2094.1999999285,"correct":true,"confidence":3},{"trial_n":88,"n_dots":2.45,"target":"left","response":"right","rt":525.60000002384,"correct":false,"confidence":4},{"trial_n":89,"n_dots":2.55,"target":"left","response":"right","rt":379.70000004768,"correct":false,"confidence":4},{"trial_n":90,"n_dots":2.65,"target":"right","response":"right","rt":1297,"correct":true,"confidence":4},{"trial_n":91,"n_dots":2.65,"target":"left","response":"left","rt":1183,"correct":true,"confidence":3},{"trial_n":92,"n_dots":2.55,"target":"right","response":"right","rt":342.40000009537,"correct":true,"confidence":4},{"trial_n":93,"n_dots":2.55,"target":"left","response":"right","rt":1008.8999999762,"correct":false,"confidence":3},{"trial_n":94,"n_dots":2.65,"target":"left","response":"right","rt":334,"correct":false,"confidence":4},{"trial_n":95,"n_dots":2.75,"target":"left","response":"right","rt":966.19999992847,"correct":false,"confidence":4},{"trial_n":96,"n_dots":2.85,"target":"right","response":"right","rt":217.5,"correct":true,"confidence":4},{"trial_n":97,"n_dots":2.85,"target":"right","response":"right","rt":781.69999992847,"correct":true,"confidence":4},{"trial_n":98,"n_dots":2.75,"target":"left","response":"right","rt":936.39999997616,"correct":false,"confidence":5},{"trial_n":99,"n_dots":2.85,"target":"right","response":"right","rt":975.79999995232,"correct":true,"confidence":5},{"trial_n":100,"n_dots":2.85,"target":"left","response":"right","rt":499.79999995232,"correct":false,"confidence":5},{"trial_n":101,"n_dots":2.95,"target":"right","response":"right","rt":810.60000002384,"correct":true,"confidence":5},{"trial_n":102,"n_dots":2.95,"target":"left","response":"left","rt":948.39999997616,"correct":true,"confidence":5},{"trial_n":103,"n_dots":2.85,"target":"left","response":"left","rt":374.10000002384,"correct":true,"confidence":5},{"trial_n":104,"n_dots":2.85,"target":"right","response":"right","rt":519.09999990463,"correct":true,"confidence":5},{"trial_n":105,"n_dots":2.75,"target":"right","response":"right","rt":456.70000004768,"correct":true,"confidence":5},{"trial_n":106,"n_dots":2.75,"target":"left","response":"right","rt":555.60000002384,"correct":false,"confidence":5},{"trial_n":107,"n_dots":2.85,"target":"left","response":"left","rt":712.69999992847,"correct":true,"confidence":5},{"trial_n":108,"n_dots":2.85,"target":"right","response":"right","rt":745.39999997616,"correct":true,"confidence":5},{"trial_n":109,"n_dots":2.75,"target":"right","response":"right","rt":1357,"correct":true,"confidence":5},{"trial_n":110,"n_dots":2.75,"target":"left","response":"left","rt":926.70000004768,"correct":true,"confidence":1},{"trial_n":111,"n_dots":2.65,"target":"right","response":"left","rt":1054.1000000238,"correct":false,"confidence":3},{"trial_n":112,"n_dots":2.75,"target":"right","response":"right","rt":703.20000004768,"correct":true,"confidence":5},{"trial_n":113,"n_dots":2.75,"target":"right","response":"left","rt":987.79999995232,"correct":false,"confidence":3},{"trial_n":114,"n_dots":2.85,"target":"right","response":"right","rt":1244.2000000477,"correct":true,"confidence":3},{"trial_n":115,"n_dots":2.85,"target":"right","response":"left","rt":2037.7000000477,"correct":false,"confidence":3},{"trial_n":116,"n_dots":2.95,"target":"left","response":"left","rt":613.39999997616,"correct":true,"confidence":3},{"trial_n":117,"n_dots":2.95,"target":"left","response":"right","rt":386.60000002384,"correct":false,"confidence":3},{"trial_n":118,"n_dots":3.05,"target":"left","response":"right","rt":306.29999995232,"correct":false,"confidence":4},{"trial_n":119,"n_dots":3.15,"target":"right","response":"left","rt":389.39999997616,"correct":false,"confidence":4},{"trial_n":120,"n_dots":3.25,"target":"left","response":"left","rt":523,"correct":true,"confidence":4}]