[{"trial_n":1,"span":8,"encoder":"10572693","distractor":"15572693","target":"present","response":"present","rt":"5080.8000000715","correct":true,"confidence":-1},{"trial_n":2,"span":8,"encoder":"62547663","distractor":"62597663","target":"present","response":"present","rt":"3505.8000000715","correct":true,"confidence":-1},{"trial_n":3,"span":10,"encoder":"1322456023","distractor":"1342456023","target":"absent","response":"absent","rt":"2723.2999999523","correct":true,"confidence":-1},{"trial_n":4,"span":10,"encoder":"2138123442","distractor":"2138123412","target":"absent","response":"absent","rt":"5548.8999999762","correct":true,"confidence":-1},{"trial_n":5,"span":12,"encoder":"508664616984","distractor":"508164616984","target":"present","response":"absent","rt":"3898.6999999285","correct":false,"confidence":-1},{"trial_n":6,"span":10,"encoder":"8126458257","distractor":"8126459257","target":"present","response":"absent","rt":"3567.6999999285","correct":false,"confidence":-1},{"trial_n":7,"span":8,"encoder":"37549014","distractor":"87549014","target":"absent","response":"present","rt":"7644.3999999762","correct":false,"confidence":-1},{"trial_n":8,"span":6,"encoder":"206046","distractor":"206746","target":"absent","response":"absent","rt":"2280.7999999523","correct":true,"confidence":-1},{"trial_n":9,"span":6,"encoder":"752099","distractor":"752019","target":"present","response":"present","rt":"3415.2999999523","correct":true,"confidence":-1},{"trial_n":10,"span":8,"encoder":"44069222","distractor":"94069222","target":"present","response":"present","rt":"6143.1000000238","correct":true,"confidence":-1},{"trial_n":11,"span":8,"encoder":"06303146","distractor":"06306146","target":"absent","response":"absent","rt":"4416.8999999762","correct":true,"confidence":-1},{"trial_n":12,"span":9,"encoder":"882721007","distractor":"882722007","target":"absent","response":"absent","rt":"5238","correct":true,"confidence":-1},{"trial_n":13,"span":9,"encoder":"665292329","distractor":"665232329","target":"absent","response":"present","rt":"5783.6000000238","correct":false,"confidence":-1},{"trial_n":14,"span":8,"encoder":"28870393","distractor":"26870393","target":"present","response":"present","rt":"3778","correct":true,"confidence":-1},{"trial_n":15,"span":8,"encoder":"49282105","distractor":"49282205","target":"present","response":"present","rt":"2736","correct":true,"confidence":-1},{"trial_n":16,"span":9,"encoder":"399521305","distractor":"399521308","target":"present","response":"present","rt":"3344","correct":true,"confidence":-1},{"trial_n":17,"span":9,"encoder":"531579953","distractor":"531578953","target":"absent","response":"present","rt":"2211.2000000477","correct":false,"confidence":-1},{"trial_n":18,"span":8,"encoder":"85863115","distractor":"85263115","target":"present","response":"present","rt":"2771.7000000477","correct":true,"confidence":-1},{"trial_n":19,"span":8,"encoder":"00724489","distractor":"00724482","target":"present","response":"present","rt":"3755","correct":true,"confidence":-1},{"trial_n":20,"span":9,"encoder":"590035131","distractor":"590035141","target":"present","response":"present","rt":"2519.5","correct":true,"confidence":-1},{"trial_n":21,"span":9,"encoder":"206592561","distractor":"206592560","target":"present","response":"present","rt":"4388.5","correct":true,"confidence":4},{"trial_n":22,"span":10,"encoder":"4242282431","distractor":"4242282491","target":"absent","response":"absent","rt":"1742.1999999285","correct":true,"confidence":5},{"trial_n":23,"span":10,"encoder":"8580812396","distractor":"8580812596","target":"absent","response":"absent","rt":"12182.799999952","correct":true,"confidence":5},{"trial_n":24,"span":11,"encoder":"30517553064","distractor":"30517555064","target":"present","response":"absent","rt":"9622.9000000954","correct":false,"confidence":4},{"trial_n":25,"span":10,"encoder":"8632605849","distractor":"8642605849","target":"present","response":"present","rt":"7168.7000000477","correct":true,"confidence":3},{"trial_n":26,"span":10,"encoder":"2347656057","distractor":"2340656057","target":"absent","response":"present","rt":"7133.6999999285","correct":false,"confidence":5},{"trial_n":27,"span":9,"encoder":"289542533","distractor":"289542523","target":"present","response":"present","rt":"5624.2999999523","correct":true,"confidence":5},{"trial_n":28,"span":9,"encoder":"015091535","distractor":"065091535","target":"absent","response":"present","rt":"7027","correct":false,"confidence":4},{"trial_n":29,"span":8,"encoder":"91834135","distractor":"91134135","target":"absent","response":"absent","rt":"2948.6000000238","correct":true,"confidence":5},{"trial_n":30,"span":8,"encoder":"87040445","distractor":"87040447","target":"absent","response":"absent","rt":"2151.2999999523","correct":true,"confidence":5},{"trial_n":31,"span":9,"encoder":"283591849","distractor":"283891849","target":"absent","response":"absent","rt":"5185.5","correct":true,"confidence":5},{"trial_n":32,"span":9,"encoder":"526444203","distractor":"526444202","target":"present","response":"present","rt":"4778.6000000238","correct":true,"confidence":4},{"trial_n":33,"span":10,"encoder":"2583024920","distractor":"2583024960","target":"present","response":"present","rt":"5130","correct":true,"confidence":5},{"trial_n":34,"span":10,"encoder":"8995086334","distractor":"8995088334","target":"present","response":"present","rt":"5619.8999999762","correct":true,"confidence":4},{"trial_n":35,"span":11,"encoder":"72741568216","distractor":"72741598216","target":"present","response":"present","rt":"5171.1000000238","correct":true,"confidence":5},{"trial_n":36,"span":11,"encoder":"26832816786","distractor":"26832716786","target":"present","response":"present","rt":"4677.9000000954","correct":true,"confidence":4},{"trial_n":37,"span":12,"encoder":"076564368973","distractor":"006564368973","target":"present","response":"absent","rt":"2959.2000000477","correct":false,"confidence":3},{"trial_n":38,"span":11,"encoder":"45319125265","distractor":"45319124265","target":"absent","response":"absent","rt":"6106.7000000477","correct":true,"confidence":5},{"trial_n":39,"span":11,"encoder":"21075910221","distractor":"21075910421","target":"present","response":"present","rt":"5023","correct":true,"confidence":4},{"trial_n":40,"span":12,"encoder":"720443771299","distractor":"720446771299","target":"present","response":"present","rt":"3989.1000000238","correct":true,"confidence":5},{"trial_n":41,"span":12,"encoder":"074492582316","distractor":"074492582336","target":"present","response":"present","rt":"4440.5","correct":true,"confidence":4},{"trial_n":42,"span":13,"encoder":"0710829542933","distractor":"0710829042933","target":"absent","response":"absent","rt":"3768.3999999762","correct":true,"confidence":5},{"trial_n":43,"span":13,"encoder":"4013756534308","distractor":"3013756534308","target":"absent","response":"absent","rt":"8859.5","correct":true,"confidence":3},{"trial_n":44,"span":14,"encoder":"91838693875864","distractor":"91808693875864","target":"present","response":"present","rt":"13428.900000095","correct":true,"confidence":3},{"trial_n":45,"span":14,"encoder":"00319889514409","distractor":"00319889514709","target":"present","response":"present","rt":"25524.199999928","correct":true,"confidence":5},{"trial_n":46,"span":15,"encoder":"999793526422394","distractor":"999793526422344","target":"absent","response":"absent","rt":"3644.6000000238","correct":true,"confidence":5},{"trial_n":47,"span":15,"encoder":"508515125290403","distractor":"408515125290403","target":"present","response":"present","rt":"6538.3999999762","correct":true,"confidence":3},{"trial_n":48,"span":16,"encoder":"3686201880244907","distractor":"3686201880244007","target":"absent","response":"absent","rt":"16345.700000048","correct":true,"confidence":5},{"trial_n":49,"span":16,"encoder":"0845669333159806","distractor":"0845669433159806","target":"present","response":"present","rt":"21671","correct":true,"confidence":5},{"trial_n":50,"span":17,"encoder":"56043302482330653","distractor":"50043302482330653","target":"present","response":"absent","rt":"7624.8000000715","correct":false,"confidence":3},{"trial_n":51,"span":16,"encoder":"1952846226739455","distractor":"1952846226739155","target":"absent","response":"absent","rt":"2325","correct":true,"confidence":5},{"trial_n":52,"span":16,"encoder":"3397640524461852","distractor":"3397648524461852","target":"absent","response":"present","rt":"10188.5","correct":false,"confidence":3},{"trial_n":53,"span":15,"encoder":"913636917028291","distractor":"713636917028291","target":"present","response":"present","rt":"5745.2000000477","correct":true,"confidence":5},{"trial_n":54,"span":15,"encoder":"785393847228220","distractor":"785393847228820","target":"present","response":"absent","rt":"9768.8000000715","correct":false,"confidence":3},{"trial_n":55,"span":14,"encoder":"65754689564250","distractor":"69754689564250","target":"present","response":"absent","rt":"6433","correct":false,"confidence":3},{"trial_n":56,"span":13,"encoder":"1511069232180","distractor":"1511069238180","target":"absent","response":"present","rt":"12842.899999976","correct":false,"confidence":3},{"trial_n":57,"span":12,"encoder":"965862364693","distractor":"925862364693","target":"absent","response":"absent","rt":"5709.2000000477","correct":true,"confidence":5},{"trial_n":58,"span":12,"encoder":"163142735033","distractor":"163152735033","target":"absent","response":"absent","rt":"11073.800000072","correct":true,"confidence":5},{"trial_n":59,"span":13,"encoder":"0635715785600","distractor":"0635715780600","target":"absent","response":"absent","rt":"15429.600000024","correct":true,"confidence":5},{"trial_n":60,"span":13,"encoder":"2943788080106","distractor":"2943188080106","target":"absent","response":"absent","rt":"3787.6000000238","correct":true,"confidence":4},{"trial_n":61,"span":14,"encoder":"67844297097616","distractor":"66844297097616","target":"absent","response":"absent","rt":"5873.1000000238","correct":true,"confidence":5},{"trial_n":62,"span":14,"encoder":"35295809866200","distractor":"35295859866200","target":"absent","response":"absent","rt":"26049.600000024","correct":true,"confidence":3},{"trial_n":63,"span":15,"encoder":"133390001998481","distractor":"133390041998481","target":"absent","response":"absent","rt":"17153.399999976","correct":true,"confidence":4},{"trial_n":64,"span":15,"encoder":"670118157284205","distractor":"670118150284205","target":"absent","response":"absent","rt":"28221.299999952","correct":true,"confidence":4},{"trial_n":65,"span":16,"encoder":"6195222317052658","distractor":"6195222517052658","target":"present","response":"absent","rt":"4283.8999999762","correct":false,"confidence":3},{"trial_n":66,"span":15,"encoder":"938414552837324","distractor":"938414852837324","target":"present","response":"present","rt":"4479.0999999046","correct":true,"confidence":3},{"trial_n":67,"span":15,"encoder":"440013236123826","distractor":"440013238123826","target":"absent","response":"absent","rt":"5774.0999999046","correct":true,"confidence":5},{"trial_n":68,"span":16,"encoder":"0883421917861068","distractor":"0883421915861068","target":"absent","response":"absent","rt":"3459.5999999046","correct":true,"confidence":5},{"trial_n":69,"span":16,"encoder":"7216444994728096","distractor":"7216474994728096","target":"absent","response":"absent","rt":"5043.3999999762","correct":true,"confidence":4},{"trial_n":70,"span":17,"encoder":"74322128278888700","distractor":"74322128228888700","target":"present","response":"present","rt":"5427.6000000238","correct":true,"confidence":3},{"trial_n":71,"span":8,"encoder":"63740008","distractor":"63740007","target":"present","response":"present","rt":"6527.6000000238","correct":true,"confidence":-1},{"trial_n":72,"span":8,"encoder":"91587686","distractor":"91580686","target":"present","response":"present","rt":"3350.8000000715","correct":true,"confidence":-1},{"trial_n":73,"span":9,"encoder":"943313497","distractor":"943318497","target":"absent","response":"absent","rt":"2614.1999999285","correct":true,"confidence":-1},{"trial_n":74,"span":9,"encoder":"007231822","distractor":"307231822","target":"absent","response":"present","rt":"3769.7000000477","correct":false,"confidence":-1},{"trial_n":75,"span":8,"encoder":"60227229","distractor":"60237229","target":"present","response":"present","rt":"2891.1000000238","correct":true,"confidence":-1},{"trial_n":76,"span":8,"encoder":"74199728","distractor":"74199228","target":"present","response":"present","rt":"5627","correct":true,"confidence":-1},{"trial_n":77,"span":9,"encoder":"321458870","distractor":"321458770","target":"present","response":"present","rt":"2706.3999999762","correct":true,"confidence":-1},{"trial_n":78,"span":9,"encoder":"940248860","distractor":"940248880","target":"absent","response":"absent","rt":"1593.8000000715","correct":true,"confidence":-1},{"trial_n":79,"span":10,"encoder":"2899061815","distractor":"2899064815","target":"absent","response":"absent","rt":"2034.3000000715","correct":true,"confidence":-1},{"trial_n":80,"span":10,"encoder":"7041876702","distractor":"7041376702","target":"present","response":"present","rt":"4108.2999999523","correct":true,"confidence":-1},{"trial_n":81,"span":11,"encoder":"24316269428","distractor":"24316229428","target":"absent","response":"absent","rt":"3486","correct":true,"confidence":-1},{"trial_n":82,"span":11,"encoder":"39217315446","distractor":"39217355446","target":"present","response":"present","rt":"2720.2999999523","correct":true,"confidence":-1},{"trial_n":83,"span":12,"encoder":"966121802617","distractor":"966121802616","target":"present","response":"present","rt":"2095.3999999762","correct":true,"confidence":-1},{"trial_n":84,"span":12,"encoder":"478807028926","distractor":"478809028926","target":"absent","response":"absent","rt":"5410.6999999285","correct":true,"confidence":-1},{"trial_n":85,"span":13,"encoder":"4561955137541","distractor":"4561925137541","target":"present","response":"present","rt":"4303.8999999762","correct":true,"confidence":-1},{"trial_n":86,"span":13,"encoder":"2928789239125","distractor":"2928789339125","target":"absent","response":"absent","rt":"7490.1000000238","correct":true,"confidence":-1},{"trial_n":87,"span":14,"encoder":"73305321612842","distractor":"73305321642842","target":"present","response":"present","rt":"7692.3999999762","correct":true,"confidence":-1},{"trial_n":88,"span":14,"encoder":"64910444551594","distractor":"64910444555594","target":"present","response":"present","rt":"4717.5","correct":true,"confidence":-1},{"trial_n":89,"span":15,"encoder":"014041391911647","distractor":"014041399911647","target":"present","response":"present","rt":"4239.1000000238","correct":true,"confidence":-1},{"trial_n":90,"span":15,"encoder":"748915416020397","distractor":"748915416020357","target":"absent","response":"absent","rt":"2460.1000000238","correct":true,"confidence":-1},{"trial_n":91,"span":16,"encoder":"4691573263900023","distractor":"6691573263900023","target":"present","response":"present","rt":"4421.7000000477","correct":true,"confidence":4},{"trial_n":92,"span":16,"encoder":"5227441393589250","distractor":"5227441393529250","target":"absent","response":"present","rt":"10907","correct":false,"confidence":4},{"trial_n":93,"span":15,"encoder":"459765092258412","distractor":"459765092250412","target":"absent","response":"absent","rt":"3523.6000000238","correct":true,"confidence":5},{"trial_n":94,"span":15,"encoder":"382283349624151","distractor":"362283349624151","target":"present","response":"present","rt":"6693.1000000238","correct":true,"confidence":5},{"trial_n":95,"span":16,"encoder":"2913451573986826","distractor":"2913451573986226","target":"present","response":"present","rt":"11172.600000024","correct":true,"confidence":5},{"trial_n":96,"span":16,"encoder":"8833248533942859","distractor":"8833248533942849","target":"present","response":"absent","rt":"5994.5","correct":false,"confidence":1},{"trial_n":97,"span":15,"encoder":"260259666039848","distractor":"260269666039848","target":"absent","response":"absent","rt":"9523.5","correct":true,"confidence":3},{"trial_n":98,"span":15,"encoder":"769283590849347","distractor":"769283590839347","target":"present","response":"absent","rt":"8146.5","correct":false,"confidence":4},{"trial_n":99,"span":14,"encoder":"22176661102423","distractor":"22176261102423","target":"absent","response":"absent","rt":"7330.2000000477","correct":true,"confidence":5},{"trial_n":100,"span":14,"encoder":"08890315070386","distractor":"38890315070386","target":"absent","response":"absent","rt":"8744.3000000715","correct":true,"confidence":2},{"trial_n":101,"span":15,"encoder":"518246566081523","distractor":"518216566081523","target":"present","response":"present","rt":"12237.100000024","correct":true,"confidence":3},{"trial_n":102,"span":15,"encoder":"752808026129473","distractor":"732808026129473","target":"absent","response":"present","rt":"8542.2000000477","correct":false,"confidence":3},{"trial_n":103,"span":14,"encoder":"88143714584417","distractor":"88143614584417","target":"absent","response":"absent","rt":"9894.3000000715","correct":true,"confidence":4},{"trial_n":104,"span":14,"encoder":"36679511679776","distractor":"36689511679776","target":"present","response":"present","rt":"12784.5","correct":true,"confidence":4},{"trial_n":105,"span":15,"encoder":"106864741852497","distractor":"106864441852497","target":"present","response":"present","rt":"10479.799999952","correct":true,"confidence":4},{"trial_n":106,"span":15,"encoder":"170359489489456","distractor":"170359489489446","target":"present","response":"present","rt":"4079.5","correct":true,"confidence":5},{"trial_n":107,"span":16,"encoder":"8442695398596988","distractor":"8442595398596988","target":"absent","response":"absent","rt":"12299.100000024","correct":true,"confidence":3},{"trial_n":108,"span":16,"encoder":"8371966857464482","distractor":"8371966857264482","target":"present","response":"present","rt":"11342","correct":true,"confidence":3},{"trial_n":109,"span":17,"encoder":"29842278498288458","distractor":"29842778498288458","target":"absent","response":"present","rt":"11616.300000072","correct":false,"confidence":2},{"trial_n":110,"span":16,"encoder":"8588561659287649","distractor":"8588561659287643","target":"present","response":"present","rt":"3700.8000000715","correct":true,"confidence":5},{"trial_n":111,"span":16,"encoder":"2981620175062189","distractor":"2991620175062189","target":"absent","response":"absent","rt":"8762.1000000238","correct":true,"confidence":3},{"trial_n":112,"span":17,"encoder":"81595308992111124","distractor":"81595308592111124","target":"present","response":"present","rt":"13665.899999976","correct":true,"confidence":4},{"trial_n":113,"span":17,"encoder":"64055165655101894","distractor":"64055168655101894","target":"absent","response":"present","rt":"11629.299999952","correct":false,"confidence":3},{"trial_n":114,"span":16,"encoder":"7083968910821591","distractor":"7083868910821591","target":"present","response":"present","rt":"11339.100000024","correct":true,"confidence":3},{"trial_n":115,"span":16,"encoder":"3856337468126077","distractor":"3856337468126007","target":"present","response":"present","rt":"3395.3999999762","correct":true,"confidence":5},{"trial_n":116,"span":17,"encoder":"31420878600827885","distractor":"01420878600827885","target":"absent","response":"absent","rt":"6001.3999999762","correct":true,"confidence":5},{"trial_n":117,"span":17,"encoder":"45853086755619104","distractor":"45855086755619104","target":"present","response":"absent","rt":"11373","correct":false,"confidence":3},{"trial_n":118,"span":16,"encoder":"2604882919778462","distractor":"2604812919778462","target":"present","response":"present","rt":"7182.3999999762","correct":true,"confidence":5},{"trial_n":119,"span":16,"encoder":"4243052919651441","distractor":"4243052914651441","target":"absent","response":"present","rt":"11839.399999976","correct":false,"confidence":2},{"trial_n":120,"span":15,"encoder":"240533113153578","distractor":"250533113153578","target":"absent","response":"present","rt":"5189.2999999523","correct":false,"confidence":4},{"trial_n":121,"span":14,"encoder":"84556669092692","distractor":"84556639092692","target":"absent","response":"absent","rt":"7289.0999999046","correct":true,"confidence":5},{"trial_n":122,"span":14,"encoder":"01341391568392","distractor":"01361391568392","target":"absent","response":"absent","rt":"5458.8999999762","correct":true,"confidence":5},{"trial_n":123,"span":15,"encoder":"521048373784300","distractor":"521048373784310","target":"present","response":"absent","rt":"3656.5","correct":false,"confidence":5},{"trial_n":124,"span":14,"encoder":"99604682165288","distractor":"99604682165258","target":"present","response":"absent","rt":"6464.4000000954","correct":false,"confidence":4},{"trial_n":125,"span":13,"encoder":"8993868788727","distractor":"8993868788721","target":"present","response":"present","rt":"3221.5","correct":true,"confidence":5},{"trial_n":126,"span":13,"encoder":"2069997121951","distractor":"8069997121951","target":"absent","response":"present","rt":"9084.3999999762","correct":false,"confidence":4},{"trial_n":127,"span":12,"encoder":"123490529965","distractor":"123490529945","target":"present","response":"present","rt":"5929.7999999523","correct":true,"confidence":3},{"trial_n":128,"span":12,"encoder":"608539726514","distractor":"608539726014","target":"absent","response":"absent","rt":"2938.2000000477","correct":true,"confidence":4},{"trial_n":129,"span":13,"encoder":"1167174462958","distractor":"1167174462959","target":"absent","response":"absent","rt":"2216.7999999523","correct":true,"confidence":5},{"trial_n":130,"span":13,"encoder":"3571663085704","distractor":"3571663088704","target":"present","response":"present","rt":"3149.5","correct":true,"confidence":5},{"trial_n":131,"span":14,"encoder":"66536933199287","distractor":"66536903199287","target":"absent","response":"present","rt":"7703.1000000238","correct":false,"confidence":4},{"trial_n":132,"span":13,"encoder":"5575617215987","distractor":"5575616215987","target":"absent","response":"present","rt":"18158.699999928","correct":false,"confidence":3},{"trial_n":133,"span":12,"encoder":"595460697081","distractor":"595460697681","target":"present","response":"present","rt":"2975.5","correct":true,"confidence":3},{"trial_n":134,"span":12,"encoder":"452862614027","distractor":"452962614027","target":"present","response":"present","rt":"5987.7000000477","correct":true,"confidence":3},{"trial_n":135,"span":13,"encoder":"2008155377566","distractor":"2008155375566","target":"absent","response":"absent","rt":"4566.2000000477","correct":true,"confidence":5},{"trial_n":136,"span":13,"encoder":"7326205738254","distractor":"7326201738254","target":"present","response":"absent","rt":"6322.6000000238","correct":false,"confidence":2},{"trial_n":137,"span":12,"encoder":"767358549458","distractor":"767358549457","target":"absent","response":"absent","rt":"1925.3999999762","correct":true,"confidence":5},{"trial_n":138,"span":12,"encoder":"422364929321","distractor":"452364929321","target":"absent","response":"absent","rt":"6487.3999999762","correct":true,"confidence":5},{"trial_n":139,"span":13,"encoder":"0491035175294","distractor":"0491035173294","target":"absent","response":"absent","rt":"6016.5999999046","correct":true,"confidence":2},{"trial_n":140,"span":13,"encoder":"4422141345016","distractor":"4422141340016","target":"absent","response":"absent","rt":"6972.3999999762","correct":true,"confidence":5}]