[{"trial_n":1,"span":8,"encoder":"51022815","distractor":"51028815","target":"present","response":"absent","rt":"4043.1000000015","correct":false,"confidence":-1},{"trial_n":2,"span":6,"encoder":"362231","distractor":"367231","target":"present","response":"present","rt":"2239.799999997","correct":true,"confidence":-1},{"trial_n":3,"span":6,"encoder":"409010","distractor":"409000","target":"absent","response":"absent","rt":"1550.6000000015","correct":true,"confidence":-1},{"trial_n":4,"span":8,"encoder":"35385505","distractor":"35385555","target":"absent","response":"absent","rt":"1769.099999994","correct":true,"confidence":-1},{"trial_n":5,"span":8,"encoder":"85011858","distractor":"85031858","target":"present","response":"present","rt":"2398.5","correct":true,"confidence":-1},{"trial_n":6,"span":10,"encoder":"9583935230","distractor":"9583935250","target":"present","response":"present","rt":"2209.5","correct":true,"confidence":-1},{"trial_n":7,"span":10,"encoder":"7119939214","distractor":"7116939214","target":"absent","response":"absent","rt":"2927.1999999955","correct":true,"confidence":-1},{"trial_n":8,"span":12,"encoder":"545403016785","distractor":"545403516785","target":"present","response":"present","rt":"4785.6000000015","correct":true,"confidence":-1},{"trial_n":9,"span":12,"encoder":"934302771593","distractor":"934382771593","target":"present","response":"absent","rt":"814.70000000298","correct":false,"confidence":-1},{"trial_n":10,"span":10,"encoder":"4206800631","distractor":"4201800631","target":"present","response":"absent","rt":"2148.700000003","correct":false,"confidence":-1},{"trial_n":11,"span":8,"encoder":"33740650","distractor":"33740550","target":"present","response":"present","rt":"1901.3999999985","correct":true,"confidence":-1},{"trial_n":12,"span":8,"encoder":"06470793","distractor":"06470293","target":"absent","response":"absent","rt":"3332.6000000015","correct":true,"confidence":-1},{"trial_n":13,"span":9,"encoder":"296136199","distractor":"296836199","target":"absent","response":"absent","rt":"3471.900000006","correct":true,"confidence":-1},{"trial_n":14,"span":9,"encoder":"749924449","distractor":"749924439","target":"present","response":"absent","rt":"2853.099999994","correct":false,"confidence":-1},{"trial_n":15,"span":8,"encoder":"02685182","distractor":"02985182","target":"absent","response":"absent","rt":"3536.6999999955","correct":true,"confidence":-1},{"trial_n":16,"span":8,"encoder":"10769823","distractor":"30769823","target":"absent","response":"absent","rt":"456","correct":true,"confidence":-1},{"trial_n":17,"span":9,"encoder":"579380240","distractor":"579080240","target":"present","response":"present","rt":"1184","correct":true,"confidence":-1},{"trial_n":18,"span":9,"encoder":"506273207","distractor":"506273707","target":"absent","response":"absent","rt":"2411.400000006","correct":true,"confidence":-1},{"trial_n":19,"span":10,"encoder":"2156686391","distractor":"2152686391","target":"absent","response":"present","rt":"1721.8999999985","correct":false,"confidence":-1},{"trial_n":20,"span":9,"encoder":"006463488","distractor":"006463487","target":"absent","response":"present","rt":"2159.3999999985","correct":false,"confidence":-1},{"trial_n":21,"span":8,"encoder":"29217332","distractor":"29212332","target":"absent","response":"absent","rt":"2779.5","correct":true,"confidence":5},{"trial_n":22,"span":8,"encoder":"33726964","distractor":"33526964","target":"present","response":"absent","rt":"1771.400000006","correct":false,"confidence":5},{"trial_n":23,"span":7,"encoder":"5997202","distractor":"5992202","target":"absent","response":"absent","rt":"1614.5","correct":true,"confidence":5},{"trial_n":24,"span":7,"encoder":"8339124","distractor":"8338124","target":"absent","response":"absent","rt":"2632.799999997","correct":true,"confidence":5},{"trial_n":25,"span":8,"encoder":"49104448","distractor":"49104468","target":"present","response":"absent","rt":"2549.1000000015","correct":false,"confidence":5},{"trial_n":26,"span":7,"encoder":"9520668","distractor":"8520668","target":"present","response":"present","rt":"4005.400000006","correct":true,"confidence":3},{"trial_n":27,"span":7,"encoder":"9237496","distractor":"9237896","target":"present","response":"present","rt":"1769.3999999985","correct":true,"confidence":4},{"trial_n":28,"span":8,"encoder":"30627451","distractor":"30627454","target":"present","response":"present","rt":"3027.8999999985","correct":true,"confidence":5},{"trial_n":29,"span":8,"encoder":"95346650","distractor":"95376650","target":"absent","response":"absent","rt":"2787.400000006","correct":true,"confidence":4},{"trial_n":30,"span":9,"encoder":"949525825","distractor":"049525825","target":"present","response":"present","rt":"2778.700000003","correct":true,"confidence":3},{"trial_n":31,"span":9,"encoder":"114371691","distractor":"114371661","target":"absent","response":"absent","rt":"1715.799999997","correct":true,"confidence":4},{"trial_n":32,"span":10,"encoder":"6531781001","distractor":"6511781001","target":"present","response":"absent","rt":"3801.900000006","correct":false,"confidence":3},{"trial_n":33,"span":9,"encoder":"073403806","distractor":"073403906","target":"present","response":"absent","rt":"5745.1999999955","correct":false,"confidence":2},{"trial_n":34,"span":8,"encoder":"26218222","distractor":"26918222","target":"absent","response":"absent","rt":"2604.3000000045","correct":true,"confidence":5},{"trial_n":35,"span":8,"encoder":"30783891","distractor":"30783591","target":"present","response":"present","rt":"5212.8000000045","correct":true,"confidence":5},{"trial_n":36,"span":9,"encoder":"885270048","distractor":"885270078","target":"present","response":"absent","rt":"3848.3000000045","correct":false,"confidence":4},{"trial_n":37,"span":8,"encoder":"65606917","distractor":"35606917","target":"absent","response":"absent","rt":"1409.5","correct":true,"confidence":5},{"trial_n":38,"span":8,"encoder":"86926897","distractor":"86926896","target":"absent","response":"absent","rt":"1275.200000003","correct":true,"confidence":5},{"trial_n":39,"span":9,"encoder":"035553009","distractor":"039553009","target":"present","response":"present","rt":"3038.3999999985","correct":true,"confidence":2},{"trial_n":40,"span":9,"encoder":"300905287","distractor":"300903287","target":"absent","response":"present","rt":"6365.6000000015","correct":false,"confidence":3},{"trial_n":41,"span":8,"encoder":"71804829","distractor":"79804829","target":"absent","response":"absent","rt":"4074.099999994","correct":true,"confidence":4},{"trial_n":42,"span":8,"encoder":"60730103","distractor":"60530103","target":"present","response":"present","rt":"3422.1999999955","correct":true,"confidence":5},{"trial_n":43,"span":9,"encoder":"489072267","distractor":"489172267","target":"absent","response":"absent","rt":"3206","correct":true,"confidence":5},{"trial_n":44,"span":9,"encoder":"287031102","distractor":"287031802","target":"present","response":"present","rt":"3387.5","correct":true,"confidence":5},{"trial_n":45,"span":10,"encoder":"0464896123","distractor":"0414896123","target":"absent","response":"absent","rt":"2424.5","correct":true,"confidence":4},{"trial_n":46,"span":10,"encoder":"1116891682","distractor":"1116897682","target":"absent","response":"present","rt":"6123.900000006","correct":false,"confidence":3},{"trial_n":47,"span":9,"encoder":"654842179","distractor":"654849179","target":"absent","response":"present","rt":"4654.3999999985","correct":false,"confidence":3},{"trial_n":48,"span":8,"encoder":"49203037","distractor":"49903037","target":"absent","response":"absent","rt":"2071.8000000045","correct":true,"confidence":4},{"trial_n":49,"span":8,"encoder":"25947377","distractor":"23947377","target":"present","response":"absent","rt":"3392.400000006","correct":false,"confidence":4},{"trial_n":50,"span":7,"encoder":"4710791","distractor":"4710771","target":"present","response":"present","rt":"3130.299999997","correct":true,"confidence":4},{"trial_n":51,"span":7,"encoder":"1942225","distractor":"1943225","target":"absent","response":"absent","rt":"2598.6000000015","correct":true,"confidence":4},{"trial_n":52,"span":8,"encoder":"96002624","distractor":"96102624","target":"present","response":"present","rt":"2356.599999994","correct":true,"confidence":5},{"trial_n":53,"span":8,"encoder":"60131145","distractor":"68131145","target":"absent","response":"absent","rt":"1870.099999994","correct":true,"confidence":5},{"trial_n":54,"span":9,"encoder":"427815544","distractor":"927815544","target":"absent","response":"present","rt":"3981.8000000045","correct":false,"confidence":2},{"trial_n":55,"span":8,"encoder":"53299296","distractor":"53299297","target":"present","response":"present","rt":"3162.1999999955","correct":true,"confidence":4},{"trial_n":56,"span":8,"encoder":"39816099","distractor":"39816090","target":"absent","response":"absent","rt":"2494.299999997","correct":true,"confidence":5},{"trial_n":57,"span":9,"encoder":"628831778","distractor":"628831775","target":"present","response":"present","rt":"2893.400000006","correct":true,"confidence":4},{"trial_n":58,"span":9,"encoder":"196835061","distractor":"136835061","target":"present","response":"present","rt":"2333.299999997","correct":true,"confidence":5},{"trial_n":59,"span":10,"encoder":"1697898744","distractor":"1697899744","target":"absent","response":"absent","rt":"4070.3000000045","correct":true,"confidence":3},{"trial_n":60,"span":10,"encoder":"1431698684","distractor":"1431698084","target":"present","response":"absent","rt":"2543","correct":false,"confidence":4},{"trial_n":61,"span":9,"encoder":"517323714","distractor":"513323714","target":"present","response":"present","rt":"2889.5","correct":true,"confidence":4},{"trial_n":62,"span":9,"encoder":"856766726","distractor":"856766926","target":"present","response":"present","rt":"2749.1000000015","correct":true,"confidence":5},{"trial_n":63,"span":10,"encoder":"4901019735","distractor":"4931019735","target":"present","response":"present","rt":"2855.299999997","correct":true,"confidence":5},{"trial_n":64,"span":10,"encoder":"1793471831","distractor":"1793471821","target":"absent","response":"absent","rt":"3987.299999997","correct":true,"confidence":5},{"trial_n":65,"span":11,"encoder":"79143468089","distractor":"79143428089","target":"present","response":"absent","rt":"4817.5","correct":false,"confidence":4},{"trial_n":66,"span":10,"encoder":"3109747738","distractor":"1109747738","target":"absent","response":"absent","rt":"3336.5","correct":true,"confidence":4},{"trial_n":67,"span":10,"encoder":"0584583299","distractor":"0584503299","target":"present","response":"present","rt":"2789.8000000045","correct":true,"confidence":3},{"trial_n":68,"span":11,"encoder":"01923650125","distractor":"01923850125","target":"absent","response":"absent","rt":"3000.6000000015","correct":true,"confidence":4},{"trial_n":69,"span":11,"encoder":"52925243791","distractor":"52425243791","target":"absent","response":"absent","rt":"2163.6000000015","correct":true,"confidence":4},{"trial_n":70,"span":12,"encoder":"715151815351","distractor":"715151815355","target":"present","response":"absent","rt":"3522.5","correct":false,"confidence":1},{"trial_n":71,"span":8,"encoder":"07971135","distractor":"07979135","target":"present","response":"present","rt":"5213.3999999985","correct":true,"confidence":-1},{"trial_n":72,"span":8,"encoder":"19878197","distractor":"19878157","target":"present","response":"present","rt":"2156.6000000015","correct":true,"confidence":-1},{"trial_n":73,"span":9,"encoder":"959127439","distractor":"969127439","target":"absent","response":"present","rt":"6183","correct":false,"confidence":-1},{"trial_n":74,"span":8,"encoder":"32151797","distractor":"32151777","target":"absent","response":"absent","rt":"4189.5","correct":true,"confidence":-1},{"trial_n":75,"span":8,"encoder":"82544257","distractor":"82544207","target":"present","response":"absent","rt":"5373.3999999985","correct":false,"confidence":-1},{"trial_n":76,"span":7,"encoder":"7799725","distractor":"7729725","target":"present","response":"absent","rt":"827.30000000447","correct":false,"confidence":-1},{"trial_n":77,"span":6,"encoder":"107959","distractor":"107958","target":"present","response":"absent","rt":"1347","correct":false,"confidence":-1},{"trial_n":78,"span":5,"encoder":"86984","distractor":"83984","target":"absent","response":"absent","rt":"3202.3000000045","correct":true,"confidence":-1},{"trial_n":79,"span":5,"encoder":"11051","distractor":"17051","target":"absent","response":"present","rt":"4672.299999997","correct":false,"confidence":-1},{"trial_n":80,"span":4,"encoder":"3260","distractor":"3240","target":"absent","response":"present","rt":"2753","correct":false,"confidence":-1},{"trial_n":81,"span":3,"encoder":"677","distractor":"647","target":"absent","response":"present","rt":"581.89999999851","correct":false,"confidence":-1},{"trial_n":82,"span":2,"encoder":"23","distractor":"27","target":"present","response":"present","rt":"647.80000000447","correct":true,"confidence":-1},{"trial_n":83,"span":2,"encoder":"37","distractor":"31","target":"absent","response":"absent","rt":"1431.5","correct":true,"confidence":-1},{"trial_n":84,"span":3,"encoder":"929","distractor":"909","target":"present","response":"present","rt":"1551.6000000015","correct":true,"confidence":-1},{"trial_n":85,"span":3,"encoder":"905","distractor":"900","target":"present","response":"present","rt":"974.19999999553","correct":true,"confidence":-1},{"trial_n":86,"span":4,"encoder":"6168","distractor":"6568","target":"absent","response":"absent","rt":"1277.5","correct":true,"confidence":-1},{"trial_n":87,"span":4,"encoder":"2862","distractor":"2865","target":"present","response":"absent","rt":"2950.5","correct":false,"confidence":-1},{"trial_n":88,"span":3,"encoder":"770","distractor":"670","target":"absent","response":"absent","rt":"1843.1000000015","correct":true,"confidence":-1},{"trial_n":89,"span":3,"encoder":"873","distractor":"973","target":"present","response":"present","rt":"1314.1999999955","correct":true,"confidence":-1},{"trial_n":90,"span":4,"encoder":"0855","distractor":"0955","target":"absent","response":"absent","rt":"1387.3000000045","correct":true,"confidence":-1},{"trial_n":91,"span":4,"encoder":"5244","distractor":"5204","target":"present","response":"present","rt":"1204.6999999955","correct":true,"confidence":5},{"trial_n":92,"span":5,"encoder":"51962","distractor":"51964","target":"absent","response":"absent","rt":"1765.6999999955","correct":true,"confidence":5},{"trial_n":93,"span":5,"encoder":"52756","distractor":"53756","target":"present","response":"present","rt":"2329.8000000045","correct":true,"confidence":5},{"trial_n":94,"span":6,"encoder":"662219","distractor":"662619","target":"present","response":"present","rt":"2097.1000000015","correct":true,"confidence":5},{"trial_n":95,"span":6,"encoder":"860728","distractor":"860528","target":"present","response":"present","rt":"3255.6000000015","correct":true,"confidence":5},{"trial_n":96,"span":7,"encoder":"9036401","distractor":"9036601","target":"absent","response":"absent","rt":"3556.6999999955","correct":true,"confidence":4},{"trial_n":97,"span":7,"encoder":"6615113","distractor":"6715113","target":"present","response":"present","rt":"4452.799999997","correct":true,"confidence":5},{"trial_n":98,"span":8,"encoder":"56257201","distractor":"56257261","target":"present","response":"present","rt":"2608.1000000015","correct":true,"confidence":3},{"trial_n":99,"span":8,"encoder":"78739991","distractor":"78709991","target":"absent","response":"absent","rt":"3499.200000003","correct":true,"confidence":5},{"trial_n":100,"span":9,"encoder":"242567846","distractor":"212567846","target":"absent","response":"absent","rt":"4004","correct":true,"confidence":2},{"trial_n":101,"span":9,"encoder":"838298329","distractor":"838268329","target":"absent","response":"present","rt":"3951.799999997","correct":false,"confidence":1},{"trial_n":102,"span":8,"encoder":"19890304","distractor":"19895304","target":"present","response":"absent","rt":"2175.8999999985","correct":false,"confidence":1},{"trial_n":103,"span":7,"encoder":"9690848","distractor":"9690148","target":"present","response":"present","rt":"3240.8000000045","correct":true,"confidence":2},{"trial_n":104,"span":7,"encoder":"6205982","distractor":"6205912","target":"absent","response":"absent","rt":"2401","correct":true,"confidence":4},{"trial_n":105,"span":8,"encoder":"90711596","distractor":"90511596","target":"present","response":"present","rt":"5142.3000000045","correct":true,"confidence":5},{"trial_n":106,"span":8,"encoder":"58125351","distractor":"58125358","target":"present","response":"present","rt":"3551.700000003","correct":true,"confidence":5},{"trial_n":107,"span":9,"encoder":"627437065","distractor":"627137065","target":"present","response":"present","rt":"5410.099999994","correct":true,"confidence":4},{"trial_n":108,"span":9,"encoder":"130157743","distractor":"130157643","target":"absent","response":"absent","rt":"3956.6000000015","correct":true,"confidence":5},{"trial_n":109,"span":10,"encoder":"1114269184","distractor":"1114269183","target":"present","response":"present","rt":"6433.8000000045","correct":true,"confidence":2},{"trial_n":110,"span":10,"encoder":"7133766712","distractor":"7133866712","target":"absent","response":"absent","rt":"9862.6000000015","correct":true,"confidence":3},{"trial_n":111,"span":11,"encoder":"76274953189","distractor":"76774953189","target":"present","response":"present","rt":"2134.8000000045","correct":true,"confidence":4},{"trial_n":112,"span":11,"encoder":"71213640348","distractor":"71213650348","target":"absent","response":"present","rt":"3624.1999999955","correct":false,"confidence":1},{"trial_n":113,"span":10,"encoder":"6298869611","distractor":"6298869661","target":"absent","response":"absent","rt":"4355.900000006","correct":true,"confidence":3},{"trial_n":114,"span":10,"encoder":"2314618428","distractor":"2314618421","target":"absent","response":"absent","rt":"1579.6999999955","correct":true,"confidence":5},{"trial_n":115,"span":11,"encoder":"25349137212","distractor":"25349137211","target":"present","response":"present","rt":"1897.8000000045","correct":true,"confidence":3},{"trial_n":116,"span":11,"encoder":"85641521950","distractor":"85647521950","target":"absent","response":"absent","rt":"6153.299999997","correct":true,"confidence":4},{"trial_n":117,"span":12,"encoder":"793135884861","distractor":"793135894861","target":"present","response":"present","rt":"6268.8000000045","correct":true,"confidence":4},{"trial_n":118,"span":12,"encoder":"773410273637","distractor":"773410283637","target":"absent","response":"present","rt":"6414.299999997","correct":false,"confidence":1},{"trial_n":119,"span":11,"encoder":"41164840860","distractor":"41164740860","target":"present","response":"present","rt":"2058.700000003","correct":true,"confidence":1},{"trial_n":120,"span":11,"encoder":"41426189722","distractor":"41326189722","target":"present","response":"present","rt":"3335.200000003","correct":true,"confidence":4},{"trial_n":121,"span":12,"encoder":"708809477769","distractor":"708809427769","target":"absent","response":"absent","rt":"2059.1000000015","correct":true,"confidence":4},{"trial_n":122,"span":12,"encoder":"908782451161","distractor":"508782451161","target":"present","response":"present","rt":"2595.599999994","correct":true,"confidence":2},{"trial_n":123,"span":13,"encoder":"1076806294969","distractor":"1176806294969","target":"absent","response":"absent","rt":"6801.799999997","correct":true,"confidence":1},{"trial_n":124,"span":13,"encoder":"2203788345558","distractor":"2206788345558","target":"present","response":"present","rt":"3963.8000000045","correct":true,"confidence":1},{"trial_n":125,"span":14,"encoder":"75644037468311","distractor":"75644037368311","target":"present","response":"present","rt":"6288.5","correct":true,"confidence":1},{"trial_n":126,"span":14,"encoder":"02671471676501","distractor":"02671471676571","target":"absent","response":"absent","rt":"5004","correct":true,"confidence":1},{"trial_n":127,"span":15,"encoder":"766072900607110","distractor":"766072930607110","target":"present","response":"present","rt":"655.20000000298","correct":true,"confidence":2},{"trial_n":128,"span":15,"encoder":"103623119879560","distractor":"103623119879580","target":"absent","response":"absent","rt":"3043.1000000015","correct":true,"confidence":4},{"trial_n":129,"span":16,"encoder":"8762930955304457","distractor":"8761930955304457","target":"absent","response":"present","rt":"5701.1000000015","correct":false,"confidence":3},{"trial_n":130,"span":15,"encoder":"105371345629293","distractor":"100371345629293","target":"present","response":"present","rt":"3426.3000000045","correct":true,"confidence":3},{"trial_n":131,"span":15,"encoder":"631701603738724","distractor":"631701603738774","target":"present","response":"present","rt":"2303.299999997","correct":true,"confidence":5},{"trial_n":132,"span":16,"encoder":"8819011368340406","distractor":"8819011368540406","target":"present","response":"present","rt":"8340.700000003","correct":true,"confidence":1},{"trial_n":133,"span":16,"encoder":"4054771781419203","distractor":"4054771781419703","target":"present","response":"present","rt":"2375.900000006","correct":true,"confidence":5},{"trial_n":134,"span":17,"encoder":"20638351099676116","distractor":"20638351099676516","target":"absent","response":"absent","rt":"1685.3999999985","correct":true,"confidence":5},{"trial_n":135,"span":17,"encoder":"15907939667585031","distractor":"15907139667585031","target":"present","response":"present","rt":"4726.8999999985","correct":true,"confidence":1},{"trial_n":136,"span":18,"encoder":"344150846256311942","distractor":"344150846256311948","target":"absent","response":"present","rt":"2485.5","correct":false,"confidence":4},{"trial_n":137,"span":17,"encoder":"17864077151794659","distractor":"17864077151744659","target":"absent","response":"present","rt":"3473.8000000045","correct":false,"confidence":1},{"trial_n":138,"span":16,"encoder":"3888549694765246","distractor":"3888549692765246","target":"absent","response":"absent","rt":"9749.299999997","correct":true,"confidence":3},{"trial_n":139,"span":16,"encoder":"5963589694465285","distractor":"5963583694465285","target":"absent","response":"absent","rt":"2580.099999994","correct":true,"confidence":1},{"trial_n":140,"span":17,"encoder":"12158165943250305","distractor":"12158165943750305","target":"absent","response":"present","rt":"4148.3999999985","correct":false,"confidence":1}]