[{"trial_n":1,"n_dots":4.25,"target":"left","response":"left","rt":10856.199999996,"correct":true,"confidence":-1},{"trial_n":2,"n_dots":4.25,"target":"right","response":"right","rt":691.5,"correct":true,"confidence":-1},{"trial_n":3,"n_dots":3.85,"target":"right","response":"left","rt":770.89999999851,"correct":false,"confidence":-1},{"trial_n":4,"n_dots":4.25,"target":"left","response":"left","rt":227.29999999702,"correct":true,"confidence":-1},{"trial_n":5,"n_dots":4.25,"target":"left","response":"left","rt":627.60000000149,"correct":true,"confidence":-1},{"trial_n":6,"n_dots":3.85,"target":"left","response":"right","rt":679.60000000149,"correct":false,"confidence":-1},{"trial_n":7,"n_dots":4.25,"target":"right","response":"right","rt":461.10000000149,"correct":true,"confidence":-1},{"trial_n":8,"n_dots":4.25,"target":"left","response":"left","rt":400,"correct":true,"confidence":-1},{"trial_n":9,"n_dots":4.05,"target":"left","response":"left","rt":453.40000000596,"correct":true,"confidence":-1},{"trial_n":10,"n_dots":4.05,"target":"left","response":"left","rt":509.69999999553,"correct":true,"confidence":-1},{"trial_n":11,"n_dots":3.85,"target":"left","response":"left","rt":282.59999999404,"correct":true,"confidence":-1},{"trial_n":12,"n_dots":3.85,"target":"right","response":"right","rt":499.89999999851,"correct":true,"confidence":-1},{"trial_n":13,"n_dots":3.75,"target":"right","response":"right","rt":564.30000000447,"correct":true,"confidence":-1},{"trial_n":14,"n_dots":3.75,"target":"left","response":"left","rt":417.89999999851,"correct":true,"confidence":-1},{"trial_n":15,"n_dots":3.65,"target":"left","response":"left","rt":502.69999999553,"correct":true,"confidence":-1},{"trial_n":16,"n_dots":3.65,"target":"right","response":"right","rt":441,"correct":true,"confidence":-1},{"trial_n":17,"n_dots":3.55,"target":"right","response":"left","rt":935.69999999553,"correct":false,"confidence":-1},{"trial_n":18,"n_dots":3.65,"target":"left","response":"left","rt":430.29999999702,"correct":true,"confidence":-1},{"trial_n":19,"n_dots":3.65,"target":"right","response":"right","rt":467.59999999404,"correct":true,"confidence":-1},{"trial_n":20,"n_dots":3.55,"target":"right","response":"right","rt":489.09999999404,"correct":true,"confidence":-1},{"trial_n":21,"n_dots":3.55,"target":"right","response":"right","rt":511.79999999702,"correct":true,"confidence":3},{"trial_n":22,"n_dots":3.45,"target":"left","response":"left","rt":642.60000000149,"correct":true,"confidence":3},{"trial_n":23,"n_dots":3.45,"target":"right","response":"right","rt":855.10000000149,"correct":true,"confidence":2},{"trial_n":24,"n_dots":3.35,"target":"right","response":"right","rt":532.10000000149,"correct":true,"confidence":4},{"trial_n":25,"n_dots":3.35,"target":"right","response":"right","rt":652.39999999851,"correct":true,"confidence":4},{"trial_n":26,"n_dots":3.25,"target":"left","response":"right","rt":972.79999999702,"correct":false,"confidence":1},{"trial_n":27,"n_dots":3.35,"target":"right","response":"right","rt":600.5,"correct":true,"confidence":5},{"trial_n":28,"n_dots":3.35,"target":"right","response":"right","rt":599.19999999553,"correct":true,"confidence":5},{"trial_n":29,"n_dots":3.25,"target":"right","response":"right","rt":420,"correct":true,"confidence":4},{"trial_n":30,"n_dots":3.25,"target":"right","response":"right","rt":1744.599999994,"correct":true,"confidence":1},{"trial_n":31,"n_dots":3.15,"target":"left","response":"left","rt":703.39999999851,"correct":true,"confidence":3},{"trial_n":32,"n_dots":3.15,"target":"right","response":"right","rt":336,"correct":true,"confidence":5},{"trial_n":33,"n_dots":3.05,"target":"right","response":"right","rt":616,"correct":true,"confidence":5},{"trial_n":34,"n_dots":3.05,"target":"right","response":"right","rt":699.29999999702,"correct":true,"confidence":3},{"trial_n":35,"n_dots":2.95,"target":"right","response":"right","rt":1103,"correct":true,"confidence":2},{"trial_n":36,"n_dots":2.95,"target":"left","response":"right","rt":1223.200000003,"correct":false,"confidence":2},{"trial_n":37,"n_dots":3.05,"target":"left","response":"left","rt":791.79999999702,"correct":true,"confidence":3},{"trial_n":38,"n_dots":3.05,"target":"right","response":"right","rt":1178.1999999955,"correct":true,"confidence":1},{"trial_n":39,"n_dots":2.95,"target":"left","response":"left","rt":681.10000000149,"correct":true,"confidence":1},{"trial_n":40,"n_dots":2.95,"target":"right","response":"right","rt":798.69999999553,"correct":true,"confidence":2},{"trial_n":41,"n_dots":2.85,"target":"left","response":"right","rt":839.10000000149,"correct":false,"confidence":3},{"trial_n":42,"n_dots":2.95,"target":"right","response":"right","rt":1224.1999999955,"correct":true,"confidence":2},{"trial_n":43,"n_dots":2.95,"target":"left","response":"right","rt":2739.1999999955,"correct":false,"confidence":1},{"trial_n":44,"n_dots":3.05,"target":"right","response":"right","rt":402.30000000447,"correct":true,"confidence":4},{"trial_n":45,"n_dots":3.05,"target":"right","response":"right","rt":1020.5,"correct":true,"confidence":2},{"trial_n":46,"n_dots":2.95,"target":"left","response":"left","rt":644.39999999851,"correct":true,"confidence":4},{"trial_n":47,"n_dots":2.95,"target":"right","response":"right","rt":1375.599999994,"correct":true,"confidence":1},{"trial_n":48,"n_dots":2.85,"target":"left","response":"left","rt":710.09999999404,"correct":true,"confidence":5},{"trial_n":49,"n_dots":2.85,"target":"right","response":"left","rt":768.79999999702,"correct":false,"confidence":4},{"trial_n":50,"n_dots":2.95,"target":"left","response":"left","rt":479.89999999851,"correct":true,"confidence":4},{"trial_n":51,"n_dots":2.95,"target":"right","response":"right","rt":539.79999999702,"correct":true,"confidence":3},{"trial_n":52,"n_dots":2.85,"target":"right","response":"left","rt":1097.8999999985,"correct":false,"confidence":1},{"trial_n":53,"n_dots":2.95,"target":"left","response":"left","rt":775.29999999702,"correct":true,"confidence":2},{"trial_n":54,"n_dots":2.95,"target":"right","response":"right","rt":408.69999999553,"correct":true,"confidence":5},{"trial_n":55,"n_dots":2.85,"target":"right","response":"left","rt":679,"correct":false,"confidence":4},{"trial_n":56,"n_dots":2.95,"target":"right","response":"right","rt":1022.099999994,"correct":true,"confidence":2},{"trial_n":57,"n_dots":2.95,"target":"right","response":"right","rt":273,"correct":true,"confidence":4},{"trial_n":58,"n_dots":2.85,"target":"right","response":"right","rt":676.29999999702,"correct":true,"confidence":3},{"trial_n":59,"n_dots":2.85,"target":"left","response":"right","rt":202.5,"correct":false,"confidence":5},{"trial_n":60,"n_dots":2.95,"target":"right","response":"right","rt":226.5,"correct":true,"confidence":5},{"trial_n":61,"n_dots":2.95,"target":"right","response":"right","rt":918.20000000298,"correct":true,"confidence":3},{"trial_n":62,"n_dots":2.85,"target":"left","response":"left","rt":477.69999999553,"correct":true,"confidence":5},{"trial_n":63,"n_dots":2.85,"target":"left","response":"left","rt":417.69999999553,"correct":true,"confidence":5},{"trial_n":64,"n_dots":2.75,"target":"left","response":"left","rt":703,"correct":true,"confidence":3},{"trial_n":65,"n_dots":2.75,"target":"right","response":"right","rt":1136.099999994,"correct":true,"confidence":1},{"trial_n":66,"n_dots":2.65,"target":"right","response":"left","rt":1203.8000000045,"correct":false,"confidence":2},{"trial_n":67,"n_dots":2.75,"target":"left","response":"left","rt":653.5,"correct":true,"confidence":4},{"trial_n":68,"n_dots":2.75,"target":"right","response":"left","rt":1092.6000000015,"correct":false,"confidence":1},{"trial_n":69,"n_dots":2.85,"target":"right","response":"left","rt":1061,"correct":false,"confidence":1},{"trial_n":70,"n_dots":2.95,"target":"left","response":"left","rt":1583.099999994,"correct":true,"confidence":2},{"trial_n":71,"n_dots":2.95,"target":"left","response":"left","rt":582.29999999702,"correct":true,"confidence":4},{"trial_n":72,"n_dots":2.85,"target":"right","response":"left","rt":645.39999999851,"correct":false,"confidence":3},{"trial_n":73,"n_dots":2.95,"target":"right","response":"right","rt":1512.700000003,"correct":true,"confidence":2},{"trial_n":74,"n_dots":2.95,"target":"left","response":"left","rt":504.30000000447,"correct":true,"confidence":4},{"trial_n":75,"n_dots":2.85,"target":"left","response":"left","rt":836.19999999553,"correct":true,"confidence":3},{"trial_n":76,"n_dots":2.85,"target":"right","response":"right","rt":1019.1000000015,"correct":true,"confidence":3},{"trial_n":77,"n_dots":2.75,"target":"left","response":"left","rt":297.29999999702,"correct":true,"confidence":5},{"trial_n":78,"n_dots":2.75,"target":"left","response":"left","rt":233.10000000149,"correct":true,"confidence":5},{"trial_n":79,"n_dots":2.65,"target":"left","response":"left","rt":686.79999999702,"correct":true,"confidence":3},{"trial_n":80,"n_dots":2.65,"target":"left","response":"left","rt":467.69999999553,"correct":true,"confidence":4},{"trial_n":81,"n_dots":2.55,"target":"right","response":"left","rt":866,"correct":false,"confidence":2},{"trial_n":82,"n_dots":2.65,"target":"right","response":"left","rt":427.5,"correct":false,"confidence":4},{"trial_n":83,"n_dots":2.75,"target":"right","response":"left","rt":532.39999999851,"correct":false,"confidence":3},{"trial_n":84,"n_dots":2.85,"target":"left","response":"left","rt":411.5,"correct":true,"confidence":5},{"trial_n":85,"n_dots":2.85,"target":"left","response":"left","rt":483.60000000149,"correct":true,"confidence":5},{"trial_n":86,"n_dots":2.75,"target":"left","response":"left","rt":673.39999999851,"correct":true,"confidence":5},{"trial_n":87,"n_dots":2.75,"target":"right","response":"left","rt":1124.3999999985,"correct":false,"confidence":3},{"trial_n":88,"n_dots":2.85,"target":"left","response":"left","rt":266.5,"correct":true,"confidence":5},{"trial_n":89,"n_dots":2.85,"target":"right","response":"right","rt":559,"correct":true,"confidence":5},{"trial_n":90,"n_dots":2.75,"target":"right","response":"left","rt":266.19999999553,"correct":false,"confidence":5},{"trial_n":91,"n_dots":2.85,"target":"left","response":"left","rt":297.30000000447,"correct":true,"confidence":5},{"trial_n":92,"n_dots":2.85,"target":"left","response":"left","rt":584.70000000298,"correct":true,"confidence":4},{"trial_n":93,"n_dots":2.75,"target":"right","response":"left","rt":562.39999999851,"correct":false,"confidence":3},{"trial_n":94,"n_dots":2.85,"target":"left","response":"left","rt":491.60000000149,"correct":true,"confidence":3},{"trial_n":95,"n_dots":2.85,"target":"left","response":"left","rt":426.39999999851,"correct":true,"confidence":4},{"trial_n":96,"n_dots":2.75,"target":"left","response":"left","rt":184.69999999553,"correct":true,"confidence":5},{"trial_n":97,"n_dots":2.75,"target":"left","response":"left","rt":257.79999999702,"correct":true,"confidence":5},{"trial_n":98,"n_dots":2.65,"target":"left","response":"left","rt":379.19999999553,"correct":true,"confidence":5},{"trial_n":99,"n_dots":2.65,"target":"left","response":"left","rt":467.09999999404,"correct":true,"confidence":4},{"trial_n":100,"n_dots":2.55,"target":"right","response":"left","rt":893.5,"correct":false,"confidence":4},{"trial_n":101,"n_dots":2.65,"target":"right","response":"right","rt":876.39999999851,"correct":true,"confidence":1},{"trial_n":102,"n_dots":2.65,"target":"left","response":"left","rt":544.5,"correct":true,"confidence":2},{"trial_n":103,"n_dots":2.55,"target":"left","response":"left","rt":249.30000000447,"correct":true,"confidence":4},{"trial_n":104,"n_dots":2.55,"target":"left","response":"left","rt":540.69999999553,"correct":true,"confidence":3},{"trial_n":105,"n_dots":2.45,"target":"right","response":"right","rt":1090.099999994,"correct":true,"confidence":1},{"trial_n":106,"n_dots":2.45,"target":"right","response":"left","rt":469.59999999404,"correct":false,"confidence":4},{"trial_n":107,"n_dots":2.55,"target":"left","response":"right","rt":1093.299999997,"correct":false,"confidence":1},{"trial_n":108,"n_dots":2.65,"target":"left","response":"left","rt":794,"correct":true,"confidence":1},{"trial_n":109,"n_dots":2.65,"target":"right","response":"left","rt":1067.700000003,"correct":false,"confidence":1},{"trial_n":110,"n_dots":2.75,"target":"left","response":"right","rt":1288.8000000045,"correct":false,"confidence":2},{"trial_n":111,"n_dots":2.85,"target":"left","response":"left","rt":1229.3000000045,"correct":true,"confidence":1},{"trial_n":112,"n_dots":2.85,"target":"left","response":"left","rt":403.19999999553,"correct":true,"confidence":3},{"trial_n":113,"n_dots":2.75,"target":"left","response":"left","rt":550.69999999553,"correct":true,"confidence":4},{"trial_n":114,"n_dots":2.75,"target":"right","response":"right","rt":202.80000000447,"correct":true,"confidence":5},{"trial_n":115,"n_dots":2.65,"target":"right","response":"right","rt":762.79999999702,"correct":true,"confidence":1},{"trial_n":116,"n_dots":2.65,"target":"left","response":"left","rt":535.69999999553,"correct":true,"confidence":3},{"trial_n":117,"n_dots":2.55,"target":"left","response":"right","rt":314.89999999851,"correct":false,"confidence":4},{"trial_n":118,"n_dots":2.65,"target":"left","response":"left","rt":706.19999999553,"correct":true,"confidence":4},{"trial_n":119,"n_dots":2.65,"target":"right","response":"right","rt":595.80000000447,"correct":true,"confidence":4},{"trial_n":120,"n_dots":2.55,"target":"right","response":"right","rt":344.40000000596,"correct":true,"confidence":5}]