[{"trial_n":1,"min":25,"max":230,"target":"present","response":"present","rt":6718.700000003,"correct":true,"confidence":-1},{"trial_n":2,"min":25,"max":230,"target":"present","response":"absent","rt":2078.799999997,"correct":false,"confidence":-1},{"trial_n":3,"min":9,"max":246,"target":"absent","response":"absent","rt":896,"correct":true,"confidence":-1},{"trial_n":4,"min":9,"max":246,"target":"absent","response":"absent","rt":688.29999999702,"correct":true,"confidence":-1},{"trial_n":5,"min":25,"max":230,"target":"present","response":"present","rt":1669.5,"correct":true,"confidence":-1},{"trial_n":6,"min":25,"max":230,"target":"absent","response":"absent","rt":3886.599999994,"correct":true,"confidence":-1},{"trial_n":7,"min":41,"max":214,"target":"present","response":"present","rt":373,"correct":true,"confidence":-1},{"trial_n":8,"min":41,"max":214,"target":"present","response":"absent","rt":350.19999999553,"correct":false,"confidence":-1},{"trial_n":9,"min":25,"max":230,"target":"absent","response":"present","rt":433,"correct":false,"confidence":-1},{"trial_n":10,"min":9,"max":246,"target":"present","response":"present","rt":714.80000000447,"correct":true,"confidence":-1},{"trial_n":11,"min":9,"max":246,"target":"present","response":"present","rt":276.89999999851,"correct":true,"confidence":-1},{"trial_n":12,"min":17,"max":238,"target":"present","response":"present","rt":158.80000000447,"correct":true,"confidence":-1},{"trial_n":13,"min":17,"max":238,"target":"present","response":"present","rt":657.79999999702,"correct":true,"confidence":-1},{"trial_n":14,"min":25,"max":230,"target":"present","response":"present","rt":308.79999999702,"correct":true,"confidence":-1},{"trial_n":15,"min":25,"max":230,"target":"present","response":"present","rt":257.19999999553,"correct":true,"confidence":-1},{"trial_n":16,"min":33,"max":222,"target":"present","response":"present","rt":183.39999999851,"correct":true,"confidence":-1},{"trial_n":17,"min":33,"max":222,"target":"present","response":"present","rt":490.59999999404,"correct":true,"confidence":-1},{"trial_n":18,"min":41,"max":214,"target":"absent","response":"absent","rt":421.39999999851,"correct":true,"confidence":-1},{"trial_n":19,"min":41,"max":214,"target":"present","response":"present","rt":307.5,"correct":true,"confidence":-1},{"trial_n":20,"min":49,"max":206,"target":"present","response":"absent","rt":481.40000000596,"correct":false,"confidence":-1},{"trial_n":21,"min":45,"max":210,"target":"present","response":"present","rt":1093.099999994,"correct":true,"confidence":5},{"trial_n":22,"min":45,"max":210,"target":"absent","response":"absent","rt":913.29999999702,"correct":true,"confidence":5},{"trial_n":23,"min":49,"max":206,"target":"absent","response":"absent","rt":484.90000000596,"correct":true,"confidence":5},{"trial_n":24,"min":49,"max":206,"target":"present","response":"present","rt":370,"correct":true,"confidence":5},{"trial_n":25,"min":53,"max":202,"target":"absent","response":"absent","rt":325.10000000149,"correct":true,"confidence":5},{"trial_n":26,"min":53,"max":202,"target":"absent","response":"absent","rt":448.89999999851,"correct":true,"confidence":5},{"trial_n":27,"min":57,"max":198,"target":"present","response":"present","rt":1042.900000006,"correct":true,"confidence":5},{"trial_n":28,"min":57,"max":198,"target":"present","response":"present","rt":674.69999999553,"correct":true,"confidence":5},{"trial_n":29,"min":61,"max":194,"target":"absent","response":"absent","rt":630.69999999553,"correct":true,"confidence":5},{"trial_n":30,"min":61,"max":194,"target":"present","response":"present","rt":648.79999999702,"correct":true,"confidence":5},{"trial_n":31,"min":63,"max":192,"target":"absent","response":"absent","rt":761.60000000149,"correct":true,"confidence":5},{"trial_n":32,"min":63,"max":192,"target":"present","response":"present","rt":550.39999999851,"correct":true,"confidence":5},{"trial_n":33,"min":65,"max":190,"target":"absent","response":"absent","rt":564.40000000596,"correct":true,"confidence":5},{"trial_n":34,"min":65,"max":190,"target":"present","response":"present","rt":714.10000000149,"correct":true,"confidence":5},{"trial_n":35,"min":67,"max":188,"target":"present","response":"absent","rt":634.69999999553,"correct":false,"confidence":5},{"trial_n":36,"min":65,"max":190,"target":"present","response":"present","rt":551.10000000149,"correct":true,"confidence":5},{"trial_n":37,"min":65,"max":190,"target":"absent","response":"absent","rt":659.19999999553,"correct":true,"confidence":3},{"trial_n":38,"min":67,"max":188,"target":"absent","response":"present","rt":2732.099999994,"correct":false,"confidence":3},{"trial_n":39,"min":65,"max":190,"target":"absent","response":"present","rt":1192.299999997,"correct":false,"confidence":4},{"trial_n":40,"min":63,"max":192,"target":"absent","response":"present","rt":1125.6999999955,"correct":false,"confidence":4},{"trial_n":41,"min":62,"max":193,"target":"present","response":"present","rt":696.70000000298,"correct":true,"confidence":5},{"trial_n":42,"min":62,"max":193,"target":"absent","response":"present","rt":947.29999999702,"correct":false,"confidence":4},{"trial_n":43,"min":61,"max":194,"target":"present","response":"absent","rt":789.09999999404,"correct":false,"confidence":4},{"trial_n":44,"min":60,"max":195,"target":"present","response":"present","rt":770.19999999553,"correct":true,"confidence":4},{"trial_n":45,"min":60,"max":195,"target":"absent","response":"absent","rt":564.69999999553,"correct":true,"confidence":5},{"trial_n":46,"min":61,"max":194,"target":"absent","response":"absent","rt":761.89999999851,"correct":true,"confidence":5},{"trial_n":47,"min":61,"max":194,"target":"absent","response":"present","rt":832.69999999553,"correct":false,"confidence":4},{"trial_n":48,"min":60,"max":195,"target":"absent","response":"absent","rt":1303.099999994,"correct":true,"confidence":5},{"trial_n":49,"min":60,"max":195,"target":"present","response":"present","rt":725.5,"correct":true,"confidence":5},{"trial_n":50,"min":61,"max":194,"target":"present","response":"present","rt":688.89999999851,"correct":true,"confidence":1},{"trial_n":51,"min":61,"max":194,"target":"absent","response":"present","rt":1868.299999997,"correct":false,"confidence":2},{"trial_n":52,"min":60,"max":195,"target":"absent","response":"present","rt":799.60000000149,"correct":false,"confidence":3},{"trial_n":53,"min":59,"max":196,"target":"present","response":"present","rt":670,"correct":true,"confidence":5},{"trial_n":54,"min":59,"max":196,"target":"absent","response":"present","rt":773.59999999404,"correct":false,"confidence":4},{"trial_n":55,"min":58,"max":197,"target":"absent","response":"absent","rt":761.19999999553,"correct":true,"confidence":5},{"trial_n":56,"min":58,"max":197,"target":"present","response":"present","rt":608.19999999553,"correct":true,"confidence":5},{"trial_n":57,"min":59,"max":196,"target":"absent","response":"present","rt":2741.700000003,"correct":false,"confidence":4},{"trial_n":58,"min":58,"max":197,"target":"present","response":"present","rt":1694.1000000015,"correct":true,"confidence":3},{"trial_n":59,"min":58,"max":197,"target":"absent","response":"present","rt":895.09999999404,"correct":false,"confidence":3},{"trial_n":60,"min":57,"max":198,"target":"present","response":"present","rt":541.09999999404,"correct":true,"confidence":4},{"trial_n":61,"min":57,"max":198,"target":"absent","response":"present","rt":711.80000000447,"correct":false,"confidence":2},{"trial_n":62,"min":56,"max":199,"target":"absent","response":"present","rt":660.79999999702,"correct":false,"confidence":3},{"trial_n":63,"min":55,"max":200,"target":"present","response":"present","rt":775,"correct":true,"confidence":4},{"trial_n":64,"min":55,"max":200,"target":"present","response":"present","rt":790.60000000149,"correct":true,"confidence":4},{"trial_n":65,"min":56,"max":199,"target":"absent","response":"absent","rt":732.39999999851,"correct":true,"confidence":4},{"trial_n":66,"min":56,"max":199,"target":"absent","response":"absent","rt":2400.3000000045,"correct":true,"confidence":2},{"trial_n":67,"min":57,"max":198,"target":"absent","response":"present","rt":1077.1999999955,"correct":false,"confidence":3},{"trial_n":68,"min":56,"max":199,"target":"present","response":"present","rt":721.89999999851,"correct":true,"confidence":5},{"trial_n":69,"min":56,"max":199,"target":"absent","response":"absent","rt":1131.6000000015,"correct":true,"confidence":4},{"trial_n":70,"min":57,"max":198,"target":"absent","response":"present","rt":773.89999999851,"correct":false,"confidence":4},{"trial_n":71,"min":41,"max":214,"target":"present","response":"present","rt":1623.799999997,"correct":true,"confidence":-1},{"trial_n":72,"min":41,"max":214,"target":"present","response":"present","rt":351.69999999553,"correct":true,"confidence":-1},{"trial_n":73,"min":57,"max":198,"target":"absent","response":"absent","rt":602.5,"correct":true,"confidence":-1},{"trial_n":74,"min":57,"max":198,"target":"absent","response":"absent","rt":493.5,"correct":true,"confidence":-1},{"trial_n":75,"min":73,"max":182,"target":"present","response":"absent","rt":1403.3999999985,"correct":false,"confidence":-1},{"trial_n":76,"min":57,"max":198,"target":"present","response":"present","rt":349.90000000596,"correct":true,"confidence":-1},{"trial_n":77,"min":57,"max":198,"target":"present","response":"present","rt":379.39999999851,"correct":true,"confidence":-1},{"trial_n":78,"min":73,"max":182,"target":"absent","response":"absent","rt":391.20000000298,"correct":true,"confidence":-1},{"trial_n":79,"min":73,"max":182,"target":"absent","response":"absent","rt":610.20000000298,"correct":true,"confidence":-1},{"trial_n":80,"min":89,"max":166,"target":"present","response":"absent","rt":993,"correct":false,"confidence":-1},{"trial_n":81,"min":81,"max":174,"target":"present","response":"present","rt":520.19999999553,"correct":true,"confidence":-1},{"trial_n":82,"min":81,"max":174,"target":"absent","response":"absent","rt":653.19999999553,"correct":true,"confidence":-1},{"trial_n":83,"min":89,"max":166,"target":"absent","response":"present","rt":742,"correct":false,"confidence":-1},{"trial_n":84,"min":81,"max":174,"target":"absent","response":"absent","rt":588.5,"correct":true,"confidence":-1},{"trial_n":85,"min":81,"max":174,"target":"present","response":"present","rt":658.79999999702,"correct":true,"confidence":-1},{"trial_n":86,"min":89,"max":166,"target":"absent","response":"absent","rt":681.20000000298,"correct":true,"confidence":-1},{"trial_n":87,"min":89,"max":166,"target":"absent","response":"absent","rt":381.20000000298,"correct":true,"confidence":-1},{"trial_n":88,"min":97,"max":158,"target":"absent","response":"absent","rt":460.19999999553,"correct":true,"confidence":-1},{"trial_n":89,"min":97,"max":158,"target":"present","response":"absent","rt":842.39999999851,"correct":false,"confidence":-1},{"trial_n":90,"min":89,"max":166,"target":"absent","response":"absent","rt":448.29999999702,"correct":true,"confidence":-1},{"trial_n":91,"min":89,"max":166,"target":"present","response":"present","rt":685.10000000149,"correct":true,"confidence":3},{"trial_n":92,"min":93,"max":162,"target":"present","response":"present","rt":1650.1999999955,"correct":true,"confidence":1},{"trial_n":93,"min":93,"max":162,"target":"absent","response":"absent","rt":1057.6000000015,"correct":true,"confidence":2},{"trial_n":94,"min":97,"max":158,"target":"present","response":"absent","rt":1215.5,"correct":false,"confidence":2},{"trial_n":95,"min":93,"max":162,"target":"present","response":"present","rt":804.90000000596,"correct":true,"confidence":1},{"trial_n":96,"min":93,"max":162,"target":"absent","response":"absent","rt":1673,"correct":true,"confidence":2},{"trial_n":97,"min":97,"max":158,"target":"absent","response":"absent","rt":683.59999999404,"correct":true,"confidence":3},{"trial_n":98,"min":97,"max":158,"target":"absent","response":"absent","rt":646.79999999702,"correct":true,"confidence":2},{"trial_n":99,"min":101,"max":154,"target":"present","response":"absent","rt":1630,"correct":false,"confidence":2},{"trial_n":100,"min":97,"max":158,"target":"present","response":"present","rt":906.29999999702,"correct":true,"confidence":1},{"trial_n":101,"min":97,"max":158,"target":"present","response":"present","rt":3375.400000006,"correct":true,"confidence":1},{"trial_n":102,"min":99,"max":156,"target":"present","response":"present","rt":1072.6999999955,"correct":true,"confidence":1},{"trial_n":103,"min":99,"max":156,"target":"present","response":"absent","rt":3606.6999999955,"correct":false,"confidence":2},{"trial_n":104,"min":97,"max":158,"target":"present","response":"absent","rt":549.69999999553,"correct":false,"confidence":3},{"trial_n":105,"min":95,"max":160,"target":"present","response":"absent","rt":5122.5,"correct":false,"confidence":1},{"trial_n":106,"min":93,"max":162,"target":"present","response":"present","rt":1023.599999994,"correct":true,"confidence":1},{"trial_n":107,"min":93,"max":162,"target":"absent","response":"absent","rt":1517.700000003,"correct":true,"confidence":2},{"trial_n":108,"min":95,"max":160,"target":"present","response":"absent","rt":645.89999999851,"correct":false,"confidence":3},{"trial_n":109,"min":93,"max":162,"target":"absent","response":"absent","rt":868.59999999404,"correct":true,"confidence":3},{"trial_n":110,"min":93,"max":162,"target":"present","response":"present","rt":590.70000000298,"correct":true,"confidence":1},{"trial_n":111,"min":94,"max":161,"target":"absent","response":"absent","rt":816.80000000447,"correct":true,"confidence":4},{"trial_n":112,"min":94,"max":161,"target":"present","response":"absent","rt":985.39999999851,"correct":false,"confidence":3},{"trial_n":113,"min":93,"max":162,"target":"present","response":"present","rt":662,"correct":true,"confidence":1},{"trial_n":114,"min":93,"max":162,"target":"absent","response":"absent","rt":2291.700000003,"correct":true,"confidence":3},{"trial_n":115,"min":94,"max":161,"target":"present","response":"absent","rt":966.60000000149,"correct":false,"confidence":3},{"trial_n":116,"min":93,"max":162,"target":"present","response":"present","rt":1344.700000003,"correct":true,"confidence":1},{"trial_n":117,"min":93,"max":162,"target":"present","response":"absent","rt":1552,"correct":false,"confidence":3},{"trial_n":118,"min":92,"max":163,"target":"absent","response":"present","rt":1080,"correct":false,"confidence":4},{"trial_n":119,"min":91,"max":164,"target":"present","response":"present","rt":2946.8999999985,"correct":true,"confidence":1},{"trial_n":120,"min":91,"max":164,"target":"present","response":"present","rt":3516.3999999985,"correct":true,"confidence":1},{"trial_n":121,"min":92,"max":163,"target":"absent","response":"absent","rt":717.59999999404,"correct":true,"confidence":3},{"trial_n":122,"min":92,"max":163,"target":"absent","response":"absent","rt":1804.799999997,"correct":true,"confidence":4},{"trial_n":123,"min":93,"max":162,"target":"absent","response":"absent","rt":943.09999999404,"correct":true,"confidence":4},{"trial_n":124,"min":93,"max":162,"target":"absent","response":"present","rt":1017.6999999955,"correct":false,"confidence":1},{"trial_n":125,"min":92,"max":163,"target":"present","response":"absent","rt":695.69999999553,"correct":false,"confidence":3},{"trial_n":126,"min":91,"max":164,"target":"absent","response":"absent","rt":1140.599999994,"correct":true,"confidence":3},{"trial_n":127,"min":91,"max":164,"target":"present","response":"present","rt":791.20000000298,"correct":true,"confidence":1},{"trial_n":128,"min":92,"max":163,"target":"present","response":"present","rt":1124.6999999955,"correct":true,"confidence":2},{"trial_n":129,"min":92,"max":163,"target":"absent","response":"absent","rt":1197.599999994,"correct":true,"confidence":1},{"trial_n":130,"min":93,"max":162,"target":"absent","response":"absent","rt":715.5,"correct":true,"confidence":1},{"trial_n":131,"min":93,"max":162,"target":"absent","response":"absent","rt":584.29999999702,"correct":true,"confidence":4},{"trial_n":132,"min":94,"max":161,"target":"present","response":"present","rt":1344.299999997,"correct":true,"confidence":1},{"trial_n":133,"min":94,"max":161,"target":"present","response":"present","rt":463.5,"correct":true,"confidence":3},{"trial_n":134,"min":95,"max":160,"target":"present","response":"absent","rt":1346.299999997,"correct":false,"confidence":1},{"trial_n":135,"min":94,"max":161,"target":"absent","response":"present","rt":871.90000000596,"correct":false,"confidence":1},{"trial_n":136,"min":93,"max":162,"target":"absent","response":"absent","rt":916.60000000149,"correct":true,"confidence":3},{"trial_n":137,"min":93,"max":162,"target":"absent","response":"absent","rt":1794,"correct":true,"confidence":3},{"trial_n":138,"min":94,"max":161,"target":"absent","response":"absent","rt":727.29999999702,"correct":true,"confidence":4},{"trial_n":139,"min":94,"max":161,"target":"absent","response":"absent","rt":962.19999999553,"correct":true,"confidence":3},{"trial_n":140,"min":95,"max":160,"target":"absent","response":"present","rt":988.19999999553,"correct":false,"confidence":1}]