[{"trial_n":1,"span":8,"encoder":"17361335","distractor":"17364335","target":"present","response":"present","rt":"7901","correct":true,"confidence":-1},{"trial_n":2,"span":8,"encoder":"52809458","distractor":"52809468","target":"present","response":"present","rt":"9218","correct":true,"confidence":-1},{"trial_n":3,"span":10,"encoder":"4075477056","distractor":"8075477056","target":"absent","response":"present","rt":"3085","correct":false,"confidence":-1},{"trial_n":4,"span":8,"encoder":"03639025","distractor":"07639025","target":"absent","response":"present","rt":"2724","correct":false,"confidence":-1},{"trial_n":5,"span":6,"encoder":"800852","distractor":"800352","target":"present","response":"present","rt":"1839","correct":true,"confidence":-1},{"trial_n":6,"span":6,"encoder":"782423","distractor":"782493","target":"present","response":"present","rt":"2732","correct":true,"confidence":-1},{"trial_n":7,"span":8,"encoder":"69584470","distractor":"59584470","target":"absent","response":"absent","rt":"5618","correct":true,"confidence":-1},{"trial_n":8,"span":8,"encoder":"87634494","distractor":"87634454","target":"present","response":"present","rt":"2715","correct":true,"confidence":-1},{"trial_n":9,"span":10,"encoder":"0302349252","distractor":"0302549252","target":"absent","response":"present","rt":"5144","correct":false,"confidence":-1},{"trial_n":10,"span":8,"encoder":"00445315","distractor":"00445385","target":"present","response":"present","rt":"2933","correct":true,"confidence":-1},{"trial_n":11,"span":8,"encoder":"19075624","distractor":"12075624","target":"present","response":"present","rt":"3193","correct":true,"confidence":-1},{"trial_n":12,"span":9,"encoder":"227718844","distractor":"227718846","target":"present","response":"present","rt":"2278","correct":true,"confidence":-1},{"trial_n":13,"span":9,"encoder":"028637296","distractor":"028637276","target":"present","response":"absent","rt":"6817","correct":false,"confidence":-1},{"trial_n":14,"span":8,"encoder":"49964410","distractor":"49965410","target":"absent","response":"absent","rt":"3499","correct":true,"confidence":-1},{"trial_n":15,"span":8,"encoder":"49977773","distractor":"49977775","target":"present","response":"present","rt":"2100","correct":true,"confidence":-1},{"trial_n":16,"span":9,"encoder":"567660091","distractor":"267660091","target":"present","response":"present","rt":"1911","correct":true,"confidence":-1},{"trial_n":17,"span":9,"encoder":"195522065","distractor":"195592065","target":"absent","response":"absent","rt":"2072","correct":true,"confidence":-1},{"trial_n":18,"span":10,"encoder":"5354341284","distractor":"5354346284","target":"absent","response":"absent","rt":"4468","correct":true,"confidence":-1},{"trial_n":19,"span":10,"encoder":"9083102754","distractor":"9083102724","target":"absent","response":"absent","rt":"3276","correct":true,"confidence":-1},{"trial_n":20,"span":11,"encoder":"34170190925","distractor":"34170190928","target":"absent","response":"absent","rt":"2108","correct":true,"confidence":-1},{"trial_n":21,"span":11,"encoder":"34251546453","distractor":"36251546453","target":"absent","response":"present","rt":"4627","correct":false,"confidence":3},{"trial_n":22,"span":10,"encoder":"0094113925","distractor":"0094013925","target":"absent","response":"absent","rt":"7171","correct":true,"confidence":4},{"trial_n":23,"span":10,"encoder":"8237563803","distractor":"8277563803","target":"absent","response":"present","rt":"4573","correct":false,"confidence":3},{"trial_n":24,"span":9,"encoder":"428902969","distractor":"428602969","target":"absent","response":"present","rt":"1898","correct":false,"confidence":3},{"trial_n":25,"span":8,"encoder":"23968264","distractor":"23968964","target":"present","response":"present","rt":"4160","correct":true,"confidence":4},{"trial_n":26,"span":8,"encoder":"92490410","distractor":"92490910","target":"absent","response":"absent","rt":"8747","correct":true,"confidence":2},{"trial_n":27,"span":9,"encoder":"755648978","distractor":"755648578","target":"absent","response":"absent","rt":"5550","correct":true,"confidence":4},{"trial_n":28,"span":9,"encoder":"954613666","distractor":"954623666","target":"present","response":"present","rt":"3442","correct":true,"confidence":2},{"trial_n":29,"span":10,"encoder":"6342682991","distractor":"6342682951","target":"absent","response":"absent","rt":"2169","correct":true,"confidence":5},{"trial_n":30,"span":10,"encoder":"8989029718","distractor":"8989021718","target":"present","response":"present","rt":"3057","correct":true,"confidence":3},{"trial_n":31,"span":11,"encoder":"80787364625","distractor":"80781364625","target":"absent","response":"present","rt":"3579","correct":false,"confidence":4},{"trial_n":32,"span":10,"encoder":"2013777949","distractor":"2813777949","target":"present","response":"present","rt":"3294.9999999999","correct":true,"confidence":4},{"trial_n":33,"span":10,"encoder":"9352150904","distractor":"9352150104","target":"present","response":"present","rt":"4639","correct":true,"confidence":3},{"trial_n":34,"span":11,"encoder":"36263650389","distractor":"36260650389","target":"present","response":"present","rt":"5909.9999999999","correct":true,"confidence":4},{"trial_n":35,"span":11,"encoder":"05903896499","distractor":"05903890499","target":"absent","response":"present","rt":"4234","correct":false,"confidence":3},{"trial_n":36,"span":10,"encoder":"7602995398","distractor":"8602995398","target":"present","response":"present","rt":"2411","correct":true,"confidence":4},{"trial_n":37,"span":10,"encoder":"1748050908","distractor":"1748010908","target":"absent","response":"absent","rt":"3156.0000000001","correct":true,"confidence":4},{"trial_n":38,"span":11,"encoder":"36934458592","distractor":"36924458592","target":"absent","response":"present","rt":"2433","correct":false,"confidence":2},{"trial_n":39,"span":10,"encoder":"0992238641","distractor":"0992438641","target":"present","response":"present","rt":"4230","correct":true,"confidence":2},{"trial_n":40,"span":10,"encoder":"0823984426","distractor":"0823984626","target":"absent","response":"absent","rt":"2279","correct":true,"confidence":4},{"trial_n":41,"span":11,"encoder":"24355607333","distractor":"24335607333","target":"absent","response":"present","rt":"3044.9999999999","correct":false,"confidence":4},{"trial_n":42,"span":10,"encoder":"4542841880","distractor":"4542841885","target":"absent","response":"absent","rt":"2261","correct":true,"confidence":4},{"trial_n":43,"span":10,"encoder":"0865378584","distractor":"3865378584","target":"present","response":"present","rt":"3536","correct":true,"confidence":3},{"trial_n":44,"span":11,"encoder":"87325943462","distractor":"84325943462","target":"present","response":"present","rt":"2132","correct":true,"confidence":4},{"trial_n":45,"span":11,"encoder":"99916342786","distractor":"99956342786","target":"present","response":"present","rt":"4502","correct":true,"confidence":3},{"trial_n":46,"span":12,"encoder":"361653873468","distractor":"364653873468","target":"present","response":"present","rt":"12051","correct":true,"confidence":2},{"trial_n":47,"span":12,"encoder":"304805552475","distractor":"309805552475","target":"present","response":"present","rt":"1969","correct":true,"confidence":4},{"trial_n":48,"span":13,"encoder":"3364431091816","distractor":"3364631091816","target":"present","response":"present","rt":"6128","correct":true,"confidence":3},{"trial_n":49,"span":13,"encoder":"4223166197749","distractor":"4233166197749","target":"absent","response":"present","rt":"2249","correct":false,"confidence":3},{"trial_n":50,"span":12,"encoder":"390046014902","distractor":"390041014902","target":"present","response":"present","rt":"4289.0000000001","correct":true,"confidence":3},{"trial_n":51,"span":12,"encoder":"253951400120","distractor":"253951400130","target":"present","response":"present","rt":"3676","correct":true,"confidence":4},{"trial_n":52,"span":13,"encoder":"4348182473788","distractor":"4348182473688","target":"absent","response":"absent","rt":"5547","correct":true,"confidence":4},{"trial_n":53,"span":13,"encoder":"3455289861753","distractor":"3455289861756","target":"absent","response":"absent","rt":"2185","correct":true,"confidence":5},{"trial_n":54,"span":14,"encoder":"28995647733195","distractor":"28995647733105","target":"absent","response":"present","rt":"2513","correct":false,"confidence":3},{"trial_n":55,"span":13,"encoder":"1369035226077","distractor":"1369085226077","target":"present","response":"present","rt":"2384","correct":true,"confidence":3},{"trial_n":56,"span":13,"encoder":"3165133122408","distractor":"3165133122407","target":"present","response":"present","rt":"3236","correct":true,"confidence":4},{"trial_n":57,"span":14,"encoder":"19477547527362","distractor":"19473547527362","target":"absent","response":"present","rt":"6792","correct":false,"confidence":2},{"trial_n":58,"span":13,"encoder":"7713725381684","distractor":"7713925381684","target":"absent","response":"present","rt":"3090","correct":false,"confidence":3},{"trial_n":59,"span":12,"encoder":"184343140250","distractor":"184343440250","target":"absent","response":"present","rt":"3113","correct":false,"confidence":3},{"trial_n":60,"span":11,"encoder":"74619273285","distractor":"74619273286","target":"present","response":"present","rt":"3875","correct":true,"confidence":2},{"trial_n":61,"span":11,"encoder":"98074647515","distractor":"58074647515","target":"present","response":"absent","rt":"11314","correct":false,"confidence":1},{"trial_n":62,"span":10,"encoder":"5030403435","distractor":"5030903435","target":"present","response":"present","rt":"2695","correct":true,"confidence":4},{"trial_n":63,"span":10,"encoder":"0811683205","distractor":"0811683705","target":"present","response":"present","rt":"5162.0000000001","correct":true,"confidence":3},{"trial_n":64,"span":11,"encoder":"81914379090","distractor":"81914879090","target":"present","response":"present","rt":"2124","correct":true,"confidence":3},{"trial_n":65,"span":11,"encoder":"06828479040","distractor":"06823479040","target":"absent","response":"present","rt":"2682","correct":false,"confidence":3},{"trial_n":66,"span":10,"encoder":"6148700196","distractor":"6148700194","target":"absent","response":"absent","rt":"1586","correct":true,"confidence":5},{"trial_n":67,"span":10,"encoder":"7004528028","distractor":"3004528028","target":"absent","response":"present","rt":"2844","correct":false,"confidence":3},{"trial_n":68,"span":9,"encoder":"774869071","distractor":"774889071","target":"present","response":"absent","rt":"6892","correct":false,"confidence":3},{"trial_n":69,"span":8,"encoder":"17696708","distractor":"17696704","target":"absent","response":"absent","rt":"6105","correct":true,"confidence":5},{"trial_n":70,"span":8,"encoder":"57813373","distractor":"57814373","target":"present","response":"present","rt":"1909","correct":true,"confidence":4},{"trial_n":71,"span":8,"encoder":"06213730","distractor":"00213730","target":"present","response":"present","rt":"3851","correct":true,"confidence":-1},{"trial_n":72,"span":8,"encoder":"66185748","distractor":"66185749","target":"present","response":"present","rt":"3167.0000000001","correct":true,"confidence":-1},{"trial_n":73,"span":9,"encoder":"566819818","distractor":"566819118","target":"absent","response":"absent","rt":"3105.9999999999","correct":true,"confidence":-1},{"trial_n":74,"span":9,"encoder":"475631112","distractor":"425631112","target":"absent","response":"present","rt":"6449.9999999999","correct":false,"confidence":-1},{"trial_n":75,"span":8,"encoder":"39528187","distractor":"35528187","target":"present","response":"present","rt":"6418","correct":true,"confidence":-1},{"trial_n":76,"span":8,"encoder":"36875778","distractor":"66875778","target":"absent","response":"absent","rt":"3601","correct":true,"confidence":-1},{"trial_n":77,"span":9,"encoder":"426493921","distractor":"429493921","target":"present","response":"present","rt":"8102.0000000001","correct":true,"confidence":-1},{"trial_n":78,"span":9,"encoder":"064422487","distractor":"068422487","target":"absent","response":"absent","rt":"4645","correct":true,"confidence":-1},{"trial_n":79,"span":10,"encoder":"2949893675","distractor":"2749893675","target":"absent","response":"absent","rt":"6913","correct":true,"confidence":-1},{"trial_n":80,"span":10,"encoder":"0660437530","distractor":"0660432530","target":"absent","response":"absent","rt":"3052.9999999999","correct":true,"confidence":-1},{"trial_n":81,"span":11,"encoder":"96188815080","distractor":"96186815080","target":"present","response":"present","rt":"4390.9999999999","correct":true,"confidence":-1},{"trial_n":82,"span":11,"encoder":"99382096052","distractor":"99382036052","target":"absent","response":"absent","rt":"3042.0000000001","correct":true,"confidence":-1},{"trial_n":83,"span":12,"encoder":"944618591494","distractor":"944618591194","target":"present","response":"present","rt":"1760","correct":true,"confidence":-1},{"trial_n":84,"span":12,"encoder":"662554344431","distractor":"662554349431","target":"absent","response":"absent","rt":"1802.0000000001","correct":true,"confidence":-1},{"trial_n":85,"span":13,"encoder":"4149907287665","distractor":"4149107287665","target":"present","response":"absent","rt":"4818","correct":false,"confidence":-1},{"trial_n":86,"span":12,"encoder":"692651349463","distractor":"692621349463","target":"absent","response":"absent","rt":"7447.0000000001","correct":true,"confidence":-1},{"trial_n":87,"span":12,"encoder":"014488039156","distractor":"014488039150","target":"absent","response":"absent","rt":"1987","correct":true,"confidence":-1},{"trial_n":88,"span":13,"encoder":"5185239614649","distractor":"5485239614649","target":"absent","response":"absent","rt":"4945","correct":true,"confidence":-1},{"trial_n":89,"span":13,"encoder":"0566098417789","distractor":"0596098417789","target":"present","response":"absent","rt":"4986","correct":false,"confidence":-1},{"trial_n":90,"span":12,"encoder":"977341247171","distractor":"978341247171","target":"present","response":"absent","rt":"6891","correct":false,"confidence":-1},{"trial_n":91,"span":11,"encoder":"22646850393","distractor":"22646850396","target":"present","response":"present","rt":"1766","correct":true,"confidence":4},{"trial_n":92,"span":11,"encoder":"53105480140","distractor":"53195480140","target":"absent","response":"present","rt":"9802","correct":false,"confidence":2},{"trial_n":93,"span":10,"encoder":"7740063080","distractor":"7740063082","target":"present","response":"present","rt":"1423","correct":true,"confidence":5},{"trial_n":94,"span":10,"encoder":"2967032101","distractor":"2960032101","target":"present","response":"present","rt":"3619","correct":true,"confidence":3},{"trial_n":95,"span":11,"encoder":"40050824410","distractor":"40150824410","target":"present","response":"present","rt":"3014","correct":true,"confidence":4},{"trial_n":96,"span":11,"encoder":"25765215265","distractor":"25765275265","target":"present","response":"present","rt":"6933","correct":true,"confidence":2},{"trial_n":97,"span":12,"encoder":"239771865977","distractor":"249771865977","target":"present","response":"absent","rt":"7036","correct":false,"confidence":2},{"trial_n":98,"span":11,"encoder":"54412516367","distractor":"58412516367","target":"absent","response":"absent","rt":"7410","correct":true,"confidence":2},{"trial_n":99,"span":11,"encoder":"69764866677","distractor":"69764866977","target":"absent","response":"absent","rt":"2382","correct":true,"confidence":4},{"trial_n":100,"span":12,"encoder":"105691978926","distractor":"105691978924","target":"present","response":"present","rt":"1451","correct":true,"confidence":5},{"trial_n":101,"span":12,"encoder":"111919408631","distractor":"111919408331","target":"present","response":"present","rt":"3591","correct":true,"confidence":5},{"trial_n":102,"span":13,"encoder":"9692581359219","distractor":"9698581359219","target":"absent","response":"present","rt":"14107","correct":false,"confidence":2},{"trial_n":103,"span":12,"encoder":"840558643500","distractor":"840558643560","target":"present","response":"present","rt":"1558.9999999998","correct":true,"confidence":5},{"trial_n":104,"span":12,"encoder":"912776031069","distractor":"912776031099","target":"present","response":"present","rt":"1779","correct":true,"confidence":5},{"trial_n":105,"span":13,"encoder":"2403783306413","distractor":"2403783306417","target":"present","response":"present","rt":"1484","correct":true,"confidence":5},{"trial_n":106,"span":13,"encoder":"7355067298175","distractor":"7355067298575","target":"present","response":"present","rt":"7270","correct":true,"confidence":3},{"trial_n":107,"span":14,"encoder":"95860296470507","distractor":"95830296470507","target":"present","response":"present","rt":"12962","correct":true,"confidence":1},{"trial_n":108,"span":14,"encoder":"48166351988504","distractor":"48166351988104","target":"absent","response":"absent","rt":"2977","correct":true,"confidence":4},{"trial_n":109,"span":15,"encoder":"288947930066989","distractor":"288907930066989","target":"absent","response":"absent","rt":"9172","correct":true,"confidence":2},{"trial_n":110,"span":15,"encoder":"501102643606098","distractor":"506102643606098","target":"absent","response":"absent","rt":"8663","correct":true,"confidence":2},{"trial_n":111,"span":16,"encoder":"4796518561563218","distractor":"8796518561563218","target":"present","response":"absent","rt":"6629","correct":false,"confidence":1},{"trial_n":112,"span":15,"encoder":"759594071052695","distractor":"759594071054695","target":"absent","response":"absent","rt":"9997","correct":true,"confidence":2},{"trial_n":113,"span":15,"encoder":"049095971309797","distractor":"049095971303797","target":"present","response":"present","rt":"4920","correct":true,"confidence":4},{"trial_n":114,"span":16,"encoder":"8448132730537248","distractor":"8448132790537248","target":"present","response":"present","rt":"7525","correct":true,"confidence":2},{"trial_n":115,"span":16,"encoder":"0719511960786369","distractor":"0712511960786369","target":"present","response":"absent","rt":"6681.9999999998","correct":false,"confidence":1},{"trial_n":116,"span":15,"encoder":"799756404422003","distractor":"759756404422003","target":"absent","response":"absent","rt":"4827.9999999998","correct":true,"confidence":1},{"trial_n":117,"span":15,"encoder":"778218436082506","distractor":"778278436082506","target":"present","response":"present","rt":"10068","correct":true,"confidence":1},{"trial_n":118,"span":16,"encoder":"6488865432568215","distractor":"6488665432568215","target":"absent","response":"present","rt":"7065.9999999998","correct":false,"confidence":2},{"trial_n":119,"span":15,"encoder":"028356594289030","distractor":"028356594289010","target":"absent","response":"absent","rt":"1940","correct":true,"confidence":5},{"trial_n":120,"span":15,"encoder":"926772956012622","distractor":"926772256012622","target":"absent","response":"present","rt":"7645","correct":false,"confidence":1},{"trial_n":121,"span":14,"encoder":"62874853348378","distractor":"62874853148378","target":"present","response":"present","rt":"4278.9999999998","correct":true,"confidence":5},{"trial_n":122,"span":14,"encoder":"80045804034174","distractor":"80045804033174","target":"present","response":"present","rt":"5906","correct":true,"confidence":4},{"trial_n":123,"span":15,"encoder":"167340806759008","distractor":"167340806359008","target":"present","response":"present","rt":"8237","correct":true,"confidence":3},{"trial_n":124,"span":15,"encoder":"401245745632193","distractor":"401245545632193","target":"absent","response":"present","rt":"8596","correct":false,"confidence":2},{"trial_n":125,"span":14,"encoder":"83644617978384","distractor":"83634617978384","target":"absent","response":"absent","rt":"5922","correct":true,"confidence":3},{"trial_n":126,"span":14,"encoder":"97371030096267","distractor":"94371030096267","target":"present","response":"present","rt":"10435","correct":true,"confidence":1},{"trial_n":127,"span":15,"encoder":"394822953974419","distractor":"394822953974219","target":"absent","response":"absent","rt":"1942","correct":true,"confidence":5},{"trial_n":128,"span":15,"encoder":"845218884588472","distractor":"845218884588572","target":"present","response":"present","rt":"8687","correct":true,"confidence":2},{"trial_n":129,"span":16,"encoder":"2648677912772168","distractor":"2648977912772168","target":"absent","response":"absent","rt":"7943","correct":true,"confidence":1},{"trial_n":130,"span":16,"encoder":"2895759909022704","distractor":"2895709909022704","target":"present","response":"present","rt":"10135","correct":true,"confidence":2},{"trial_n":131,"span":17,"encoder":"47796666676836282","distractor":"42796666676836282","target":"absent","response":"absent","rt":"10176","correct":true,"confidence":1},{"trial_n":132,"span":17,"encoder":"12381248207672582","distractor":"12381048207672582","target":"present","response":"absent","rt":"11143","correct":false,"confidence":1},{"trial_n":133,"span":16,"encoder":"4499996070905571","distractor":"4499996070705571","target":"absent","response":"absent","rt":"5708.9999999998","correct":true,"confidence":3},{"trial_n":134,"span":16,"encoder":"9580093682690828","distractor":"8580093682690828","target":"present","response":"absent","rt":"11045","correct":false,"confidence":2},{"trial_n":135,"span":15,"encoder":"744676326795353","distractor":"794676326795353","target":"present","response":"absent","rt":"4594","correct":false,"confidence":2},{"trial_n":136,"span":14,"encoder":"50870479627052","distractor":"50870471627052","target":"absent","response":"absent","rt":"7689.9999999998","correct":true,"confidence":1},{"trial_n":137,"span":14,"encoder":"23346113842627","distractor":"27346113842627","target":"absent","response":"absent","rt":"4721","correct":true,"confidence":1},{"trial_n":138,"span":15,"encoder":"486436559882328","distractor":"486436559882388","target":"absent","response":"absent","rt":"7154","correct":true,"confidence":4},{"trial_n":139,"span":15,"encoder":"667339839690522","distractor":"667349839690522","target":"absent","response":"absent","rt":"5596","correct":true,"confidence":2},{"trial_n":140,"span":16,"encoder":"4892730584026250","distractor":"4899730584026250","target":"absent","response":"absent","rt":"3875","correct":true,"confidence":3}]