[{"trial_n":1,"min":25,"max":230,"target":"present","response":"absent","rt":6365,"correct":false,"confidence":-1},{"trial_n":2,"min":25,"max":230,"target":"present","response":"present","rt":3097,"correct":true,"confidence":-1},{"trial_n":3,"min":25,"max":230,"target":"absent","response":"absent","rt":938.00000000001,"correct":true,"confidence":-1},{"trial_n":4,"min":41,"max":214,"target":"absent","response":"absent","rt":721.99999999999,"correct":true,"confidence":-1},{"trial_n":5,"min":41,"max":214,"target":"present","response":"present","rt":658,"correct":true,"confidence":-1},{"trial_n":6,"min":57,"max":198,"target":"present","response":"present","rt":581,"correct":true,"confidence":-1},{"trial_n":7,"min":57,"max":198,"target":"absent","response":"absent","rt":722,"correct":true,"confidence":-1},{"trial_n":8,"min":73,"max":182,"target":"absent","response":"absent","rt":645,"correct":true,"confidence":-1},{"trial_n":9,"min":73,"max":182,"target":"present","response":"present","rt":675,"correct":true,"confidence":-1},{"trial_n":10,"min":89,"max":166,"target":"present","response":"absent","rt":715.00000000001,"correct":false,"confidence":-1},{"trial_n":11,"min":81,"max":174,"target":"absent","response":"absent","rt":697,"correct":true,"confidence":-1},{"trial_n":12,"min":81,"max":174,"target":"absent","response":"absent","rt":681,"correct":true,"confidence":-1},{"trial_n":13,"min":89,"max":166,"target":"present","response":"absent","rt":1250,"correct":false,"confidence":-1},{"trial_n":14,"min":81,"max":174,"target":"present","response":"present","rt":649,"correct":true,"confidence":-1},{"trial_n":15,"min":81,"max":174,"target":"absent","response":"present","rt":672,"correct":false,"confidence":-1},{"trial_n":16,"min":73,"max":182,"target":"absent","response":"absent","rt":1997,"correct":true,"confidence":-1},{"trial_n":17,"min":73,"max":182,"target":"present","response":"present","rt":697.00000000001,"correct":true,"confidence":-1},{"trial_n":18,"min":81,"max":174,"target":"present","response":"present","rt":865.99999999999,"correct":true,"confidence":-1},{"trial_n":19,"min":81,"max":174,"target":"present","response":"present","rt":683,"correct":true,"confidence":-1},{"trial_n":20,"min":89,"max":166,"target":"present","response":"present","rt":1149,"correct":true,"confidence":-1},{"trial_n":21,"min":89,"max":166,"target":"present","response":"absent","rt":1019,"correct":false,"confidence":2},{"trial_n":22,"min":85,"max":170,"target":"present","response":"present","rt":792,"correct":true,"confidence":3},{"trial_n":23,"min":85,"max":170,"target":"absent","response":"present","rt":1957,"correct":false,"confidence":1},{"trial_n":24,"min":81,"max":174,"target":"present","response":"absent","rt":792,"correct":false,"confidence":2},{"trial_n":25,"min":77,"max":178,"target":"absent","response":"absent","rt":1207,"correct":true,"confidence":3},{"trial_n":26,"min":77,"max":178,"target":"absent","response":"absent","rt":799.00000000001,"correct":true,"confidence":3},{"trial_n":27,"min":81,"max":174,"target":"absent","response":"absent","rt":741,"correct":true,"confidence":3},{"trial_n":28,"min":81,"max":174,"target":"absent","response":"present","rt":732,"correct":false,"confidence":3},{"trial_n":29,"min":77,"max":178,"target":"present","response":"present","rt":893,"correct":true,"confidence":5},{"trial_n":30,"min":77,"max":178,"target":"absent","response":"absent","rt":2516,"correct":true,"confidence":2},{"trial_n":31,"min":79,"max":176,"target":"absent","response":"present","rt":782.99999999997,"correct":false,"confidence":3},{"trial_n":32,"min":77,"max":178,"target":"present","response":"present","rt":766,"correct":true,"confidence":5},{"trial_n":33,"min":77,"max":178,"target":"absent","response":"present","rt":890,"correct":false,"confidence":2},{"trial_n":34,"min":75,"max":180,"target":"present","response":"present","rt":900,"correct":true,"confidence":2},{"trial_n":35,"min":75,"max":180,"target":"absent","response":"absent","rt":731,"correct":true,"confidence":4},{"trial_n":36,"min":77,"max":178,"target":"present","response":"present","rt":702,"correct":true,"confidence":5},{"trial_n":37,"min":77,"max":178,"target":"absent","response":"absent","rt":1933,"correct":true,"confidence":2},{"trial_n":38,"min":79,"max":176,"target":"present","response":"absent","rt":1150,"correct":false,"confidence":4},{"trial_n":39,"min":77,"max":178,"target":"absent","response":"present","rt":1165,"correct":false,"confidence":2},{"trial_n":40,"min":75,"max":180,"target":"absent","response":"absent","rt":1415,"correct":true,"confidence":4},{"trial_n":41,"min":75,"max":180,"target":"present","response":"absent","rt":1212,"correct":false,"confidence":3},{"trial_n":42,"min":74,"max":181,"target":"absent","response":"absent","rt":1015,"correct":true,"confidence":4},{"trial_n":43,"min":74,"max":181,"target":"absent","response":"absent","rt":3008,"correct":true,"confidence":4},{"trial_n":44,"min":75,"max":180,"target":"absent","response":"absent","rt":998.00000000003,"correct":true,"confidence":4},{"trial_n":45,"min":75,"max":180,"target":"present","response":"present","rt":1226,"correct":true,"confidence":3},{"trial_n":46,"min":76,"max":179,"target":"present","response":"present","rt":749,"correct":true,"confidence":5},{"trial_n":47,"min":76,"max":179,"target":"present","response":"present","rt":584,"correct":true,"confidence":5},{"trial_n":48,"min":77,"max":178,"target":"present","response":"absent","rt":900,"correct":false,"confidence":4},{"trial_n":49,"min":76,"max":179,"target":"present","response":"present","rt":767,"correct":true,"confidence":3},{"trial_n":50,"min":76,"max":179,"target":"present","response":"present","rt":629.00000000003,"correct":true,"confidence":4},{"trial_n":51,"min":77,"max":178,"target":"absent","response":"present","rt":741,"correct":false,"confidence":3},{"trial_n":52,"min":76,"max":179,"target":"present","response":"present","rt":577,"correct":true,"confidence":3},{"trial_n":53,"min":76,"max":179,"target":"present","response":"present","rt":1059,"correct":true,"confidence":5},{"trial_n":54,"min":77,"max":178,"target":"present","response":"present","rt":560,"correct":true,"confidence":5},{"trial_n":55,"min":77,"max":178,"target":"absent","response":"present","rt":873,"correct":false,"confidence":3},{"trial_n":56,"min":76,"max":179,"target":"absent","response":"absent","rt":998.99999999997,"correct":true,"confidence":3},{"trial_n":57,"min":76,"max":179,"target":"absent","response":"absent","rt":1307,"correct":true,"confidence":1},{"trial_n":58,"min":77,"max":178,"target":"absent","response":"absent","rt":1082,"correct":true,"confidence":4},{"trial_n":59,"min":77,"max":178,"target":"present","response":"absent","rt":967,"correct":false,"confidence":4},{"trial_n":60,"min":76,"max":179,"target":"absent","response":"absent","rt":705,"correct":true,"confidence":4},{"trial_n":61,"min":76,"max":179,"target":"present","response":"absent","rt":719,"correct":false,"confidence":4},{"trial_n":62,"min":75,"max":180,"target":"absent","response":"present","rt":1024,"correct":false,"confidence":3},{"trial_n":63,"min":74,"max":181,"target":"absent","response":"absent","rt":756,"correct":true,"confidence":3},{"trial_n":64,"min":74,"max":181,"target":"absent","response":"absent","rt":666,"correct":true,"confidence":4},{"trial_n":65,"min":75,"max":180,"target":"present","response":"present","rt":1009,"correct":true,"confidence":3},{"trial_n":66,"min":75,"max":180,"target":"absent","response":"absent","rt":698.99999999997,"correct":true,"confidence":4},{"trial_n":67,"min":76,"max":179,"target":"present","response":"present","rt":676,"correct":true,"confidence":5},{"trial_n":68,"min":76,"max":179,"target":"present","response":"present","rt":1416,"correct":true,"confidence":3},{"trial_n":69,"min":77,"max":178,"target":"present","response":"present","rt":592,"correct":true,"confidence":5},{"trial_n":70,"min":77,"max":178,"target":"absent","response":"present","rt":874,"correct":false,"confidence":3},{"trial_n":71,"min":41,"max":214,"target":"present","response":"present","rt":1066.0000000001,"correct":true,"confidence":-1},{"trial_n":72,"min":41,"max":214,"target":"present","response":"present","rt":613,"correct":true,"confidence":-1},{"trial_n":73,"min":57,"max":198,"target":"absent","response":"absent","rt":1124.0000000001,"correct":true,"confidence":-1},{"trial_n":74,"min":57,"max":198,"target":"absent","response":"present","rt":956,"correct":false,"confidence":-1},{"trial_n":75,"min":41,"max":214,"target":"present","response":"present","rt":630,"correct":true,"confidence":-1},{"trial_n":76,"min":41,"max":214,"target":"present","response":"present","rt":1415,"correct":true,"confidence":-1},{"trial_n":77,"min":57,"max":198,"target":"present","response":"present","rt":726,"correct":true,"confidence":-1},{"trial_n":78,"min":57,"max":198,"target":"present","response":"present","rt":920,"correct":true,"confidence":-1},{"trial_n":79,"min":73,"max":182,"target":"present","response":"present","rt":681,"correct":true,"confidence":-1},{"trial_n":80,"min":73,"max":182,"target":"absent","response":"present","rt":1341,"correct":false,"confidence":-1},{"trial_n":81,"min":65,"max":190,"target":"absent","response":"absent","rt":1113,"correct":true,"confidence":-1},{"trial_n":82,"min":65,"max":190,"target":"present","response":"present","rt":882,"correct":true,"confidence":-1},{"trial_n":83,"min":73,"max":182,"target":"absent","response":"present","rt":1413,"correct":false,"confidence":-1},{"trial_n":84,"min":65,"max":190,"target":"present","response":"present","rt":982,"correct":true,"confidence":-1},{"trial_n":85,"min":65,"max":190,"target":"absent","response":"absent","rt":898,"correct":true,"confidence":-1},{"trial_n":86,"min":73,"max":182,"target":"absent","response":"absent","rt":1264,"correct":true,"confidence":-1},{"trial_n":87,"min":73,"max":182,"target":"present","response":"present","rt":748.99999999994,"correct":true,"confidence":-1},{"trial_n":88,"min":81,"max":174,"target":"absent","response":"absent","rt":823,"correct":true,"confidence":-1},{"trial_n":89,"min":81,"max":174,"target":"present","response":"present","rt":662,"correct":true,"confidence":-1},{"trial_n":90,"min":89,"max":166,"target":"present","response":"present","rt":1563,"correct":true,"confidence":-1},{"trial_n":91,"min":89,"max":166,"target":"present","response":"present","rt":1067,"correct":true,"confidence":3},{"trial_n":92,"min":93,"max":162,"target":"present","response":"present","rt":1342.0000000001,"correct":true,"confidence":1},{"trial_n":93,"min":93,"max":162,"target":"absent","response":"present","rt":1848,"correct":false,"confidence":1},{"trial_n":94,"min":89,"max":166,"target":"absent","response":"absent","rt":2091,"correct":true,"confidence":1},{"trial_n":95,"min":89,"max":166,"target":"present","response":"present","rt":883.00000000006,"correct":true,"confidence":1},{"trial_n":96,"min":93,"max":162,"target":"present","response":"present","rt":947.99999999994,"correct":true,"confidence":1},{"trial_n":97,"min":93,"max":162,"target":"present","response":"present","rt":683.00000000006,"correct":true,"confidence":4},{"trial_n":98,"min":97,"max":158,"target":"present","response":"present","rt":809,"correct":true,"confidence":4},{"trial_n":99,"min":97,"max":158,"target":"present","response":"present","rt":2460,"correct":true,"confidence":1},{"trial_n":100,"min":101,"max":154,"target":"absent","response":"present","rt":639,"correct":false,"confidence":4},{"trial_n":101,"min":99,"max":156,"target":"absent","response":"present","rt":1458,"correct":false,"confidence":3},{"trial_n":102,"min":97,"max":158,"target":"present","response":"present","rt":647,"correct":true,"confidence":4},{"trial_n":103,"min":97,"max":158,"target":"absent","response":"present","rt":1715,"correct":false,"confidence":1},{"trial_n":104,"min":95,"max":160,"target":"present","response":"present","rt":657,"correct":true,"confidence":3},{"trial_n":105,"min":95,"max":160,"target":"present","response":"present","rt":599.99999999994,"correct":true,"confidence":4},{"trial_n":106,"min":97,"max":158,"target":"absent","response":"present","rt":723,"correct":false,"confidence":3},{"trial_n":107,"min":95,"max":160,"target":"present","response":"absent","rt":1632.9999999999,"correct":false,"confidence":1},{"trial_n":108,"min":93,"max":162,"target":"present","response":"present","rt":598,"correct":true,"confidence":4},{"trial_n":109,"min":93,"max":162,"target":"present","response":"present","rt":1831.9999999999,"correct":true,"confidence":4},{"trial_n":110,"min":95,"max":160,"target":"absent","response":"present","rt":849.00000000006,"correct":false,"confidence":1},{"trial_n":111,"min":94,"max":161,"target":"absent","response":"present","rt":1716,"correct":false,"confidence":3},{"trial_n":112,"min":93,"max":162,"target":"absent","response":"present","rt":705,"correct":false,"confidence":3},{"trial_n":113,"min":92,"max":163,"target":"absent","response":"present","rt":632,"correct":false,"confidence":1},{"trial_n":114,"min":91,"max":164,"target":"present","response":"present","rt":649.99999999994,"correct":true,"confidence":4},{"trial_n":115,"min":91,"max":164,"target":"absent","response":"present","rt":807.00000000006,"correct":false,"confidence":4},{"trial_n":116,"min":90,"max":165,"target":"present","response":"present","rt":658.00000000006,"correct":true,"confidence":4},{"trial_n":117,"min":90,"max":165,"target":"absent","response":"present","rt":623,"correct":false,"confidence":3},{"trial_n":118,"min":89,"max":166,"target":"absent","response":"present","rt":767,"correct":false,"confidence":1},{"trial_n":119,"min":88,"max":167,"target":"present","response":"present","rt":716,"correct":true,"confidence":1},{"trial_n":120,"min":88,"max":167,"target":"absent","response":"present","rt":916,"correct":false,"confidence":2},{"trial_n":121,"min":87,"max":168,"target":"present","response":"present","rt":641,"correct":true,"confidence":3},{"trial_n":122,"min":87,"max":168,"target":"absent","response":"absent","rt":872.99999999994,"correct":true,"confidence":3},{"trial_n":123,"min":88,"max":167,"target":"absent","response":"present","rt":640,"correct":false,"confidence":3},{"trial_n":124,"min":87,"max":168,"target":"absent","response":"present","rt":731,"correct":false,"confidence":3},{"trial_n":125,"min":86,"max":169,"target":"absent","response":"present","rt":657,"correct":false,"confidence":4},{"trial_n":126,"min":85,"max":170,"target":"present","response":"present","rt":709,"correct":true,"confidence":5},{"trial_n":127,"min":85,"max":170,"target":"absent","response":"present","rt":1089.9999999999,"correct":false,"confidence":1},{"trial_n":128,"min":84,"max":171,"target":"present","response":"present","rt":599,"correct":true,"confidence":4},{"trial_n":129,"min":84,"max":171,"target":"present","response":"present","rt":657.00000000006,"correct":true,"confidence":4},{"trial_n":130,"min":85,"max":170,"target":"present","response":"present","rt":598.99999999994,"correct":true,"confidence":4},{"trial_n":131,"min":85,"max":170,"target":"absent","response":"absent","rt":916,"correct":true,"confidence":3},{"trial_n":132,"min":86,"max":169,"target":"present","response":"present","rt":691,"correct":true,"confidence":4},{"trial_n":133,"min":86,"max":169,"target":"present","response":"present","rt":716,"correct":true,"confidence":4},{"trial_n":134,"min":87,"max":168,"target":"present","response":"present","rt":611.99999999994,"correct":true,"confidence":4},{"trial_n":135,"min":87,"max":168,"target":"absent","response":"present","rt":856,"correct":false,"confidence":4},{"trial_n":136,"min":86,"max":169,"target":"absent","response":"present","rt":1516,"correct":false,"confidence":1},{"trial_n":137,"min":85,"max":170,"target":"absent","response":"present","rt":915,"correct":false,"confidence":1},{"trial_n":138,"min":84,"max":171,"target":"absent","response":"present","rt":682,"correct":false,"confidence":4},{"trial_n":139,"min":83,"max":172,"target":"absent","response":"present","rt":1708,"correct":false,"confidence":3},{"trial_n":140,"min":82,"max":173,"target":"absent","response":"absent","rt":883,"correct":true,"confidence":4}]