[{"trial_n":1,"span":8,"encoder":"66877270","distractor":"76877270","target":"present","response":"absent","rt":"3371.3000000119","correct":false,"confidence":-1},{"trial_n":2,"span":6,"encoder":"156642","distractor":"156602","target":"present","response":"present","rt":"2378","correct":true,"confidence":-1},{"trial_n":3,"span":6,"encoder":"306840","distractor":"396840","target":"absent","response":"absent","rt":"1843.2000000477","correct":true,"confidence":-1},{"trial_n":4,"span":8,"encoder":"57132949","distractor":"87132949","target":"absent","response":"absent","rt":"2140.4000000358","correct":true,"confidence":-1},{"trial_n":5,"span":8,"encoder":"90118472","distractor":"80118472","target":"present","response":"present","rt":"2443.8999999762","correct":true,"confidence":-1},{"trial_n":6,"span":10,"encoder":"0469434537","distractor":"0469434337","target":"absent","response":"absent","rt":"4054.8999999762","correct":true,"confidence":-1},{"trial_n":7,"span":10,"encoder":"4792568430","distractor":"4722568430","target":"absent","response":"absent","rt":"2261.5999999642","correct":true,"confidence":-1},{"trial_n":8,"span":12,"encoder":"243132245272","distractor":"243132245222","target":"absent","response":"absent","rt":"3665.5","correct":true,"confidence":-1},{"trial_n":9,"span":12,"encoder":"089627658845","distractor":"089627358845","target":"present","response":"absent","rt":"2906.1000000238","correct":false,"confidence":-1},{"trial_n":10,"span":10,"encoder":"3547909573","distractor":"3547909574","target":"present","response":"absent","rt":"3006.8000000119","correct":false,"confidence":-1},{"trial_n":11,"span":8,"encoder":"20861533","distractor":"20861553","target":"present","response":"absent","rt":"2533.5","correct":false,"confidence":-1},{"trial_n":12,"span":7,"encoder":"7060189","distractor":"7060589","target":"present","response":"present","rt":"2353.5","correct":true,"confidence":-1},{"trial_n":13,"span":7,"encoder":"5912421","distractor":"5912121","target":"present","response":"present","rt":"2128.1999999881","correct":true,"confidence":-1},{"trial_n":14,"span":8,"encoder":"30875026","distractor":"30876026","target":"absent","response":"absent","rt":"2697.8999999762","correct":true,"confidence":-1},{"trial_n":15,"span":8,"encoder":"69540874","distractor":"61540874","target":"present","response":"present","rt":"2851.6999999881","correct":true,"confidence":-1},{"trial_n":16,"span":9,"encoder":"493360036","distractor":"493360086","target":"absent","response":"present","rt":"1648.0999999642","correct":false,"confidence":-1},{"trial_n":17,"span":8,"encoder":"90834035","distractor":"90734035","target":"absent","response":"absent","rt":"3143.8000000119","correct":true,"confidence":-1},{"trial_n":18,"span":8,"encoder":"86309050","distractor":"86309051","target":"present","response":"present","rt":"2145.7999999523","correct":true,"confidence":-1},{"trial_n":19,"span":9,"encoder":"403056840","distractor":"403056800","target":"absent","response":"absent","rt":"3114","correct":true,"confidence":-1},{"trial_n":20,"span":9,"encoder":"862549201","distractor":"852549201","target":"present","response":"present","rt":"3630.3000000119","correct":true,"confidence":-1},{"trial_n":21,"span":10,"encoder":"1769487048","distractor":"1769497048","target":"absent","response":"absent","rt":"3690.8999999762","correct":true,"confidence":4},{"trial_n":22,"span":10,"encoder":"2960350762","distractor":"2967350762","target":"present","response":"present","rt":"3546.5","correct":true,"confidence":4},{"trial_n":23,"span":11,"encoder":"34482205995","distractor":"37482205995","target":"absent","response":"absent","rt":"4552.6000000238","correct":true,"confidence":5},{"trial_n":24,"span":11,"encoder":"82589517317","distractor":"82889517317","target":"present","response":"absent","rt":"9223.6000000238","correct":false,"confidence":2},{"trial_n":25,"span":10,"encoder":"6824844042","distractor":"6824844032","target":"present","response":"present","rt":"4800.1999999881","correct":true,"confidence":2},{"trial_n":26,"span":10,"encoder":"5847491899","distractor":"5847441899","target":"present","response":"present","rt":"3967.3000000119","correct":true,"confidence":3},{"trial_n":27,"span":11,"encoder":"88714225327","distractor":"88714225357","target":"present","response":"present","rt":"4878.1999999881","correct":true,"confidence":3},{"trial_n":28,"span":11,"encoder":"01627164679","distractor":"01627164672","target":"present","response":"present","rt":"3722.8999999762","correct":true,"confidence":3},{"trial_n":29,"span":12,"encoder":"050746353449","distractor":"650746353449","target":"present","response":"present","rt":"4642.4000000358","correct":true,"confidence":3},{"trial_n":30,"span":12,"encoder":"690256594056","distractor":"690266594056","target":"present","response":"present","rt":"5127.6000000238","correct":true,"confidence":3},{"trial_n":31,"span":13,"encoder":"1963918584473","distractor":"1963918584493","target":"present","response":"present","rt":"4601.6000000238","correct":true,"confidence":4},{"trial_n":32,"span":13,"encoder":"6198593615254","distractor":"6198593695254","target":"absent","response":"absent","rt":"6051.3999999762","correct":true,"confidence":2},{"trial_n":33,"span":14,"encoder":"59576600383108","distractor":"59576600382108","target":"absent","response":"absent","rt":"6914.3999999762","correct":true,"confidence":4},{"trial_n":34,"span":14,"encoder":"99541750336213","distractor":"92541750336213","target":"absent","response":"absent","rt":"5624.3000000119","correct":true,"confidence":3},{"trial_n":35,"span":15,"encoder":"051081133281985","distractor":"051051133281985","target":"absent","response":"present","rt":"4513.5999999642","correct":false,"confidence":2},{"trial_n":36,"span":14,"encoder":"32804848221226","distractor":"32804848221126","target":"absent","response":"present","rt":"5750.5","correct":false,"confidence":3},{"trial_n":37,"span":13,"encoder":"0152530110560","distractor":"4152530110560","target":"absent","response":"absent","rt":"2580.6999999881","correct":true,"confidence":5},{"trial_n":38,"span":13,"encoder":"8466051276402","distractor":"8466041276402","target":"absent","response":"absent","rt":"5741.5","correct":true,"confidence":3},{"trial_n":39,"span":14,"encoder":"31933633072712","distractor":"61933633072712","target":"present","response":"present","rt":"5044.6000000238","correct":true,"confidence":3},{"trial_n":40,"span":14,"encoder":"47672244186833","distractor":"47672144186833","target":"present","response":"present","rt":"4401.5","correct":true,"confidence":5},{"trial_n":41,"span":15,"encoder":"286575272334081","distractor":"286575271334081","target":"absent","response":"present","rt":"6036.2000000477","correct":false,"confidence":3},{"trial_n":42,"span":14,"encoder":"59591964695429","distractor":"59595964695429","target":"present","response":"present","rt":"6317","correct":true,"confidence":3},{"trial_n":43,"span":14,"encoder":"19876336569606","distractor":"29876336569606","target":"absent","response":"absent","rt":"5613.6000000238","correct":true,"confidence":1},{"trial_n":44,"span":15,"encoder":"331463829758741","distractor":"531463829758741","target":"present","response":"absent","rt":"3735.5","correct":false,"confidence":2},{"trial_n":45,"span":14,"encoder":"14125584920045","distractor":"14125585920045","target":"absent","response":"present","rt":"5447.6000000238","correct":false,"confidence":3},{"trial_n":46,"span":13,"encoder":"0444685657049","distractor":"0444655657049","target":"absent","response":"absent","rt":"3051.2000000477","correct":true,"confidence":5},{"trial_n":47,"span":13,"encoder":"8814822364692","distractor":"8819822364692","target":"present","response":"absent","rt":"3922","correct":false,"confidence":2},{"trial_n":48,"span":12,"encoder":"685761719730","distractor":"685561719730","target":"present","response":"present","rt":"3765.9000000358","correct":true,"confidence":4},{"trial_n":49,"span":12,"encoder":"705088353350","distractor":"705088333350","target":"absent","response":"absent","rt":"8129.9000000358","correct":true,"confidence":4},{"trial_n":50,"span":13,"encoder":"9916779496748","distractor":"9916779496740","target":"present","response":"present","rt":"5183.3999999762","correct":true,"confidence":2},{"trial_n":51,"span":13,"encoder":"8467542515802","distractor":"8767542515802","target":"absent","response":"present","rt":"4602.3999999762","correct":false,"confidence":3},{"trial_n":52,"span":12,"encoder":"153743470043","distractor":"133743470043","target":"absent","response":"absent","rt":"6861.1000000238","correct":true,"confidence":2},{"trial_n":53,"span":12,"encoder":"919340115737","distractor":"919340115757","target":"present","response":"present","rt":"3944.4000000358","correct":true,"confidence":4},{"trial_n":54,"span":13,"encoder":"7491719577706","distractor":"7491719577700","target":"absent","response":"absent","rt":"8056.6000000238","correct":true,"confidence":3},{"trial_n":55,"span":13,"encoder":"9694875498756","distractor":"9684875498756","target":"present","response":"present","rt":"4933.0999999642","correct":true,"confidence":4},{"trial_n":56,"span":14,"encoder":"59354021027814","distractor":"59354821027814","target":"present","response":"absent","rt":"6650.3000000119","correct":false,"confidence":2},{"trial_n":57,"span":13,"encoder":"5034106199845","distractor":"2034106199845","target":"present","response":"absent","rt":"4309.6999999881","correct":false,"confidence":1},{"trial_n":58,"span":12,"encoder":"663173443718","distractor":"663173543718","target":"absent","response":"present","rt":"4155","correct":false,"confidence":2},{"trial_n":59,"span":11,"encoder":"30434829850","distractor":"30434829840","target":"present","response":"present","rt":"5144.4000000358","correct":true,"confidence":3},{"trial_n":60,"span":11,"encoder":"87291652702","distractor":"87290652702","target":"present","response":"absent","rt":"6139.8999999762","correct":false,"confidence":2},{"trial_n":61,"span":10,"encoder":"1027135306","distractor":"1027138306","target":"absent","response":"absent","rt":"3516.6000000238","correct":true,"confidence":5},{"trial_n":62,"span":10,"encoder":"9234302990","distractor":"9234303990","target":"absent","response":"absent","rt":"4385.8000000119","correct":true,"confidence":4},{"trial_n":63,"span":11,"encoder":"81662442034","distractor":"89662442034","target":"absent","response":"present","rt":"3751.3000000119","correct":false,"confidence":3},{"trial_n":64,"span":10,"encoder":"0828429310","distractor":"0828489310","target":"absent","response":"present","rt":"5682.1000000238","correct":false,"confidence":2},{"trial_n":65,"span":9,"encoder":"004830194","distractor":"004830104","target":"absent","response":"absent","rt":"4516.7999999523","correct":true,"confidence":3},{"trial_n":66,"span":9,"encoder":"666777194","distractor":"696777194","target":"absent","response":"absent","rt":"2069.3999999762","correct":true,"confidence":5},{"trial_n":67,"span":10,"encoder":"7225436245","distractor":"7225436045","target":"present","response":"present","rt":"3457.1999999881","correct":true,"confidence":4},{"trial_n":68,"span":10,"encoder":"1936563197","distractor":"1036563197","target":"present","response":"present","rt":"3198.8000000119","correct":true,"confidence":3},{"trial_n":69,"span":11,"encoder":"47450549762","distractor":"47450549362","target":"absent","response":"absent","rt":"5280.8999999762","correct":true,"confidence":3},{"trial_n":70,"span":11,"encoder":"90518995106","distractor":"90518995101","target":"present","response":"present","rt":"3364.3000000119","correct":true,"confidence":4},{"trial_n":71,"span":8,"encoder":"45519434","distractor":"45519435","target":"present","response":"present","rt":"5061.1999999881","correct":true,"confidence":-1},{"trial_n":72,"span":8,"encoder":"98018665","distractor":"98018565","target":"present","response":"present","rt":"2303.3000000119","correct":true,"confidence":-1},{"trial_n":73,"span":9,"encoder":"703466130","distractor":"753466130","target":"absent","response":"absent","rt":"2615.5","correct":true,"confidence":-1},{"trial_n":74,"span":9,"encoder":"901595982","distractor":"901595912","target":"absent","response":"absent","rt":"3885.6999999881","correct":true,"confidence":-1},{"trial_n":75,"span":10,"encoder":"3077783507","distractor":"3077383507","target":"present","response":"present","rt":"2869.3999999762","correct":true,"confidence":-1},{"trial_n":76,"span":10,"encoder":"3759564773","distractor":"3759564779","target":"present","response":"present","rt":"3750.6999999881","correct":true,"confidence":-1},{"trial_n":77,"span":11,"encoder":"62366587286","distractor":"62396587286","target":"present","response":"absent","rt":"1922.1999999881","correct":false,"confidence":-1},{"trial_n":78,"span":10,"encoder":"6577369365","distractor":"6377369365","target":"absent","response":"present","rt":"5461","correct":false,"confidence":-1},{"trial_n":79,"span":9,"encoder":"392850517","distractor":"392950517","target":"present","response":"present","rt":"3809.5","correct":true,"confidence":-1},{"trial_n":80,"span":9,"encoder":"671661152","distractor":"681661152","target":"absent","response":"absent","rt":"2092.3999999762","correct":true,"confidence":-1},{"trial_n":81,"span":10,"encoder":"0481569507","distractor":"0481539507","target":"present","response":"present","rt":"4967.1000000238","correct":true,"confidence":-1},{"trial_n":82,"span":10,"encoder":"7968407629","distractor":"7969407629","target":"absent","response":"absent","rt":"6277.1000000238","correct":true,"confidence":-1},{"trial_n":83,"span":11,"encoder":"92801016166","distractor":"92801016160","target":"absent","response":"absent","rt":"3821.4000000358","correct":true,"confidence":-1},{"trial_n":84,"span":11,"encoder":"93774686518","distractor":"93774686618","target":"present","response":"absent","rt":"2880.6000000238","correct":false,"confidence":-1},{"trial_n":85,"span":10,"encoder":"6058608252","distractor":"6058648252","target":"present","response":"absent","rt":"2032.1999999881","correct":false,"confidence":-1},{"trial_n":86,"span":9,"encoder":"288904779","distractor":"288904777","target":"present","response":"present","rt":"2282.1000000238","correct":true,"confidence":-1},{"trial_n":87,"span":9,"encoder":"451511750","distractor":"451511850","target":"present","response":"present","rt":"3327.6999999881","correct":true,"confidence":-1},{"trial_n":88,"span":10,"encoder":"1923574193","distractor":"1623574193","target":"present","response":"present","rt":"5040.8000000119","correct":true,"confidence":-1},{"trial_n":89,"span":10,"encoder":"3018233216","distractor":"3018333216","target":"absent","response":"absent","rt":"7961.5999999642","correct":true,"confidence":-1},{"trial_n":90,"span":11,"encoder":"81151242167","distractor":"81151249167","target":"present","response":"absent","rt":"5890","correct":false,"confidence":-1},{"trial_n":91,"span":10,"encoder":"0321160837","distractor":"0321110837","target":"absent","response":"absent","rt":"3476.0999999642","correct":true,"confidence":5},{"trial_n":92,"span":10,"encoder":"4350320916","distractor":"4351320916","target":"absent","response":"absent","rt":"5144","correct":true,"confidence":5},{"trial_n":93,"span":11,"encoder":"56430996159","distractor":"56432996159","target":"present","response":"present","rt":"5193.5","correct":true,"confidence":5},{"trial_n":94,"span":11,"encoder":"30079086202","distractor":"30079086209","target":"absent","response":"absent","rt":"11356.5","correct":true,"confidence":4},{"trial_n":95,"span":12,"encoder":"219042260798","distractor":"219042260498","target":"present","response":"present","rt":"4872.6000000238","correct":true,"confidence":5},{"trial_n":96,"span":12,"encoder":"028451106702","distractor":"028454106702","target":"absent","response":"absent","rt":"4249.5","correct":true,"confidence":5},{"trial_n":97,"span":13,"encoder":"6932173647823","distractor":"6932173247823","target":"present","response":"present","rt":"18085","correct":true,"confidence":2},{"trial_n":98,"span":13,"encoder":"0915143362443","distractor":"0915143322443","target":"absent","response":"absent","rt":"4805.3000000119","correct":true,"confidence":4},{"trial_n":99,"span":14,"encoder":"74661483948878","distractor":"74961483948878","target":"present","response":"present","rt":"9216.5","correct":true,"confidence":1},{"trial_n":100,"span":14,"encoder":"80982242555993","distractor":"80922242555993","target":"absent","response":"absent","rt":"12755.5","correct":true,"confidence":3},{"trial_n":101,"span":15,"encoder":"242025535651676","distractor":"242825535651676","target":"present","response":"present","rt":"13108","correct":true,"confidence":4},{"trial_n":102,"span":15,"encoder":"809252725817430","distractor":"809252725815430","target":"absent","response":"absent","rt":"7697.3000000119","correct":true,"confidence":4},{"trial_n":103,"span":16,"encoder":"0788259759711635","distractor":"1788259759711635","target":"present","response":"present","rt":"10940.100000024","correct":true,"confidence":5},{"trial_n":104,"span":16,"encoder":"3742019250013557","distractor":"3749019250013557","target":"present","response":"absent","rt":"12686.299999952","correct":false,"confidence":1},{"trial_n":105,"span":15,"encoder":"987345342486168","distractor":"987345349486168","target":"absent","response":"absent","rt":"16077.699999988","correct":true,"confidence":2},{"trial_n":106,"span":15,"encoder":"696987864837547","distractor":"696987864837247","target":"absent","response":"absent","rt":"18239.199999988","correct":true,"confidence":2},{"trial_n":107,"span":16,"encoder":"7148939519623082","distractor":"7148939519623032","target":"present","response":"absent","rt":"18898.300000012","correct":false,"confidence":3},{"trial_n":108,"span":15,"encoder":"294592348535498","distractor":"294592348235498","target":"present","response":"present","rt":"16307.599999964","correct":true,"confidence":4},{"trial_n":109,"span":15,"encoder":"992634466663385","distractor":"992639466663385","target":"present","response":"absent","rt":"20006.800000012","correct":false,"confidence":1},{"trial_n":110,"span":14,"encoder":"20013003288364","distractor":"20813003288364","target":"absent","response":"absent","rt":"2868.5","correct":true,"confidence":5},{"trial_n":111,"span":14,"encoder":"76849215790283","distractor":"36849215790283","target":"absent","response":"absent","rt":"3407.8000000119","correct":true,"confidence":5},{"trial_n":112,"span":15,"encoder":"035790954410667","distractor":"025790954410667","target":"absent","response":"absent","rt":"5854.6999999881","correct":true,"confidence":5},{"trial_n":113,"span":15,"encoder":"515102852269715","distractor":"515102852299715","target":"absent","response":"absent","rt":"14651.599999964","correct":true,"confidence":3},{"trial_n":114,"span":16,"encoder":"5687574533220413","distractor":"5687374533220413","target":"present","response":"absent","rt":"9588.1999999881","correct":false,"confidence":3},{"trial_n":115,"span":15,"encoder":"990686896290418","distractor":"990686896297418","target":"present","response":"present","rt":"19948.599999964","correct":true,"confidence":2},{"trial_n":116,"span":15,"encoder":"201267631673078","distractor":"201267631653078","target":"absent","response":"present","rt":"28867.599999964","correct":false,"confidence":3},{"trial_n":117,"span":14,"encoder":"27955643570424","distractor":"27955643572424","target":"present","response":"absent","rt":"11302.300000012","correct":false,"confidence":5},{"trial_n":118,"span":13,"encoder":"2193748713502","distractor":"2193748713562","target":"present","response":"present","rt":"6734.6000000238","correct":true,"confidence":5},{"trial_n":119,"span":13,"encoder":"0647062384725","distractor":"0647062334725","target":"present","response":"present","rt":"7255.3999999762","correct":true,"confidence":4},{"trial_n":120,"span":14,"encoder":"05952298257101","distractor":"05950298257101","target":"absent","response":"absent","rt":"4756.5","correct":true,"confidence":5},{"trial_n":121,"span":14,"encoder":"41744243552816","distractor":"41744243552916","target":"absent","response":"absent","rt":"10816","correct":true,"confidence":3},{"trial_n":122,"span":15,"encoder":"251107096895862","distractor":"251107096195862","target":"present","response":"present","rt":"12864.199999988","correct":true,"confidence":1},{"trial_n":123,"span":15,"encoder":"198910840964913","distractor":"198910870964913","target":"absent","response":"present","rt":"28655.800000012","correct":false,"confidence":2},{"trial_n":124,"span":14,"encoder":"65867872123444","distractor":"65867875123444","target":"absent","response":"present","rt":"16492.800000012","correct":false,"confidence":4},{"trial_n":125,"span":13,"encoder":"5092826757673","distractor":"5092826757675","target":"absent","response":"absent","rt":"6978.3000000119","correct":true,"confidence":5},{"trial_n":126,"span":13,"encoder":"4927614748938","distractor":"4427614748938","target":"absent","response":"absent","rt":"8864.8999999762","correct":true,"confidence":5},{"trial_n":127,"span":14,"encoder":"15314264632482","distractor":"15314264632480","target":"present","response":"present","rt":"6243.1999999881","correct":true,"confidence":5},{"trial_n":128,"span":14,"encoder":"43539058570865","distractor":"43539958570865","target":"absent","response":"absent","rt":"11214.700000048","correct":true,"confidence":2},{"trial_n":129,"span":15,"encoder":"848895804304638","distractor":"848295804304638","target":"present","response":"present","rt":"1901.1999999881","correct":true,"confidence":5},{"trial_n":130,"span":15,"encoder":"354150344708834","distractor":"354150344708894","target":"absent","response":"absent","rt":"2418.5","correct":true,"confidence":5},{"trial_n":131,"span":16,"encoder":"9045515044429328","distractor":"9045415044429328","target":"present","response":"present","rt":"6376.1999999881","correct":true,"confidence":4},{"trial_n":132,"span":16,"encoder":"2102383350109505","distractor":"2102883350109505","target":"absent","response":"absent","rt":"10291.599999964","correct":true,"confidence":4},{"trial_n":133,"span":17,"encoder":"58013826728054123","distractor":"58013826728051123","target":"absent","response":"absent","rt":"4990.4000000358","correct":true,"confidence":5},{"trial_n":134,"span":17,"encoder":"50183377496658229","distractor":"50183373496658229","target":"present","response":"absent","rt":"8275.4000000358","correct":false,"confidence":4},{"trial_n":135,"span":16,"encoder":"4075594517824673","distractor":"4075794517824673","target":"present","response":"present","rt":"13902.199999988","correct":true,"confidence":3},{"trial_n":136,"span":16,"encoder":"3256492942678437","distractor":"3254492942678437","target":"present","response":"present","rt":"16207.100000024","correct":true,"confidence":2},{"trial_n":137,"span":17,"encoder":"05206690413203670","distractor":"05206690413293670","target":"absent","response":"present","rt":"12963.899999976","correct":false,"confidence":3},{"trial_n":138,"span":16,"encoder":"5782026151187650","distractor":"5782026151197650","target":"present","response":"present","rt":"14005","correct":true,"confidence":4},{"trial_n":139,"span":16,"encoder":"5498954789948163","distractor":"5498944789948163","target":"absent","response":"absent","rt":"7148.6999999881","correct":true,"confidence":4},{"trial_n":140,"span":17,"encoder":"83395499382042773","distractor":"83395499382002773","target":"absent","response":"absent","rt":"24892.599999964","correct":true,"confidence":1}]