[{"trial_n":1,"n_dots":4.25,"target":"left","response":"left","rt":2713.1000000238,"correct":true,"confidence":-1},{"trial_n":2,"n_dots":4.25,"target":"right","response":"right","rt":628.69999998808,"correct":true,"confidence":-1},{"trial_n":3,"n_dots":3.85,"target":"left","response":"left","rt":325.60000002384,"correct":true,"confidence":-1},{"trial_n":4,"n_dots":3.85,"target":"left","response":"left","rt":143.80000001192,"correct":true,"confidence":-1},{"trial_n":5,"n_dots":3.45,"target":"right","response":"right","rt":185.39999997616,"correct":true,"confidence":-1},{"trial_n":6,"n_dots":3.45,"target":"left","response":"left","rt":52.300000011921,"correct":true,"confidence":-1},{"trial_n":7,"n_dots":3.05,"target":"right","response":"left","rt":112.70000004768,"correct":false,"confidence":-1},{"trial_n":8,"n_dots":3.25,"target":"left","response":"left","rt":181.29999995232,"correct":true,"confidence":-1},{"trial_n":9,"n_dots":3.25,"target":"left","response":"left","rt":142.19999998808,"correct":true,"confidence":-1},{"trial_n":10,"n_dots":3.05,"target":"right","response":"left","rt":112.5,"correct":false,"confidence":-1},{"trial_n":11,"n_dots":3.25,"target":"right","response":"left","rt":332.40000003576,"correct":false,"confidence":-1},{"trial_n":12,"n_dots":3.45,"target":"right","response":"left","rt":153,"correct":false,"confidence":-1},{"trial_n":13,"n_dots":3.55,"target":"left","response":"left","rt":82.800000011921,"correct":true,"confidence":-1},{"trial_n":14,"n_dots":3.55,"target":"left","response":"left","rt":109.30000001192,"correct":true,"confidence":-1},{"trial_n":15,"n_dots":3.45,"target":"right","response":"right","rt":87.699999988079,"correct":true,"confidence":-1},{"trial_n":16,"n_dots":3.45,"target":"right","response":"left","rt":84.900000035763,"correct":false,"confidence":-1},{"trial_n":17,"n_dots":3.55,"target":"right","response":"left","rt":168.69999998808,"correct":false,"confidence":-1},{"trial_n":18,"n_dots":3.65,"target":"left","response":"left","rt":93.399999976158,"correct":true,"confidence":-1},{"trial_n":19,"n_dots":3.65,"target":"right","response":"right","rt":108.89999997616,"correct":true,"confidence":-1},{"trial_n":20,"n_dots":3.55,"target":"right","response":"right","rt":671.30000001192,"correct":true,"confidence":-1},{"trial_n":21,"n_dots":3.55,"target":"right","response":"right","rt":149.60000002384,"correct":true,"confidence":2},{"trial_n":22,"n_dots":3.45,"target":"left","response":"left","rt":86.200000047684,"correct":true,"confidence":3},{"trial_n":23,"n_dots":3.45,"target":"right","response":"right","rt":660.89999997616,"correct":true,"confidence":2},{"trial_n":24,"n_dots":3.35,"target":"right","response":"right","rt":494.60000002384,"correct":true,"confidence":3},{"trial_n":25,"n_dots":3.35,"target":"right","response":"left","rt":658.40000003576,"correct":false,"confidence":1},{"trial_n":26,"n_dots":3.45,"target":"left","response":"left","rt":382.89999997616,"correct":true,"confidence":2},{"trial_n":27,"n_dots":3.45,"target":"left","response":"left","rt":220.40000003576,"correct":true,"confidence":4},{"trial_n":28,"n_dots":3.35,"target":"left","response":"left","rt":265.59999996424,"correct":true,"confidence":5},{"trial_n":29,"n_dots":3.35,"target":"right","response":"right","rt":721.80000001192,"correct":true,"confidence":2},{"trial_n":30,"n_dots":3.25,"target":"left","response":"left","rt":383.70000004768,"correct":true,"confidence":3},{"trial_n":31,"n_dots":3.25,"target":"left","response":"left","rt":160,"correct":true,"confidence":5},{"trial_n":32,"n_dots":3.15,"target":"left","response":"left","rt":233,"correct":true,"confidence":4},{"trial_n":33,"n_dots":3.15,"target":"left","response":"left","rt":282.69999998808,"correct":true,"confidence":3},{"trial_n":34,"n_dots":3.05,"target":"left","response":"left","rt":141.30000001192,"correct":true,"confidence":5},{"trial_n":35,"n_dots":3.05,"target":"left","response":"right","rt":485.39999997616,"correct":false,"confidence":2},{"trial_n":36,"n_dots":3.15,"target":"left","response":"right","rt":1270.8999999762,"correct":false,"confidence":1},{"trial_n":37,"n_dots":3.25,"target":"right","response":"left","rt":207.90000003576,"correct":false,"confidence":4},{"trial_n":38,"n_dots":3.35,"target":"right","response":"left","rt":195.69999998808,"correct":false,"confidence":3},{"trial_n":39,"n_dots":3.45,"target":"right","response":"left","rt":299,"correct":false,"confidence":5},{"trial_n":40,"n_dots":3.55,"target":"left","response":"left","rt":340.30000001192,"correct":true,"confidence":5},{"trial_n":41,"n_dots":3.55,"target":"right","response":"left","rt":170.30000001192,"correct":false,"confidence":4},{"trial_n":42,"n_dots":3.65,"target":"right","response":"left","rt":78.599999964237,"correct":false,"confidence":1},{"trial_n":43,"n_dots":3.75,"target":"right","response":"right","rt":226.30000001192,"correct":true,"confidence":2},{"trial_n":44,"n_dots":3.75,"target":"right","response":"left","rt":711.5,"correct":false,"confidence":3},{"trial_n":45,"n_dots":3.85,"target":"right","response":"right","rt":271.39999997616,"correct":true,"confidence":4},{"trial_n":46,"n_dots":3.85,"target":"left","response":"left","rt":213.10000002384,"correct":true,"confidence":4},{"trial_n":47,"n_dots":3.75,"target":"left","response":"left","rt":90.300000011921,"correct":true,"confidence":5},{"trial_n":48,"n_dots":3.75,"target":"left","response":"left","rt":525.89999997616,"correct":true,"confidence":4},{"trial_n":49,"n_dots":3.65,"target":"right","response":"right","rt":940.69999998808,"correct":true,"confidence":2},{"trial_n":50,"n_dots":3.65,"target":"right","response":"right","rt":412.80000001192,"correct":true,"confidence":2},{"trial_n":51,"n_dots":3.55,"target":"right","response":"left","rt":191.40000003576,"correct":false,"confidence":2},{"trial_n":52,"n_dots":3.65,"target":"left","response":"left","rt":157.89999997616,"correct":true,"confidence":5},{"trial_n":53,"n_dots":3.65,"target":"left","response":"left","rt":115.20000004768,"correct":true,"confidence":4},{"trial_n":54,"n_dots":3.55,"target":"left","response":"left","rt":165.30000001192,"correct":true,"confidence":5},{"trial_n":55,"n_dots":3.55,"target":"right","response":"right","rt":190,"correct":true,"confidence":3},{"trial_n":56,"n_dots":3.45,"target":"left","response":"left","rt":109.60000002384,"correct":true,"confidence":5},{"trial_n":57,"n_dots":3.45,"target":"left","response":"left","rt":152.30000001192,"correct":true,"confidence":5},{"trial_n":58,"n_dots":3.35,"target":"left","response":"left","rt":197.5,"correct":true,"confidence":5},{"trial_n":59,"n_dots":3.35,"target":"right","response":"right","rt":310.90000003576,"correct":true,"confidence":3},{"trial_n":60,"n_dots":3.25,"target":"left","response":"left","rt":79.099999964237,"correct":true,"confidence":5},{"trial_n":61,"n_dots":3.25,"target":"right","response":"right","rt":330.09999996424,"correct":true,"confidence":2},{"trial_n":62,"n_dots":3.15,"target":"left","response":"left","rt":70.699999988079,"correct":true,"confidence":4},{"trial_n":63,"n_dots":3.15,"target":"left","response":"right","rt":760.39999997616,"correct":false,"confidence":1},{"trial_n":64,"n_dots":3.25,"target":"left","response":"left","rt":156.70000004768,"correct":true,"confidence":4},{"trial_n":65,"n_dots":3.25,"target":"right","response":"right","rt":330.69999998808,"correct":true,"confidence":2},{"trial_n":66,"n_dots":3.15,"target":"right","response":"left","rt":147.80000001192,"correct":false,"confidence":3},{"trial_n":67,"n_dots":3.25,"target":"right","response":"left","rt":165,"correct":false,"confidence":2},{"trial_n":68,"n_dots":3.35,"target":"left","response":"left","rt":462.59999996424,"correct":true,"confidence":2},{"trial_n":69,"n_dots":3.35,"target":"right","response":"right","rt":166.5,"correct":true,"confidence":3},{"trial_n":70,"n_dots":3.25,"target":"right","response":"right","rt":1001.1999999881,"correct":true,"confidence":1},{"trial_n":71,"n_dots":3.25,"target":"right","response":"right","rt":734.5,"correct":true,"confidence":1},{"trial_n":72,"n_dots":3.15,"target":"left","response":"left","rt":560.40000003576,"correct":true,"confidence":3},{"trial_n":73,"n_dots":3.15,"target":"right","response":"left","rt":206.40000003576,"correct":false,"confidence":2},{"trial_n":74,"n_dots":3.25,"target":"right","response":"right","rt":370.69999998808,"correct":true,"confidence":2},{"trial_n":75,"n_dots":3.25,"target":"right","response":"right","rt":1208.7999999523,"correct":true,"confidence":1},{"trial_n":76,"n_dots":3.15,"target":"left","response":"left","rt":469.30000001192,"correct":true,"confidence":2},{"trial_n":77,"n_dots":3.15,"target":"right","response":"right","rt":109.30000001192,"correct":true,"confidence":2},{"trial_n":78,"n_dots":3.05,"target":"left","response":"right","rt":1010.1000000238,"correct":false,"confidence":1},{"trial_n":79,"n_dots":3.15,"target":"left","response":"left","rt":551.89999997616,"correct":true,"confidence":2},{"trial_n":80,"n_dots":3.15,"target":"right","response":"left","rt":181.09999996424,"correct":false,"confidence":3},{"trial_n":81,"n_dots":3.25,"target":"right","response":"right","rt":214.39999997616,"correct":true,"confidence":3},{"trial_n":82,"n_dots":3.25,"target":"left","response":"left","rt":60.600000023842,"correct":true,"confidence":5},{"trial_n":83,"n_dots":3.15,"target":"left","response":"left","rt":95.699999988079,"correct":true,"confidence":5},{"trial_n":84,"n_dots":3.15,"target":"right","response":"left","rt":138.09999996424,"correct":false,"confidence":4},{"trial_n":85,"n_dots":3.25,"target":"left","response":"left","rt":182,"correct":true,"confidence":4},{"trial_n":86,"n_dots":3.25,"target":"left","response":"left","rt":228.30000001192,"correct":true,"confidence":4},{"trial_n":87,"n_dots":3.15,"target":"right","response":"left","rt":526.80000001192,"correct":false,"confidence":2},{"trial_n":88,"n_dots":3.25,"target":"left","response":"left","rt":306.80000001192,"correct":true,"confidence":1},{"trial_n":89,"n_dots":3.25,"target":"left","response":"right","rt":981.60000002384,"correct":false,"confidence":1},{"trial_n":90,"n_dots":3.35,"target":"left","response":"left","rt":70.699999988079,"correct":true,"confidence":4},{"trial_n":91,"n_dots":3.35,"target":"left","response":"left","rt":750.5,"correct":true,"confidence":3},{"trial_n":92,"n_dots":3.25,"target":"right","response":"right","rt":505.89999997616,"correct":true,"confidence":3},{"trial_n":93,"n_dots":3.25,"target":"right","response":"left","rt":141.29999995232,"correct":false,"confidence":4},{"trial_n":94,"n_dots":3.35,"target":"right","response":"left","rt":307,"correct":false,"confidence":2},{"trial_n":95,"n_dots":3.45,"target":"right","response":"right","rt":1373.3000000119,"correct":true,"confidence":1},{"trial_n":96,"n_dots":3.45,"target":"left","response":"left","rt":95.400000035763,"correct":true,"confidence":5},{"trial_n":97,"n_dots":3.35,"target":"left","response":"left","rt":301.59999996424,"correct":true,"confidence":2},{"trial_n":98,"n_dots":3.35,"target":"right","response":"right","rt":585.5,"correct":true,"confidence":4},{"trial_n":99,"n_dots":3.25,"target":"left","response":"left","rt":144.59999996424,"correct":true,"confidence":4},{"trial_n":100,"n_dots":3.25,"target":"left","response":"left","rt":1153.1999999881,"correct":true,"confidence":2},{"trial_n":101,"n_dots":3.15,"target":"right","response":"right","rt":421.80000001192,"correct":true,"confidence":1},{"trial_n":102,"n_dots":3.15,"target":"right","response":"left","rt":588.30000001192,"correct":false,"confidence":1},{"trial_n":103,"n_dots":3.25,"target":"right","response":"right","rt":353.10000002384,"correct":true,"confidence":3},{"trial_n":104,"n_dots":3.25,"target":"left","response":"left","rt":86.600000023842,"correct":true,"confidence":5},{"trial_n":105,"n_dots":3.15,"target":"left","response":"left","rt":77.800000011921,"correct":true,"confidence":5},{"trial_n":106,"n_dots":3.15,"target":"left","response":"left","rt":1319.8000000119,"correct":true,"confidence":3},{"trial_n":107,"n_dots":3.05,"target":"right","response":"left","rt":184,"correct":false,"confidence":3},{"trial_n":108,"n_dots":3.15,"target":"right","response":"right","rt":345.09999996424,"correct":true,"confidence":3},{"trial_n":109,"n_dots":3.15,"target":"left","response":"left","rt":193.39999997616,"correct":true,"confidence":4},{"trial_n":110,"n_dots":3.05,"target":"left","response":"left","rt":221.89999997616,"correct":true,"confidence":4},{"trial_n":111,"n_dots":3.05,"target":"left","response":"left","rt":82.099999964237,"correct":true,"confidence":5},{"trial_n":112,"n_dots":2.95,"target":"right","response":"right","rt":199.69999998808,"correct":true,"confidence":3},{"trial_n":113,"n_dots":2.95,"target":"right","response":"left","rt":1316.5,"correct":false,"confidence":1},{"trial_n":114,"n_dots":3.05,"target":"left","response":"right","rt":546.79999995232,"correct":false,"confidence":1},{"trial_n":115,"n_dots":3.15,"target":"left","response":"left","rt":130.39999997616,"correct":true,"confidence":3},{"trial_n":116,"n_dots":3.15,"target":"right","response":"right","rt":1100.8000000119,"correct":true,"confidence":2},{"trial_n":117,"n_dots":3.05,"target":"left","response":"left","rt":492.30000001192,"correct":true,"confidence":2},{"trial_n":118,"n_dots":3.05,"target":"right","response":"right","rt":634.20000004768,"correct":true,"confidence":2},{"trial_n":119,"n_dots":2.95,"target":"right","response":"right","rt":273.89999997616,"correct":true,"confidence":3},{"trial_n":120,"n_dots":2.95,"target":"right","response":"right","rt":171.10000002384,"correct":true,"confidence":2}]