[{"trial_n":1,"min":25,"max":230,"target":"present","response":"present","rt":5887.5,"correct":true,"confidence":-1},{"trial_n":2,"min":25,"max":230,"target":"present","response":"present","rt":1284.6000000238,"correct":true,"confidence":-1},{"trial_n":3,"min":41,"max":214,"target":"absent","response":"absent","rt":1248,"correct":true,"confidence":-1},{"trial_n":4,"min":41,"max":214,"target":"absent","response":"absent","rt":1094.5999999642,"correct":true,"confidence":-1},{"trial_n":5,"min":57,"max":198,"target":"present","response":"present","rt":1071.4000000358,"correct":true,"confidence":-1},{"trial_n":6,"min":57,"max":198,"target":"present","response":"present","rt":1355,"correct":true,"confidence":-1},{"trial_n":7,"min":73,"max":182,"target":"present","response":"present","rt":1330.1999999881,"correct":true,"confidence":-1},{"trial_n":8,"min":73,"max":182,"target":"absent","response":"absent","rt":978.5,"correct":true,"confidence":-1},{"trial_n":9,"min":89,"max":166,"target":"absent","response":"present","rt":3268.6000000238,"correct":false,"confidence":-1},{"trial_n":10,"min":73,"max":182,"target":"present","response":"absent","rt":1318.8000000119,"correct":false,"confidence":-1},{"trial_n":11,"min":65,"max":190,"target":"present","response":"present","rt":834.5,"correct":true,"confidence":-1},{"trial_n":12,"min":65,"max":190,"target":"absent","response":"present","rt":1410.5,"correct":false,"confidence":-1},{"trial_n":13,"min":57,"max":198,"target":"present","response":"present","rt":685.19999998808,"correct":true,"confidence":-1},{"trial_n":14,"min":57,"max":198,"target":"present","response":"present","rt":938.19999998808,"correct":true,"confidence":-1},{"trial_n":15,"min":65,"max":190,"target":"present","response":"present","rt":555.30000001192,"correct":true,"confidence":-1},{"trial_n":16,"min":65,"max":190,"target":"present","response":"present","rt":1231.6999999881,"correct":true,"confidence":-1},{"trial_n":17,"min":73,"max":182,"target":"present","response":"present","rt":1291.8999999762,"correct":true,"confidence":-1},{"trial_n":18,"min":73,"max":182,"target":"present","response":"present","rt":1181.2999999523,"correct":true,"confidence":-1},{"trial_n":19,"min":81,"max":174,"target":"present","response":"present","rt":2023.8000000119,"correct":true,"confidence":-1},{"trial_n":20,"min":81,"max":174,"target":"present","response":"present","rt":582.10000002384,"correct":true,"confidence":-1},{"trial_n":21,"min":85,"max":170,"target":"absent","response":"present","rt":3267.5999999642,"correct":false,"confidence":2},{"trial_n":22,"min":81,"max":174,"target":"absent","response":"absent","rt":1989.9000000358,"correct":true,"confidence":3},{"trial_n":23,"min":81,"max":174,"target":"present","response":"absent","rt":3142.3000000119,"correct":false,"confidence":3},{"trial_n":24,"min":77,"max":178,"target":"absent","response":"present","rt":1124,"correct":false,"confidence":4},{"trial_n":25,"min":73,"max":182,"target":"absent","response":"present","rt":3138,"correct":false,"confidence":3},{"trial_n":26,"min":69,"max":186,"target":"absent","response":"absent","rt":1469.0999999642,"correct":true,"confidence":4},{"trial_n":27,"min":69,"max":186,"target":"absent","response":"absent","rt":1980.6999999881,"correct":true,"confidence":3},{"trial_n":28,"min":73,"max":182,"target":"present","response":"present","rt":1105.2999999523,"correct":true,"confidence":5},{"trial_n":29,"min":73,"max":182,"target":"present","response":"present","rt":1700.5,"correct":true,"confidence":3},{"trial_n":30,"min":77,"max":178,"target":"absent","response":"present","rt":1962.0999999642,"correct":false,"confidence":2},{"trial_n":31,"min":75,"max":180,"target":"present","response":"present","rt":1203.8999999762,"correct":true,"confidence":4},{"trial_n":32,"min":75,"max":180,"target":"absent","response":"present","rt":1946.8000000119,"correct":false,"confidence":2},{"trial_n":33,"min":73,"max":182,"target":"present","response":"present","rt":2660.8000000119,"correct":true,"confidence":2},{"trial_n":34,"min":73,"max":182,"target":"present","response":"present","rt":1538.8000000119,"correct":true,"confidence":5},{"trial_n":35,"min":75,"max":180,"target":"present","response":"present","rt":945.80000001192,"correct":true,"confidence":5},{"trial_n":36,"min":75,"max":180,"target":"present","response":"absent","rt":4193.5,"correct":false,"confidence":1},{"trial_n":37,"min":73,"max":182,"target":"absent","response":"absent","rt":1543.3000000119,"correct":true,"confidence":2},{"trial_n":38,"min":73,"max":182,"target":"absent","response":"absent","rt":1743.3999999762,"correct":true,"confidence":4},{"trial_n":39,"min":75,"max":180,"target":"absent","response":"absent","rt":3416.5,"correct":true,"confidence":3},{"trial_n":40,"min":75,"max":180,"target":"absent","response":"absent","rt":1536.0999999642,"correct":true,"confidence":3},{"trial_n":41,"min":76,"max":179,"target":"absent","response":"absent","rt":1194.5,"correct":true,"confidence":3},{"trial_n":42,"min":76,"max":179,"target":"present","response":"absent","rt":1456.1000000238,"correct":false,"confidence":3},{"trial_n":43,"min":75,"max":180,"target":"present","response":"present","rt":2011.5,"correct":true,"confidence":2},{"trial_n":44,"min":75,"max":180,"target":"present","response":"present","rt":1534,"correct":true,"confidence":2},{"trial_n":45,"min":76,"max":179,"target":"present","response":"absent","rt":1919.6999999881,"correct":false,"confidence":3},{"trial_n":46,"min":75,"max":180,"target":"absent","response":"absent","rt":1099.8999999762,"correct":true,"confidence":4},{"trial_n":47,"min":75,"max":180,"target":"present","response":"present","rt":1024.5,"correct":true,"confidence":4},{"trial_n":48,"min":76,"max":179,"target":"absent","response":"absent","rt":1108.2000000477,"correct":true,"confidence":1},{"trial_n":49,"min":76,"max":179,"target":"absent","response":"absent","rt":1379.1999999881,"correct":true,"confidence":4},{"trial_n":50,"min":77,"max":178,"target":"absent","response":"absent","rt":1946.3000000119,"correct":true,"confidence":3},{"trial_n":51,"min":77,"max":178,"target":"absent","response":"absent","rt":1057.4000000358,"correct":true,"confidence":4},{"trial_n":52,"min":78,"max":177,"target":"present","response":"absent","rt":971.90000003576,"correct":false,"confidence":4},{"trial_n":53,"min":77,"max":178,"target":"absent","response":"absent","rt":1066.3000000119,"correct":true,"confidence":4},{"trial_n":54,"min":77,"max":178,"target":"present","response":"absent","rt":952.80000001192,"correct":false,"confidence":4},{"trial_n":55,"min":76,"max":179,"target":"absent","response":"absent","rt":2521.3999999762,"correct":true,"confidence":4},{"trial_n":56,"min":76,"max":179,"target":"absent","response":"present","rt":1193.1000000238,"correct":false,"confidence":4},{"trial_n":57,"min":75,"max":180,"target":"absent","response":"absent","rt":1955.3999999762,"correct":true,"confidence":3},{"trial_n":58,"min":75,"max":180,"target":"absent","response":"present","rt":1321.3999999762,"correct":false,"confidence":3},{"trial_n":59,"min":74,"max":181,"target":"absent","response":"absent","rt":1212.6999999881,"correct":true,"confidence":2},{"trial_n":60,"min":74,"max":181,"target":"absent","response":"present","rt":1102.1999999881,"correct":false,"confidence":2},{"trial_n":61,"min":73,"max":182,"target":"absent","response":"present","rt":1378.3999999762,"correct":false,"confidence":3},{"trial_n":62,"min":72,"max":183,"target":"present","response":"present","rt":2149.6999999881,"correct":true,"confidence":2},{"trial_n":63,"min":72,"max":183,"target":"present","response":"present","rt":1002.3999999762,"correct":true,"confidence":5},{"trial_n":64,"min":73,"max":182,"target":"absent","response":"present","rt":4421.5999999642,"correct":false,"confidence":1},{"trial_n":65,"min":72,"max":183,"target":"present","response":"present","rt":902,"correct":true,"confidence":5},{"trial_n":66,"min":72,"max":183,"target":"present","response":"present","rt":973.30000001192,"correct":true,"confidence":5},{"trial_n":67,"min":73,"max":182,"target":"present","response":"present","rt":1564.5,"correct":true,"confidence":5},{"trial_n":68,"min":73,"max":182,"target":"absent","response":"absent","rt":3471.4000000358,"correct":true,"confidence":1},{"trial_n":69,"min":74,"max":181,"target":"absent","response":"absent","rt":2312.9000000358,"correct":true,"confidence":2},{"trial_n":70,"min":74,"max":181,"target":"present","response":"present","rt":933.59999996424,"correct":true,"confidence":5},{"trial_n":71,"min":41,"max":214,"target":"present","response":"present","rt":5094.6999999881,"correct":true,"confidence":-1},{"trial_n":72,"min":41,"max":214,"target":"present","response":"present","rt":1408.1000000238,"correct":true,"confidence":-1},{"trial_n":73,"min":57,"max":198,"target":"absent","response":"absent","rt":1484.7999999523,"correct":true,"confidence":-1},{"trial_n":74,"min":57,"max":198,"target":"absent","response":"present","rt":753.5,"correct":false,"confidence":-1},{"trial_n":75,"min":41,"max":214,"target":"present","response":"present","rt":619.90000003576,"correct":true,"confidence":-1},{"trial_n":76,"min":41,"max":214,"target":"absent","response":"absent","rt":1103.3000000119,"correct":true,"confidence":-1},{"trial_n":77,"min":57,"max":198,"target":"present","response":"present","rt":1232.3999999762,"correct":true,"confidence":-1},{"trial_n":78,"min":57,"max":198,"target":"absent","response":"absent","rt":682,"correct":true,"confidence":-1},{"trial_n":79,"min":73,"max":182,"target":"absent","response":"absent","rt":984.09999996424,"correct":true,"confidence":-1},{"trial_n":80,"min":73,"max":182,"target":"present","response":"present","rt":1129.0999999642,"correct":true,"confidence":-1},{"trial_n":81,"min":81,"max":174,"target":"present","response":"present","rt":577.20000004768,"correct":true,"confidence":-1},{"trial_n":82,"min":81,"max":174,"target":"absent","response":"present","rt":1049.3999999762,"correct":false,"confidence":-1},{"trial_n":83,"min":73,"max":182,"target":"present","response":"present","rt":1220.0999999642,"correct":true,"confidence":-1},{"trial_n":84,"min":73,"max":182,"target":"absent","response":"absent","rt":840.90000003576,"correct":true,"confidence":-1},{"trial_n":85,"min":81,"max":174,"target":"absent","response":"absent","rt":1239.8000000119,"correct":true,"confidence":-1},{"trial_n":86,"min":81,"max":174,"target":"present","response":"absent","rt":776.09999996424,"correct":false,"confidence":-1},{"trial_n":87,"min":73,"max":182,"target":"present","response":"present","rt":704.09999996424,"correct":true,"confidence":-1},{"trial_n":88,"min":73,"max":182,"target":"present","response":"present","rt":711,"correct":true,"confidence":-1},{"trial_n":89,"min":81,"max":174,"target":"absent","response":"present","rt":1137.3999999762,"correct":false,"confidence":-1},{"trial_n":90,"min":73,"max":182,"target":"present","response":"present","rt":419.10000002384,"correct":true,"confidence":-1},{"trial_n":91,"min":73,"max":182,"target":"present","response":"present","rt":627.90000003576,"correct":true,"confidence":5},{"trial_n":92,"min":77,"max":178,"target":"present","response":"present","rt":861.09999996424,"correct":true,"confidence":5},{"trial_n":93,"min":77,"max":178,"target":"present","response":"present","rt":1607.4000000358,"correct":true,"confidence":4},{"trial_n":94,"min":81,"max":174,"target":"present","response":"present","rt":1055,"correct":true,"confidence":3},{"trial_n":95,"min":81,"max":174,"target":"present","response":"present","rt":818.19999998808,"correct":true,"confidence":4},{"trial_n":96,"min":85,"max":170,"target":"absent","response":"present","rt":1206.9000000358,"correct":false,"confidence":3},{"trial_n":97,"min":81,"max":174,"target":"present","response":"present","rt":651.10000002384,"correct":true,"confidence":4},{"trial_n":98,"min":81,"max":174,"target":"absent","response":"absent","rt":2544.0999999642,"correct":true,"confidence":2},{"trial_n":99,"min":85,"max":170,"target":"present","response":"present","rt":1487.9000000358,"correct":true,"confidence":3},{"trial_n":100,"min":85,"max":170,"target":"absent","response":"absent","rt":3146.0999999642,"correct":true,"confidence":1},{"trial_n":101,"min":87,"max":168,"target":"present","response":"present","rt":1836.3999999762,"correct":true,"confidence":1},{"trial_n":102,"min":87,"max":168,"target":"present","response":"present","rt":1128.2000000477,"correct":true,"confidence":3},{"trial_n":103,"min":89,"max":166,"target":"present","response":"present","rt":1709.6999999881,"correct":true,"confidence":2},{"trial_n":104,"min":89,"max":166,"target":"absent","response":"absent","rt":1061.6999999881,"correct":true,"confidence":3},{"trial_n":105,"min":91,"max":164,"target":"absent","response":"absent","rt":3411.3000000119,"correct":true,"confidence":1},{"trial_n":106,"min":91,"max":164,"target":"present","response":"present","rt":1200.8999999762,"correct":true,"confidence":2},{"trial_n":107,"min":93,"max":162,"target":"present","response":"absent","rt":2605.3999999762,"correct":false,"confidence":1},{"trial_n":108,"min":91,"max":164,"target":"absent","response":"present","rt":1532.5,"correct":false,"confidence":1},{"trial_n":109,"min":89,"max":166,"target":"absent","response":"present","rt":1802.0999999642,"correct":false,"confidence":1},{"trial_n":110,"min":87,"max":168,"target":"absent","response":"absent","rt":1205.3000000119,"correct":true,"confidence":3},{"trial_n":111,"min":87,"max":168,"target":"absent","response":"absent","rt":1195.3999999762,"correct":true,"confidence":3},{"trial_n":112,"min":88,"max":167,"target":"absent","response":"absent","rt":1736.5,"correct":true,"confidence":3},{"trial_n":113,"min":88,"max":167,"target":"absent","response":"absent","rt":3319.6000000238,"correct":true,"confidence":2},{"trial_n":114,"min":89,"max":166,"target":"present","response":"present","rt":822.20000004768,"correct":true,"confidence":4},{"trial_n":115,"min":89,"max":166,"target":"absent","response":"absent","rt":2944.8000000119,"correct":true,"confidence":1},{"trial_n":116,"min":90,"max":165,"target":"present","response":"present","rt":801.80000001192,"correct":true,"confidence":4},{"trial_n":117,"min":90,"max":165,"target":"absent","response":"present","rt":1379.1999999881,"correct":false,"confidence":3},{"trial_n":118,"min":89,"max":166,"target":"absent","response":"absent","rt":2589.8999999762,"correct":true,"confidence":1},{"trial_n":119,"min":89,"max":166,"target":"absent","response":"present","rt":2700.0999999642,"correct":false,"confidence":1},{"trial_n":120,"min":88,"max":167,"target":"absent","response":"present","rt":1685.5,"correct":false,"confidence":2},{"trial_n":121,"min":87,"max":168,"target":"present","response":"present","rt":1440.5,"correct":true,"confidence":3},{"trial_n":122,"min":87,"max":168,"target":"absent","response":"present","rt":2349.3000000119,"correct":false,"confidence":2},{"trial_n":123,"min":86,"max":169,"target":"absent","response":"absent","rt":1339.5,"correct":true,"confidence":1},{"trial_n":124,"min":86,"max":169,"target":"absent","response":"present","rt":1480.1999999881,"correct":false,"confidence":2},{"trial_n":125,"min":85,"max":170,"target":"present","response":"present","rt":1003.6000000238,"correct":true,"confidence":4},{"trial_n":126,"min":85,"max":170,"target":"present","response":"absent","rt":2151.1999999881,"correct":false,"confidence":1},{"trial_n":127,"min":84,"max":171,"target":"absent","response":"absent","rt":1394,"correct":true,"confidence":5},{"trial_n":128,"min":84,"max":171,"target":"absent","response":"absent","rt":2031,"correct":true,"confidence":2},{"trial_n":129,"min":85,"max":170,"target":"absent","response":"present","rt":1863,"correct":false,"confidence":2},{"trial_n":130,"min":84,"max":171,"target":"present","response":"present","rt":880,"correct":true,"confidence":3},{"trial_n":131,"min":84,"max":171,"target":"present","response":"present","rt":560.69999998808,"correct":true,"confidence":4},{"trial_n":132,"min":85,"max":170,"target":"present","response":"present","rt":740,"correct":true,"confidence":4},{"trial_n":133,"min":85,"max":170,"target":"absent","response":"present","rt":1496.3000000119,"correct":false,"confidence":3},{"trial_n":134,"min":84,"max":171,"target":"absent","response":"absent","rt":1319.1999999881,"correct":true,"confidence":4},{"trial_n":135,"min":84,"max":171,"target":"present","response":"absent","rt":1508.4000000358,"correct":false,"confidence":2},{"trial_n":136,"min":83,"max":172,"target":"present","response":"absent","rt":2260.5,"correct":false,"confidence":1},{"trial_n":137,"min":82,"max":173,"target":"present","response":"present","rt":652.89999997616,"correct":true,"confidence":5},{"trial_n":138,"min":82,"max":173,"target":"present","response":"absent","rt":2266.0999999642,"correct":false,"confidence":1},{"trial_n":139,"min":81,"max":174,"target":"absent","response":"absent","rt":962.90000003576,"correct":true,"confidence":4},{"trial_n":140,"min":81,"max":174,"target":"present","response":"present","rt":1094.8999999762,"correct":true,"confidence":5}]