[{"trial_n":1,"n_dots":4.25,"target":"right","response":"right","rt":6076.5999999642,"correct":true,"confidence":-1},{"trial_n":2,"n_dots":4.25,"target":"right","response":"right","rt":1878.1999999881,"correct":true,"confidence":-1},{"trial_n":3,"n_dots":3.85,"target":"right","response":"right","rt":297.60000002384,"correct":true,"confidence":-1},{"trial_n":4,"n_dots":3.85,"target":"left","response":"right","rt":417.39999997616,"correct":false,"confidence":-1},{"trial_n":5,"n_dots":4.25,"target":"left","response":"left","rt":1796.5,"correct":true,"confidence":-1},{"trial_n":6,"n_dots":4.25,"target":"right","response":"right","rt":786.59999996424,"correct":true,"confidence":-1},{"trial_n":7,"n_dots":3.85,"target":"left","response":"left","rt":1285.8000000119,"correct":true,"confidence":-1},{"trial_n":8,"n_dots":3.85,"target":"left","response":"left","rt":1252.5999999642,"correct":true,"confidence":-1},{"trial_n":9,"n_dots":3.65,"target":"left","response":"left","rt":1501.8000000119,"correct":true,"confidence":-1},{"trial_n":10,"n_dots":3.65,"target":"right","response":"right","rt":1813.8000000119,"correct":true,"confidence":-1},{"trial_n":11,"n_dots":3.45,"target":"left","response":"left","rt":1369.5,"correct":true,"confidence":-1},{"trial_n":12,"n_dots":3.45,"target":"right","response":"right","rt":1425.8999999762,"correct":true,"confidence":-1},{"trial_n":13,"n_dots":3.35,"target":"right","response":"right","rt":1242.6999999881,"correct":true,"confidence":-1},{"trial_n":14,"n_dots":3.35,"target":"right","response":"right","rt":1612,"correct":true,"confidence":-1},{"trial_n":15,"n_dots":3.25,"target":"right","response":"right","rt":1065.3999999762,"correct":true,"confidence":-1},{"trial_n":16,"n_dots":3.25,"target":"left","response":"left","rt":1666.5,"correct":true,"confidence":-1},{"trial_n":17,"n_dots":3.15,"target":"left","response":"left","rt":1025.5,"correct":true,"confidence":-1},{"trial_n":18,"n_dots":3.15,"target":"left","response":"left","rt":1148,"correct":true,"confidence":-1},{"trial_n":19,"n_dots":3.05,"target":"right","response":"left","rt":1235.8999999762,"correct":false,"confidence":-1},{"trial_n":20,"n_dots":3.15,"target":"right","response":"right","rt":1412.0999999642,"correct":true,"confidence":-1},{"trial_n":21,"n_dots":3.15,"target":"right","response":"right","rt":764.30000001192,"correct":true,"confidence":3},{"trial_n":22,"n_dots":3.05,"target":"left","response":"right","rt":1554.1999999881,"correct":false,"confidence":4},{"trial_n":23,"n_dots":3.15,"target":"right","response":"right","rt":1225.1999999881,"correct":true,"confidence":4},{"trial_n":24,"n_dots":3.15,"target":"left","response":"right","rt":1537.6999999881,"correct":false,"confidence":3},{"trial_n":25,"n_dots":3.25,"target":"left","response":"right","rt":1365.3000000119,"correct":false,"confidence":3},{"trial_n":26,"n_dots":3.35,"target":"right","response":"right","rt":1322.9000000358,"correct":true,"confidence":3},{"trial_n":27,"n_dots":3.35,"target":"left","response":"right","rt":1269.5999999642,"correct":false,"confidence":3},{"trial_n":28,"n_dots":3.45,"target":"left","response":"left","rt":1198.1999999881,"correct":true,"confidence":4},{"trial_n":29,"n_dots":3.45,"target":"right","response":"right","rt":1385.5,"correct":true,"confidence":4},{"trial_n":30,"n_dots":3.35,"target":"left","response":"right","rt":1860.8999999762,"correct":false,"confidence":2},{"trial_n":31,"n_dots":3.45,"target":"left","response":"right","rt":1444.1999999881,"correct":false,"confidence":2},{"trial_n":32,"n_dots":3.55,"target":"right","response":"right","rt":1173.8000000119,"correct":true,"confidence":4},{"trial_n":33,"n_dots":3.55,"target":"left","response":"right","rt":1364.1999999881,"correct":false,"confidence":4},{"trial_n":34,"n_dots":3.65,"target":"right","response":"right","rt":1220.3999999762,"correct":true,"confidence":2},{"trial_n":35,"n_dots":3.65,"target":"left","response":"left","rt":1723.3000000119,"correct":true,"confidence":2},{"trial_n":36,"n_dots":3.55,"target":"right","response":"right","rt":1025.5,"correct":true,"confidence":4},{"trial_n":37,"n_dots":3.55,"target":"right","response":"right","rt":1105.3999999762,"correct":true,"confidence":4},{"trial_n":38,"n_dots":3.45,"target":"right","response":"right","rt":1091.6999999881,"correct":true,"confidence":3},{"trial_n":39,"n_dots":3.45,"target":"right","response":"right","rt":1828.8000000119,"correct":true,"confidence":2},{"trial_n":40,"n_dots":3.35,"target":"right","response":"right","rt":1227.5,"correct":true,"confidence":4},{"trial_n":41,"n_dots":3.35,"target":"left","response":"right","rt":761.80000001192,"correct":false,"confidence":5},{"trial_n":42,"n_dots":3.45,"target":"right","response":"right","rt":1636.3000000119,"correct":true,"confidence":2},{"trial_n":43,"n_dots":3.45,"target":"right","response":"left","rt":1881.5,"correct":false,"confidence":2},{"trial_n":44,"n_dots":3.55,"target":"right","response":"right","rt":1201.3999999762,"correct":true,"confidence":4},{"trial_n":45,"n_dots":3.55,"target":"right","response":"right","rt":1214.1999999881,"correct":true,"confidence":4},{"trial_n":46,"n_dots":3.45,"target":"right","response":"left","rt":1995.5,"correct":false,"confidence":2},{"trial_n":47,"n_dots":3.55,"target":"right","response":"right","rt":1150,"correct":true,"confidence":3},{"trial_n":48,"n_dots":3.55,"target":"right","response":"right","rt":1129.5999999642,"correct":true,"confidence":4},{"trial_n":49,"n_dots":3.45,"target":"left","response":"left","rt":1569.8999999762,"correct":true,"confidence":3},{"trial_n":50,"n_dots":3.45,"target":"right","response":"right","rt":883.69999998808,"correct":true,"confidence":4},{"trial_n":51,"n_dots":3.35,"target":"left","response":"left","rt":1259.3999999762,"correct":true,"confidence":3},{"trial_n":52,"n_dots":3.35,"target":"left","response":"right","rt":1266.3000000119,"correct":false,"confidence":2},{"trial_n":53,"n_dots":3.45,"target":"left","response":"right","rt":1666.3999999762,"correct":false,"confidence":2},{"trial_n":54,"n_dots":3.55,"target":"right","response":"right","rt":1282.5999999642,"correct":true,"confidence":3},{"trial_n":55,"n_dots":3.55,"target":"right","response":"right","rt":1114.6999999881,"correct":true,"confidence":3},{"trial_n":56,"n_dots":3.45,"target":"left","response":"left","rt":1442.3999999762,"correct":true,"confidence":2},{"trial_n":57,"n_dots":3.45,"target":"left","response":"right","rt":1390.1000000238,"correct":false,"confidence":2},{"trial_n":58,"n_dots":3.55,"target":"left","response":"left","rt":1589.6999999881,"correct":true,"confidence":2},{"trial_n":59,"n_dots":3.55,"target":"left","response":"right","rt":1193.5,"correct":false,"confidence":3},{"trial_n":60,"n_dots":3.65,"target":"left","response":"left","rt":1347.3999999762,"correct":true,"confidence":3},{"trial_n":61,"n_dots":3.65,"target":"right","response":"right","rt":1142.1999999881,"correct":true,"confidence":4},{"trial_n":62,"n_dots":3.55,"target":"right","response":"right","rt":916.30000001192,"correct":true,"confidence":4},{"trial_n":63,"n_dots":3.55,"target":"left","response":"left","rt":1306.8000000119,"correct":true,"confidence":4},{"trial_n":64,"n_dots":3.45,"target":"left","response":"right","rt":1302.1000000238,"correct":false,"confidence":4},{"trial_n":65,"n_dots":3.55,"target":"right","response":"right","rt":1043,"correct":true,"confidence":4},{"trial_n":66,"n_dots":3.55,"target":"right","response":"left","rt":1377.6000000238,"correct":false,"confidence":3},{"trial_n":67,"n_dots":3.65,"target":"left","response":"left","rt":1190.3000000119,"correct":true,"confidence":2},{"trial_n":68,"n_dots":3.65,"target":"left","response":"left","rt":515.30000001192,"correct":true,"confidence":2},{"trial_n":69,"n_dots":3.55,"target":"right","response":"right","rt":1170.3000000119,"correct":true,"confidence":4},{"trial_n":70,"n_dots":3.55,"target":"right","response":"right","rt":1170.3000000119,"correct":true,"confidence":4},{"trial_n":71,"n_dots":3.45,"target":"left","response":"left","rt":1229.9000000358,"correct":true,"confidence":4},{"trial_n":72,"n_dots":3.45,"target":"left","response":"left","rt":1421.3000000119,"correct":true,"confidence":2},{"trial_n":73,"n_dots":3.35,"target":"left","response":"left","rt":1513.5999999642,"correct":true,"confidence":2},{"trial_n":74,"n_dots":3.35,"target":"right","response":"right","rt":1005.1999999881,"correct":true,"confidence":4},{"trial_n":75,"n_dots":3.25,"target":"right","response":"right","rt":1324.3000000119,"correct":true,"confidence":4},{"trial_n":76,"n_dots":3.25,"target":"right","response":"right","rt":1109.3000000119,"correct":true,"confidence":4},{"trial_n":77,"n_dots":3.15,"target":"right","response":"right","rt":1708.1999999881,"correct":true,"confidence":2},{"trial_n":78,"n_dots":3.15,"target":"left","response":"left","rt":1171.8000000119,"correct":true,"confidence":3},{"trial_n":79,"n_dots":3.05,"target":"left","response":"left","rt":2230.0999999642,"correct":true,"confidence":3},{"trial_n":80,"n_dots":3.05,"target":"left","response":"left","rt":1198.3000000119,"correct":true,"confidence":2},{"trial_n":81,"n_dots":2.95,"target":"left","response":"right","rt":1709.4000000358,"correct":false,"confidence":1},{"trial_n":82,"n_dots":3.05,"target":"left","response":"right","rt":1043,"correct":false,"confidence":3},{"trial_n":83,"n_dots":3.15,"target":"left","response":"left","rt":1270.3999999762,"correct":true,"confidence":3},{"trial_n":84,"n_dots":3.15,"target":"right","response":"right","rt":1561.6000000238,"correct":true,"confidence":3},{"trial_n":85,"n_dots":3.05,"target":"left","response":"right","rt":1370.3000000119,"correct":false,"confidence":2},{"trial_n":86,"n_dots":3.15,"target":"left","response":"right","rt":1035.8999999762,"correct":false,"confidence":2},{"trial_n":87,"n_dots":3.25,"target":"left","response":"left","rt":1401.3999999762,"correct":true,"confidence":3},{"trial_n":88,"n_dots":3.25,"target":"right","response":"right","rt":945.5,"correct":true,"confidence":4},{"trial_n":89,"n_dots":3.15,"target":"left","response":"left","rt":1228.5,"correct":true,"confidence":3},{"trial_n":90,"n_dots":3.15,"target":"left","response":"left","rt":942.5,"correct":true,"confidence":3},{"trial_n":91,"n_dots":3.05,"target":"right","response":"right","rt":1793.5,"correct":true,"confidence":2},{"trial_n":92,"n_dots":3.05,"target":"right","response":"right","rt":1242.8999999762,"correct":true,"confidence":4},{"trial_n":93,"n_dots":2.95,"target":"right","response":"right","rt":1787.1000000238,"correct":true,"confidence":2},{"trial_n":94,"n_dots":2.95,"target":"left","response":"left","rt":1354.8000000119,"correct":true,"confidence":3},{"trial_n":95,"n_dots":2.85,"target":"right","response":"right","rt":1140.8000000119,"correct":true,"confidence":4},{"trial_n":96,"n_dots":2.85,"target":"left","response":"left","rt":1873.6999999881,"correct":true,"confidence":5},{"trial_n":97,"n_dots":2.75,"target":"left","response":"left","rt":1313.8999999762,"correct":true,"confidence":4},{"trial_n":98,"n_dots":2.75,"target":"left","response":"left","rt":2251.9000000358,"correct":true,"confidence":2},{"trial_n":99,"n_dots":2.65,"target":"left","response":"right","rt":1325.5,"correct":false,"confidence":4},{"trial_n":100,"n_dots":2.75,"target":"right","response":"left","rt":2060,"correct":false,"confidence":2},{"trial_n":101,"n_dots":2.85,"target":"left","response":"left","rt":10398,"correct":true,"confidence":1},{"trial_n":102,"n_dots":2.85,"target":"right","response":"right","rt":1521.6999999881,"correct":true,"confidence":2},{"trial_n":103,"n_dots":2.75,"target":"right","response":"right","rt":1050.6999999881,"correct":true,"confidence":3},{"trial_n":104,"n_dots":2.75,"target":"left","response":"right","rt":882.09999996424,"correct":false,"confidence":4},{"trial_n":105,"n_dots":2.85,"target":"right","response":"right","rt":1226.1000000238,"correct":true,"confidence":5},{"trial_n":106,"n_dots":2.85,"target":"left","response":"left","rt":3394.3000000119,"correct":true,"confidence":1},{"trial_n":107,"n_dots":2.75,"target":"right","response":"right","rt":1195.1999999881,"correct":true,"confidence":3},{"trial_n":108,"n_dots":2.75,"target":"right","response":"right","rt":1337.8000000119,"correct":true,"confidence":2},{"trial_n":109,"n_dots":2.65,"target":"left","response":"right","rt":766.19999998808,"correct":false,"confidence":4},{"trial_n":110,"n_dots":2.75,"target":"left","response":"right","rt":1286.1999999881,"correct":false,"confidence":2},{"trial_n":111,"n_dots":2.85,"target":"right","response":"right","rt":782.39999997616,"correct":true,"confidence":5},{"trial_n":112,"n_dots":2.85,"target":"right","response":"right","rt":1241.5999999642,"correct":true,"confidence":2},{"trial_n":113,"n_dots":2.75,"target":"right","response":"right","rt":3254.0999999642,"correct":true,"confidence":2},{"trial_n":114,"n_dots":2.75,"target":"right","response":"right","rt":613.89999997616,"correct":true,"confidence":3},{"trial_n":115,"n_dots":2.65,"target":"right","response":"right","rt":3033.6000000238,"correct":true,"confidence":2},{"trial_n":116,"n_dots":2.65,"target":"left","response":"right","rt":646,"correct":false,"confidence":3},{"trial_n":117,"n_dots":2.75,"target":"left","response":"left","rt":2250.1999999881,"correct":true,"confidence":2},{"trial_n":118,"n_dots":2.75,"target":"left","response":"left","rt":1404.8000000119,"correct":true,"confidence":3},{"trial_n":119,"n_dots":2.65,"target":"right","response":"right","rt":1716.3000000119,"correct":true,"confidence":4},{"trial_n":120,"n_dots":2.65,"target":"left","response":"right","rt":1297.3999999762,"correct":false,"confidence":3}]