[{"trial_n":1,"span":8,"encoder":"46488807","distractor":"46488817","target":"present","response":"present","rt":"3348.9000000358","correct":true,"confidence":-1},{"trial_n":2,"span":8,"encoder":"73682968","distractor":"76682968","target":"present","response":"present","rt":"2008.4000000358","correct":true,"confidence":-1},{"trial_n":3,"span":10,"encoder":"9608277337","distractor":"9608277377","target":"absent","response":"present","rt":"1999.6000000238","correct":false,"confidence":-1},{"trial_n":4,"span":8,"encoder":"12913360","distractor":"12913960","target":"absent","response":"present","rt":"3335.7000000477","correct":false,"confidence":-1},{"trial_n":5,"span":6,"encoder":"965721","distractor":"265721","target":"present","response":"present","rt":"2653.2000000477","correct":true,"confidence":-1},{"trial_n":6,"span":6,"encoder":"616768","distractor":"616761","target":"present","response":"present","rt":"1752.3000000119","correct":true,"confidence":-1},{"trial_n":7,"span":8,"encoder":"83118945","distractor":"81118945","target":"present","response":"present","rt":"1686.3000000119","correct":true,"confidence":-1},{"trial_n":8,"span":8,"encoder":"87102637","distractor":"87702637","target":"present","response":"present","rt":"2001.6000000238","correct":true,"confidence":-1},{"trial_n":9,"span":10,"encoder":"6120751751","distractor":"6120851751","target":"present","response":"present","rt":"1454.9000000358","correct":true,"confidence":-1},{"trial_n":10,"span":10,"encoder":"8774578829","distractor":"8774518829","target":"present","response":"present","rt":"2264.1000000238","correct":true,"confidence":-1},{"trial_n":11,"span":12,"encoder":"026276735442","distractor":"026376735442","target":"present","response":"present","rt":"1604.3000000119","correct":true,"confidence":-1},{"trial_n":12,"span":12,"encoder":"924650254282","distractor":"124650254282","target":"present","response":"absent","rt":"4548.1000000238","correct":false,"confidence":-1},{"trial_n":13,"span":11,"encoder":"69215825375","distractor":"69215825371","target":"absent","response":"absent","rt":"2921.8000000119","correct":true,"confidence":-1},{"trial_n":14,"span":11,"encoder":"99384727280","distractor":"99384787280","target":"present","response":"present","rt":"2313.3000000119","correct":true,"confidence":-1},{"trial_n":15,"span":12,"encoder":"055861537150","distractor":"655861537150","target":"absent","response":"present","rt":"1412.8000000119","correct":false,"confidence":-1},{"trial_n":16,"span":11,"encoder":"72592694893","distractor":"73592694893","target":"absent","response":"present","rt":"1311.8000000119","correct":false,"confidence":-1},{"trial_n":17,"span":10,"encoder":"3769398072","distractor":"3769398092","target":"absent","response":"present","rt":"1600.2000000477","correct":false,"confidence":-1},{"trial_n":18,"span":9,"encoder":"570294389","distractor":"770294389","target":"present","response":"present","rt":"1444.2000000477","correct":true,"confidence":-1},{"trial_n":19,"span":9,"encoder":"490818474","distractor":"450818474","target":"absent","response":"present","rt":"1292","correct":false,"confidence":-1},{"trial_n":20,"span":8,"encoder":"20095110","distractor":"20095111","target":"absent","response":"absent","rt":"4540.3000000119","correct":true,"confidence":-1},{"trial_n":21,"span":8,"encoder":"50769640","distractor":"50767640","target":"present","response":"present","rt":"3701.7000000477","correct":true,"confidence":4},{"trial_n":22,"span":9,"encoder":"078063110","distractor":"088063110","target":"present","response":"present","rt":"2814.8000000119","correct":true,"confidence":5},{"trial_n":23,"span":9,"encoder":"435038957","distractor":"435038907","target":"absent","response":"absent","rt":"8749.7000000477","correct":true,"confidence":3},{"trial_n":24,"span":10,"encoder":"6174947712","distractor":"6174927712","target":"present","response":"present","rt":"3712.3000000119","correct":true,"confidence":4},{"trial_n":25,"span":10,"encoder":"4818377855","distractor":"4818377815","target":"present","response":"present","rt":"4396.3000000119","correct":true,"confidence":4},{"trial_n":26,"span":11,"encoder":"22486185492","distractor":"22486685492","target":"absent","response":"present","rt":"4014.5","correct":false,"confidence":3},{"trial_n":27,"span":10,"encoder":"9608820217","distractor":"9608820219","target":"absent","response":"present","rt":"2357.3999999762","correct":false,"confidence":3},{"trial_n":28,"span":9,"encoder":"608707561","distractor":"908707561","target":"absent","response":"absent","rt":"2368.3000000119","correct":true,"confidence":4},{"trial_n":29,"span":9,"encoder":"787827088","distractor":"687827088","target":"present","response":"present","rt":"3469","correct":true,"confidence":4},{"trial_n":30,"span":10,"encoder":"6565427101","distractor":"6565457101","target":"absent","response":"present","rt":"6076","correct":false,"confidence":3},{"trial_n":31,"span":9,"encoder":"355919774","distractor":"355919734","target":"absent","response":"present","rt":"4650.6000000238","correct":false,"confidence":3},{"trial_n":32,"span":8,"encoder":"33574562","distractor":"33574592","target":"absent","response":"absent","rt":"3163","correct":true,"confidence":4},{"trial_n":33,"span":8,"encoder":"19707413","distractor":"19507413","target":"absent","response":"present","rt":"2845.2000000477","correct":false,"confidence":3},{"trial_n":34,"span":7,"encoder":"4454665","distractor":"7454665","target":"absent","response":"absent","rt":"5408.2000000477","correct":true,"confidence":3},{"trial_n":35,"span":7,"encoder":"4128177","distractor":"4126177","target":"present","response":"present","rt":"2850.8000000119","correct":true,"confidence":4},{"trial_n":36,"span":8,"encoder":"81583331","distractor":"81583334","target":"present","response":"present","rt":"2434.4000000358","correct":true,"confidence":5},{"trial_n":37,"span":8,"encoder":"76912061","distractor":"76912031","target":"present","response":"present","rt":"2490.6000000238","correct":true,"confidence":5},{"trial_n":38,"span":9,"encoder":"311101113","distractor":"311108113","target":"present","response":"present","rt":"2746","correct":true,"confidence":4},{"trial_n":39,"span":9,"encoder":"064522615","distractor":"064522625","target":"present","response":"present","rt":"2829","correct":true,"confidence":4},{"trial_n":40,"span":10,"encoder":"0095975139","distractor":"0095975199","target":"present","response":"present","rt":"6333.3000000119","correct":true,"confidence":3},{"trial_n":41,"span":10,"encoder":"9898991798","distractor":"9898991598","target":"absent","response":"absent","rt":"4112.9000000358","correct":true,"confidence":5},{"trial_n":42,"span":11,"encoder":"78207947516","distractor":"73207947516","target":"present","response":"absent","rt":"3732.3999999762","correct":false,"confidence":4},{"trial_n":43,"span":10,"encoder":"9965601439","distractor":"9965401439","target":"absent","response":"present","rt":"5102","correct":false,"confidence":3},{"trial_n":44,"span":9,"encoder":"676417602","distractor":"676417622","target":"absent","response":"absent","rt":"4028.6999999881","correct":true,"confidence":5},{"trial_n":45,"span":9,"encoder":"166464969","distractor":"166474969","target":"present","response":"absent","rt":"6437.8999999762","correct":false,"confidence":3},{"trial_n":46,"span":8,"encoder":"10460596","distractor":"10467596","target":"present","response":"present","rt":"5144.4000000358","correct":true,"confidence":3},{"trial_n":47,"span":8,"encoder":"86726422","distractor":"86720422","target":"absent","response":"present","rt":"5040.4000000358","correct":false,"confidence":3},{"trial_n":48,"span":7,"encoder":"4757429","distractor":"8757429","target":"present","response":"present","rt":"2548.3999999762","correct":true,"confidence":5},{"trial_n":49,"span":7,"encoder":"9881276","distractor":"9831276","target":"absent","response":"absent","rt":"2724.3000000119","correct":true,"confidence":5},{"trial_n":50,"span":8,"encoder":"35185147","distractor":"35985147","target":"present","response":"present","rt":"3896.4000000358","correct":true,"confidence":4},{"trial_n":51,"span":8,"encoder":"28183724","distractor":"68183724","target":"absent","response":"absent","rt":"2772.3000000119","correct":true,"confidence":5},{"trial_n":52,"span":9,"encoder":"715874623","distractor":"715873623","target":"absent","response":"absent","rt":"3174.8999999762","correct":true,"confidence":4},{"trial_n":53,"span":9,"encoder":"573533701","distractor":"573533201","target":"absent","response":"absent","rt":"3855.8000000119","correct":true,"confidence":4},{"trial_n":54,"span":10,"encoder":"7267693995","distractor":"7267633995","target":"absent","response":"absent","rt":"4249.1999999881","correct":true,"confidence":4},{"trial_n":55,"span":10,"encoder":"5822496793","distractor":"8822496793","target":"present","response":"present","rt":"5373.2000000477","correct":true,"confidence":4},{"trial_n":56,"span":11,"encoder":"75850279222","distractor":"75850271222","target":"present","response":"absent","rt":"5272","correct":false,"confidence":3},{"trial_n":57,"span":10,"encoder":"2492628719","distractor":"2492928719","target":"present","response":"absent","rt":"5262.1999999881","correct":false,"confidence":4},{"trial_n":58,"span":9,"encoder":"839398080","distractor":"839098080","target":"present","response":"present","rt":"3342","correct":true,"confidence":4},{"trial_n":59,"span":9,"encoder":"084978141","distractor":"084978142","target":"absent","response":"absent","rt":"4613.3000000119","correct":true,"confidence":4},{"trial_n":60,"span":10,"encoder":"3311188733","distractor":"3311148733","target":"present","response":"present","rt":"5060.8000000119","correct":true,"confidence":3},{"trial_n":61,"span":10,"encoder":"8770858179","distractor":"1770858179","target":"absent","response":"absent","rt":"2012.9000000358","correct":true,"confidence":4},{"trial_n":62,"span":11,"encoder":"41843058161","distractor":"41843058181","target":"absent","response":"absent","rt":"4800.8000000119","correct":true,"confidence":4},{"trial_n":63,"span":11,"encoder":"05019385740","distractor":"05019385780","target":"present","response":"absent","rt":"5890.8000000119","correct":false,"confidence":3},{"trial_n":64,"span":10,"encoder":"2900058618","distractor":"2900058118","target":"present","response":"present","rt":"3700.8999999762","correct":true,"confidence":3},{"trial_n":65,"span":10,"encoder":"2577190985","distractor":"2577190989","target":"absent","response":"absent","rt":"4003.5","correct":true,"confidence":4},{"trial_n":66,"span":11,"encoder":"23913965053","distractor":"23913665053","target":"absent","response":"absent","rt":"3488.5","correct":true,"confidence":3},{"trial_n":67,"span":11,"encoder":"28384441395","distractor":"68384441395","target":"absent","response":"absent","rt":"2484","correct":true,"confidence":3},{"trial_n":68,"span":12,"encoder":"166048221696","distractor":"166048229696","target":"present","response":"present","rt":"5347.3999999762","correct":true,"confidence":2},{"trial_n":69,"span":12,"encoder":"523349796389","distractor":"523349796384","target":"absent","response":"absent","rt":"2832.3000000119","correct":true,"confidence":5},{"trial_n":70,"span":13,"encoder":"0356439213515","distractor":"0356439213315","target":"absent","response":"absent","rt":"3815.9000000358","correct":true,"confidence":4},{"trial_n":71,"span":8,"encoder":"57729361","distractor":"57729461","target":"present","response":"present","rt":"4553.3000000119","correct":true,"confidence":-1},{"trial_n":72,"span":8,"encoder":"65184523","distractor":"65884523","target":"present","response":"present","rt":"4681.6999999881","correct":true,"confidence":-1},{"trial_n":73,"span":9,"encoder":"305067090","distractor":"305062090","target":"absent","response":"absent","rt":"2892.3000000119","correct":true,"confidence":-1},{"trial_n":74,"span":9,"encoder":"344401160","distractor":"344301160","target":"absent","response":"present","rt":"7569.5","correct":false,"confidence":-1},{"trial_n":75,"span":8,"encoder":"47527627","distractor":"47527623","target":"present","response":"present","rt":"2854.1999999881","correct":true,"confidence":-1},{"trial_n":76,"span":8,"encoder":"08546508","distractor":"08546588","target":"absent","response":"absent","rt":"3045.8000000119","correct":true,"confidence":-1},{"trial_n":77,"span":9,"encoder":"509055808","distractor":"509955808","target":"present","response":"present","rt":"5324.3999999762","correct":true,"confidence":-1},{"trial_n":78,"span":9,"encoder":"086508697","distractor":"036508697","target":"absent","response":"present","rt":"6558.1000000238","correct":false,"confidence":-1},{"trial_n":79,"span":8,"encoder":"96424868","distractor":"96474868","target":"present","response":"present","rt":"4010.1999999881","correct":true,"confidence":-1},{"trial_n":80,"span":8,"encoder":"04995958","distractor":"06995958","target":"present","response":"absent","rt":"5457.5","correct":false,"confidence":-1},{"trial_n":81,"span":7,"encoder":"8146172","distractor":"8146672","target":"present","response":"present","rt":"4666","correct":true,"confidence":-1},{"trial_n":82,"span":7,"encoder":"1626764","distractor":"1626765","target":"present","response":"present","rt":"4822.3000000119","correct":true,"confidence":-1},{"trial_n":83,"span":8,"encoder":"13660936","distractor":"13760936","target":"absent","response":"absent","rt":"4825.5","correct":true,"confidence":-1},{"trial_n":84,"span":8,"encoder":"68239054","distractor":"68239058","target":"absent","response":"absent","rt":"3318.3000000119","correct":true,"confidence":-1},{"trial_n":85,"span":9,"encoder":"723093106","distractor":"723083106","target":"present","response":"present","rt":"4529.3999999762","correct":true,"confidence":-1},{"trial_n":86,"span":9,"encoder":"916994446","distractor":"916990446","target":"present","response":"absent","rt":"6793.3000000119","correct":false,"confidence":-1},{"trial_n":87,"span":8,"encoder":"68847312","distractor":"68846312","target":"absent","response":"absent","rt":"3506.3000000119","correct":true,"confidence":-1},{"trial_n":88,"span":8,"encoder":"53489724","distractor":"53489704","target":"present","response":"present","rt":"2546.8000000119","correct":true,"confidence":-1},{"trial_n":89,"span":9,"encoder":"159136448","distractor":"959136448","target":"absent","response":"present","rt":"5171.4000000358","correct":false,"confidence":-1},{"trial_n":90,"span":8,"encoder":"18492304","distractor":"18462304","target":"present","response":"present","rt":"5646.1000000238","correct":true,"confidence":-1},{"trial_n":91,"span":8,"encoder":"93616745","distractor":"93216745","target":"absent","response":"absent","rt":"3397.5","correct":true,"confidence":5},{"trial_n":92,"span":9,"encoder":"240372956","distractor":"240772956","target":"present","response":"present","rt":"9428.6999999881","correct":true,"confidence":4},{"trial_n":93,"span":9,"encoder":"546454568","distractor":"546054568","target":"present","response":"present","rt":"4981.5999999642","correct":true,"confidence":5},{"trial_n":94,"span":10,"encoder":"6849679512","distractor":"6848679512","target":"present","response":"present","rt":"6189.3000000119","correct":true,"confidence":5},{"trial_n":95,"span":10,"encoder":"1418725299","distractor":"1418725239","target":"absent","response":"absent","rt":"3633.2000000477","correct":true,"confidence":5},{"trial_n":96,"span":11,"encoder":"56537208719","distractor":"56537108719","target":"absent","response":"absent","rt":"6885","correct":true,"confidence":4},{"trial_n":97,"span":11,"encoder":"50438037070","distractor":"50438032070","target":"absent","response":"absent","rt":"6789.1000000238","correct":true,"confidence":4},{"trial_n":98,"span":12,"encoder":"486760903902","distractor":"486710903902","target":"absent","response":"absent","rt":"7769.7000000477","correct":true,"confidence":3},{"trial_n":99,"span":12,"encoder":"579359664388","distractor":"579389664388","target":"present","response":"present","rt":"6357","correct":true,"confidence":4},{"trial_n":100,"span":13,"encoder":"3847560234968","distractor":"3847460234968","target":"present","response":"present","rt":"7380","correct":true,"confidence":2},{"trial_n":101,"span":13,"encoder":"7808211832139","distractor":"7808211832939","target":"absent","response":"absent","rt":"5233.9000000358","correct":true,"confidence":5},{"trial_n":102,"span":14,"encoder":"59339665644767","distractor":"59339655644767","target":"absent","response":"absent","rt":"10383","correct":true,"confidence":3},{"trial_n":103,"span":14,"encoder":"73634882982311","distractor":"73684882982311","target":"absent","response":"present","rt":"8840.3000000119","correct":false,"confidence":2},{"trial_n":104,"span":13,"encoder":"4137256586259","distractor":"4137256586258","target":"present","response":"present","rt":"3179.1000000238","correct":true,"confidence":5},{"trial_n":105,"span":13,"encoder":"8452802183849","distractor":"8452802283849","target":"absent","response":"absent","rt":"5130.7000000477","correct":true,"confidence":4},{"trial_n":106,"span":14,"encoder":"56125056789879","distractor":"56125056759879","target":"present","response":"present","rt":"12547.400000036","correct":true,"confidence":3},{"trial_n":107,"span":14,"encoder":"85415707373487","distractor":"85415727373487","target":"present","response":"present","rt":"8650.8000000119","correct":true,"confidence":3},{"trial_n":108,"span":15,"encoder":"948211574179149","distractor":"948211874179149","target":"absent","response":"absent","rt":"19876.800000012","correct":true,"confidence":3},{"trial_n":109,"span":15,"encoder":"524394301824139","distractor":"524394361824139","target":"absent","response":"absent","rt":"3428.2000000477","correct":true,"confidence":5},{"trial_n":110,"span":16,"encoder":"2859026646687168","distractor":"2859026946687168","target":"absent","response":"present","rt":"2964.1999999881","correct":false,"confidence":4},{"trial_n":111,"span":15,"encoder":"482239984226813","distractor":"422239984226813","target":"absent","response":"absent","rt":"8204.2000000477","correct":true,"confidence":3},{"trial_n":112,"span":15,"encoder":"804437930214738","distractor":"804437230214738","target":"present","response":"absent","rt":"12252.199999988","correct":false,"confidence":2},{"trial_n":113,"span":14,"encoder":"91134153568900","distractor":"91184153568900","target":"present","response":"present","rt":"9657.3000000119","correct":true,"confidence":1},{"trial_n":114,"span":14,"encoder":"98864783994023","distractor":"88864783994023","target":"absent","response":"absent","rt":"3454","correct":true,"confidence":4},{"trial_n":115,"span":15,"encoder":"044462855032348","distractor":"944462855032348","target":"present","response":"absent","rt":"16788.5","correct":false,"confidence":3},{"trial_n":116,"span":14,"encoder":"43122408411120","distractor":"43125408411120","target":"absent","response":"absent","rt":"5664.9000000358","correct":true,"confidence":3},{"trial_n":117,"span":14,"encoder":"72095400619219","distractor":"72095900619219","target":"absent","response":"absent","rt":"6405.1999999881","correct":true,"confidence":3},{"trial_n":118,"span":15,"encoder":"110446313478623","distractor":"110446413478623","target":"present","response":"absent","rt":"5832.2000000477","correct":false,"confidence":3},{"trial_n":119,"span":14,"encoder":"55456767937415","distractor":"55458767937415","target":"present","response":"present","rt":"9284.5","correct":true,"confidence":3},{"trial_n":120,"span":14,"encoder":"01900984525040","distractor":"81900984525040","target":"present","response":"present","rt":"19288.099999964","correct":true,"confidence":3},{"trial_n":121,"span":15,"encoder":"876177821026853","distractor":"871177821026853","target":"absent","response":"present","rt":"7232.5","correct":false,"confidence":3},{"trial_n":122,"span":14,"encoder":"21090313984739","distractor":"24090313984739","target":"present","response":"present","rt":"3524.3999999762","correct":true,"confidence":3},{"trial_n":123,"span":14,"encoder":"61027374670824","distractor":"61027364670824","target":"absent","response":"present","rt":"11143.300000012","correct":false,"confidence":2},{"trial_n":124,"span":13,"encoder":"5053541064003","distractor":"5053541064903","target":"present","response":"present","rt":"9020.3000000119","correct":true,"confidence":3},{"trial_n":125,"span":13,"encoder":"8553478057851","distractor":"8553438057851","target":"present","response":"absent","rt":"17511.300000012","correct":false,"confidence":2},{"trial_n":126,"span":12,"encoder":"376792245799","distractor":"376792245795","target":"present","response":"present","rt":"13169.100000024","correct":true,"confidence":4},{"trial_n":127,"span":12,"encoder":"627442468302","distractor":"627442468002","target":"present","response":"absent","rt":"17000.5","correct":false,"confidence":3},{"trial_n":128,"span":11,"encoder":"39134279299","distractor":"39134279295","target":"absent","response":"absent","rt":"4172.8000000119","correct":true,"confidence":5},{"trial_n":129,"span":11,"encoder":"09748130286","distractor":"09748138286","target":"absent","response":"absent","rt":"5138.3000000119","correct":true,"confidence":5},{"trial_n":130,"span":12,"encoder":"382173382973","distractor":"382173382873","target":"absent","response":"present","rt":"8120.5","correct":false,"confidence":3},{"trial_n":131,"span":11,"encoder":"23704934915","distractor":"23704934115","target":"present","response":"present","rt":"8981.1000000238","correct":true,"confidence":3},{"trial_n":132,"span":11,"encoder":"41666295744","distractor":"41666295774","target":"absent","response":"absent","rt":"5052.3000000119","correct":true,"confidence":4},{"trial_n":133,"span":12,"encoder":"123691414075","distractor":"123695414075","target":"present","response":"present","rt":"12728.200000048","correct":true,"confidence":3},{"trial_n":134,"span":12,"encoder":"502230390311","distractor":"502230398311","target":"present","response":"present","rt":"5841.2000000477","correct":true,"confidence":4},{"trial_n":135,"span":13,"encoder":"7186438019449","distractor":"7188438019449","target":"absent","response":"present","rt":"5572.8000000119","correct":false,"confidence":2},{"trial_n":136,"span":12,"encoder":"647690370761","distractor":"637690370761","target":"present","response":"present","rt":"3548.6000000238","correct":true,"confidence":3},{"trial_n":137,"span":12,"encoder":"840272089899","distractor":"840276089899","target":"absent","response":"present","rt":"9424.3000000119","correct":false,"confidence":3},{"trial_n":138,"span":11,"encoder":"70315157756","distractor":"70315157856","target":"absent","response":"absent","rt":"5844.7000000477","correct":true,"confidence":4},{"trial_n":139,"span":11,"encoder":"18047849643","distractor":"18047889643","target":"absent","response":"absent","rt":"10609.200000048","correct":true,"confidence":2},{"trial_n":140,"span":12,"encoder":"185436306043","distractor":"185436006043","target":"present","response":"present","rt":"5552.3999999762","correct":true,"confidence":4}]