[{"trial_n":1,"min":25,"max":230,"target":"present","response":"absent","rt":8644.2000000477,"correct":false,"confidence":-1},{"trial_n":2,"min":25,"max":230,"target":"present","response":"present","rt":1453,"correct":true,"confidence":-1},{"trial_n":3,"min":25,"max":230,"target":"absent","response":"absent","rt":1292.3000000119,"correct":true,"confidence":-1},{"trial_n":4,"min":41,"max":214,"target":"absent","response":"absent","rt":1008.8000000119,"correct":true,"confidence":-1},{"trial_n":5,"min":41,"max":214,"target":"present","response":"present","rt":1043.3000000119,"correct":true,"confidence":-1},{"trial_n":6,"min":57,"max":198,"target":"present","response":"present","rt":1900.4000000358,"correct":true,"confidence":-1},{"trial_n":7,"min":57,"max":198,"target":"present","response":"present","rt":1284.3000000119,"correct":true,"confidence":-1},{"trial_n":8,"min":73,"max":182,"target":"present","response":"present","rt":804.39999997616,"correct":true,"confidence":-1},{"trial_n":9,"min":73,"max":182,"target":"absent","response":"absent","rt":1556.3000000119,"correct":true,"confidence":-1},{"trial_n":10,"min":89,"max":166,"target":"present","response":"absent","rt":1590.8999999762,"correct":false,"confidence":-1},{"trial_n":11,"min":81,"max":174,"target":"absent","response":"absent","rt":1357.8999999762,"correct":true,"confidence":-1},{"trial_n":12,"min":81,"max":174,"target":"absent","response":"absent","rt":1060.6000000238,"correct":true,"confidence":-1},{"trial_n":13,"min":89,"max":166,"target":"absent","response":"absent","rt":686,"correct":true,"confidence":-1},{"trial_n":14,"min":89,"max":166,"target":"absent","response":"absent","rt":781.5,"correct":true,"confidence":-1},{"trial_n":15,"min":97,"max":158,"target":"absent","response":"absent","rt":672.40000003576,"correct":true,"confidence":-1},{"trial_n":16,"min":97,"max":158,"target":"present","response":"absent","rt":660.30000001192,"correct":false,"confidence":-1},{"trial_n":17,"min":89,"max":166,"target":"present","response":"absent","rt":856.09999996424,"correct":false,"confidence":-1},{"trial_n":18,"min":81,"max":174,"target":"absent","response":"absent","rt":789.70000004768,"correct":true,"confidence":-1},{"trial_n":19,"min":81,"max":174,"target":"present","response":"absent","rt":1480,"correct":false,"confidence":-1},{"trial_n":20,"min":73,"max":182,"target":"present","response":"present","rt":1612.4000000358,"correct":true,"confidence":-1},{"trial_n":21,"min":73,"max":182,"target":"absent","response":"absent","rt":1783,"correct":true,"confidence":3},{"trial_n":22,"min":77,"max":178,"target":"absent","response":"absent","rt":3106.1999999881,"correct":true,"confidence":3},{"trial_n":23,"min":77,"max":178,"target":"absent","response":"absent","rt":1682.1999999881,"correct":true,"confidence":3},{"trial_n":24,"min":81,"max":174,"target":"absent","response":"absent","rt":1358.6000000238,"correct":true,"confidence":3},{"trial_n":25,"min":81,"max":174,"target":"present","response":"present","rt":1262.2000000477,"correct":true,"confidence":3},{"trial_n":26,"min":85,"max":170,"target":"absent","response":"present","rt":1540.2000000477,"correct":false,"confidence":3},{"trial_n":27,"min":81,"max":174,"target":"present","response":"present","rt":1232.4000000358,"correct":true,"confidence":3},{"trial_n":28,"min":81,"max":174,"target":"present","response":"present","rt":1088.6999999881,"correct":true,"confidence":4},{"trial_n":29,"min":85,"max":170,"target":"present","response":"present","rt":1286.0999999642,"correct":true,"confidence":4},{"trial_n":30,"min":85,"max":170,"target":"absent","response":"absent","rt":1869.9000000358,"correct":true,"confidence":2},{"trial_n":31,"min":87,"max":168,"target":"absent","response":"present","rt":2408.7000000477,"correct":false,"confidence":2},{"trial_n":32,"min":85,"max":170,"target":"absent","response":"present","rt":2093,"correct":false,"confidence":2},{"trial_n":33,"min":83,"max":172,"target":"present","response":"present","rt":942.40000003576,"correct":true,"confidence":4},{"trial_n":34,"min":83,"max":172,"target":"present","response":"present","rt":1160.1000000238,"correct":true,"confidence":3},{"trial_n":35,"min":85,"max":170,"target":"absent","response":"absent","rt":7957.2000000477,"correct":true,"confidence":2},{"trial_n":36,"min":85,"max":170,"target":"absent","response":"present","rt":1366.9000000358,"correct":false,"confidence":4},{"trial_n":37,"min":83,"max":172,"target":"present","response":"present","rt":984,"correct":true,"confidence":4},{"trial_n":38,"min":83,"max":172,"target":"present","response":"present","rt":1102.5999999642,"correct":true,"confidence":4},{"trial_n":39,"min":85,"max":170,"target":"present","response":"present","rt":888.5,"correct":true,"confidence":3},{"trial_n":40,"min":85,"max":170,"target":"absent","response":"absent","rt":1309,"correct":true,"confidence":2},{"trial_n":41,"min":86,"max":169,"target":"absent","response":"absent","rt":1832.5,"correct":true,"confidence":2},{"trial_n":42,"min":86,"max":169,"target":"present","response":"present","rt":1134.1000000238,"correct":true,"confidence":3},{"trial_n":43,"min":87,"max":168,"target":"absent","response":"absent","rt":988.90000003576,"correct":true,"confidence":2},{"trial_n":44,"min":87,"max":168,"target":"present","response":"present","rt":1176.7000000477,"correct":true,"confidence":3},{"trial_n":45,"min":88,"max":167,"target":"absent","response":"absent","rt":1698.7000000477,"correct":true,"confidence":2},{"trial_n":46,"min":88,"max":167,"target":"absent","response":"absent","rt":2100.8000000119,"correct":true,"confidence":2},{"trial_n":47,"min":89,"max":166,"target":"absent","response":"absent","rt":1369.4000000358,"correct":true,"confidence":2},{"trial_n":48,"min":89,"max":166,"target":"present","response":"present","rt":1390.4000000358,"correct":true,"confidence":3},{"trial_n":49,"min":90,"max":165,"target":"absent","response":"present","rt":1264.7000000477,"correct":false,"confidence":3},{"trial_n":50,"min":89,"max":166,"target":"absent","response":"absent","rt":1925.5,"correct":true,"confidence":3},{"trial_n":51,"min":89,"max":166,"target":"present","response":"present","rt":1537.3000000119,"correct":true,"confidence":3},{"trial_n":52,"min":90,"max":165,"target":"present","response":"present","rt":1408.8000000119,"correct":true,"confidence":3},{"trial_n":53,"min":90,"max":165,"target":"present","response":"absent","rt":4334,"correct":false,"confidence":2},{"trial_n":54,"min":89,"max":166,"target":"present","response":"absent","rt":1228.5,"correct":false,"confidence":2},{"trial_n":55,"min":88,"max":167,"target":"present","response":"present","rt":1110.3000000119,"correct":true,"confidence":3},{"trial_n":56,"min":88,"max":167,"target":"absent","response":"absent","rt":1365,"correct":true,"confidence":2},{"trial_n":57,"min":89,"max":166,"target":"present","response":"absent","rt":1485.3999999762,"correct":false,"confidence":2},{"trial_n":58,"min":88,"max":167,"target":"present","response":"absent","rt":3426.6000000238,"correct":false,"confidence":2},{"trial_n":59,"min":87,"max":168,"target":"present","response":"absent","rt":1383.7000000477,"correct":false,"confidence":2},{"trial_n":60,"min":86,"max":169,"target":"absent","response":"absent","rt":1122.7000000477,"correct":true,"confidence":2},{"trial_n":61,"min":86,"max":169,"target":"present","response":"present","rt":1229.3999999762,"correct":true,"confidence":4},{"trial_n":62,"min":87,"max":168,"target":"present","response":"present","rt":1062.3000000119,"correct":true,"confidence":4},{"trial_n":63,"min":87,"max":168,"target":"absent","response":"present","rt":1204.4000000358,"correct":false,"confidence":3},{"trial_n":64,"min":86,"max":169,"target":"present","response":"present","rt":1578.9000000358,"correct":true,"confidence":3},{"trial_n":65,"min":86,"max":169,"target":"absent","response":"absent","rt":2138.8000000119,"correct":true,"confidence":2},{"trial_n":66,"min":87,"max":168,"target":"absent","response":"present","rt":1018.3000000119,"correct":false,"confidence":3},{"trial_n":67,"min":86,"max":169,"target":"present","response":"present","rt":1066.2000000477,"correct":true,"confidence":4},{"trial_n":68,"min":86,"max":169,"target":"absent","response":"present","rt":1057.2000000477,"correct":false,"confidence":3},{"trial_n":69,"min":85,"max":170,"target":"absent","response":"present","rt":1186.4000000358,"correct":false,"confidence":3},{"trial_n":70,"min":84,"max":171,"target":"present","response":"present","rt":1165.1000000238,"correct":true,"confidence":3},{"trial_n":71,"min":41,"max":214,"target":"present","response":"present","rt":5414.7000000477,"correct":true,"confidence":-1},{"trial_n":72,"min":41,"max":214,"target":"present","response":"present","rt":632.40000003576,"correct":true,"confidence":-1},{"trial_n":73,"min":57,"max":198,"target":"absent","response":"present","rt":614,"correct":false,"confidence":-1},{"trial_n":74,"min":41,"max":214,"target":"absent","response":"absent","rt":2388.8000000119,"correct":true,"confidence":-1},{"trial_n":75,"min":41,"max":214,"target":"present","response":"present","rt":1233.7000000477,"correct":true,"confidence":-1},{"trial_n":76,"min":57,"max":198,"target":"absent","response":"absent","rt":1212.5999999642,"correct":true,"confidence":-1},{"trial_n":77,"min":57,"max":198,"target":"absent","response":"absent","rt":1533.3999999762,"correct":true,"confidence":-1},{"trial_n":78,"min":73,"max":182,"target":"present","response":"present","rt":939.80000001192,"correct":true,"confidence":-1},{"trial_n":79,"min":73,"max":182,"target":"present","response":"present","rt":1189,"correct":true,"confidence":-1},{"trial_n":80,"min":89,"max":166,"target":"present","response":"present","rt":805.20000004768,"correct":true,"confidence":-1},{"trial_n":81,"min":89,"max":166,"target":"present","response":"present","rt":1024.5,"correct":true,"confidence":-1},{"trial_n":82,"min":97,"max":158,"target":"absent","response":"present","rt":919.90000003576,"correct":false,"confidence":-1},{"trial_n":83,"min":89,"max":166,"target":"present","response":"present","rt":713,"correct":true,"confidence":-1},{"trial_n":84,"min":89,"max":166,"target":"absent","response":"present","rt":856.30000001192,"correct":false,"confidence":-1},{"trial_n":85,"min":81,"max":174,"target":"present","response":"present","rt":656.40000003576,"correct":true,"confidence":-1},{"trial_n":86,"min":81,"max":174,"target":"absent","response":"absent","rt":3884.5999999642,"correct":true,"confidence":-1},{"trial_n":87,"min":89,"max":166,"target":"absent","response":"present","rt":1012.6999999881,"correct":false,"confidence":-1},{"trial_n":88,"min":81,"max":174,"target":"present","response":"present","rt":648.40000003576,"correct":true,"confidence":-1},{"trial_n":89,"min":81,"max":174,"target":"present","response":"present","rt":584.60000002384,"correct":true,"confidence":-1},{"trial_n":90,"min":89,"max":166,"target":"absent","response":"absent","rt":1362.4000000358,"correct":true,"confidence":-1},{"trial_n":91,"min":89,"max":166,"target":"absent","response":"present","rt":2309.5,"correct":false,"confidence":3},{"trial_n":92,"min":85,"max":170,"target":"present","response":"present","rt":1472.3000000119,"correct":true,"confidence":4},{"trial_n":93,"min":85,"max":170,"target":"absent","response":"absent","rt":1232.3999999762,"correct":true,"confidence":3},{"trial_n":94,"min":89,"max":166,"target":"absent","response":"absent","rt":1627.3000000119,"correct":true,"confidence":3},{"trial_n":95,"min":89,"max":166,"target":"absent","response":"absent","rt":5217.2000000477,"correct":true,"confidence":2},{"trial_n":96,"min":93,"max":162,"target":"present","response":"present","rt":1337.7000000477,"correct":true,"confidence":2},{"trial_n":97,"min":93,"max":162,"target":"present","response":"present","rt":1253.2000000477,"correct":true,"confidence":2},{"trial_n":98,"min":97,"max":158,"target":"absent","response":"present","rt":1121.5,"correct":false,"confidence":2},{"trial_n":99,"min":93,"max":162,"target":"present","response":"present","rt":1162.1000000238,"correct":true,"confidence":4},{"trial_n":100,"min":93,"max":162,"target":"present","response":"present","rt":1065.2000000477,"correct":true,"confidence":4},{"trial_n":101,"min":95,"max":160,"target":"present","response":"present","rt":1240.3000000119,"correct":true,"confidence":3},{"trial_n":102,"min":95,"max":160,"target":"present","response":"present","rt":1178.5,"correct":true,"confidence":3},{"trial_n":103,"min":97,"max":158,"target":"absent","response":"present","rt":1273.8000000119,"correct":false,"confidence":4},{"trial_n":104,"min":95,"max":160,"target":"absent","response":"present","rt":1201.3000000119,"correct":false,"confidence":2},{"trial_n":105,"min":93,"max":162,"target":"absent","response":"absent","rt":1264.2000000477,"correct":true,"confidence":2},{"trial_n":106,"min":93,"max":162,"target":"absent","response":"present","rt":1624.4000000358,"correct":false,"confidence":2},{"trial_n":107,"min":91,"max":164,"target":"present","response":"present","rt":1194.6000000238,"correct":true,"confidence":3},{"trial_n":108,"min":91,"max":164,"target":"present","response":"present","rt":1451.6000000238,"correct":true,"confidence":3},{"trial_n":109,"min":93,"max":162,"target":"present","response":"present","rt":1344.3000000119,"correct":true,"confidence":3},{"trial_n":110,"min":93,"max":162,"target":"absent","response":"present","rt":1804.9000000358,"correct":false,"confidence":2},{"trial_n":111,"min":92,"max":163,"target":"present","response":"present","rt":1892.8000000119,"correct":true,"confidence":4},{"trial_n":112,"min":92,"max":163,"target":"absent","response":"present","rt":1136.5999999642,"correct":false,"confidence":4},{"trial_n":113,"min":91,"max":164,"target":"absent","response":"present","rt":1384.4000000358,"correct":false,"confidence":3},{"trial_n":114,"min":90,"max":165,"target":"present","response":"present","rt":1261.3999999762,"correct":true,"confidence":4},{"trial_n":115,"min":90,"max":165,"target":"absent","response":"present","rt":1308.3000000119,"correct":false,"confidence":2},{"trial_n":116,"min":89,"max":166,"target":"absent","response":"present","rt":1875.9000000358,"correct":false,"confidence":2},{"trial_n":117,"min":88,"max":167,"target":"present","response":"present","rt":1376.3000000119,"correct":true,"confidence":4},{"trial_n":118,"min":88,"max":167,"target":"absent","response":"present","rt":1618.5,"correct":false,"confidence":3},{"trial_n":119,"min":87,"max":168,"target":"absent","response":"absent","rt":1160.3000000119,"correct":true,"confidence":4},{"trial_n":120,"min":87,"max":168,"target":"present","response":"present","rt":1913.7000000477,"correct":true,"confidence":4},{"trial_n":121,"min":88,"max":167,"target":"absent","response":"present","rt":1594.6000000238,"correct":false,"confidence":2},{"trial_n":122,"min":87,"max":168,"target":"present","response":"present","rt":1248.3000000119,"correct":true,"confidence":3},{"trial_n":123,"min":87,"max":168,"target":"absent","response":"absent","rt":1249.4000000358,"correct":true,"confidence":2},{"trial_n":124,"min":88,"max":167,"target":"absent","response":"absent","rt":1093.0999999642,"correct":true,"confidence":3},{"trial_n":125,"min":88,"max":167,"target":"present","response":"present","rt":1224.4000000358,"correct":true,"confidence":3},{"trial_n":126,"min":89,"max":166,"target":"present","response":"present","rt":1204.5,"correct":true,"confidence":3},{"trial_n":127,"min":89,"max":166,"target":"present","response":"present","rt":2057.1999999881,"correct":true,"confidence":4},{"trial_n":128,"min":90,"max":165,"target":"present","response":"present","rt":2722.4000000358,"correct":true,"confidence":2},{"trial_n":129,"min":90,"max":165,"target":"present","response":"present","rt":2002.7000000477,"correct":true,"confidence":3},{"trial_n":130,"min":91,"max":164,"target":"absent","response":"present","rt":2154.6000000238,"correct":false,"confidence":2},{"trial_n":131,"min":90,"max":165,"target":"present","response":"present","rt":1212.8000000119,"correct":true,"confidence":3},{"trial_n":132,"min":90,"max":165,"target":"absent","response":"present","rt":1113.2000000477,"correct":false,"confidence":2},{"trial_n":133,"min":89,"max":166,"target":"present","response":"present","rt":1525.4000000358,"correct":true,"confidence":4},{"trial_n":134,"min":89,"max":166,"target":"present","response":"present","rt":1222.4000000358,"correct":true,"confidence":3},{"trial_n":135,"min":90,"max":165,"target":"absent","response":"absent","rt":1255.2000000477,"correct":true,"confidence":2},{"trial_n":136,"min":90,"max":165,"target":"present","response":"present","rt":2411.9000000358,"correct":true,"confidence":3},{"trial_n":137,"min":91,"max":164,"target":"absent","response":"absent","rt":5093.2000000477,"correct":true,"confidence":2},{"trial_n":138,"min":91,"max":164,"target":"present","response":"absent","rt":4200.4000000358,"correct":false,"confidence":1},{"trial_n":139,"min":90,"max":165,"target":"absent","response":"present","rt":1173.4000000358,"correct":false,"confidence":2},{"trial_n":140,"min":89,"max":166,"target":"absent","response":"present","rt":1190.7000000477,"correct":false,"confidence":2}]