[{"trial_n":1,"min":25,"max":230,"target":"present","response":"absent","rt":43930.800000001,"correct":false,"confidence":-1},{"trial_n":2,"min":25,"max":230,"target":"present","response":"present","rt":9583.3999999985,"correct":true,"confidence":-1},{"trial_n":3,"min":25,"max":230,"target":"absent","response":"absent","rt":2468.3000000007,"correct":true,"confidence":-1},{"trial_n":4,"min":41,"max":214,"target":"absent","response":"present","rt":5774.4000000022,"correct":false,"confidence":-1},{"trial_n":5,"min":25,"max":230,"target":"present","response":"present","rt":3549.8000000007,"correct":true,"confidence":-1},{"trial_n":6,"min":25,"max":230,"target":"absent","response":"absent","rt":914.19999999925,"correct":true,"confidence":-1},{"trial_n":7,"min":41,"max":214,"target":"absent","response":"absent","rt":461.90000000224,"correct":true,"confidence":-1},{"trial_n":8,"min":41,"max":214,"target":"present","response":"present","rt":348.29999999702,"correct":true,"confidence":-1},{"trial_n":9,"min":57,"max":198,"target":"present","response":"present","rt":138,"correct":true,"confidence":-1},{"trial_n":10,"min":57,"max":198,"target":"absent","response":"absent","rt":285,"correct":true,"confidence":-1},{"trial_n":11,"min":65,"max":190,"target":"absent","response":"absent","rt":292.89999999851,"correct":true,"confidence":-1},{"trial_n":12,"min":65,"max":190,"target":"absent","response":"absent","rt":102.69999999925,"correct":true,"confidence":-1},{"trial_n":13,"min":73,"max":182,"target":"present","response":"absent","rt":114.89999999851,"correct":false,"confidence":-1},{"trial_n":14,"min":65,"max":190,"target":"present","response":"present","rt":900.79999999702,"correct":true,"confidence":-1},{"trial_n":15,"min":65,"max":190,"target":"present","response":"absent","rt":995.19999999925,"correct":false,"confidence":-1},{"trial_n":16,"min":57,"max":198,"target":"present","response":"present","rt":401.69999999925,"correct":true,"confidence":-1},{"trial_n":17,"min":57,"max":198,"target":"present","response":"present","rt":499.10000000149,"correct":true,"confidence":-1},{"trial_n":18,"min":65,"max":190,"target":"present","response":"present","rt":193.19999999925,"correct":true,"confidence":-1},{"trial_n":19,"min":65,"max":190,"target":"absent","response":"absent","rt":436.5,"correct":true,"confidence":-1},{"trial_n":20,"min":73,"max":182,"target":"present","response":"present","rt":712.60000000149,"correct":true,"confidence":-1},{"trial_n":21,"min":73,"max":182,"target":"present","response":"present","rt":1297.8000000007,"correct":true,"confidence":3},{"trial_n":22,"min":77,"max":178,"target":"present","response":"present","rt":2057.1000000015,"correct":true,"confidence":4},{"trial_n":23,"min":77,"max":178,"target":"absent","response":"absent","rt":1838.5,"correct":true,"confidence":4},{"trial_n":24,"min":81,"max":174,"target":"present","response":"present","rt":1131.3999999985,"correct":true,"confidence":4},{"trial_n":25,"min":81,"max":174,"target":"present","response":"present","rt":1831.700000003,"correct":true,"confidence":2},{"trial_n":26,"min":85,"max":170,"target":"absent","response":"absent","rt":1083.5,"correct":true,"confidence":4},{"trial_n":27,"min":85,"max":170,"target":"absent","response":"absent","rt":1668.1999999993,"correct":true,"confidence":4},{"trial_n":28,"min":89,"max":166,"target":"absent","response":"absent","rt":1464.3999999985,"correct":true,"confidence":3},{"trial_n":29,"min":89,"max":166,"target":"present","response":"absent","rt":3997.1999999993,"correct":false,"confidence":2},{"trial_n":30,"min":85,"max":170,"target":"present","response":"absent","rt":1695.6999999993,"correct":false,"confidence":2},{"trial_n":31,"min":83,"max":172,"target":"present","response":"present","rt":667.29999999702,"correct":true,"confidence":4},{"trial_n":32,"min":83,"max":172,"target":"absent","response":"absent","rt":818.40000000224,"correct":true,"confidence":4},{"trial_n":33,"min":85,"max":170,"target":"absent","response":"absent","rt":1381.3999999985,"correct":true,"confidence":3},{"trial_n":34,"min":85,"max":170,"target":"absent","response":"absent","rt":1162.799999997,"correct":true,"confidence":3},{"trial_n":35,"min":87,"max":168,"target":"present","response":"present","rt":797.39999999851,"correct":true,"confidence":3},{"trial_n":36,"min":87,"max":168,"target":"present","response":"present","rt":1773.0999999978,"correct":true,"confidence":4},{"trial_n":37,"min":89,"max":166,"target":"absent","response":"absent","rt":662.80000000075,"correct":true,"confidence":3},{"trial_n":38,"min":89,"max":166,"target":"present","response":"absent","rt":566.5,"correct":false,"confidence":2},{"trial_n":39,"min":87,"max":168,"target":"absent","response":"present","rt":2345.6000000015,"correct":false,"confidence":2},{"trial_n":40,"min":85,"max":170,"target":"absent","response":"absent","rt":3424.8999999985,"correct":true,"confidence":2},{"trial_n":41,"min":85,"max":170,"target":"present","response":"present","rt":666.19999999925,"correct":true,"confidence":5},{"trial_n":42,"min":86,"max":169,"target":"absent","response":"absent","rt":1277.3999999985,"correct":true,"confidence":4},{"trial_n":43,"min":86,"max":169,"target":"present","response":"absent","rt":812.5,"correct":false,"confidence":3},{"trial_n":44,"min":85,"max":170,"target":"absent","response":"absent","rt":501.30000000075,"correct":true,"confidence":3},{"trial_n":45,"min":85,"max":170,"target":"absent","response":"absent","rt":479.59999999776,"correct":true,"confidence":2},{"trial_n":46,"min":86,"max":169,"target":"present","response":"absent","rt":987.30000000075,"correct":false,"confidence":2},{"trial_n":47,"min":85,"max":170,"target":"absent","response":"present","rt":1182.299999997,"correct":false,"confidence":1},{"trial_n":48,"min":84,"max":171,"target":"present","response":"present","rt":829.90000000224,"correct":true,"confidence":2},{"trial_n":49,"min":84,"max":171,"target":"present","response":"present","rt":1020.6000000015,"correct":true,"confidence":4},{"trial_n":50,"min":85,"max":170,"target":"absent","response":"absent","rt":4285.3999999985,"correct":true,"confidence":3},{"trial_n":51,"min":85,"max":170,"target":"present","response":"absent","rt":796.19999999925,"correct":false,"confidence":3},{"trial_n":52,"min":84,"max":171,"target":"absent","response":"present","rt":2012.799999997,"correct":false,"confidence":2},{"trial_n":53,"min":83,"max":172,"target":"absent","response":"absent","rt":1394.4000000022,"correct":true,"confidence":2},{"trial_n":54,"min":83,"max":172,"target":"absent","response":"absent","rt":2511.1999999993,"correct":true,"confidence":2},{"trial_n":55,"min":84,"max":171,"target":"absent","response":"absent","rt":1399.6000000015,"correct":true,"confidence":2},{"trial_n":56,"min":84,"max":171,"target":"absent","response":"present","rt":1641.5,"correct":false,"confidence":2},{"trial_n":57,"min":83,"max":172,"target":"present","response":"present","rt":2058.9000000022,"correct":true,"confidence":1},{"trial_n":58,"min":83,"max":172,"target":"absent","response":"present","rt":1420.5,"correct":false,"confidence":1},{"trial_n":59,"min":82,"max":173,"target":"absent","response":"absent","rt":3908.5,"correct":true,"confidence":1},{"trial_n":60,"min":82,"max":173,"target":"absent","response":"absent","rt":1267.0999999978,"correct":true,"confidence":1},{"trial_n":61,"min":83,"max":172,"target":"absent","response":"absent","rt":877,"correct":true,"confidence":1},{"trial_n":62,"min":83,"max":172,"target":"absent","response":"absent","rt":702.79999999702,"correct":true,"confidence":1},{"trial_n":63,"min":84,"max":171,"target":"absent","response":"absent","rt":1053.9000000022,"correct":true,"confidence":1},{"trial_n":64,"min":84,"max":171,"target":"present","response":"absent","rt":1870.3999999985,"correct":false,"confidence":2},{"trial_n":65,"min":83,"max":172,"target":"present","response":"present","rt":1000.8000000007,"correct":true,"confidence":3},{"trial_n":66,"min":83,"max":172,"target":"present","response":"present","rt":765.30000000075,"correct":true,"confidence":3},{"trial_n":67,"min":84,"max":171,"target":"present","response":"present","rt":1987.8000000007,"correct":true,"confidence":2},{"trial_n":68,"min":84,"max":171,"target":"present","response":"absent","rt":2210.4000000022,"correct":false,"confidence":2},{"trial_n":69,"min":83,"max":172,"target":"present","response":"present","rt":2971.8000000007,"correct":true,"confidence":2},{"trial_n":70,"min":83,"max":172,"target":"present","response":"present","rt":459.5,"correct":true,"confidence":1},{"trial_n":71,"min":41,"max":214,"target":"present","response":"absent","rt":7209.0999999978,"correct":false,"confidence":-1},{"trial_n":72,"min":41,"max":214,"target":"present","response":"absent","rt":742.39999999851,"correct":false,"confidence":-1},{"trial_n":73,"min":25,"max":230,"target":"absent","response":"absent","rt":6228.8999999985,"correct":true,"confidence":-1},{"trial_n":74,"min":25,"max":230,"target":"absent","response":"absent","rt":554.90000000224,"correct":true,"confidence":-1},{"trial_n":75,"min":41,"max":214,"target":"present","response":"present","rt":178.69999999925,"correct":true,"confidence":-1},{"trial_n":76,"min":41,"max":214,"target":"absent","response":"absent","rt":511.20000000298,"correct":true,"confidence":-1},{"trial_n":77,"min":57,"max":198,"target":"present","response":"present","rt":391.60000000149,"correct":true,"confidence":-1},{"trial_n":78,"min":57,"max":198,"target":"present","response":"absent","rt":528.19999999925,"correct":false,"confidence":-1},{"trial_n":79,"min":41,"max":214,"target":"absent","response":"absent","rt":833.69999999925,"correct":true,"confidence":-1},{"trial_n":80,"min":41,"max":214,"target":"present","response":"present","rt":883.09999999776,"correct":true,"confidence":-1},{"trial_n":81,"min":49,"max":206,"target":"absent","response":"absent","rt":444.5,"correct":true,"confidence":-1},{"trial_n":82,"min":49,"max":206,"target":"present","response":"present","rt":342.69999999925,"correct":true,"confidence":-1},{"trial_n":83,"min":57,"max":198,"target":"present","response":"present","rt":283.69999999925,"correct":true,"confidence":-1},{"trial_n":84,"min":57,"max":198,"target":"present","response":"present","rt":94.900000002235,"correct":true,"confidence":-1},{"trial_n":85,"min":65,"max":190,"target":"present","response":"present","rt":474.60000000149,"correct":true,"confidence":-1},{"trial_n":86,"min":65,"max":190,"target":"absent","response":"absent","rt":431.19999999925,"correct":true,"confidence":-1},{"trial_n":87,"min":73,"max":182,"target":"present","response":"present","rt":320.39999999851,"correct":true,"confidence":-1},{"trial_n":88,"min":73,"max":182,"target":"present","response":"absent","rt":888.19999999925,"correct":false,"confidence":-1},{"trial_n":89,"min":65,"max":190,"target":"absent","response":"present","rt":732.40000000224,"correct":false,"confidence":-1},{"trial_n":90,"min":57,"max":198,"target":"absent","response":"absent","rt":626.60000000149,"correct":true,"confidence":-1},{"trial_n":91,"min":57,"max":198,"target":"present","response":"present","rt":502.40000000224,"correct":true,"confidence":5},{"trial_n":92,"min":61,"max":194,"target":"absent","response":"absent","rt":908.89999999851,"correct":true,"confidence":3},{"trial_n":93,"min":61,"max":194,"target":"present","response":"present","rt":334.10000000149,"correct":true,"confidence":5},{"trial_n":94,"min":65,"max":190,"target":"present","response":"present","rt":618.10000000149,"correct":true,"confidence":5},{"trial_n":95,"min":65,"max":190,"target":"present","response":"present","rt":351.80000000075,"correct":true,"confidence":5},{"trial_n":96,"min":69,"max":186,"target":"present","response":"present","rt":490.59999999776,"correct":true,"confidence":5},{"trial_n":97,"min":69,"max":186,"target":"absent","response":"absent","rt":496.19999999925,"correct":true,"confidence":4},{"trial_n":98,"min":73,"max":182,"target":"present","response":"present","rt":659.5,"correct":true,"confidence":3},{"trial_n":99,"min":73,"max":182,"target":"present","response":"present","rt":396.30000000075,"correct":true,"confidence":4},{"trial_n":100,"min":77,"max":178,"target":"absent","response":"present","rt":714.5,"correct":false,"confidence":3},{"trial_n":101,"min":75,"max":180,"target":"absent","response":"absent","rt":760,"correct":true,"confidence":3},{"trial_n":102,"min":75,"max":180,"target":"present","response":"present","rt":549.10000000149,"correct":true,"confidence":3},{"trial_n":103,"min":77,"max":178,"target":"absent","response":"present","rt":586.5,"correct":false,"confidence":3},{"trial_n":104,"min":75,"max":180,"target":"present","response":"present","rt":440.60000000149,"correct":true,"confidence":3},{"trial_n":105,"min":75,"max":180,"target":"absent","response":"absent","rt":830.40000000224,"correct":true,"confidence":3},{"trial_n":106,"min":77,"max":178,"target":"present","response":"present","rt":526.29999999702,"correct":true,"confidence":4},{"trial_n":107,"min":77,"max":178,"target":"absent","response":"absent","rt":536.19999999925,"correct":true,"confidence":4},{"trial_n":108,"min":79,"max":176,"target":"present","response":"present","rt":602.70000000298,"correct":true,"confidence":3},{"trial_n":109,"min":79,"max":176,"target":"present","response":"present","rt":495.40000000224,"correct":true,"confidence":3},{"trial_n":110,"min":81,"max":174,"target":"present","response":"present","rt":303.90000000224,"correct":true,"confidence":3},{"trial_n":111,"min":81,"max":174,"target":"absent","response":"absent","rt":838.89999999851,"correct":true,"confidence":3},{"trial_n":112,"min":82,"max":173,"target":"absent","response":"present","rt":2522,"correct":false,"confidence":2},{"trial_n":113,"min":81,"max":174,"target":"absent","response":"absent","rt":494.39999999851,"correct":true,"confidence":2},{"trial_n":114,"min":81,"max":174,"target":"present","response":"present","rt":561.90000000224,"correct":true,"confidence":3},{"trial_n":115,"min":82,"max":173,"target":"absent","response":"present","rt":2496.3000000007,"correct":false,"confidence":3},{"trial_n":116,"min":81,"max":174,"target":"present","response":"present","rt":677.30000000075,"correct":true,"confidence":2},{"trial_n":117,"min":81,"max":174,"target":"absent","response":"present","rt":3183.4000000022,"correct":false,"confidence":1},{"trial_n":118,"min":80,"max":175,"target":"absent","response":"absent","rt":620,"correct":true,"confidence":2},{"trial_n":119,"min":80,"max":175,"target":"present","response":"present","rt":342.19999999925,"correct":true,"confidence":3},{"trial_n":120,"min":81,"max":174,"target":"absent","response":"absent","rt":662.79999999702,"correct":true,"confidence":4},{"trial_n":121,"min":81,"max":174,"target":"absent","response":"absent","rt":563.39999999851,"correct":true,"confidence":3},{"trial_n":122,"min":82,"max":173,"target":"present","response":"present","rt":947.5,"correct":true,"confidence":2},{"trial_n":123,"min":82,"max":173,"target":"absent","response":"absent","rt":663.29999999702,"correct":true,"confidence":3},{"trial_n":124,"min":83,"max":172,"target":"absent","response":"present","rt":1190.3999999985,"correct":false,"confidence":2},{"trial_n":125,"min":82,"max":173,"target":"absent","response":"present","rt":939.5,"correct":false,"confidence":2},{"trial_n":126,"min":81,"max":174,"target":"present","response":"present","rt":497.19999999925,"correct":true,"confidence":3},{"trial_n":127,"min":81,"max":174,"target":"present","response":"present","rt":433.59999999776,"correct":true,"confidence":3},{"trial_n":128,"min":82,"max":173,"target":"absent","response":"absent","rt":550.69999999925,"correct":true,"confidence":4},{"trial_n":129,"min":82,"max":173,"target":"present","response":"present","rt":264.10000000149,"correct":true,"confidence":4},{"trial_n":130,"min":83,"max":172,"target":"present","response":"present","rt":435.40000000224,"correct":true,"confidence":5},{"trial_n":131,"min":83,"max":172,"target":"absent","response":"absent","rt":642.90000000224,"correct":true,"confidence":3},{"trial_n":132,"min":84,"max":171,"target":"present","response":"present","rt":518.29999999702,"correct":true,"confidence":3},{"trial_n":133,"min":84,"max":171,"target":"absent","response":"absent","rt":459.30000000075,"correct":true,"confidence":2},{"trial_n":134,"min":85,"max":170,"target":"absent","response":"absent","rt":2256.6999999993,"correct":true,"confidence":2},{"trial_n":135,"min":85,"max":170,"target":"present","response":"present","rt":278,"correct":true,"confidence":4},{"trial_n":136,"min":86,"max":169,"target":"absent","response":"absent","rt":1420.6000000015,"correct":true,"confidence":3},{"trial_n":137,"min":86,"max":169,"target":"absent","response":"absent","rt":412.60000000149,"correct":true,"confidence":3},{"trial_n":138,"min":87,"max":168,"target":"absent","response":"present","rt":394.30000000075,"correct":false,"confidence":3},{"trial_n":139,"min":86,"max":169,"target":"absent","response":"present","rt":1073.5,"correct":false,"confidence":2},{"trial_n":140,"min":85,"max":170,"target":"present","response":"present","rt":1714.6000000015,"correct":true,"confidence":2}]