[{"trial_n":1,"span":8,"encoder":"86432760","distractor":"86431760","target":"present","response":"present","rt":"14905.300000001","correct":true,"confidence":-1},{"trial_n":2,"span":8,"encoder":"71222293","distractor":"71272293","target":"present","response":"present","rt":"4281.8000000007","correct":true,"confidence":-1},{"trial_n":3,"span":10,"encoder":"0286955960","distractor":"0286655960","target":"absent","response":"absent","rt":"7028.1999999993","correct":true,"confidence":-1},{"trial_n":4,"span":10,"encoder":"0341730277","distractor":"0381730277","target":"absent","response":"absent","rt":"2604.5","correct":true,"confidence":-1},{"trial_n":5,"span":12,"encoder":"940021872294","distractor":"940021472294","target":"present","response":"present","rt":"6926.6000000015","correct":true,"confidence":-1},{"trial_n":6,"span":12,"encoder":"372995197047","distractor":"370995197047","target":"absent","response":"present","rt":"7249.3000000007","correct":false,"confidence":-1},{"trial_n":7,"span":10,"encoder":"6742867651","distractor":"6742867251","target":"present","response":"present","rt":"5312.1999999993","correct":true,"confidence":-1},{"trial_n":8,"span":10,"encoder":"9462118622","distractor":"9462118652","target":"absent","response":"present","rt":"3902.1000000015","correct":false,"confidence":-1},{"trial_n":9,"span":8,"encoder":"64741470","distractor":"64741490","target":"absent","response":"present","rt":"5175.5","correct":false,"confidence":-1},{"trial_n":10,"span":6,"encoder":"550757","distractor":"554757","target":"present","response":"present","rt":"1426.5999999978","correct":true,"confidence":-1},{"trial_n":11,"span":6,"encoder":"596687","distractor":"596685","target":"absent","response":"absent","rt":"1219.5","correct":true,"confidence":-1},{"trial_n":12,"span":7,"encoder":"3428903","distractor":"3628903","target":"present","response":"absent","rt":"7252.1999999993","correct":false,"confidence":-1},{"trial_n":13,"span":6,"encoder":"544976","distractor":"544978","target":"present","response":"present","rt":"2064.1999999993","correct":true,"confidence":-1},{"trial_n":14,"span":6,"encoder":"127778","distractor":"127788","target":"absent","response":"absent","rt":"3143.8000000007","correct":true,"confidence":-1},{"trial_n":15,"span":7,"encoder":"9784919","distractor":"9684919","target":"absent","response":"absent","rt":"3349.5","correct":true,"confidence":-1},{"trial_n":16,"span":7,"encoder":"8252124","distractor":"8250124","target":"present","response":"present","rt":"2799.3000000007","correct":true,"confidence":-1},{"trial_n":17,"span":8,"encoder":"89770789","distractor":"89770709","target":"absent","response":"absent","rt":"2514.8000000007","correct":true,"confidence":-1},{"trial_n":18,"span":8,"encoder":"34522571","distractor":"34522971","target":"absent","response":"absent","rt":"6829.799999997","correct":true,"confidence":-1},{"trial_n":19,"span":9,"encoder":"512159725","distractor":"512152725","target":"present","response":"present","rt":"2807.8999999985","correct":true,"confidence":-1},{"trial_n":20,"span":9,"encoder":"595197066","distractor":"595195066","target":"present","response":"present","rt":"4272.8000000007","correct":true,"confidence":-1},{"trial_n":21,"span":10,"encoder":"3516291195","distractor":"3518291195","target":"present","response":"present","rt":"3831.8999999985","correct":true,"confidence":4},{"trial_n":22,"span":10,"encoder":"7626036644","distractor":"7628036644","target":"absent","response":"absent","rt":"4124.3000000007","correct":true,"confidence":5},{"trial_n":23,"span":11,"encoder":"79918680599","distractor":"79915680599","target":"present","response":"absent","rt":"6742.0999999978","correct":false,"confidence":3},{"trial_n":24,"span":10,"encoder":"9302810121","distractor":"9309810121","target":"absent","response":"present","rt":"4153.299999997","correct":false,"confidence":3},{"trial_n":25,"span":9,"encoder":"429545249","distractor":"423545249","target":"absent","response":"absent","rt":"7413.9000000022","correct":true,"confidence":4},{"trial_n":26,"span":9,"encoder":"233216192","distractor":"233216194","target":"present","response":"present","rt":"3131","correct":true,"confidence":5},{"trial_n":27,"span":10,"encoder":"8370175795","distractor":"1370175795","target":"absent","response":"present","rt":"10157.5","correct":false,"confidence":3},{"trial_n":28,"span":9,"encoder":"685327803","distractor":"685397803","target":"present","response":"present","rt":"7217.1999999993","correct":true,"confidence":4},{"trial_n":29,"span":9,"encoder":"214329559","distractor":"214829559","target":"present","response":"present","rt":"3551.3999999985","correct":true,"confidence":5},{"trial_n":30,"span":10,"encoder":"0557801966","distractor":"0517801966","target":"present","response":"present","rt":"4962.4000000022","correct":true,"confidence":4},{"trial_n":31,"span":10,"encoder":"2230176181","distractor":"2280176181","target":"absent","response":"present","rt":"3891.9000000022","correct":false,"confidence":5},{"trial_n":32,"span":9,"encoder":"265875975","distractor":"264875975","target":"absent","response":"absent","rt":"2787.1000000015","correct":true,"confidence":5},{"trial_n":33,"span":9,"encoder":"366927952","distractor":"356927952","target":"absent","response":"absent","rt":"6597.0999999978","correct":true,"confidence":3},{"trial_n":34,"span":10,"encoder":"5269380559","distractor":"0269380559","target":"absent","response":"present","rt":"7901.9000000022","correct":false,"confidence":3},{"trial_n":35,"span":9,"encoder":"941119681","distractor":"941119181","target":"present","response":"present","rt":"3280.6999999993","correct":true,"confidence":5},{"trial_n":36,"span":9,"encoder":"320929858","distractor":"320925858","target":"present","response":"present","rt":"4500.5999999978","correct":true,"confidence":5},{"trial_n":37,"span":10,"encoder":"7058980660","distractor":"7058980760","target":"absent","response":"absent","rt":"10078.199999999","correct":true,"confidence":3},{"trial_n":38,"span":10,"encoder":"0954396467","distractor":"0954396466","target":"present","response":"present","rt":"6654.9000000022","correct":true,"confidence":4},{"trial_n":39,"span":11,"encoder":"27978272761","distractor":"27971272761","target":"present","response":"absent","rt":"7090.1999999993","correct":false,"confidence":3},{"trial_n":40,"span":10,"encoder":"5465089418","distractor":"5455089418","target":"present","response":"present","rt":"5788.5999999978","correct":true,"confidence":2},{"trial_n":41,"span":10,"encoder":"2666402590","distractor":"1666402590","target":"present","response":"present","rt":"6533.4000000022","correct":true,"confidence":3},{"trial_n":42,"span":11,"encoder":"92862623254","distractor":"92162623254","target":"present","response":"present","rt":"5648.4000000022","correct":true,"confidence":2},{"trial_n":43,"span":11,"encoder":"79727168098","distractor":"79627168098","target":"absent","response":"present","rt":"6893.1000000015","correct":false,"confidence":4},{"trial_n":44,"span":10,"encoder":"6371101737","distractor":"7371101737","target":"absent","response":"absent","rt":"6557.1999999993","correct":true,"confidence":3},{"trial_n":45,"span":10,"encoder":"6108898479","distractor":"6178898479","target":"absent","response":"present","rt":"11790.600000001","correct":false,"confidence":4},{"trial_n":46,"span":9,"encoder":"580419022","distractor":"580429022","target":"present","response":"present","rt":"5268","correct":true,"confidence":4},{"trial_n":47,"span":9,"encoder":"147107819","distractor":"347107819","target":"present","response":"present","rt":"4480.6999999993","correct":true,"confidence":5},{"trial_n":48,"span":10,"encoder":"7175814333","distractor":"7175314333","target":"absent","response":"present","rt":"14339.200000003","correct":false,"confidence":2},{"trial_n":49,"span":9,"encoder":"492727040","distractor":"442727040","target":"present","response":"present","rt":"4444.6999999993","correct":true,"confidence":5},{"trial_n":50,"span":9,"encoder":"130822544","distractor":"130422544","target":"absent","response":"absent","rt":"7534.9000000022","correct":true,"confidence":4},{"trial_n":51,"span":10,"encoder":"6378842637","distractor":"6378842657","target":"present","response":"present","rt":"4422.6999999993","correct":true,"confidence":4},{"trial_n":52,"span":10,"encoder":"4072073480","distractor":"9072073480","target":"absent","response":"absent","rt":"5689.5999999978","correct":true,"confidence":5},{"trial_n":53,"span":11,"encoder":"03434340374","distractor":"03434370374","target":"absent","response":"present","rt":"19966.799999997","correct":false,"confidence":3},{"trial_n":54,"span":10,"encoder":"2131351260","distractor":"2131351290","target":"absent","response":"present","rt":"5919.1000000015","correct":false,"confidence":3},{"trial_n":55,"span":9,"encoder":"238598687","distractor":"239598687","target":"absent","response":"absent","rt":"4676.6000000015","correct":true,"confidence":4},{"trial_n":56,"span":9,"encoder":"376396058","distractor":"376496058","target":"absent","response":"absent","rt":"7103","correct":true,"confidence":3},{"trial_n":57,"span":10,"encoder":"8799285529","distractor":"4799285529","target":"present","response":"present","rt":"5909.8999999985","correct":true,"confidence":4},{"trial_n":58,"span":10,"encoder":"5413531526","distractor":"5413531516","target":"present","response":"present","rt":"4767.700000003","correct":true,"confidence":4},{"trial_n":59,"span":11,"encoder":"47644794782","distractor":"47614794782","target":"absent","response":"absent","rt":"21875.800000001","correct":true,"confidence":2},{"trial_n":60,"span":11,"encoder":"91851634708","distractor":"91351634708","target":"absent","response":"absent","rt":"10596.200000003","correct":true,"confidence":1},{"trial_n":61,"span":12,"encoder":"330077759254","distractor":"330677759254","target":"absent","response":"present","rt":"19453.100000001","correct":false,"confidence":4},{"trial_n":62,"span":11,"encoder":"42659121768","distractor":"42659121748","target":"absent","response":"present","rt":"15149.100000001","correct":false,"confidence":3},{"trial_n":63,"span":10,"encoder":"4203762548","distractor":"4205762548","target":"present","response":"present","rt":"2844.3000000007","correct":true,"confidence":4},{"trial_n":64,"span":10,"encoder":"2991897408","distractor":"2991877408","target":"present","response":"present","rt":"7668.8999999985","correct":true,"confidence":3},{"trial_n":65,"span":11,"encoder":"74220831940","distractor":"74250831940","target":"present","response":"present","rt":"4182.1999999993","correct":true,"confidence":2},{"trial_n":66,"span":11,"encoder":"70083214866","distractor":"70083214666","target":"absent","response":"present","rt":"4873.6000000015","correct":false,"confidence":4},{"trial_n":67,"span":10,"encoder":"9699823642","distractor":"9299823642","target":"present","response":"present","rt":"4232.5","correct":true,"confidence":5},{"trial_n":68,"span":10,"encoder":"7780143374","distractor":"7780043374","target":"present","response":"present","rt":"4334.4000000022","correct":true,"confidence":3},{"trial_n":69,"span":11,"encoder":"96045736152","distractor":"96045716152","target":"present","response":"present","rt":"4302","correct":true,"confidence":4},{"trial_n":70,"span":11,"encoder":"81540881368","distractor":"81540281368","target":"present","response":"absent","rt":"5871.9000000022","correct":false,"confidence":4},{"trial_n":71,"span":8,"encoder":"02502780","distractor":"02502720","target":"present","response":"present","rt":"7335.1999999993","correct":true,"confidence":-1},{"trial_n":72,"span":8,"encoder":"28409611","distractor":"28009611","target":"present","response":"present","rt":"9519.3000000007","correct":true,"confidence":-1},{"trial_n":73,"span":9,"encoder":"067064502","distractor":"067064504","target":"absent","response":"absent","rt":"1231.3000000007","correct":true,"confidence":-1},{"trial_n":74,"span":9,"encoder":"495851720","distractor":"465851720","target":"absent","response":"absent","rt":"7126.1999999993","correct":true,"confidence":-1},{"trial_n":75,"span":10,"encoder":"5344413230","distractor":"4344413230","target":"present","response":"absent","rt":"5398.0999999978","correct":false,"confidence":-1},{"trial_n":76,"span":9,"encoder":"986005353","distractor":"988005353","target":"present","response":"present","rt":"3194.5","correct":true,"confidence":-1},{"trial_n":77,"span":9,"encoder":"690558597","distractor":"690558547","target":"present","response":"absent","rt":"13066.199999999","correct":false,"confidence":-1},{"trial_n":78,"span":8,"encoder":"17447870","distractor":"13447870","target":"absent","response":"absent","rt":"4305.1999999993","correct":true,"confidence":-1},{"trial_n":79,"span":8,"encoder":"48675489","distractor":"48875489","target":"present","response":"present","rt":"4349","correct":true,"confidence":-1},{"trial_n":80,"span":9,"encoder":"641742069","distractor":"641740069","target":"present","response":"present","rt":"6019","correct":true,"confidence":-1},{"trial_n":81,"span":9,"encoder":"269972655","distractor":"229972655","target":"present","response":"absent","rt":"2157.3999999985","correct":false,"confidence":-1},{"trial_n":82,"span":8,"encoder":"21242173","distractor":"41242173","target":"absent","response":"present","rt":"252308.9","correct":false,"confidence":-1},{"trial_n":83,"span":7,"encoder":"1894337","distractor":"1894837","target":"absent","response":"absent","rt":"4601.1000000015","correct":true,"confidence":-1},{"trial_n":84,"span":7,"encoder":"2489801","distractor":"2489803","target":"present","response":"present","rt":"2613.3999999985","correct":true,"confidence":-1},{"trial_n":85,"span":8,"encoder":"57351386","distractor":"57151386","target":"absent","response":"absent","rt":"4066.1000000015","correct":true,"confidence":-1},{"trial_n":86,"span":8,"encoder":"08247000","distractor":"08247100","target":"absent","response":"absent","rt":"3665.700000003","correct":true,"confidence":-1},{"trial_n":87,"span":9,"encoder":"189449218","distractor":"189449288","target":"absent","response":"absent","rt":"4429.299999997","correct":true,"confidence":-1},{"trial_n":88,"span":9,"encoder":"814902270","distractor":"804902270","target":"present","response":"present","rt":"4218.6999999993","correct":true,"confidence":-1},{"trial_n":89,"span":10,"encoder":"6540004136","distractor":"6590004136","target":"absent","response":"absent","rt":"2835.3000000007","correct":true,"confidence":-1},{"trial_n":90,"span":10,"encoder":"3918469659","distractor":"3918464659","target":"present","response":"present","rt":"5392.8000000007","correct":true,"confidence":-1},{"trial_n":91,"span":11,"encoder":"10817907209","distractor":"10837907209","target":"present","response":"present","rt":"3849.6000000015","correct":true,"confidence":4},{"trial_n":92,"span":11,"encoder":"31773012338","distractor":"01773012338","target":"present","response":"present","rt":"2976","correct":true,"confidence":5},{"trial_n":93,"span":12,"encoder":"085376332098","distractor":"085376337098","target":"absent","response":"present","rt":"15193.699999999","correct":false,"confidence":2},{"trial_n":94,"span":11,"encoder":"23224863560","distractor":"43224863560","target":"absent","response":"absent","rt":"3375.0999999978","correct":true,"confidence":4},{"trial_n":95,"span":11,"encoder":"58529399627","distractor":"58525399627","target":"absent","response":"absent","rt":"11995.300000001","correct":true,"confidence":4},{"trial_n":96,"span":12,"encoder":"158373774683","distractor":"158673774683","target":"absent","response":"absent","rt":"4606.9000000022","correct":true,"confidence":4},{"trial_n":97,"span":12,"encoder":"790804176992","distractor":"790104176992","target":"present","response":"present","rt":"9970.8999999985","correct":true,"confidence":4},{"trial_n":98,"span":13,"encoder":"9951439523483","distractor":"9951439323483","target":"absent","response":"absent","rt":"13026.299999997","correct":true,"confidence":3},{"trial_n":99,"span":13,"encoder":"0777553975627","distractor":"0777553978627","target":"present","response":"present","rt":"10817.599999998","correct":true,"confidence":4},{"trial_n":100,"span":14,"encoder":"41842286643974","distractor":"41842286653974","target":"present","response":"present","rt":"12175.899999999","correct":true,"confidence":2},{"trial_n":101,"span":14,"encoder":"15572073031993","distractor":"65572073031993","target":"present","response":"present","rt":"3673.1999999993","correct":true,"confidence":4},{"trial_n":102,"span":15,"encoder":"121529972022853","distractor":"122529972022853","target":"absent","response":"present","rt":"2998.3000000007","correct":false,"confidence":3},{"trial_n":103,"span":14,"encoder":"66923833748019","distractor":"66923833748010","target":"absent","response":"absent","rt":"2763.8000000007","correct":true,"confidence":5},{"trial_n":104,"span":14,"encoder":"19763796098090","distractor":"19763796398090","target":"present","response":"absent","rt":"12755.900000002","correct":false,"confidence":4},{"trial_n":105,"span":13,"encoder":"5748217075568","distractor":"5748217075368","target":"absent","response":"absent","rt":"3943.1999999993","correct":true,"confidence":4},{"trial_n":106,"span":13,"encoder":"9841682772481","distractor":"9841684772481","target":"absent","response":"present","rt":"7304","correct":false,"confidence":3},{"trial_n":107,"span":12,"encoder":"933451370784","distractor":"935451370784","target":"present","response":"present","rt":"7250.0999999978","correct":true,"confidence":4},{"trial_n":108,"span":12,"encoder":"974909394943","distractor":"974909397943","target":"absent","response":"present","rt":"7249.8000000007","correct":false,"confidence":4},{"trial_n":109,"span":11,"encoder":"33954851220","distractor":"33954851225","target":"present","response":"present","rt":"1726.3000000007","correct":true,"confidence":5},{"trial_n":110,"span":11,"encoder":"31194898215","distractor":"31194898275","target":"absent","response":"absent","rt":"2690.5","correct":true,"confidence":5},{"trial_n":111,"span":12,"encoder":"306779008561","distractor":"306779058561","target":"absent","response":"absent","rt":"6140","correct":true,"confidence":2},{"trial_n":112,"span":12,"encoder":"644604417484","distractor":"644600417484","target":"present","response":"present","rt":"6708.5","correct":true,"confidence":4},{"trial_n":113,"span":13,"encoder":"3391297866218","distractor":"3391297826218","target":"absent","response":"absent","rt":"3373.4000000022","correct":true,"confidence":5},{"trial_n":114,"span":13,"encoder":"6929108218317","distractor":"6929108218717","target":"present","response":"present","rt":"2816","correct":true,"confidence":4},{"trial_n":115,"span":14,"encoder":"72027086607482","distractor":"77027086607482","target":"absent","response":"present","rt":"7473.3000000007","correct":false,"confidence":5},{"trial_n":116,"span":13,"encoder":"7924933466977","distractor":"7923933466977","target":"present","response":"present","rt":"11600","correct":true,"confidence":2},{"trial_n":117,"span":13,"encoder":"6336488799419","distractor":"6336488799410","target":"present","response":"present","rt":"4156.8000000007","correct":true,"confidence":5},{"trial_n":118,"span":14,"encoder":"65407265299731","distractor":"65507265299731","target":"absent","response":"present","rt":"11662","correct":false,"confidence":3},{"trial_n":119,"span":13,"encoder":"4211550788506","distractor":"4211550688506","target":"present","response":"absent","rt":"8328.6999999993","correct":false,"confidence":3},{"trial_n":120,"span":12,"encoder":"860361792962","distractor":"860381792962","target":"present","response":"present","rt":"8109","correct":true,"confidence":4},{"trial_n":121,"span":12,"encoder":"395583404667","distractor":"895583404667","target":"present","response":"absent","rt":"9731.4000000022","correct":false,"confidence":1},{"trial_n":122,"span":11,"encoder":"07096807097","distractor":"07996807097","target":"absent","response":"present","rt":"4257.8000000007","correct":false,"confidence":4},{"trial_n":123,"span":10,"encoder":"9006538045","distractor":"9006568045","target":"absent","response":"absent","rt":"5256.8000000007","correct":true,"confidence":3},{"trial_n":124,"span":10,"encoder":"8601755445","distractor":"8601775445","target":"absent","response":"absent","rt":"5146.5","correct":true,"confidence":4},{"trial_n":125,"span":11,"encoder":"45371784438","distractor":"45301784438","target":"present","response":"present","rt":"5531.299999997","correct":true,"confidence":4},{"trial_n":126,"span":11,"encoder":"27728928983","distractor":"27828928983","target":"absent","response":"absent","rt":"5927.3000000007","correct":true,"confidence":5},{"trial_n":127,"span":12,"encoder":"861569098350","distractor":"861539098350","target":"absent","response":"absent","rt":"8610.1999999993","correct":true,"confidence":3},{"trial_n":128,"span":12,"encoder":"224395652302","distractor":"222395652302","target":"absent","response":"absent","rt":"6010.1000000015","correct":true,"confidence":3},{"trial_n":129,"span":13,"encoder":"8865953311929","distractor":"8865553311929","target":"present","response":"present","rt":"11535","correct":true,"confidence":2},{"trial_n":130,"span":13,"encoder":"8166805355860","distractor":"8166855355860","target":"absent","response":"absent","rt":"8016.3999999985","correct":true,"confidence":4},{"trial_n":131,"span":14,"encoder":"38469988034173","distractor":"38469988034153","target":"present","response":"present","rt":"5659","correct":true,"confidence":4},{"trial_n":132,"span":14,"encoder":"99257329238576","distractor":"99257329235576","target":"absent","response":"present","rt":"9609.3000000007","correct":false,"confidence":3},{"trial_n":133,"span":13,"encoder":"1586143125700","distractor":"1586443125700","target":"absent","response":"absent","rt":"16623.700000003","correct":true,"confidence":2},{"trial_n":134,"span":13,"encoder":"0584103878317","distractor":"0584103878817","target":"present","response":"present","rt":"5462.1000000015","correct":true,"confidence":4},{"trial_n":135,"span":14,"encoder":"74283732684809","distractor":"74283732684819","target":"present","response":"present","rt":"2563.8999999985","correct":true,"confidence":5},{"trial_n":136,"span":14,"encoder":"72865646008394","distractor":"72865647008394","target":"present","response":"present","rt":"9285.8000000007","correct":true,"confidence":4},{"trial_n":137,"span":15,"encoder":"463735488053547","distractor":"463735418053547","target":"present","response":"present","rt":"7207.1000000015","correct":true,"confidence":3},{"trial_n":138,"span":15,"encoder":"005801623683014","distractor":"005801623682014","target":"absent","response":"absent","rt":"3473.4000000022","correct":true,"confidence":4},{"trial_n":139,"span":16,"encoder":"2221004447444425","distractor":"2221004447444495","target":"present","response":"absent","rt":"22329.800000001","correct":false,"confidence":1},{"trial_n":140,"span":15,"encoder":"837116643775918","distractor":"837119643775918","target":"present","response":"absent","rt":"20343.300000001","correct":false,"confidence":2}]