[{"trial_n":1,"n_dots":4.25,"target":"right","response":"left","rt":4938.5,"correct":false,"confidence":-1},{"trial_n":2,"n_dots":4.25,"target":"left","response":"left","rt":2483.299999997,"correct":true,"confidence":-1},{"trial_n":3,"n_dots":4.25,"target":"left","response":"left","rt":620.09999999404,"correct":true,"confidence":-1},{"trial_n":4,"n_dots":3.85,"target":"right","response":"right","rt":544.40000000596,"correct":true,"confidence":-1},{"trial_n":5,"n_dots":3.85,"target":"left","response":"right","rt":313.39999999106,"correct":false,"confidence":-1},{"trial_n":6,"n_dots":4.25,"target":"right","response":"right","rt":256.30000001192,"correct":true,"confidence":-1},{"trial_n":7,"n_dots":4.25,"target":"left","response":"left","rt":222.09999999404,"correct":true,"confidence":-1},{"trial_n":8,"n_dots":4.05,"target":"left","response":"left","rt":351.90000000596,"correct":true,"confidence":-1},{"trial_n":9,"n_dots":4.05,"target":"left","response":"left","rt":293.59999999404,"correct":true,"confidence":-1},{"trial_n":10,"n_dots":3.85,"target":"left","response":"left","rt":135.89999999106,"correct":true,"confidence":-1},{"trial_n":11,"n_dots":3.85,"target":"right","response":"right","rt":539.89999999106,"correct":true,"confidence":-1},{"trial_n":12,"n_dots":3.65,"target":"left","response":"left","rt":328.40000000596,"correct":true,"confidence":-1},{"trial_n":13,"n_dots":3.65,"target":"left","response":"left","rt":185.60000000894,"correct":true,"confidence":-1},{"trial_n":14,"n_dots":3.55,"target":"right","response":"right","rt":187.70000000298,"correct":true,"confidence":-1},{"trial_n":15,"n_dots":3.55,"target":"left","response":"left","rt":458.39999999106,"correct":true,"confidence":-1},{"trial_n":16,"n_dots":3.45,"target":"right","response":"left","rt":606,"correct":false,"confidence":-1},{"trial_n":17,"n_dots":3.55,"target":"right","response":"right","rt":565.39999999106,"correct":true,"confidence":-1},{"trial_n":18,"n_dots":3.55,"target":"right","response":"right","rt":385,"correct":true,"confidence":-1},{"trial_n":19,"n_dots":3.45,"target":"right","response":"left","rt":998.80000001192,"correct":false,"confidence":-1},{"trial_n":20,"n_dots":3.55,"target":"right","response":"right","rt":801.79999999702,"correct":true,"confidence":-1},{"trial_n":21,"n_dots":3.55,"target":"left","response":"left","rt":424,"correct":true,"confidence":3},{"trial_n":22,"n_dots":3.45,"target":"right","response":"right","rt":403,"correct":true,"confidence":4},{"trial_n":23,"n_dots":3.45,"target":"right","response":"right","rt":402.5,"correct":true,"confidence":4},{"trial_n":24,"n_dots":3.35,"target":"left","response":"left","rt":423.89999999106,"correct":true,"confidence":5},{"trial_n":25,"n_dots":3.35,"target":"left","response":"left","rt":313.10000000894,"correct":true,"confidence":4},{"trial_n":26,"n_dots":3.25,"target":"left","response":"left","rt":361.30000001192,"correct":true,"confidence":5},{"trial_n":27,"n_dots":3.25,"target":"right","response":"right","rt":576.70000000298,"correct":true,"confidence":4},{"trial_n":28,"n_dots":3.15,"target":"left","response":"left","rt":112.70000000298,"correct":true,"confidence":5},{"trial_n":29,"n_dots":3.15,"target":"right","response":"right","rt":1079.400000006,"correct":true,"confidence":3},{"trial_n":30,"n_dots":3.05,"target":"left","response":"left","rt":1155.700000003,"correct":true,"confidence":3},{"trial_n":31,"n_dots":3.05,"target":"left","response":"left","rt":335.19999998808,"correct":true,"confidence":3},{"trial_n":32,"n_dots":2.95,"target":"left","response":"left","rt":1016.299999997,"correct":true,"confidence":4},{"trial_n":33,"n_dots":2.95,"target":"left","response":"left","rt":396.39999999106,"correct":true,"confidence":4},{"trial_n":34,"n_dots":2.85,"target":"right","response":"left","rt":328.59999999404,"correct":false,"confidence":4},{"trial_n":35,"n_dots":2.95,"target":"left","response":"right","rt":1920.799999997,"correct":false,"confidence":2},{"trial_n":36,"n_dots":3.05,"target":"left","response":"left","rt":410.09999999404,"correct":true,"confidence":4},{"trial_n":37,"n_dots":3.05,"target":"left","response":"left","rt":432,"correct":true,"confidence":3},{"trial_n":38,"n_dots":2.95,"target":"left","response":"right","rt":1887.299999997,"correct":false,"confidence":1},{"trial_n":39,"n_dots":3.05,"target":"left","response":"left","rt":533.5,"correct":true,"confidence":2},{"trial_n":40,"n_dots":3.05,"target":"right","response":"right","rt":2165.400000006,"correct":true,"confidence":2},{"trial_n":41,"n_dots":2.95,"target":"left","response":"left","rt":290.5,"correct":true,"confidence":4},{"trial_n":42,"n_dots":2.95,"target":"right","response":"right","rt":977.10000000894,"correct":true,"confidence":2},{"trial_n":43,"n_dots":2.85,"target":"right","response":"right","rt":1160,"correct":true,"confidence":3},{"trial_n":44,"n_dots":2.85,"target":"left","response":"left","rt":630.09999999404,"correct":true,"confidence":4},{"trial_n":45,"n_dots":2.75,"target":"left","response":"left","rt":498.79999999702,"correct":true,"confidence":2},{"trial_n":46,"n_dots":2.75,"target":"left","response":"left","rt":721.29999999702,"correct":true,"confidence":4},{"trial_n":47,"n_dots":2.65,"target":"right","response":"left","rt":649.29999999702,"correct":false,"confidence":3},{"trial_n":48,"n_dots":2.75,"target":"right","response":"right","rt":1517.799999997,"correct":true,"confidence":2},{"trial_n":49,"n_dots":2.75,"target":"right","response":"right","rt":1195.8000000119,"correct":true,"confidence":2},{"trial_n":50,"n_dots":2.65,"target":"right","response":"right","rt":433.29999999702,"correct":true,"confidence":2},{"trial_n":51,"n_dots":2.65,"target":"left","response":"left","rt":795.60000000894,"correct":true,"confidence":4},{"trial_n":52,"n_dots":2.55,"target":"right","response":"left","rt":667.70000000298,"correct":false,"confidence":2},{"trial_n":53,"n_dots":2.65,"target":"right","response":"left","rt":1131.3000000119,"correct":false,"confidence":3},{"trial_n":54,"n_dots":2.75,"target":"right","response":"left","rt":1506.900000006,"correct":false,"confidence":2},{"trial_n":55,"n_dots":2.85,"target":"right","response":"right","rt":1044,"correct":true,"confidence":2},{"trial_n":56,"n_dots":2.85,"target":"left","response":"left","rt":374.79999999702,"correct":true,"confidence":2},{"trial_n":57,"n_dots":2.75,"target":"right","response":"right","rt":1395.400000006,"correct":true,"confidence":2},{"trial_n":58,"n_dots":2.75,"target":"left","response":"left","rt":416.40000000596,"correct":true,"confidence":4},{"trial_n":59,"n_dots":2.65,"target":"right","response":"right","rt":1591.900000006,"correct":true,"confidence":2},{"trial_n":60,"n_dots":2.65,"target":"left","response":"left","rt":1501.599999994,"correct":true,"confidence":1},{"trial_n":61,"n_dots":2.55,"target":"right","response":"left","rt":434.60000000894,"correct":false,"confidence":3},{"trial_n":62,"n_dots":2.65,"target":"right","response":"left","rt":352.5,"correct":false,"confidence":3},{"trial_n":63,"n_dots":2.75,"target":"right","response":"left","rt":236,"correct":false,"confidence":4},{"trial_n":64,"n_dots":2.85,"target":"left","response":"left","rt":381.09999999404,"correct":true,"confidence":5},{"trial_n":65,"n_dots":2.85,"target":"right","response":"right","rt":1260,"correct":true,"confidence":2},{"trial_n":66,"n_dots":2.75,"target":"left","response":"left","rt":429.79999999702,"correct":true,"confidence":3},{"trial_n":67,"n_dots":2.75,"target":"left","response":"left","rt":323.79999999702,"correct":true,"confidence":2},{"trial_n":68,"n_dots":2.65,"target":"right","response":"left","rt":450.10000000894,"correct":false,"confidence":3},{"trial_n":69,"n_dots":2.75,"target":"left","response":"left","rt":783,"correct":true,"confidence":2},{"trial_n":70,"n_dots":2.75,"target":"left","response":"left","rt":312.70000000298,"correct":true,"confidence":3},{"trial_n":71,"n_dots":2.65,"target":"right","response":"left","rt":367.79999999702,"correct":false,"confidence":3},{"trial_n":72,"n_dots":2.75,"target":"left","response":"left","rt":1531.200000003,"correct":true,"confidence":2},{"trial_n":73,"n_dots":2.75,"target":"right","response":"left","rt":399,"correct":false,"confidence":4},{"trial_n":74,"n_dots":2.85,"target":"left","response":"left","rt":465.40000000596,"correct":true,"confidence":5},{"trial_n":75,"n_dots":2.85,"target":"left","response":"left","rt":448.09999999404,"correct":true,"confidence":3},{"trial_n":76,"n_dots":2.75,"target":"right","response":"left","rt":549.20000000298,"correct":false,"confidence":2},{"trial_n":77,"n_dots":2.85,"target":"right","response":"left","rt":705.20000000298,"correct":false,"confidence":4},{"trial_n":78,"n_dots":2.95,"target":"left","response":"left","rt":827.69999998808,"correct":true,"confidence":2},{"trial_n":79,"n_dots":2.95,"target":"right","response":"left","rt":678.90000000596,"correct":false,"confidence":2},{"trial_n":80,"n_dots":3.05,"target":"left","response":"left","rt":323.20000000298,"correct":true,"confidence":3},{"trial_n":81,"n_dots":3.05,"target":"right","response":"right","rt":416.59999999404,"correct":true,"confidence":2},{"trial_n":82,"n_dots":2.95,"target":"left","response":"left","rt":442,"correct":true,"confidence":3},{"trial_n":83,"n_dots":2.95,"target":"left","response":"left","rt":556.40000000596,"correct":true,"confidence":3},{"trial_n":84,"n_dots":2.85,"target":"right","response":"right","rt":410.89999999106,"correct":true,"confidence":2},{"trial_n":85,"n_dots":2.85,"target":"left","response":"left","rt":333.70000000298,"correct":true,"confidence":4},{"trial_n":86,"n_dots":2.75,"target":"right","response":"left","rt":1588.599999994,"correct":false,"confidence":1},{"trial_n":87,"n_dots":2.85,"target":"right","response":"right","rt":1931.200000003,"correct":true,"confidence":2},{"trial_n":88,"n_dots":2.85,"target":"left","response":"left","rt":1167.5,"correct":true,"confidence":2},{"trial_n":89,"n_dots":2.75,"target":"right","response":"left","rt":571.09999999404,"correct":false,"confidence":2},{"trial_n":90,"n_dots":2.85,"target":"left","response":"left","rt":577.90000000596,"correct":true,"confidence":3},{"trial_n":91,"n_dots":2.85,"target":"right","response":"right","rt":2103.200000003,"correct":true,"confidence":2},{"trial_n":92,"n_dots":2.75,"target":"right","response":"right","rt":549.5,"correct":true,"confidence":3},{"trial_n":93,"n_dots":2.75,"target":"right","response":"right","rt":509.90000000596,"correct":true,"confidence":4},{"trial_n":94,"n_dots":2.65,"target":"right","response":"right","rt":1223.400000006,"correct":true,"confidence":3},{"trial_n":95,"n_dots":2.65,"target":"left","response":"left","rt":520.40000000596,"correct":true,"confidence":3},{"trial_n":96,"n_dots":2.55,"target":"left","response":"left","rt":352.90000000596,"correct":true,"confidence":4},{"trial_n":97,"n_dots":2.55,"target":"right","response":"left","rt":1092.1000000089,"correct":false,"confidence":2},{"trial_n":98,"n_dots":2.65,"target":"right","response":"right","rt":1511.599999994,"correct":true,"confidence":3},{"trial_n":99,"n_dots":2.65,"target":"right","response":"left","rt":323,"correct":false,"confidence":3},{"trial_n":100,"n_dots":2.75,"target":"right","response":"right","rt":585.39999999106,"correct":true,"confidence":2},{"trial_n":101,"n_dots":2.75,"target":"left","response":"left","rt":902.39999999106,"correct":true,"confidence":3},{"trial_n":102,"n_dots":2.65,"target":"left","response":"left","rt":258.20000000298,"correct":true,"confidence":4},{"trial_n":103,"n_dots":2.65,"target":"left","response":"left","rt":468.5,"correct":true,"confidence":4},{"trial_n":104,"n_dots":2.55,"target":"right","response":"left","rt":376.39999999106,"correct":false,"confidence":3},{"trial_n":105,"n_dots":2.65,"target":"left","response":"left","rt":348.5,"correct":true,"confidence":3},{"trial_n":106,"n_dots":2.65,"target":"left","response":"left","rt":392.70000000298,"correct":true,"confidence":3},{"trial_n":107,"n_dots":2.55,"target":"right","response":"left","rt":650.70000000298,"correct":false,"confidence":4},{"trial_n":108,"n_dots":2.65,"target":"right","response":"right","rt":406,"correct":true,"confidence":4},{"trial_n":109,"n_dots":2.65,"target":"left","response":"left","rt":787,"correct":true,"confidence":4},{"trial_n":110,"n_dots":2.55,"target":"right","response":"left","rt":560.90000000596,"correct":false,"confidence":3},{"trial_n":111,"n_dots":2.65,"target":"right","response":"right","rt":744,"correct":true,"confidence":5},{"trial_n":112,"n_dots":2.65,"target":"right","response":"left","rt":746.80000001192,"correct":false,"confidence":2},{"trial_n":113,"n_dots":2.75,"target":"left","response":"left","rt":459.59999999404,"correct":true,"confidence":3},{"trial_n":114,"n_dots":2.75,"target":"left","response":"left","rt":288.09999999404,"correct":true,"confidence":4},{"trial_n":115,"n_dots":2.65,"target":"left","response":"left","rt":1157.299999997,"correct":true,"confidence":1},{"trial_n":116,"n_dots":2.65,"target":"right","response":"left","rt":1020.5,"correct":false,"confidence":3},{"trial_n":117,"n_dots":2.75,"target":"left","response":"left","rt":413,"correct":true,"confidence":2},{"trial_n":118,"n_dots":2.75,"target":"right","response":"right","rt":1349.200000003,"correct":true,"confidence":2},{"trial_n":119,"n_dots":2.65,"target":"left","response":"left","rt":422.89999999106,"correct":true,"confidence":3},{"trial_n":120,"n_dots":2.65,"target":"right","response":"right","rt":683.70000000298,"correct":true,"confidence":3}]