[{"trial_n":1,"n_dots":4.25,"target":"left","response":"left","rt":15540,"correct":true,"confidence":-1},{"trial_n":2,"n_dots":4.25,"target":"right","response":"right","rt":1225.7999999523,"correct":true,"confidence":-1},{"trial_n":3,"n_dots":3.85,"target":"right","response":"right","rt":792.79999995232,"correct":true,"confidence":-1},{"trial_n":4,"n_dots":3.85,"target":"right","response":"right","rt":645.09999990463,"correct":true,"confidence":-1},{"trial_n":5,"n_dots":3.45,"target":"left","response":"left","rt":824,"correct":true,"confidence":-1},{"trial_n":6,"n_dots":3.45,"target":"left","response":"left","rt":425.20000004768,"correct":true,"confidence":-1},{"trial_n":7,"n_dots":3.05,"target":"right","response":"right","rt":689.29999995232,"correct":true,"confidence":-1},{"trial_n":8,"n_dots":3.05,"target":"left","response":"left","rt":811.40000009537,"correct":true,"confidence":-1},{"trial_n":9,"n_dots":2.85,"target":"left","response":"right","rt":744.70000004768,"correct":false,"confidence":-1},{"trial_n":10,"n_dots":3.05,"target":"left","response":"left","rt":471.20000004768,"correct":true,"confidence":-1},{"trial_n":11,"n_dots":3.05,"target":"right","response":"right","rt":939.59999990463,"correct":true,"confidence":-1},{"trial_n":12,"n_dots":2.85,"target":"right","response":"right","rt":507.89999985695,"correct":true,"confidence":-1},{"trial_n":13,"n_dots":2.85,"target":"right","response":"right","rt":666.20000004768,"correct":true,"confidence":-1},{"trial_n":14,"n_dots":2.75,"target":"left","response":"left","rt":347.20000004768,"correct":true,"confidence":-1},{"trial_n":15,"n_dots":2.75,"target":"right","response":"right","rt":586.5,"correct":true,"confidence":-1},{"trial_n":16,"n_dots":2.65,"target":"left","response":"right","rt":881.5,"correct":false,"confidence":-1},{"trial_n":17,"n_dots":2.75,"target":"right","response":"left","rt":702.70000004768,"correct":false,"confidence":-1},{"trial_n":18,"n_dots":2.85,"target":"left","response":"left","rt":535.29999995232,"correct":true,"confidence":-1},{"trial_n":19,"n_dots":2.85,"target":"right","response":"left","rt":860.19999980927,"correct":false,"confidence":-1},{"trial_n":20,"n_dots":2.95,"target":"left","response":"right","rt":446.5,"correct":false,"confidence":-1},{"trial_n":21,"n_dots":3.05,"target":"right","response":"right","rt":310.70000004768,"correct":true,"confidence":1},{"trial_n":22,"n_dots":3.05,"target":"right","response":"right","rt":612.5,"correct":true,"confidence":1},{"trial_n":23,"n_dots":2.95,"target":"left","response":"left","rt":1251.4000000954,"correct":true,"confidence":2},{"trial_n":24,"n_dots":2.95,"target":"right","response":"right","rt":723.09999990463,"correct":true,"confidence":2},{"trial_n":25,"n_dots":2.85,"target":"right","response":"right","rt":767.20000004768,"correct":true,"confidence":3},{"trial_n":26,"n_dots":2.85,"target":"right","response":"right","rt":1103.9000000954,"correct":true,"confidence":1},{"trial_n":27,"n_dots":2.75,"target":"right","response":"right","rt":285.80000019073,"correct":true,"confidence":2},{"trial_n":28,"n_dots":2.75,"target":"left","response":"left","rt":688.79999995232,"correct":true,"confidence":2},{"trial_n":29,"n_dots":2.65,"target":"right","response":"right","rt":1420,"correct":true,"confidence":1},{"trial_n":30,"n_dots":2.65,"target":"right","response":"right","rt":672.60000014305,"correct":true,"confidence":1},{"trial_n":31,"n_dots":2.55,"target":"left","response":"left","rt":759.29999995232,"correct":true,"confidence":2},{"trial_n":32,"n_dots":2.55,"target":"left","response":"left","rt":711.59999990463,"correct":true,"confidence":1},{"trial_n":33,"n_dots":2.45,"target":"right","response":"right","rt":602.40000009537,"correct":true,"confidence":2},{"trial_n":34,"n_dots":2.45,"target":"left","response":"right","rt":851.70000004768,"correct":false,"confidence":1},{"trial_n":35,"n_dots":2.55,"target":"right","response":"right","rt":661.40000009537,"correct":true,"confidence":1},{"trial_n":36,"n_dots":2.55,"target":"right","response":"right","rt":491.90000009537,"correct":true,"confidence":1},{"trial_n":37,"n_dots":2.45,"target":"left","response":"left","rt":1504.5,"correct":true,"confidence":1},{"trial_n":38,"n_dots":2.45,"target":"left","response":"left","rt":818.10000014305,"correct":true,"confidence":1},{"trial_n":39,"n_dots":2.35,"target":"right","response":"left","rt":1229.1000001431,"correct":false,"confidence":1},{"trial_n":40,"n_dots":2.45,"target":"left","response":"left","rt":1042.4000000954,"correct":true,"confidence":1},{"trial_n":41,"n_dots":2.45,"target":"left","response":"left","rt":636,"correct":true,"confidence":1},{"trial_n":42,"n_dots":2.35,"target":"left","response":"left","rt":944,"correct":true,"confidence":1},{"trial_n":43,"n_dots":2.35,"target":"right","response":"right","rt":547.79999995232,"correct":true,"confidence":1},{"trial_n":44,"n_dots":2.25,"target":"right","response":"right","rt":1312.3999998569,"correct":true,"confidence":1},{"trial_n":45,"n_dots":2.25,"target":"left","response":"left","rt":430.09999990463,"correct":true,"confidence":1},{"trial_n":46,"n_dots":2.15,"target":"left","response":"right","rt":63,"correct":false,"confidence":1},{"trial_n":47,"n_dots":2.25,"target":"right","response":"right","rt":93.099999904633,"correct":true,"confidence":1},{"trial_n":48,"n_dots":2.25,"target":"right","response":"right","rt":507.70000004768,"correct":true,"confidence":1},{"trial_n":49,"n_dots":2.15,"target":"right","response":"left","rt":374.80000019073,"correct":false,"confidence":1},{"trial_n":50,"n_dots":2.25,"target":"right","response":"right","rt":1020.8000001907,"correct":true,"confidence":1},{"trial_n":51,"n_dots":2.25,"target":"left","response":"left","rt":369.89999985695,"correct":true,"confidence":1},{"trial_n":52,"n_dots":2.15,"target":"right","response":"right","rt":416.5,"correct":true,"confidence":1},{"trial_n":53,"n_dots":2.15,"target":"left","response":"left","rt":443.39999985695,"correct":true,"confidence":1},{"trial_n":54,"n_dots":2.05,"target":"right","response":"left","rt":686.59999990463,"correct":false,"confidence":1},{"trial_n":55,"n_dots":2.15,"target":"right","response":"left","rt":782,"correct":false,"confidence":2},{"trial_n":56,"n_dots":2.25,"target":"left","response":"right","rt":544.60000014305,"correct":false,"confidence":2},{"trial_n":57,"n_dots":2.35,"target":"right","response":"right","rt":543.40000009537,"correct":true,"confidence":2},{"trial_n":58,"n_dots":2.35,"target":"right","response":"right","rt":976.80000019073,"correct":true,"confidence":2},{"trial_n":59,"n_dots":2.25,"target":"right","response":"left","rt":2543.5,"correct":false,"confidence":1},{"trial_n":60,"n_dots":2.35,"target":"right","response":"right","rt":2554.5,"correct":true,"confidence":2},{"trial_n":61,"n_dots":2.35,"target":"right","response":"right","rt":746.39999985695,"correct":true,"confidence":1},{"trial_n":62,"n_dots":2.25,"target":"left","response":"right","rt":572.70000004768,"correct":false,"confidence":1},{"trial_n":63,"n_dots":2.35,"target":"left","response":"left","rt":1164.6000001431,"correct":true,"confidence":1},{"trial_n":64,"n_dots":2.35,"target":"left","response":"left","rt":711.29999995232,"correct":true,"confidence":1},{"trial_n":65,"n_dots":2.25,"target":"right","response":"right","rt":943.89999985695,"correct":true,"confidence":1},{"trial_n":66,"n_dots":2.25,"target":"left","response":"left","rt":1017.6000001431,"correct":true,"confidence":2},{"trial_n":67,"n_dots":2.15,"target":"left","response":"right","rt":1107.4000000954,"correct":false,"confidence":2},{"trial_n":68,"n_dots":2.25,"target":"left","response":"left","rt":727.5,"correct":true,"confidence":1},{"trial_n":69,"n_dots":2.25,"target":"left","response":"right","rt":983.20000004768,"correct":false,"confidence":2},{"trial_n":70,"n_dots":2.35,"target":"right","response":"left","rt":796,"correct":false,"confidence":2},{"trial_n":71,"n_dots":2.45,"target":"right","response":"right","rt":2449.7000000477,"correct":true,"confidence":1},{"trial_n":72,"n_dots":2.45,"target":"left","response":"left","rt":757.5,"correct":true,"confidence":2},{"trial_n":73,"n_dots":2.35,"target":"right","response":"left","rt":715.09999990463,"correct":false,"confidence":1},{"trial_n":74,"n_dots":2.45,"target":"left","response":"left","rt":1691,"correct":true,"confidence":1},{"trial_n":75,"n_dots":2.45,"target":"right","response":"right","rt":869.5,"correct":true,"confidence":2},{"trial_n":76,"n_dots":2.35,"target":"right","response":"left","rt":1109.8000001907,"correct":false,"confidence":1},{"trial_n":77,"n_dots":2.45,"target":"left","response":"left","rt":1217.9000000954,"correct":true,"confidence":1},{"trial_n":78,"n_dots":2.45,"target":"left","response":"left","rt":1785.7000000477,"correct":true,"confidence":1},{"trial_n":79,"n_dots":2.35,"target":"right","response":"right","rt":794.79999995232,"correct":true,"confidence":2},{"trial_n":80,"n_dots":2.35,"target":"right","response":"right","rt":575.29999995232,"correct":true,"confidence":2},{"trial_n":81,"n_dots":2.25,"target":"left","response":"left","rt":870.29999995232,"correct":true,"confidence":1},{"trial_n":82,"n_dots":2.25,"target":"left","response":"right","rt":2397.3999998569,"correct":false,"confidence":1},{"trial_n":83,"n_dots":2.35,"target":"right","response":"right","rt":1162.5999999046,"correct":true,"confidence":2},{"trial_n":84,"n_dots":2.35,"target":"right","response":"left","rt":1791.0999999046,"correct":false,"confidence":1},{"trial_n":85,"n_dots":2.45,"target":"left","response":"left","rt":1162.7000000477,"correct":true,"confidence":1},{"trial_n":86,"n_dots":2.45,"target":"left","response":"right","rt":850.70000004768,"correct":false,"confidence":2},{"trial_n":87,"n_dots":2.55,"target":"right","response":"right","rt":1710.7000000477,"correct":true,"confidence":1},{"trial_n":88,"n_dots":2.55,"target":"right","response":"left","rt":1357,"correct":false,"confidence":1},{"trial_n":89,"n_dots":2.65,"target":"left","response":"left","rt":915.89999985695,"correct":true,"confidence":1},{"trial_n":90,"n_dots":2.65,"target":"left","response":"left","rt":1038.4000000954,"correct":true,"confidence":2},{"trial_n":91,"n_dots":2.55,"target":"right","response":"right","rt":928.70000004768,"correct":true,"confidence":2},{"trial_n":92,"n_dots":2.55,"target":"right","response":"left","rt":1002.1000001431,"correct":false,"confidence":2},{"trial_n":93,"n_dots":2.65,"target":"left","response":"left","rt":1325.7999999523,"correct":true,"confidence":1},{"trial_n":94,"n_dots":2.65,"target":"right","response":"right","rt":949.29999995232,"correct":true,"confidence":2},{"trial_n":95,"n_dots":2.55,"target":"left","response":"left","rt":1105.8999998569,"correct":true,"confidence":2},{"trial_n":96,"n_dots":2.55,"target":"right","response":"right","rt":1651.6000001431,"correct":true,"confidence":1},{"trial_n":97,"n_dots":2.45,"target":"right","response":"left","rt":1405.4000000954,"correct":false,"confidence":1},{"trial_n":98,"n_dots":2.55,"target":"left","response":"left","rt":899.89999985695,"correct":true,"confidence":2},{"trial_n":99,"n_dots":2.55,"target":"right","response":"right","rt":1845,"correct":true,"confidence":1},{"trial_n":100,"n_dots":2.45,"target":"left","response":"left","rt":1133,"correct":true,"confidence":1},{"trial_n":101,"n_dots":2.45,"target":"left","response":"left","rt":5027.6000001431,"correct":true,"confidence":1},{"trial_n":102,"n_dots":2.35,"target":"left","response":"right","rt":1474.6000001431,"correct":false,"confidence":1},{"trial_n":103,"n_dots":2.45,"target":"left","response":"right","rt":1087.2000000477,"correct":false,"confidence":2},{"trial_n":104,"n_dots":2.55,"target":"right","response":"right","rt":1710.5999999046,"correct":true,"confidence":2},{"trial_n":105,"n_dots":2.55,"target":"left","response":"left","rt":2170.1000001431,"correct":true,"confidence":1},{"trial_n":106,"n_dots":2.45,"target":"left","response":"left","rt":1436.6000001431,"correct":true,"confidence":2},{"trial_n":107,"n_dots":2.45,"target":"left","response":"left","rt":1584.4000000954,"correct":true,"confidence":1},{"trial_n":108,"n_dots":2.35,"target":"left","response":"left","rt":1288.8999998569,"correct":true,"confidence":1},{"trial_n":109,"n_dots":2.35,"target":"left","response":"right","rt":1432.1999998093,"correct":false,"confidence":2},{"trial_n":110,"n_dots":2.45,"target":"left","response":"left","rt":1486.2000000477,"correct":true,"confidence":1},{"trial_n":111,"n_dots":2.45,"target":"right","response":"right","rt":743.29999995232,"correct":true,"confidence":2},{"trial_n":112,"n_dots":2.35,"target":"left","response":"left","rt":615,"correct":true,"confidence":2},{"trial_n":113,"n_dots":2.35,"target":"right","response":"right","rt":703.09999990463,"correct":true,"confidence":2},{"trial_n":114,"n_dots":2.25,"target":"right","response":"left","rt":1266.7000000477,"correct":false,"confidence":2},{"trial_n":115,"n_dots":2.35,"target":"left","response":"left","rt":951.59999990463,"correct":true,"confidence":2},{"trial_n":116,"n_dots":2.35,"target":"right","response":"right","rt":864.39999985695,"correct":true,"confidence":2},{"trial_n":117,"n_dots":2.25,"target":"left","response":"left","rt":829.20000004768,"correct":true,"confidence":1},{"trial_n":118,"n_dots":2.25,"target":"right","response":"left","rt":966.70000004768,"correct":false,"confidence":2},{"trial_n":119,"n_dots":2.35,"target":"left","response":"right","rt":1899.5,"correct":false,"confidence":1},{"trial_n":120,"n_dots":2.45,"target":"left","response":"right","rt":960.70000004768,"correct":false,"confidence":2}]