[{"trial_n":1,"min":25,"max":230,"target":"present","response":"absent","rt":4434.8000001907,"correct":false,"confidence":-1},{"trial_n":2,"min":25,"max":230,"target":"present","response":"present","rt":2246.9000000954,"correct":true,"confidence":-1},{"trial_n":3,"min":25,"max":230,"target":"absent","response":"absent","rt":1252.2999999523,"correct":true,"confidence":-1},{"trial_n":4,"min":41,"max":214,"target":"absent","response":"absent","rt":1363.3999998569,"correct":true,"confidence":-1},{"trial_n":5,"min":41,"max":214,"target":"present","response":"present","rt":1001.9000000954,"correct":true,"confidence":-1},{"trial_n":6,"min":57,"max":198,"target":"present","response":"present","rt":1563.5,"correct":true,"confidence":-1},{"trial_n":7,"min":57,"max":198,"target":"absent","response":"absent","rt":1067.6999998093,"correct":true,"confidence":-1},{"trial_n":8,"min":73,"max":182,"target":"absent","response":"absent","rt":775.90000009537,"correct":true,"confidence":-1},{"trial_n":9,"min":73,"max":182,"target":"absent","response":"absent","rt":818.10000014305,"correct":true,"confidence":-1},{"trial_n":10,"min":89,"max":166,"target":"absent","response":"absent","rt":637,"correct":true,"confidence":-1},{"trial_n":11,"min":89,"max":166,"target":"present","response":"absent","rt":624.20000004768,"correct":false,"confidence":-1},{"trial_n":12,"min":81,"max":174,"target":"present","response":"present","rt":1086.9000000954,"correct":true,"confidence":-1},{"trial_n":13,"min":81,"max":174,"target":"absent","response":"absent","rt":1124.7000000477,"correct":true,"confidence":-1},{"trial_n":14,"min":89,"max":166,"target":"absent","response":"absent","rt":839.20000004768,"correct":true,"confidence":-1},{"trial_n":15,"min":89,"max":166,"target":"present","response":"absent","rt":758,"correct":false,"confidence":-1},{"trial_n":16,"min":81,"max":174,"target":"present","response":"present","rt":1051.5,"correct":true,"confidence":-1},{"trial_n":17,"min":81,"max":174,"target":"absent","response":"absent","rt":1013.4000000954,"correct":true,"confidence":-1},{"trial_n":18,"min":89,"max":166,"target":"present","response":"absent","rt":1787.2999999523,"correct":false,"confidence":-1},{"trial_n":19,"min":81,"max":174,"target":"present","response":"absent","rt":911,"correct":false,"confidence":-1},{"trial_n":20,"min":73,"max":182,"target":"present","response":"present","rt":1213,"correct":true,"confidence":-1},{"trial_n":21,"min":73,"max":182,"target":"present","response":"present","rt":1017.1999998093,"correct":true,"confidence":3},{"trial_n":22,"min":77,"max":178,"target":"absent","response":"absent","rt":1583,"correct":true,"confidence":2},{"trial_n":23,"min":77,"max":178,"target":"absent","response":"absent","rt":971.40000009537,"correct":true,"confidence":3},{"trial_n":24,"min":81,"max":174,"target":"present","response":"present","rt":1539.2999999523,"correct":true,"confidence":2},{"trial_n":25,"min":81,"max":174,"target":"present","response":"present","rt":1296,"correct":true,"confidence":3},{"trial_n":26,"min":85,"max":170,"target":"absent","response":"absent","rt":1149.2000000477,"correct":true,"confidence":1},{"trial_n":27,"min":85,"max":170,"target":"present","response":"absent","rt":1295.5,"correct":false,"confidence":1},{"trial_n":28,"min":81,"max":174,"target":"absent","response":"absent","rt":1242.1999998093,"correct":true,"confidence":1},{"trial_n":29,"min":81,"max":174,"target":"absent","response":"absent","rt":1609.1000001431,"correct":true,"confidence":1},{"trial_n":30,"min":85,"max":170,"target":"absent","response":"absent","rt":1293.2000000477,"correct":true,"confidence":1},{"trial_n":31,"min":85,"max":170,"target":"present","response":"present","rt":1031.7999999523,"correct":true,"confidence":2},{"trial_n":32,"min":87,"max":168,"target":"absent","response":"present","rt":1069.4000000954,"correct":false,"confidence":2},{"trial_n":33,"min":85,"max":170,"target":"present","response":"absent","rt":1360.9000000954,"correct":false,"confidence":2},{"trial_n":34,"min":83,"max":172,"target":"present","response":"absent","rt":1140.1000001431,"correct":false,"confidence":1},{"trial_n":35,"min":81,"max":174,"target":"present","response":"present","rt":1051.7999999523,"correct":true,"confidence":2},{"trial_n":36,"min":81,"max":174,"target":"present","response":"present","rt":1301.4000000954,"correct":true,"confidence":3},{"trial_n":37,"min":83,"max":172,"target":"absent","response":"absent","rt":1192,"correct":true,"confidence":1},{"trial_n":38,"min":83,"max":172,"target":"present","response":"absent","rt":1494.4000000954,"correct":false,"confidence":2},{"trial_n":39,"min":81,"max":174,"target":"absent","response":"present","rt":2151.4000000954,"correct":false,"confidence":1},{"trial_n":40,"min":79,"max":176,"target":"present","response":"present","rt":810.70000004768,"correct":true,"confidence":3},{"trial_n":41,"min":79,"max":176,"target":"absent","response":"present","rt":1230.0999999046,"correct":false,"confidence":2},{"trial_n":42,"min":78,"max":177,"target":"present","response":"absent","rt":3361.4000000954,"correct":false,"confidence":1},{"trial_n":43,"min":77,"max":178,"target":"absent","response":"present","rt":1330.6000001431,"correct":false,"confidence":2},{"trial_n":44,"min":76,"max":179,"target":"absent","response":"absent","rt":999.30000019073,"correct":true,"confidence":1},{"trial_n":45,"min":76,"max":179,"target":"absent","response":"absent","rt":1435.7000000477,"correct":true,"confidence":1},{"trial_n":46,"min":77,"max":178,"target":"present","response":"present","rt":1127.7000000477,"correct":true,"confidence":3},{"trial_n":47,"min":77,"max":178,"target":"absent","response":"absent","rt":947.60000014305,"correct":true,"confidence":2},{"trial_n":48,"min":78,"max":177,"target":"present","response":"present","rt":2400.0999999046,"correct":true,"confidence":1},{"trial_n":49,"min":78,"max":177,"target":"absent","response":"absent","rt":1109.2000000477,"correct":true,"confidence":1},{"trial_n":50,"min":79,"max":176,"target":"absent","response":"absent","rt":1124.7000000477,"correct":true,"confidence":1},{"trial_n":51,"min":79,"max":176,"target":"present","response":"present","rt":1309.2000000477,"correct":true,"confidence":2},{"trial_n":52,"min":80,"max":175,"target":"absent","response":"absent","rt":2242.1000001431,"correct":true,"confidence":1},{"trial_n":53,"min":80,"max":175,"target":"absent","response":"absent","rt":1565.5,"correct":true,"confidence":1},{"trial_n":54,"min":81,"max":174,"target":"present","response":"absent","rt":1009.7000000477,"correct":false,"confidence":1},{"trial_n":55,"min":80,"max":175,"target":"present","response":"present","rt":969.60000014305,"correct":true,"confidence":3},{"trial_n":56,"min":80,"max":175,"target":"present","response":"present","rt":975.79999995232,"correct":true,"confidence":3},{"trial_n":57,"min":81,"max":174,"target":"absent","response":"present","rt":1019.5999999046,"correct":false,"confidence":3},{"trial_n":58,"min":80,"max":175,"target":"present","response":"present","rt":1549.7999999523,"correct":true,"confidence":1},{"trial_n":59,"min":80,"max":175,"target":"present","response":"present","rt":1061.2999999523,"correct":true,"confidence":2},{"trial_n":60,"min":81,"max":174,"target":"absent","response":"absent","rt":2083.6000001431,"correct":true,"confidence":1},{"trial_n":61,"min":81,"max":174,"target":"present","response":"present","rt":1144.3000001907,"correct":true,"confidence":3},{"trial_n":62,"min":82,"max":173,"target":"present","response":"absent","rt":1364.9000000954,"correct":false,"confidence":1},{"trial_n":63,"min":81,"max":174,"target":"absent","response":"absent","rt":1009.2000000477,"correct":true,"confidence":1},{"trial_n":64,"min":81,"max":174,"target":"absent","response":"absent","rt":965.90000009537,"correct":true,"confidence":1},{"trial_n":65,"min":82,"max":173,"target":"present","response":"present","rt":1459.2000000477,"correct":true,"confidence":2},{"trial_n":66,"min":82,"max":173,"target":"present","response":"present","rt":916.89999985695,"correct":true,"confidence":2},{"trial_n":67,"min":83,"max":172,"target":"present","response":"absent","rt":1230.1000001431,"correct":false,"confidence":1},{"trial_n":68,"min":82,"max":173,"target":"absent","response":"absent","rt":1028.7999999523,"correct":true,"confidence":1},{"trial_n":69,"min":82,"max":173,"target":"absent","response":"absent","rt":1152.3000001907,"correct":true,"confidence":1},{"trial_n":70,"min":83,"max":172,"target":"absent","response":"absent","rt":909.80000019073,"correct":true,"confidence":1},{"trial_n":71,"min":41,"max":214,"target":"present","response":"present","rt":2652.2999999523,"correct":true,"confidence":-1},{"trial_n":72,"min":41,"max":214,"target":"present","response":"present","rt":882.59999990463,"correct":true,"confidence":-1},{"trial_n":73,"min":57,"max":198,"target":"absent","response":"absent","rt":1365.9000000954,"correct":true,"confidence":-1},{"trial_n":74,"min":57,"max":198,"target":"absent","response":"absent","rt":1435.7999999523,"correct":true,"confidence":-1},{"trial_n":75,"min":73,"max":182,"target":"present","response":"present","rt":1118.2999999523,"correct":true,"confidence":-1},{"trial_n":76,"min":73,"max":182,"target":"present","response":"present","rt":852.39999985695,"correct":true,"confidence":-1},{"trial_n":77,"min":89,"max":166,"target":"present","response":"present","rt":752.29999995232,"correct":true,"confidence":-1},{"trial_n":78,"min":89,"max":166,"target":"absent","response":"absent","rt":1374.4000000954,"correct":true,"confidence":-1},{"trial_n":79,"min":105,"max":150,"target":"present","response":"present","rt":1226.8999998569,"correct":true,"confidence":-1},{"trial_n":80,"min":105,"max":150,"target":"absent","response":"present","rt":1107.5,"correct":false,"confidence":-1},{"trial_n":81,"min":97,"max":158,"target":"present","response":"present","rt":1413.6000001431,"correct":true,"confidence":-1},{"trial_n":82,"min":97,"max":158,"target":"absent","response":"absent","rt":1732.2999999523,"correct":true,"confidence":-1},{"trial_n":83,"min":105,"max":150,"target":"present","response":"absent","rt":881.79999995232,"correct":false,"confidence":-1},{"trial_n":84,"min":97,"max":158,"target":"absent","response":"absent","rt":700.29999995232,"correct":true,"confidence":-1},{"trial_n":85,"min":97,"max":158,"target":"absent","response":"present","rt":1215.8000001907,"correct":false,"confidence":-1},{"trial_n":86,"min":89,"max":166,"target":"present","response":"present","rt":2206.4000000954,"correct":true,"confidence":-1},{"trial_n":87,"min":89,"max":166,"target":"absent","response":"present","rt":1049.2999999523,"correct":false,"confidence":-1},{"trial_n":88,"min":81,"max":174,"target":"present","response":"present","rt":682,"correct":true,"confidence":-1},{"trial_n":89,"min":81,"max":174,"target":"absent","response":"present","rt":574,"correct":false,"confidence":-1},{"trial_n":90,"min":73,"max":182,"target":"present","response":"present","rt":973.29999995232,"correct":true,"confidence":-1},{"trial_n":91,"min":73,"max":182,"target":"absent","response":"absent","rt":2295.8999998569,"correct":true,"confidence":1},{"trial_n":92,"min":77,"max":178,"target":"absent","response":"absent","rt":1550,"correct":true,"confidence":2},{"trial_n":93,"min":77,"max":178,"target":"present","response":"present","rt":906.39999985695,"correct":true,"confidence":4},{"trial_n":94,"min":81,"max":174,"target":"present","response":"present","rt":1128,"correct":true,"confidence":3},{"trial_n":95,"min":81,"max":174,"target":"present","response":"present","rt":824.79999995232,"correct":true,"confidence":4},{"trial_n":96,"min":85,"max":170,"target":"absent","response":"absent","rt":1436.7999999523,"correct":true,"confidence":2},{"trial_n":97,"min":85,"max":170,"target":"absent","response":"absent","rt":1470.5,"correct":true,"confidence":1},{"trial_n":98,"min":89,"max":166,"target":"present","response":"present","rt":1180.8999998569,"correct":true,"confidence":3},{"trial_n":99,"min":89,"max":166,"target":"present","response":"present","rt":1912.7999999523,"correct":true,"confidence":1},{"trial_n":100,"min":93,"max":162,"target":"present","response":"present","rt":977.29999995232,"correct":true,"confidence":1},{"trial_n":101,"min":93,"max":162,"target":"absent","response":"present","rt":1344.7999999523,"correct":false,"confidence":1},{"trial_n":102,"min":91,"max":164,"target":"absent","response":"absent","rt":2198.5,"correct":true,"confidence":1},{"trial_n":103,"min":91,"max":164,"target":"present","response":"present","rt":834.59999990463,"correct":true,"confidence":3},{"trial_n":104,"min":93,"max":162,"target":"absent","response":"present","rt":1031.5999999046,"correct":false,"confidence":2},{"trial_n":105,"min":91,"max":164,"target":"present","response":"present","rt":962.90000009537,"correct":true,"confidence":3},{"trial_n":106,"min":91,"max":164,"target":"absent","response":"present","rt":1022.7000000477,"correct":false,"confidence":2},{"trial_n":107,"min":89,"max":166,"target":"absent","response":"absent","rt":1167.5,"correct":true,"confidence":2},{"trial_n":108,"min":89,"max":166,"target":"present","response":"present","rt":1495.7999999523,"correct":true,"confidence":1},{"trial_n":109,"min":91,"max":164,"target":"absent","response":"absent","rt":1616.2000000477,"correct":true,"confidence":1},{"trial_n":110,"min":91,"max":164,"target":"absent","response":"present","rt":1142.2999999523,"correct":false,"confidence":2},{"trial_n":111,"min":90,"max":165,"target":"absent","response":"present","rt":1915,"correct":false,"confidence":1},{"trial_n":112,"min":89,"max":166,"target":"present","response":"present","rt":1070,"correct":true,"confidence":1},{"trial_n":113,"min":89,"max":166,"target":"absent","response":"present","rt":1178.5999999046,"correct":false,"confidence":1},{"trial_n":114,"min":88,"max":167,"target":"present","response":"present","rt":1208,"correct":true,"confidence":1},{"trial_n":115,"min":88,"max":167,"target":"absent","response":"absent","rt":1246.3999998569,"correct":true,"confidence":1},{"trial_n":116,"min":89,"max":166,"target":"present","response":"present","rt":794.5,"correct":true,"confidence":3},{"trial_n":117,"min":89,"max":166,"target":"present","response":"present","rt":1050,"correct":true,"confidence":3},{"trial_n":118,"min":90,"max":165,"target":"present","response":"absent","rt":1359,"correct":false,"confidence":1},{"trial_n":119,"min":89,"max":166,"target":"absent","response":"present","rt":1083.7999999523,"correct":false,"confidence":2},{"trial_n":120,"min":88,"max":167,"target":"absent","response":"present","rt":1802.7999999523,"correct":false,"confidence":1},{"trial_n":121,"min":87,"max":168,"target":"present","response":"present","rt":874.30000019073,"correct":true,"confidence":4},{"trial_n":122,"min":87,"max":168,"target":"absent","response":"present","rt":1012.2999999523,"correct":false,"confidence":3},{"trial_n":123,"min":86,"max":169,"target":"present","response":"present","rt":1143.0999999046,"correct":true,"confidence":2},{"trial_n":124,"min":86,"max":169,"target":"present","response":"present","rt":956.5,"correct":true,"confidence":2},{"trial_n":125,"min":87,"max":168,"target":"absent","response":"absent","rt":1595.9000000954,"correct":true,"confidence":1},{"trial_n":126,"min":87,"max":168,"target":"present","response":"absent","rt":3496,"correct":false,"confidence":1},{"trial_n":127,"min":86,"max":169,"target":"present","response":"present","rt":1313.9000000954,"correct":true,"confidence":2},{"trial_n":128,"min":86,"max":169,"target":"absent","response":"present","rt":1044,"correct":false,"confidence":2},{"trial_n":129,"min":85,"max":170,"target":"absent","response":"absent","rt":1130.4000000954,"correct":true,"confidence":3},{"trial_n":130,"min":85,"max":170,"target":"present","response":"present","rt":938.29999995232,"correct":true,"confidence":3},{"trial_n":131,"min":86,"max":169,"target":"absent","response":"present","rt":1221.0999999046,"correct":false,"confidence":1},{"trial_n":132,"min":85,"max":170,"target":"present","response":"present","rt":1112.9000000954,"correct":true,"confidence":2},{"trial_n":133,"min":85,"max":170,"target":"absent","response":"absent","rt":1772.9000000954,"correct":true,"confidence":1},{"trial_n":134,"min":86,"max":169,"target":"absent","response":"absent","rt":1581.2999999523,"correct":true,"confidence":1},{"trial_n":135,"min":86,"max":169,"target":"present","response":"absent","rt":1092.9000000954,"correct":false,"confidence":1},{"trial_n":136,"min":85,"max":170,"target":"absent","response":"present","rt":1057,"correct":false,"confidence":3},{"trial_n":137,"min":84,"max":171,"target":"present","response":"present","rt":1089.2999999523,"correct":true,"confidence":2},{"trial_n":138,"min":84,"max":171,"target":"present","response":"present","rt":877.79999995232,"correct":true,"confidence":3},{"trial_n":139,"min":85,"max":170,"target":"present","response":"present","rt":1841.2000000477,"correct":true,"confidence":2},{"trial_n":140,"min":85,"max":170,"target":"absent","response":"present","rt":1139.2999999523,"correct":false,"confidence":2}]