[{"trial_n":1,"span":8,"encoder":"22206997","distractor":"22206995","target":"present","response":"absent","rt":"49105.5","correct":false,"confidence":-1},{"trial_n":2,"span":6,"encoder":"771724","distractor":"771624","target":"present","response":"present","rt":"2624.0999999046","correct":true,"confidence":-1},{"trial_n":3,"span":6,"encoder":"681993","distractor":"641993","target":"absent","response":"present","rt":"1732.2999999523","correct":false,"confidence":-1},{"trial_n":4,"span":4,"encoder":"9331","distractor":"9335","target":"absent","response":"absent","rt":"1949.5999999046","correct":true,"confidence":-1},{"trial_n":5,"span":4,"encoder":"1073","distractor":"1070","target":"present","response":"present","rt":"2127.5","correct":true,"confidence":-1},{"trial_n":6,"span":6,"encoder":"186824","distractor":"187824","target":"present","response":"present","rt":"1510.5","correct":true,"confidence":-1},{"trial_n":7,"span":6,"encoder":"268915","distractor":"768915","target":"absent","response":"present","rt":"1921.5","correct":false,"confidence":-1},{"trial_n":8,"span":4,"encoder":"5390","distractor":"5370","target":"present","response":"present","rt":"1342.2999999523","correct":true,"confidence":-1},{"trial_n":9,"span":4,"encoder":"6054","distractor":"6058","target":"present","response":"present","rt":"1158","correct":true,"confidence":-1},{"trial_n":10,"span":6,"encoder":"624856","distractor":"622856","target":"absent","response":"absent","rt":"2072.6000001431","correct":true,"confidence":-1},{"trial_n":11,"span":6,"encoder":"558470","distractor":"558440","target":"present","response":"absent","rt":"1930.4000000954","correct":false,"confidence":-1},{"trial_n":12,"span":5,"encoder":"61706","distractor":"69706","target":"absent","response":"absent","rt":"1819.7000000477","correct":true,"confidence":-1},{"trial_n":13,"span":5,"encoder":"40221","distractor":"45221","target":"absent","response":"present","rt":"1814","correct":false,"confidence":-1},{"trial_n":14,"span":4,"encoder":"3693","distractor":"3663","target":"present","response":"present","rt":"1913.2999999523","correct":true,"confidence":-1},{"trial_n":15,"span":4,"encoder":"9598","distractor":"9599","target":"present","response":"present","rt":"2138.4000000954","correct":true,"confidence":-1},{"trial_n":16,"span":5,"encoder":"40629","distractor":"70629","target":"absent","response":"absent","rt":"1895.5999999046","correct":true,"confidence":-1},{"trial_n":17,"span":5,"encoder":"69515","distractor":"69415","target":"present","response":"present","rt":"2258","correct":true,"confidence":-1},{"trial_n":18,"span":6,"encoder":"946984","distractor":"946989","target":"absent","response":"absent","rt":"2209.2999999523","correct":true,"confidence":-1},{"trial_n":19,"span":6,"encoder":"821848","distractor":"021848","target":"absent","response":"absent","rt":"1587.9000000954","correct":true,"confidence":-1},{"trial_n":20,"span":7,"encoder":"9720881","distractor":"9520881","target":"absent","response":"present","rt":"2621.2999999523","correct":false,"confidence":-1},{"trial_n":21,"span":6,"encoder":"386628","distractor":"386638","target":"absent","response":"absent","rt":"3130.0999999046","correct":true,"confidence":3},{"trial_n":22,"span":6,"encoder":"477996","distractor":"477986","target":"present","response":"present","rt":"2112.4000000954","correct":true,"confidence":4},{"trial_n":23,"span":7,"encoder":"3306733","distractor":"3306737","target":"absent","response":"absent","rt":"1812.3999998569","correct":true,"confidence":3},{"trial_n":24,"span":7,"encoder":"9023438","distractor":"9923438","target":"absent","response":"absent","rt":"1702.2999999523","correct":true,"confidence":3},{"trial_n":25,"span":8,"encoder":"23600835","distractor":"23600035","target":"present","response":"present","rt":"2683.7999999523","correct":true,"confidence":3},{"trial_n":26,"span":8,"encoder":"97459607","distractor":"97459603","target":"present","response":"absent","rt":"3795.5","correct":false,"confidence":2},{"trial_n":27,"span":7,"encoder":"5761859","distractor":"5791859","target":"absent","response":"absent","rt":"2146","correct":true,"confidence":3},{"trial_n":28,"span":7,"encoder":"8133431","distractor":"8137431","target":"present","response":"present","rt":"2916","correct":true,"confidence":3},{"trial_n":29,"span":8,"encoder":"84010171","distractor":"87010171","target":"absent","response":"present","rt":"3991.5999999046","correct":false,"confidence":2},{"trial_n":30,"span":7,"encoder":"7576827","distractor":"7526827","target":"present","response":"absent","rt":"2298.9000000954","correct":false,"confidence":1},{"trial_n":31,"span":6,"encoder":"617285","distractor":"617280","target":"present","response":"present","rt":"2122.6999998093","correct":true,"confidence":4},{"trial_n":32,"span":6,"encoder":"862297","distractor":"862290","target":"present","response":"present","rt":"2054.6000001431","correct":true,"confidence":4},{"trial_n":33,"span":7,"encoder":"3522278","distractor":"3922278","target":"absent","response":"absent","rt":"2547.7000000477","correct":true,"confidence":3},{"trial_n":34,"span":7,"encoder":"2995427","distractor":"2095427","target":"absent","response":"absent","rt":"1998.2999999523","correct":true,"confidence":3},{"trial_n":35,"span":8,"encoder":"97269510","distractor":"97268510","target":"present","response":"present","rt":"2733.9000000954","correct":true,"confidence":3},{"trial_n":36,"span":8,"encoder":"03188316","distractor":"03188318","target":"present","response":"present","rt":"2503.3999998569","correct":true,"confidence":2},{"trial_n":37,"span":9,"encoder":"434250391","distractor":"435250391","target":"present","response":"present","rt":"3257.2999999523","correct":true,"confidence":2},{"trial_n":38,"span":9,"encoder":"329136704","distractor":"829136704","target":"present","response":"present","rt":"3395.0999999046","correct":true,"confidence":3},{"trial_n":39,"span":10,"encoder":"2253151979","distractor":"2263151979","target":"present","response":"present","rt":"3019.2999999523","correct":true,"confidence":3},{"trial_n":40,"span":10,"encoder":"8931803422","distractor":"8331803422","target":"absent","response":"absent","rt":"2811.2999999523","correct":true,"confidence":3},{"trial_n":41,"span":11,"encoder":"42204854419","distractor":"42204884419","target":"present","response":"absent","rt":"3871.2999999523","correct":false,"confidence":2},{"trial_n":42,"span":10,"encoder":"8636147657","distractor":"8636147757","target":"present","response":"absent","rt":"2448.2000000477","correct":false,"confidence":2},{"trial_n":43,"span":9,"encoder":"618190934","distractor":"618290934","target":"present","response":"present","rt":"2836.5999999046","correct":true,"confidence":3},{"trial_n":44,"span":9,"encoder":"201219213","distractor":"201219313","target":"absent","response":"present","rt":"6692.2999999523","correct":false,"confidence":2},{"trial_n":45,"span":8,"encoder":"79845898","distractor":"79845498","target":"present","response":"present","rt":"3475.3999998569","correct":true,"confidence":3},{"trial_n":46,"span":8,"encoder":"36817240","distractor":"36317240","target":"absent","response":"absent","rt":"2215.5999999046","correct":true,"confidence":3},{"trial_n":47,"span":9,"encoder":"510809441","distractor":"590809441","target":"absent","response":"present","rt":"3657.4000000954","correct":false,"confidence":3},{"trial_n":48,"span":8,"encoder":"09210792","distractor":"09210722","target":"absent","response":"present","rt":"2583.8000001907","correct":false,"confidence":3},{"trial_n":49,"span":7,"encoder":"8988946","distractor":"8988646","target":"absent","response":"absent","rt":"3632","correct":true,"confidence":3},{"trial_n":50,"span":7,"encoder":"1999299","distractor":"1969299","target":"absent","response":"absent","rt":"2355","correct":true,"confidence":2},{"trial_n":51,"span":8,"encoder":"06732356","distractor":"86732356","target":"absent","response":"absent","rt":"3717.0999999046","correct":true,"confidence":2},{"trial_n":52,"span":8,"encoder":"07784245","distractor":"07786245","target":"present","response":"present","rt":"3335.5","correct":true,"confidence":3},{"trial_n":53,"span":9,"encoder":"796008085","distractor":"796008095","target":"present","response":"present","rt":"2390","correct":true,"confidence":4},{"trial_n":54,"span":9,"encoder":"429484064","distractor":"429484054","target":"absent","response":"absent","rt":"2926.8999998569","correct":true,"confidence":4},{"trial_n":55,"span":10,"encoder":"1639583938","distractor":"4639583938","target":"absent","response":"absent","rt":"5821.8000001907","correct":true,"confidence":2},{"trial_n":56,"span":10,"encoder":"2814509464","distractor":"2814569464","target":"present","response":"present","rt":"4334.2000000477","correct":true,"confidence":3},{"trial_n":57,"span":11,"encoder":"47864006607","distractor":"47864006107","target":"absent","response":"absent","rt":"3781.6000001431","correct":true,"confidence":1},{"trial_n":58,"span":11,"encoder":"25958796820","distractor":"85958796820","target":"present","response":"present","rt":"7459.7999999523","correct":true,"confidence":3},{"trial_n":59,"span":12,"encoder":"371035515373","distractor":"381035515373","target":"present","response":"present","rt":"3452.2999999523","correct":true,"confidence":3},{"trial_n":60,"span":12,"encoder":"424018814121","distractor":"424018816121","target":"absent","response":"absent","rt":"12845.400000095","correct":true,"confidence":1},{"trial_n":61,"span":13,"encoder":"2409689144458","distractor":"2409686144458","target":"present","response":"absent","rt":"2861.0999999046","correct":false,"confidence":2},{"trial_n":62,"span":12,"encoder":"206009507914","distractor":"206003507914","target":"present","response":"present","rt":"4534.2999999523","correct":true,"confidence":3},{"trial_n":63,"span":12,"encoder":"330045938494","distractor":"330045938495","target":"present","response":"present","rt":"3326.4000000954","correct":true,"confidence":3},{"trial_n":64,"span":13,"encoder":"5825674125104","distractor":"5825674125107","target":"absent","response":"absent","rt":"1946.2000000477","correct":true,"confidence":3},{"trial_n":65,"span":13,"encoder":"6987981919898","distractor":"6287981919898","target":"absent","response":"present","rt":"2942.5","correct":false,"confidence":2},{"trial_n":66,"span":12,"encoder":"358568982888","distractor":"358568982808","target":"absent","response":"absent","rt":"1959.5","correct":true,"confidence":3},{"trial_n":67,"span":12,"encoder":"074897495638","distractor":"274897495638","target":"present","response":"present","rt":"3195.8999998569","correct":true,"confidence":3},{"trial_n":68,"span":13,"encoder":"2314717940596","distractor":"2319717940596","target":"absent","response":"present","rt":"3169.3999998569","correct":false,"confidence":3},{"trial_n":69,"span":12,"encoder":"019336640512","distractor":"019336640532","target":"absent","response":"absent","rt":"3908.0999999046","correct":true,"confidence":1},{"trial_n":70,"span":12,"encoder":"941395227584","distractor":"941395297584","target":"present","response":"present","rt":"3701","correct":true,"confidence":3},{"trial_n":71,"span":8,"encoder":"17963005","distractor":"17863005","target":"present","response":"present","rt":"26117.800000191","correct":true,"confidence":-1},{"trial_n":72,"span":8,"encoder":"76029354","distractor":"76529354","target":"present","response":"absent","rt":"151606.69999981","correct":false,"confidence":-1},{"trial_n":73,"span":7,"encoder":"3068969","distractor":"3068169","target":"absent","response":"absent","rt":"4874.7000000477","correct":true,"confidence":-1},{"trial_n":74,"span":7,"encoder":"8829570","distractor":"8828570","target":"absent","response":"absent","rt":"2709.6000001431","correct":true,"confidence":-1},{"trial_n":75,"span":8,"encoder":"50929635","distractor":"50929636","target":"present","response":"present","rt":"2037.5","correct":true,"confidence":-1},{"trial_n":76,"span":8,"encoder":"86186834","distractor":"86186839","target":"absent","response":"absent","rt":"2410.7999999523","correct":true,"confidence":-1},{"trial_n":77,"span":9,"encoder":"576606799","distractor":"576506799","target":"absent","response":"present","rt":"4272.1000001431","correct":false,"confidence":-1},{"trial_n":78,"span":8,"encoder":"86918015","distractor":"86918010","target":"absent","response":"absent","rt":"2707.5","correct":true,"confidence":-1},{"trial_n":79,"span":8,"encoder":"09201557","distractor":"09206557","target":"present","response":"present","rt":"3114.7999999523","correct":true,"confidence":-1},{"trial_n":80,"span":9,"encoder":"584262333","distractor":"584262393","target":"absent","response":"absent","rt":"2853.9000000954","correct":true,"confidence":-1},{"trial_n":81,"span":9,"encoder":"436900228","distractor":"436904228","target":"present","response":"present","rt":"3624.5","correct":true,"confidence":-1},{"trial_n":82,"span":10,"encoder":"5478735600","distractor":"5478715600","target":"absent","response":"present","rt":"5962.9000000954","correct":false,"confidence":-1},{"trial_n":83,"span":9,"encoder":"549900784","distractor":"549909784","target":"present","response":"present","rt":"2177.6000001431","correct":true,"confidence":-1},{"trial_n":84,"span":9,"encoder":"812171739","distractor":"812171039","target":"present","response":"present","rt":"1488","correct":true,"confidence":-1},{"trial_n":85,"span":10,"encoder":"1160723510","distractor":"1160723515","target":"present","response":"present","rt":"1272.2000000477","correct":true,"confidence":-1},{"trial_n":86,"span":10,"encoder":"2579164045","distractor":"2579169045","target":"absent","response":"absent","rt":"1978.6000001431","correct":true,"confidence":-1},{"trial_n":87,"span":11,"encoder":"13086355423","distractor":"73086355423","target":"present","response":"absent","rt":"4204.0999999046","correct":false,"confidence":-1},{"trial_n":88,"span":10,"encoder":"7101147359","distractor":"7121147359","target":"present","response":"present","rt":"6334","correct":true,"confidence":-1},{"trial_n":89,"span":10,"encoder":"7079493859","distractor":"7079693859","target":"absent","response":"present","rt":"9041.6000001431","correct":false,"confidence":-1},{"trial_n":90,"span":9,"encoder":"417241873","distractor":"416241873","target":"present","response":"present","rt":"3703.1999998093","correct":true,"confidence":-1},{"trial_n":91,"span":9,"encoder":"899476184","distractor":"899475184","target":"absent","response":"absent","rt":"4053.2000000477","correct":true,"confidence":3},{"trial_n":92,"span":10,"encoder":"1955346542","distractor":"5955346542","target":"present","response":"absent","rt":"5577.8999998569","correct":false,"confidence":2},{"trial_n":93,"span":9,"encoder":"197071771","distractor":"197371771","target":"present","response":"present","rt":"3690.7999999523","correct":true,"confidence":2},{"trial_n":94,"span":9,"encoder":"377039302","distractor":"377039202","target":"absent","response":"absent","rt":"3228.2999999523","correct":true,"confidence":3},{"trial_n":95,"span":10,"encoder":"2849019209","distractor":"2849019204","target":"present","response":"present","rt":"2315.6000001431","correct":true,"confidence":4},{"trial_n":96,"span":10,"encoder":"5637241806","distractor":"5636241806","target":"present","response":"present","rt":"5679","correct":true,"confidence":2},{"trial_n":97,"span":11,"encoder":"88568569206","distractor":"88568969206","target":"absent","response":"absent","rt":"5571.4000000954","correct":true,"confidence":3},{"trial_n":98,"span":11,"encoder":"77375444417","distractor":"77378444417","target":"absent","response":"absent","rt":"5577.5999999046","correct":true,"confidence":2},{"trial_n":99,"span":12,"encoder":"928074053367","distractor":"928274053367","target":"absent","response":"absent","rt":"11726.599999905","correct":true,"confidence":2},{"trial_n":100,"span":12,"encoder":"848128440855","distractor":"847128440855","target":"present","response":"present","rt":"5964","correct":true,"confidence":1},{"trial_n":101,"span":13,"encoder":"2777992800407","distractor":"2977992800407","target":"absent","response":"absent","rt":"4793.9000000954","correct":true,"confidence":1},{"trial_n":102,"span":13,"encoder":"2513244234658","distractor":"2513244234558","target":"absent","response":"absent","rt":"4915.2999999523","correct":true,"confidence":3},{"trial_n":103,"span":14,"encoder":"27880813358055","distractor":"27880513358055","target":"present","response":"absent","rt":"7887.0999999046","correct":false,"confidence":3},{"trial_n":104,"span":13,"encoder":"2033077658842","distractor":"6033077658842","target":"present","response":"present","rt":"4660","correct":true,"confidence":1},{"trial_n":105,"span":13,"encoder":"1936107623313","distractor":"1936107623413","target":"present","response":"present","rt":"2223.5999999046","correct":true,"confidence":4},{"trial_n":106,"span":14,"encoder":"54265658612760","distractor":"52265658612760","target":"absent","response":"absent","rt":"3627.6000001431","correct":true,"confidence":1},{"trial_n":107,"span":14,"encoder":"01764102302153","distractor":"01764102302151","target":"present","response":"present","rt":"4630.8000001907","correct":true,"confidence":3},{"trial_n":108,"span":15,"encoder":"804832795915818","distractor":"804832795911818","target":"present","response":"present","rt":"4847.9000000954","correct":true,"confidence":4},{"trial_n":109,"span":15,"encoder":"927925818558006","distractor":"927925818558007","target":"present","response":"present","rt":"2763.7999999523","correct":true,"confidence":4},{"trial_n":110,"span":16,"encoder":"8859706214813269","distractor":"8859706214813259","target":"absent","response":"absent","rt":"4947.6000001431","correct":true,"confidence":3},{"trial_n":111,"span":16,"encoder":"3080727172602599","distractor":"3050727172602599","target":"absent","response":"absent","rt":"3455.7999999523","correct":true,"confidence":1},{"trial_n":112,"span":17,"encoder":"11793793257927794","distractor":"11793793257997794","target":"present","response":"present","rt":"3654","correct":true,"confidence":3},{"trial_n":113,"span":17,"encoder":"86705481763487086","distractor":"86705481766487086","target":"present","response":"present","rt":"5502.7999999523","correct":true,"confidence":3},{"trial_n":114,"span":18,"encoder":"039204903500472007","distractor":"030204903500472007","target":"present","response":"present","rt":"7874.7999999523","correct":true,"confidence":1},{"trial_n":115,"span":18,"encoder":"968751786088948037","distractor":"968551786088948037","target":"absent","response":"absent","rt":"3570.8999998569","correct":true,"confidence":1},{"trial_n":116,"span":19,"encoder":"2829272769766655137","distractor":"2829272769766675137","target":"absent","response":"absent","rt":"4325.8999998569","correct":true,"confidence":3},{"trial_n":117,"span":19,"encoder":"2117087813859927405","distractor":"2117987813859927405","target":"absent","response":"absent","rt":"9061.6000001431","correct":true,"confidence":1},{"trial_n":118,"span":20,"encoder":"22380139929088466409","distractor":"22380139929084466409","target":"present","response":"absent","rt":"4170.2999999523","correct":false,"confidence":1},{"trial_n":119,"span":19,"encoder":"6066778014424814644","distractor":"6068778014424814644","target":"absent","response":"present","rt":"8210.3999998569","correct":false,"confidence":1},{"trial_n":120,"span":18,"encoder":"700062017479960213","distractor":"700062117479960213","target":"absent","response":"absent","rt":"4974","correct":true,"confidence":1},{"trial_n":121,"span":18,"encoder":"210351753607858987","distractor":"210351553607858987","target":"present","response":"present","rt":"1978.2999999523","correct":true,"confidence":1},{"trial_n":122,"span":19,"encoder":"0567041193867287445","distractor":"0567041193837287445","target":"present","response":"absent","rt":"1460.4000000954","correct":false,"confidence":1},{"trial_n":123,"span":18,"encoder":"883431584727733067","distractor":"883431584727733064","target":"absent","response":"present","rt":"7279.2000000477","correct":false,"confidence":1},{"trial_n":124,"span":17,"encoder":"22326851706902242","distractor":"22326551706902242","target":"absent","response":"absent","rt":"3905.7999999523","correct":true,"confidence":1},{"trial_n":125,"span":17,"encoder":"72386354207739954","distractor":"72386354207739254","target":"absent","response":"present","rt":"4991.9000000954","correct":false,"confidence":1},{"trial_n":126,"span":16,"encoder":"8732623316062347","distractor":"8732613316062347","target":"absent","response":"present","rt":"4559.1999998093","correct":false,"confidence":1},{"trial_n":127,"span":15,"encoder":"022902895283487","distractor":"022902095283487","target":"present","response":"present","rt":"10441.399999857","correct":true,"confidence":3},{"trial_n":128,"span":15,"encoder":"659105972809567","distractor":"650105972809567","target":"present","response":"present","rt":"3851.9000000954","correct":true,"confidence":2},{"trial_n":129,"span":16,"encoder":"5417278772479213","distractor":"5717278772479213","target":"absent","response":"absent","rt":"3119.5999999046","correct":true,"confidence":3},{"trial_n":130,"span":16,"encoder":"8857575543272901","distractor":"8857575543272101","target":"present","response":"absent","rt":"9924.3999998569","correct":false,"confidence":1},{"trial_n":131,"span":15,"encoder":"554223304964438","distractor":"554223304914438","target":"present","response":"present","rt":"7278.3999998569","correct":true,"confidence":1},{"trial_n":132,"span":15,"encoder":"667241822643805","distractor":"667241822643806","target":"present","response":"present","rt":"1802.8999998569","correct":true,"confidence":3},{"trial_n":133,"span":16,"encoder":"5409722396211724","distractor":"5409722396251724","target":"absent","response":"absent","rt":"4166.6999998093","correct":true,"confidence":1},{"trial_n":134,"span":16,"encoder":"2043629158769676","distractor":"2043689158769676","target":"present","response":"present","rt":"7732","correct":true,"confidence":1},{"trial_n":135,"span":17,"encoder":"16934099227191376","distractor":"16934099227197376","target":"present","response":"absent","rt":"7241.2999999523","correct":false,"confidence":1},{"trial_n":136,"span":16,"encoder":"5221853131620950","distractor":"5221853131660950","target":"absent","response":"absent","rt":"7210.2999999523","correct":true,"confidence":1},{"trial_n":137,"span":16,"encoder":"4156395652159006","distractor":"4156395652159806","target":"present","response":"absent","rt":"5693","correct":false,"confidence":1},{"trial_n":138,"span":15,"encoder":"236405386143623","distractor":"236485386143623","target":"absent","response":"present","rt":"3314.9000000954","correct":false,"confidence":1},{"trial_n":139,"span":14,"encoder":"72044105131182","distractor":"72644105131182","target":"absent","response":"absent","rt":"6121.1999998093","correct":true,"confidence":4},{"trial_n":140,"span":14,"encoder":"94514411229001","distractor":"94514411429001","target":"absent","response":"absent","rt":"8272.5","correct":true,"confidence":1}]