[{"trial_n":1,"span":8,"encoder":"24176866","distractor":"14176866","target":"present","response":"absent","rt":"8942.1000000089","correct":false,"confidence":-1},{"trial_n":2,"span":6,"encoder":"876227","distractor":"871227","target":"present","response":"present","rt":"1737.299999997","correct":true,"confidence":-1},{"trial_n":3,"span":6,"encoder":"707524","distractor":"707529","target":"absent","response":"absent","rt":"4368.1000000089","correct":true,"confidence":-1},{"trial_n":4,"span":8,"encoder":"30472392","distractor":"30478392","target":"absent","response":"absent","rt":"2551.700000003","correct":true,"confidence":-1},{"trial_n":5,"span":8,"encoder":"22478553","distractor":"22478557","target":"present","response":"present","rt":"2536.5","correct":true,"confidence":-1},{"trial_n":6,"span":10,"encoder":"5631173332","distractor":"5631173732","target":"absent","response":"absent","rt":"5052","correct":true,"confidence":-1},{"trial_n":7,"span":10,"encoder":"2238618635","distractor":"2239618635","target":"present","response":"present","rt":"4730","correct":true,"confidence":-1},{"trial_n":8,"span":12,"encoder":"589037658320","distractor":"569037658320","target":"absent","response":"present","rt":"5145.5","correct":false,"confidence":-1},{"trial_n":9,"span":10,"encoder":"8405453753","distractor":"8305453753","target":"present","response":"present","rt":"4863.299999997","correct":true,"confidence":-1},{"trial_n":10,"span":10,"encoder":"4248906699","distractor":"4248956699","target":"absent","response":"present","rt":"3434.1000000089","correct":false,"confidence":-1},{"trial_n":11,"span":8,"encoder":"56300593","distractor":"56300693","target":"present","response":"present","rt":"3300.299999997","correct":true,"confidence":-1},{"trial_n":12,"span":8,"encoder":"50523215","distractor":"50543215","target":"present","response":"present","rt":"5959.1000000089","correct":true,"confidence":-1},{"trial_n":13,"span":9,"encoder":"371673705","distractor":"471673705","target":"present","response":"absent","rt":"8029.299999997","correct":false,"confidence":-1},{"trial_n":14,"span":8,"encoder":"98248526","distractor":"98298526","target":"absent","response":"present","rt":"6806.8999999911","correct":false,"confidence":-1},{"trial_n":15,"span":7,"encoder":"6018459","distractor":"6018452","target":"present","response":"absent","rt":"4286.5","correct":false,"confidence":-1},{"trial_n":16,"span":6,"encoder":"073186","distractor":"073486","target":"absent","response":"present","rt":"2551.1000000089","correct":false,"confidence":-1},{"trial_n":17,"span":5,"encoder":"46676","distractor":"46678","target":"absent","response":"absent","rt":"3967.599999994","correct":true,"confidence":-1},{"trial_n":18,"span":5,"encoder":"55554","distractor":"55553","target":"present","response":"present","rt":"1409.900000006","correct":true,"confidence":-1},{"trial_n":19,"span":6,"encoder":"362646","distractor":"362686","target":"present","response":"absent","rt":"5921.3999999911","correct":false,"confidence":-1},{"trial_n":20,"span":5,"encoder":"98293","distractor":"18293","target":"absent","response":"absent","rt":"1964.5","correct":true,"confidence":-1},{"trial_n":21,"span":5,"encoder":"64582","distractor":"64482","target":"present","response":"present","rt":"2030.6000000089","correct":true,"confidence":5},{"trial_n":22,"span":6,"encoder":"298149","distractor":"288149","target":"absent","response":"absent","rt":"3397.400000006","correct":true,"confidence":4},{"trial_n":23,"span":6,"encoder":"761834","distractor":"761864","target":"present","response":"present","rt":"3259.799999997","correct":true,"confidence":3},{"trial_n":24,"span":7,"encoder":"2253730","distractor":"2257730","target":"absent","response":"present","rt":"6347","correct":false,"confidence":2},{"trial_n":25,"span":6,"encoder":"646692","distractor":"646662","target":"present","response":"present","rt":"2563.599999994","correct":true,"confidence":3},{"trial_n":26,"span":6,"encoder":"556548","distractor":"550548","target":"absent","response":"absent","rt":"7308.299999997","correct":true,"confidence":3},{"trial_n":27,"span":7,"encoder":"2071264","distractor":"2021264","target":"absent","response":"present","rt":"4161.299999997","correct":false,"confidence":2},{"trial_n":28,"span":6,"encoder":"613545","distractor":"813545","target":"present","response":"present","rt":"2590.200000003","correct":true,"confidence":5},{"trial_n":29,"span":6,"encoder":"624001","distractor":"604001","target":"absent","response":"absent","rt":"4174.6000000089","correct":true,"confidence":3},{"trial_n":30,"span":7,"encoder":"0557391","distractor":"0557361","target":"present","response":"present","rt":"2879.5","correct":true,"confidence":4},{"trial_n":31,"span":7,"encoder":"6584842","distractor":"6584843","target":"absent","response":"absent","rt":"7152.5","correct":true,"confidence":3},{"trial_n":32,"span":8,"encoder":"52775556","distractor":"92775556","target":"present","response":"present","rt":"2946.200000003","correct":true,"confidence":5},{"trial_n":33,"span":8,"encoder":"85489888","distractor":"85489838","target":"present","response":"present","rt":"3435.900000006","correct":true,"confidence":5},{"trial_n":34,"span":9,"encoder":"649175828","distractor":"649175825","target":"present","response":"present","rt":"4079.6000000089","correct":true,"confidence":3},{"trial_n":35,"span":9,"encoder":"375238157","distractor":"385238157","target":"absent","response":"present","rt":"5973.6999999881","correct":false,"confidence":2},{"trial_n":36,"span":8,"encoder":"94846276","distractor":"94846216","target":"present","response":"present","rt":"6152.200000003","correct":true,"confidence":4},{"trial_n":37,"span":8,"encoder":"48454267","distractor":"41454267","target":"absent","response":"absent","rt":"10597.399999991","correct":true,"confidence":2},{"trial_n":38,"span":9,"encoder":"528068991","distractor":"528168991","target":"absent","response":"absent","rt":"3842.400000006","correct":true,"confidence":3},{"trial_n":39,"span":9,"encoder":"955306550","distractor":"955306559","target":"absent","response":"absent","rt":"5598.799999997","correct":true,"confidence":3},{"trial_n":40,"span":10,"encoder":"0398451942","distractor":"0397451942","target":"absent","response":"present","rt":"6073.599999994","correct":false,"confidence":3},{"trial_n":41,"span":9,"encoder":"954300908","distractor":"954300903","target":"present","response":"present","rt":"6662.3999999911","correct":true,"confidence":1},{"trial_n":42,"span":9,"encoder":"942428781","distractor":"942423781","target":"present","response":"present","rt":"3238.099999994","correct":true,"confidence":4},{"trial_n":43,"span":10,"encoder":"7764774323","distractor":"7766774323","target":"present","response":"present","rt":"4129.3999999911","correct":true,"confidence":5},{"trial_n":44,"span":10,"encoder":"2170787054","distractor":"2178787054","target":"absent","response":"absent","rt":"5447","correct":true,"confidence":4},{"trial_n":45,"span":11,"encoder":"33099276867","distractor":"33099270867","target":"absent","response":"present","rt":"6983.299999997","correct":false,"confidence":3},{"trial_n":46,"span":10,"encoder":"9935305242","distractor":"9935300242","target":"absent","response":"absent","rt":"6961.200000003","correct":true,"confidence":3},{"trial_n":47,"span":10,"encoder":"4694685970","distractor":"4694645970","target":"present","response":"present","rt":"4080.400000006","correct":true,"confidence":4},{"trial_n":48,"span":11,"encoder":"21420751194","distractor":"21420751144","target":"absent","response":"present","rt":"6580.799999997","correct":false,"confidence":3},{"trial_n":49,"span":10,"encoder":"9942224784","distractor":"9942224782","target":"absent","response":"present","rt":"5899.099999994","correct":false,"confidence":5},{"trial_n":50,"span":9,"encoder":"523435364","distractor":"523235364","target":"present","response":"present","rt":"5326.1999999881","correct":true,"confidence":5},{"trial_n":51,"span":9,"encoder":"239130627","distractor":"639130627","target":"present","response":"present","rt":"3902","correct":true,"confidence":5},{"trial_n":52,"span":10,"encoder":"7754811324","distractor":"7454811324","target":"absent","response":"absent","rt":"7812.799999997","correct":true,"confidence":5},{"trial_n":53,"span":10,"encoder":"1906922767","distractor":"1906928767","target":"present","response":"present","rt":"4674","correct":true,"confidence":3},{"trial_n":54,"span":11,"encoder":"65475736195","distractor":"65475336195","target":"absent","response":"absent","rt":"7546","correct":true,"confidence":4},{"trial_n":55,"span":11,"encoder":"88151289921","distractor":"88101289921","target":"absent","response":"absent","rt":"8157.200000003","correct":true,"confidence":5},{"trial_n":56,"span":12,"encoder":"735475038775","distractor":"735475038735","target":"present","response":"present","rt":"7985.200000003","correct":true,"confidence":2},{"trial_n":57,"span":12,"encoder":"453539085868","distractor":"473539085868","target":"absent","response":"absent","rt":"12954.100000009","correct":true,"confidence":3},{"trial_n":58,"span":13,"encoder":"6970508084313","distractor":"6170508084313","target":"present","response":"present","rt":"5409.5","correct":true,"confidence":2},{"trial_n":59,"span":13,"encoder":"8786980294192","distractor":"8786980694192","target":"absent","response":"present","rt":"6171.6000000089","correct":false,"confidence":4},{"trial_n":60,"span":12,"encoder":"548569004567","distractor":"748569004567","target":"present","response":"present","rt":"5126","correct":true,"confidence":5},{"trial_n":61,"span":12,"encoder":"227283047737","distractor":"227283047137","target":"absent","response":"present","rt":"7740.200000003","correct":false,"confidence":3},{"trial_n":62,"span":11,"encoder":"37364447141","distractor":"37364437141","target":"present","response":"present","rt":"5442","correct":true,"confidence":4},{"trial_n":63,"span":11,"encoder":"17014938851","distractor":"15014938851","target":"present","response":"absent","rt":"6000.3999999911","correct":false,"confidence":5},{"trial_n":64,"span":10,"encoder":"5234496318","distractor":"5234496312","target":"present","response":"present","rt":"3978.099999994","correct":true,"confidence":4},{"trial_n":65,"span":10,"encoder":"5467290720","distractor":"5667290720","target":"present","response":"present","rt":"5141.299999997","correct":true,"confidence":3},{"trial_n":66,"span":11,"encoder":"41188570003","distractor":"41188970003","target":"absent","response":"present","rt":"4444.299999997","correct":false,"confidence":5},{"trial_n":67,"span":10,"encoder":"3705678673","distractor":"3705672673","target":"present","response":"present","rt":"4938.700000003","correct":true,"confidence":5},{"trial_n":68,"span":10,"encoder":"8923034025","distractor":"8923534025","target":"absent","response":"absent","rt":"3560.8000000119","correct":true,"confidence":5},{"trial_n":69,"span":11,"encoder":"78852119782","distractor":"78852199782","target":"absent","response":"present","rt":"5259.400000006","correct":false,"confidence":5},{"trial_n":70,"span":10,"encoder":"8995926905","distractor":"8995926705","target":"present","response":"absent","rt":"6573.299999997","correct":false,"confidence":3},{"trial_n":71,"span":8,"encoder":"98315034","distractor":"98315044","target":"present","response":"present","rt":"21223.099999994","correct":true,"confidence":-1},{"trial_n":72,"span":8,"encoder":"68513019","distractor":"68513519","target":"present","response":"present","rt":"22963.799999997","correct":true,"confidence":-1},{"trial_n":73,"span":9,"encoder":"552945410","distractor":"552985410","target":"absent","response":"absent","rt":"7377.700000003","correct":true,"confidence":-1},{"trial_n":74,"span":9,"encoder":"886902936","distractor":"186902936","target":"absent","response":"absent","rt":"7638.099999994","correct":true,"confidence":-1},{"trial_n":75,"span":10,"encoder":"6760379475","distractor":"6760079475","target":"present","response":"present","rt":"5446.700000003","correct":true,"confidence":-1},{"trial_n":76,"span":10,"encoder":"2996160674","distractor":"2496160674","target":"absent","response":"absent","rt":"4038.5","correct":true,"confidence":-1},{"trial_n":77,"span":11,"encoder":"01616419303","distractor":"02616419303","target":"absent","response":"absent","rt":"10374.700000003","correct":true,"confidence":-1},{"trial_n":78,"span":11,"encoder":"21421016633","distractor":"11421016633","target":"present","response":"present","rt":"2111.1000000089","correct":true,"confidence":-1},{"trial_n":79,"span":12,"encoder":"140307482053","distractor":"140907482053","target":"present","response":"present","rt":"4224.400000006","correct":true,"confidence":-1},{"trial_n":80,"span":12,"encoder":"895019331831","distractor":"895519331831","target":"present","response":"present","rt":"3738.200000003","correct":true,"confidence":-1},{"trial_n":81,"span":13,"encoder":"1281735609587","distractor":"1231735609587","target":"absent","response":"absent","rt":"4342.6000000089","correct":true,"confidence":-1},{"trial_n":82,"span":13,"encoder":"1318850205441","distractor":"1318850205401","target":"absent","response":"absent","rt":"2559.1999999881","correct":true,"confidence":-1},{"trial_n":83,"span":14,"encoder":"75674723337329","distractor":"75674723637329","target":"present","response":"present","rt":"3514.3999999911","correct":true,"confidence":-1},{"trial_n":84,"span":14,"encoder":"10141608797674","distractor":"10141608197674","target":"present","response":"absent","rt":"9971.200000003","correct":false,"confidence":-1},{"trial_n":85,"span":13,"encoder":"1396144952154","distractor":"7396144952154","target":"absent","response":"present","rt":"5284.200000003","correct":false,"confidence":-1},{"trial_n":86,"span":12,"encoder":"789776347246","distractor":"789776349246","target":"present","response":"present","rt":"13146.099999994","correct":true,"confidence":-1},{"trial_n":87,"span":12,"encoder":"122848287890","distractor":"122849287890","target":"absent","response":"absent","rt":"13071.399999991","correct":true,"confidence":-1},{"trial_n":88,"span":13,"encoder":"5207658402132","distractor":"5207658408132","target":"present","response":"present","rt":"6381.299999997","correct":true,"confidence":-1},{"trial_n":89,"span":13,"encoder":"8486714953521","distractor":"8486714953581","target":"absent","response":"absent","rt":"10176.900000006","correct":true,"confidence":-1},{"trial_n":90,"span":14,"encoder":"36767536763870","distractor":"36767536963870","target":"absent","response":"present","rt":"12878.299999997","correct":false,"confidence":-1},{"trial_n":91,"span":13,"encoder":"8579476998459","distractor":"8579476998409","target":"present","response":"present","rt":"12563.299999997","correct":true,"confidence":4},{"trial_n":92,"span":13,"encoder":"8403144282693","distractor":"4403144282693","target":"present","response":"present","rt":"9776.200000003","correct":true,"confidence":5},{"trial_n":93,"span":14,"encoder":"83118747951749","distractor":"83118748951749","target":"absent","response":"present","rt":"15227.5","correct":false,"confidence":3},{"trial_n":94,"span":13,"encoder":"5264237399777","distractor":"5264237395777","target":"present","response":"present","rt":"12636.199999988","correct":true,"confidence":5},{"trial_n":95,"span":13,"encoder":"2226882551570","distractor":"2226882557570","target":"present","response":"present","rt":"22655","correct":true,"confidence":2},{"trial_n":96,"span":14,"encoder":"09811484469949","distractor":"09811484469959","target":"absent","response":"present","rt":"18344.600000009","correct":false,"confidence":1},{"trial_n":97,"span":13,"encoder":"3795881222926","distractor":"5795881222926","target":"absent","response":"absent","rt":"2438.6000000089","correct":true,"confidence":5},{"trial_n":98,"span":13,"encoder":"5472032077859","distractor":"5472232077859","target":"present","response":"absent","rt":"5348.299999997","correct":false,"confidence":4},{"trial_n":99,"span":12,"encoder":"435615895408","distractor":"435615895418","target":"present","response":"absent","rt":"12912.599999994","correct":false,"confidence":2},{"trial_n":100,"span":11,"encoder":"56081002120","distractor":"56081082120","target":"absent","response":"present","rt":"18482.299999997","correct":false,"confidence":3},{"trial_n":101,"span":10,"encoder":"3232451558","distractor":"3232451557","target":"absent","response":"absent","rt":"6589.700000003","correct":true,"confidence":4},{"trial_n":102,"span":10,"encoder":"3568658890","distractor":"3568258890","target":"present","response":"absent","rt":"18367.699999988","correct":false,"confidence":3},{"trial_n":103,"span":9,"encoder":"848658458","distractor":"848658958","target":"absent","response":"absent","rt":"8850.5","correct":true,"confidence":3},{"trial_n":104,"span":9,"encoder":"361607475","distractor":"261607475","target":"present","response":"present","rt":"2194.8999999911","correct":true,"confidence":5},{"trial_n":105,"span":10,"encoder":"9361850948","distractor":"5361850948","target":"present","response":"present","rt":"3014.400000006","correct":true,"confidence":4},{"trial_n":106,"span":10,"encoder":"9078851133","distractor":"9078851833","target":"absent","response":"present","rt":"19048.5","correct":false,"confidence":2},{"trial_n":107,"span":9,"encoder":"689212886","distractor":"619212886","target":"absent","response":"present","rt":"11143.800000012","correct":false,"confidence":3},{"trial_n":108,"span":8,"encoder":"40066252","distractor":"40666252","target":"present","response":"present","rt":"12025.399999991","correct":true,"confidence":4},{"trial_n":109,"span":8,"encoder":"15271308","distractor":"95271308","target":"present","response":"present","rt":"3097","correct":true,"confidence":5},{"trial_n":110,"span":9,"encoder":"778913679","distractor":"778913379","target":"absent","response":"present","rt":"10535.299999997","correct":false,"confidence":1},{"trial_n":111,"span":8,"encoder":"75598238","distractor":"75598938","target":"absent","response":"absent","rt":"7256","correct":true,"confidence":3},{"trial_n":112,"span":8,"encoder":"14809980","distractor":"14809930","target":"present","response":"present","rt":"8642","correct":true,"confidence":3},{"trial_n":113,"span":9,"encoder":"759900616","distractor":"759900116","target":"present","response":"present","rt":"10314.5","correct":true,"confidence":4},{"trial_n":114,"span":9,"encoder":"041429346","distractor":"041429746","target":"present","response":"present","rt":"11027.400000006","correct":true,"confidence":1},{"trial_n":115,"span":10,"encoder":"8969868382","distractor":"8969868386","target":"absent","response":"absent","rt":"13665.900000006","correct":true,"confidence":4},{"trial_n":116,"span":10,"encoder":"2056132854","distractor":"2056132859","target":"present","response":"absent","rt":"15497.200000003","correct":false,"confidence":2},{"trial_n":117,"span":9,"encoder":"896964308","distractor":"596964308","target":"present","response":"present","rt":"3170.6000000089","correct":true,"confidence":5},{"trial_n":118,"span":9,"encoder":"019535909","distractor":"019545909","target":"absent","response":"absent","rt":"10784.799999997","correct":true,"confidence":1},{"trial_n":119,"span":10,"encoder":"7556962540","distractor":"7557962540","target":"present","response":"present","rt":"8942.200000003","correct":true,"confidence":3},{"trial_n":120,"span":10,"encoder":"7713230588","distractor":"7713270588","target":"present","response":"absent","rt":"12344.099999994","correct":false,"confidence":1},{"trial_n":121,"span":9,"encoder":"486752636","distractor":"486752036","target":"present","response":"absent","rt":"2345872.9","correct":false,"confidence":1},{"trial_n":122,"span":8,"encoder":"85970134","distractor":"85470134","target":"absent","response":"absent","rt":"2463.299999997","correct":true,"confidence":5},{"trial_n":123,"span":8,"encoder":"67223398","distractor":"67223368","target":"absent","response":"absent","rt":"3087.700000003","correct":true,"confidence":5},{"trial_n":124,"span":9,"encoder":"094577732","distractor":"994577732","target":"present","response":"present","rt":"6893.799999997","correct":true,"confidence":4},{"trial_n":125,"span":9,"encoder":"264471188","distractor":"264271188","target":"absent","response":"absent","rt":"2627","correct":true,"confidence":5},{"trial_n":126,"span":10,"encoder":"3424083977","distractor":"6424083977","target":"absent","response":"present","rt":"4095.900000006","correct":false,"confidence":3},{"trial_n":127,"span":9,"encoder":"003074690","distractor":"005074690","target":"present","response":"present","rt":"3236.200000003","correct":true,"confidence":3},{"trial_n":128,"span":9,"encoder":"021955060","distractor":"061955060","target":"absent","response":"absent","rt":"3172.700000003","correct":true,"confidence":2},{"trial_n":129,"span":10,"encoder":"3337139886","distractor":"3137139886","target":"absent","response":"present","rt":"8690.299999997","correct":false,"confidence":3},{"trial_n":130,"span":9,"encoder":"701374807","distractor":"701314807","target":"absent","response":"absent","rt":"6518","correct":true,"confidence":4},{"trial_n":131,"span":9,"encoder":"171813793","distractor":"171113793","target":"absent","response":"absent","rt":"4656.8999999911","correct":true,"confidence":5},{"trial_n":132,"span":10,"encoder":"8979041709","distractor":"8979041701","target":"absent","response":"absent","rt":"11959.200000003","correct":true,"confidence":1},{"trial_n":133,"span":10,"encoder":"1796834472","distractor":"1896834472","target":"absent","response":"present","rt":"4494.900000006","correct":false,"confidence":4},{"trial_n":134,"span":9,"encoder":"795713721","distractor":"795711721","target":"present","response":"absent","rt":"27327","correct":false,"confidence":2},{"trial_n":135,"span":8,"encoder":"64877182","distractor":"64877181","target":"absent","response":"absent","rt":"6644.099999994","correct":true,"confidence":4},{"trial_n":136,"span":8,"encoder":"98821652","distractor":"90821652","target":"present","response":"present","rt":"6974.299999997","correct":true,"confidence":4},{"trial_n":137,"span":9,"encoder":"288106512","distractor":"288146512","target":"present","response":"present","rt":"6129.200000003","correct":true,"confidence":3},{"trial_n":138,"span":9,"encoder":"154862922","distractor":"154861922","target":"present","response":"absent","rt":"11418.5","correct":false,"confidence":4},{"trial_n":139,"span":8,"encoder":"30554789","distractor":"30554989","target":"absent","response":"absent","rt":"5717.299999997","correct":true,"confidence":5},{"trial_n":140,"span":8,"encoder":"66843686","distractor":"68843686","target":"present","response":"absent","rt":"8543.5","correct":false,"confidence":3}]