[{"trial_n":1,"n_dots":4.25,"target":"left","response":"left","rt":5618.200000003,"correct":true,"confidence":-1},{"trial_n":2,"n_dots":4.25,"target":"right","response":"right","rt":3630.099999994,"correct":true,"confidence":-1},{"trial_n":3,"n_dots":3.85,"target":"right","response":"left","rt":8205.200000003,"correct":false,"confidence":-1},{"trial_n":4,"n_dots":4.25,"target":"left","response":"left","rt":3586.5,"correct":true,"confidence":-1},{"trial_n":5,"n_dots":4.25,"target":"right","response":"left","rt":5715,"correct":false,"confidence":-1},{"trial_n":6,"n_dots":4.65,"target":"left","response":"left","rt":2839.3999999911,"correct":true,"confidence":-1},{"trial_n":7,"n_dots":4.65,"target":"left","response":"left","rt":1744.3999999911,"correct":true,"confidence":-1},{"trial_n":8,"n_dots":4.45,"target":"right","response":"right","rt":1150,"correct":true,"confidence":-1},{"trial_n":9,"n_dots":4.45,"target":"right","response":"right","rt":1039.200000003,"correct":true,"confidence":-1},{"trial_n":10,"n_dots":4.25,"target":"right","response":"right","rt":578.29999999702,"correct":true,"confidence":-1},{"trial_n":11,"n_dots":4.25,"target":"right","response":"left","rt":852.79999999702,"correct":false,"confidence":-1},{"trial_n":12,"n_dots":4.45,"target":"left","response":"left","rt":886.30000001192,"correct":true,"confidence":-1},{"trial_n":13,"n_dots":4.45,"target":"left","response":"left","rt":802.40000000596,"correct":true,"confidence":-1},{"trial_n":14,"n_dots":4.35,"target":"left","response":"left","rt":620.89999999106,"correct":true,"confidence":-1},{"trial_n":15,"n_dots":4.35,"target":"right","response":"right","rt":782.09999999404,"correct":true,"confidence":-1},{"trial_n":16,"n_dots":4.25,"target":"left","response":"left","rt":779,"correct":true,"confidence":-1},{"trial_n":17,"n_dots":4.25,"target":"right","response":"right","rt":708.5,"correct":true,"confidence":-1},{"trial_n":18,"n_dots":4.15,"target":"right","response":"right","rt":321.29999999702,"correct":true,"confidence":-1},{"trial_n":19,"n_dots":4.15,"target":"left","response":"left","rt":1318.3999999911,"correct":true,"confidence":-1},{"trial_n":20,"n_dots":4.05,"target":"left","response":"left","rt":589.5,"correct":true,"confidence":-1},{"trial_n":21,"n_dots":4.05,"target":"left","response":"right","rt":899.20000000298,"correct":false,"confidence":2},{"trial_n":22,"n_dots":4.15,"target":"right","response":"right","rt":742.20000000298,"correct":true,"confidence":4},{"trial_n":23,"n_dots":4.15,"target":"left","response":"left","rt":1153,"correct":true,"confidence":1},{"trial_n":24,"n_dots":4.05,"target":"right","response":"right","rt":664,"correct":true,"confidence":3},{"trial_n":25,"n_dots":4.05,"target":"left","response":"right","rt":1110.700000003,"correct":false,"confidence":3},{"trial_n":26,"n_dots":4.15,"target":"left","response":"left","rt":2945.599999994,"correct":true,"confidence":1},{"trial_n":27,"n_dots":4.15,"target":"right","response":"right","rt":592.10000000894,"correct":true,"confidence":5},{"trial_n":28,"n_dots":4.05,"target":"right","response":"right","rt":623.39999999106,"correct":true,"confidence":5},{"trial_n":29,"n_dots":4.05,"target":"left","response":"left","rt":1212.099999994,"correct":true,"confidence":2},{"trial_n":30,"n_dots":3.95,"target":"left","response":"left","rt":980,"correct":true,"confidence":2},{"trial_n":31,"n_dots":3.95,"target":"right","response":"right","rt":657.90000000596,"correct":true,"confidence":4},{"trial_n":32,"n_dots":3.85,"target":"left","response":"left","rt":698.30000001192,"correct":true,"confidence":4},{"trial_n":33,"n_dots":3.85,"target":"left","response":"left","rt":1044.700000003,"correct":true,"confidence":3},{"trial_n":34,"n_dots":3.75,"target":"right","response":"left","rt":2118.5,"correct":false,"confidence":1},{"trial_n":35,"n_dots":3.85,"target":"left","response":"left","rt":635.29999999702,"correct":true,"confidence":4},{"trial_n":36,"n_dots":3.85,"target":"left","response":"left","rt":432.20000000298,"correct":true,"confidence":5},{"trial_n":37,"n_dots":3.75,"target":"right","response":"right","rt":524.60000000894,"correct":true,"confidence":5},{"trial_n":38,"n_dots":3.75,"target":"left","response":"left","rt":485.70000000298,"correct":true,"confidence":5},{"trial_n":39,"n_dots":3.65,"target":"right","response":"right","rt":618.09999999404,"correct":true,"confidence":4},{"trial_n":40,"n_dots":3.65,"target":"right","response":"left","rt":793.5,"correct":false,"confidence":2},{"trial_n":41,"n_dots":3.75,"target":"left","response":"right","rt":1334,"correct":false,"confidence":3},{"trial_n":42,"n_dots":3.85,"target":"right","response":"right","rt":724,"correct":true,"confidence":3},{"trial_n":43,"n_dots":3.85,"target":"left","response":"left","rt":471.89999999106,"correct":true,"confidence":3},{"trial_n":44,"n_dots":3.75,"target":"right","response":"right","rt":923.5,"correct":true,"confidence":2},{"trial_n":45,"n_dots":3.75,"target":"right","response":"left","rt":694.59999999404,"correct":false,"confidence":1},{"trial_n":46,"n_dots":3.85,"target":"left","response":"left","rt":611.29999999702,"correct":true,"confidence":4},{"trial_n":47,"n_dots":3.85,"target":"right","response":"left","rt":3393.6000000089,"correct":false,"confidence":1},{"trial_n":48,"n_dots":3.95,"target":"right","response":"right","rt":586.70000000298,"correct":true,"confidence":5},{"trial_n":49,"n_dots":3.95,"target":"right","response":"right","rt":538,"correct":true,"confidence":4},{"trial_n":50,"n_dots":3.85,"target":"left","response":"left","rt":1056.799999997,"correct":true,"confidence":2},{"trial_n":51,"n_dots":3.85,"target":"right","response":"right","rt":844.10000000894,"correct":true,"confidence":4},{"trial_n":52,"n_dots":3.75,"target":"right","response":"right","rt":868.79999999702,"correct":true,"confidence":3},{"trial_n":53,"n_dots":3.75,"target":"right","response":"right","rt":572.10000000894,"correct":true,"confidence":5},{"trial_n":54,"n_dots":3.65,"target":"right","response":"left","rt":901.20000000298,"correct":false,"confidence":1},{"trial_n":55,"n_dots":3.75,"target":"right","response":"right","rt":1194.400000006,"correct":true,"confidence":3},{"trial_n":56,"n_dots":3.75,"target":"right","response":"right","rt":1033.099999994,"correct":true,"confidence":5},{"trial_n":57,"n_dots":3.65,"target":"right","response":"right","rt":650.39999999106,"correct":true,"confidence":5},{"trial_n":58,"n_dots":3.65,"target":"left","response":"right","rt":830.5,"correct":false,"confidence":3},{"trial_n":59,"n_dots":3.75,"target":"left","response":"left","rt":633.79999999702,"correct":true,"confidence":3},{"trial_n":60,"n_dots":3.75,"target":"left","response":"right","rt":1884.700000003,"correct":false,"confidence":1},{"trial_n":61,"n_dots":3.85,"target":"right","response":"left","rt":2327.299999997,"correct":false,"confidence":1},{"trial_n":62,"n_dots":3.95,"target":"left","response":"left","rt":875,"correct":true,"confidence":2},{"trial_n":63,"n_dots":3.95,"target":"right","response":"left","rt":988.5,"correct":false,"confidence":3},{"trial_n":64,"n_dots":4.05,"target":"right","response":"left","rt":1623.299999997,"correct":false,"confidence":3},{"trial_n":65,"n_dots":4.15,"target":"left","response":"left","rt":624.09999999404,"correct":true,"confidence":3},{"trial_n":66,"n_dots":4.15,"target":"right","response":"right","rt":442.09999999404,"correct":true,"confidence":4},{"trial_n":67,"n_dots":4.05,"target":"left","response":"left","rt":658.30000001192,"correct":true,"confidence":3},{"trial_n":68,"n_dots":4.05,"target":"left","response":"right","rt":682.29999999702,"correct":false,"confidence":4},{"trial_n":69,"n_dots":4.15,"target":"right","response":"left","rt":1965.299999997,"correct":false,"confidence":1},{"trial_n":70,"n_dots":4.25,"target":"left","response":"right","rt":623.20000000298,"correct":false,"confidence":5},{"trial_n":71,"n_dots":4.35,"target":"right","response":"left","rt":1065.299999997,"correct":false,"confidence":3},{"trial_n":72,"n_dots":4.45,"target":"right","response":"right","rt":944,"correct":true,"confidence":3},{"trial_n":73,"n_dots":4.45,"target":"left","response":"left","rt":573.5,"correct":true,"confidence":4},{"trial_n":74,"n_dots":4.35,"target":"left","response":"left","rt":595,"correct":true,"confidence":5},{"trial_n":75,"n_dots":4.35,"target":"left","response":"left","rt":476.10000000894,"correct":true,"confidence":5},{"trial_n":76,"n_dots":4.25,"target":"right","response":"right","rt":1884.599999994,"correct":true,"confidence":2},{"trial_n":77,"n_dots":4.25,"target":"left","response":"left","rt":405.29999999702,"correct":true,"confidence":4},{"trial_n":78,"n_dots":4.15,"target":"left","response":"left","rt":572.09999999404,"correct":true,"confidence":5},{"trial_n":79,"n_dots":4.15,"target":"right","response":"right","rt":653.40000000596,"correct":true,"confidence":4},{"trial_n":80,"n_dots":4.05,"target":"right","response":"right","rt":1233,"correct":true,"confidence":2},{"trial_n":81,"n_dots":4.05,"target":"left","response":"left","rt":440.10000000894,"correct":true,"confidence":3},{"trial_n":82,"n_dots":3.95,"target":"right","response":"right","rt":1159.099999994,"correct":true,"confidence":2},{"trial_n":83,"n_dots":3.95,"target":"left","response":"left","rt":651.79999999702,"correct":true,"confidence":4},{"trial_n":84,"n_dots":3.85,"target":"left","response":"left","rt":666.10000000894,"correct":true,"confidence":5},{"trial_n":85,"n_dots":3.85,"target":"left","response":"left","rt":784,"correct":true,"confidence":3},{"trial_n":86,"n_dots":3.75,"target":"right","response":"right","rt":553,"correct":true,"confidence":3},{"trial_n":87,"n_dots":3.75,"target":"right","response":"left","rt":1048.599999994,"correct":false,"confidence":1},{"trial_n":88,"n_dots":3.85,"target":"right","response":"right","rt":1382.8000000119,"correct":true,"confidence":2},{"trial_n":89,"n_dots":3.85,"target":"left","response":"left","rt":937.70000000298,"correct":true,"confidence":3},{"trial_n":90,"n_dots":3.75,"target":"left","response":"left","rt":1073.6000000089,"correct":true,"confidence":3},{"trial_n":91,"n_dots":3.75,"target":"left","response":"left","rt":1083.599999994,"correct":true,"confidence":1},{"trial_n":92,"n_dots":3.65,"target":"right","response":"right","rt":2338.200000003,"correct":true,"confidence":2},{"trial_n":93,"n_dots":3.65,"target":"left","response":"left","rt":1091.1000000089,"correct":true,"confidence":2},{"trial_n":94,"n_dots":3.55,"target":"left","response":"left","rt":1789.5,"correct":true,"confidence":1},{"trial_n":95,"n_dots":3.55,"target":"right","response":"right","rt":649.70000000298,"correct":true,"confidence":3},{"trial_n":96,"n_dots":3.45,"target":"left","response":"right","rt":978.90000000596,"correct":false,"confidence":1},{"trial_n":97,"n_dots":3.55,"target":"right","response":"left","rt":2047,"correct":false,"confidence":1},{"trial_n":98,"n_dots":3.65,"target":"left","response":"left","rt":2635,"correct":true,"confidence":1},{"trial_n":99,"n_dots":3.65,"target":"left","response":"left","rt":830.89999999106,"correct":true,"confidence":3},{"trial_n":100,"n_dots":3.55,"target":"right","response":"right","rt":1263.400000006,"correct":true,"confidence":3},{"trial_n":101,"n_dots":3.55,"target":"left","response":"left","rt":674,"correct":true,"confidence":3},{"trial_n":102,"n_dots":3.45,"target":"right","response":"right","rt":602.60000000894,"correct":true,"confidence":4},{"trial_n":103,"n_dots":3.45,"target":"left","response":"right","rt":1757,"correct":false,"confidence":2},{"trial_n":104,"n_dots":3.55,"target":"right","response":"right","rt":2067.1000000089,"correct":true,"confidence":2},{"trial_n":105,"n_dots":3.55,"target":"left","response":"left","rt":693.80000001192,"correct":true,"confidence":3},{"trial_n":106,"n_dots":3.45,"target":"right","response":"left","rt":1558.200000003,"correct":false,"confidence":1},{"trial_n":107,"n_dots":3.55,"target":"left","response":"left","rt":3524.700000003,"correct":true,"confidence":2},{"trial_n":108,"n_dots":3.55,"target":"left","response":"left","rt":3162.799999997,"correct":true,"confidence":1},{"trial_n":109,"n_dots":3.45,"target":"right","response":"right","rt":633.39999999106,"correct":true,"confidence":3},{"trial_n":110,"n_dots":3.45,"target":"left","response":"left","rt":990.5,"correct":true,"confidence":1},{"trial_n":111,"n_dots":3.35,"target":"right","response":"right","rt":525.89999999106,"correct":true,"confidence":3},{"trial_n":112,"n_dots":3.35,"target":"left","response":"left","rt":651.29999999702,"correct":true,"confidence":4},{"trial_n":113,"n_dots":3.25,"target":"right","response":"left","rt":1007.799999997,"correct":false,"confidence":2},{"trial_n":114,"n_dots":3.35,"target":"right","response":"right","rt":636.29999999702,"correct":true,"confidence":2},{"trial_n":115,"n_dots":3.35,"target":"right","response":"right","rt":841.5,"correct":true,"confidence":3},{"trial_n":116,"n_dots":3.25,"target":"left","response":"right","rt":1047.3999999911,"correct":false,"confidence":2},{"trial_n":117,"n_dots":3.35,"target":"left","response":"right","rt":945.29999999702,"correct":false,"confidence":3},{"trial_n":118,"n_dots":3.45,"target":"left","response":"left","rt":596.10000000894,"correct":true,"confidence":3},{"trial_n":119,"n_dots":3.45,"target":"right","response":"right","rt":866,"correct":true,"confidence":2},{"trial_n":120,"n_dots":3.35,"target":"right","response":"right","rt":720.30000001192,"correct":true,"confidence":5}]