[{"trial_n":1,"min":25,"max":230,"target":"present","response":"present","rt":4868.400000006,"correct":true,"confidence":-1},{"trial_n":2,"min":25,"max":230,"target":"present","response":"present","rt":7887.3000000119,"correct":true,"confidence":-1},{"trial_n":3,"min":41,"max":214,"target":"absent","response":"absent","rt":2023.200000003,"correct":true,"confidence":-1},{"trial_n":4,"min":41,"max":214,"target":"absent","response":"absent","rt":1710.299999997,"correct":true,"confidence":-1},{"trial_n":5,"min":57,"max":198,"target":"present","response":"present","rt":1302.6000000089,"correct":true,"confidence":-1},{"trial_n":6,"min":57,"max":198,"target":"present","response":"present","rt":1372.799999997,"correct":true,"confidence":-1},{"trial_n":7,"min":73,"max":182,"target":"absent","response":"absent","rt":848.70000000298,"correct":true,"confidence":-1},{"trial_n":8,"min":73,"max":182,"target":"present","response":"present","rt":806.10000000894,"correct":true,"confidence":-1},{"trial_n":9,"min":89,"max":166,"target":"absent","response":"absent","rt":808.20000000298,"correct":true,"confidence":-1},{"trial_n":10,"min":89,"max":166,"target":"absent","response":"absent","rt":867.80000001192,"correct":true,"confidence":-1},{"trial_n":11,"min":97,"max":158,"target":"present","response":"absent","rt":821.70000000298,"correct":false,"confidence":-1},{"trial_n":12,"min":89,"max":166,"target":"present","response":"present","rt":1241.099999994,"correct":true,"confidence":-1},{"trial_n":13,"min":89,"max":166,"target":"absent","response":"absent","rt":915,"correct":true,"confidence":-1},{"trial_n":14,"min":97,"max":158,"target":"absent","response":"present","rt":1229.200000003,"correct":false,"confidence":-1},{"trial_n":15,"min":89,"max":166,"target":"present","response":"absent","rt":973.89999999106,"correct":false,"confidence":-1},{"trial_n":16,"min":81,"max":174,"target":"present","response":"present","rt":1364,"correct":true,"confidence":-1},{"trial_n":17,"min":81,"max":174,"target":"present","response":"present","rt":825.20000000298,"correct":true,"confidence":-1},{"trial_n":18,"min":89,"max":166,"target":"absent","response":"absent","rt":1036.099999994,"correct":true,"confidence":-1},{"trial_n":19,"min":89,"max":166,"target":"present","response":"present","rt":2807.400000006,"correct":true,"confidence":-1},{"trial_n":20,"min":97,"max":158,"target":"absent","response":"absent","rt":1261.200000003,"correct":true,"confidence":-1},{"trial_n":21,"min":97,"max":158,"target":"present","response":"present","rt":4590.400000006,"correct":true,"confidence":3},{"trial_n":22,"min":101,"max":154,"target":"absent","response":"absent","rt":3750.900000006,"correct":true,"confidence":4},{"trial_n":23,"min":101,"max":154,"target":"present","response":"absent","rt":2581.5,"correct":false,"confidence":4},{"trial_n":24,"min":97,"max":158,"target":"absent","response":"absent","rt":2222.799999997,"correct":true,"confidence":4},{"trial_n":25,"min":97,"max":158,"target":"present","response":"absent","rt":2100.299999997,"correct":false,"confidence":4},{"trial_n":26,"min":93,"max":162,"target":"present","response":"present","rt":4777.299999997,"correct":true,"confidence":3},{"trial_n":27,"min":93,"max":162,"target":"present","response":"absent","rt":4566.8000000119,"correct":false,"confidence":2},{"trial_n":28,"min":89,"max":166,"target":"absent","response":"present","rt":1678.700000003,"correct":false,"confidence":2},{"trial_n":29,"min":85,"max":170,"target":"present","response":"present","rt":7405.400000006,"correct":true,"confidence":2},{"trial_n":30,"min":85,"max":170,"target":"present","response":"present","rt":794.20000000298,"correct":true,"confidence":5},{"trial_n":31,"min":87,"max":168,"target":"present","response":"absent","rt":2721.099999994,"correct":false,"confidence":3},{"trial_n":32,"min":85,"max":170,"target":"present","response":"absent","rt":910.79999999702,"correct":false,"confidence":5},{"trial_n":33,"min":83,"max":172,"target":"present","response":"present","rt":830.60000000894,"correct":true,"confidence":5},{"trial_n":34,"min":83,"max":172,"target":"present","response":"present","rt":697,"correct":true,"confidence":5},{"trial_n":35,"min":85,"max":170,"target":"present","response":"absent","rt":2405,"correct":false,"confidence":3},{"trial_n":36,"min":83,"max":172,"target":"absent","response":"absent","rt":3047.799999997,"correct":true,"confidence":3},{"trial_n":37,"min":83,"max":172,"target":"present","response":"present","rt":917.90000000596,"correct":true,"confidence":4},{"trial_n":38,"min":85,"max":170,"target":"absent","response":"absent","rt":1493.3999999911,"correct":true,"confidence":4},{"trial_n":39,"min":85,"max":170,"target":"absent","response":"absent","rt":3871.6999999881,"correct":true,"confidence":1},{"trial_n":40,"min":87,"max":168,"target":"absent","response":"present","rt":1172.200000003,"correct":false,"confidence":3},{"trial_n":41,"min":86,"max":169,"target":"absent","response":"present","rt":5335.599999994,"correct":false,"confidence":2},{"trial_n":42,"min":85,"max":170,"target":"present","response":"present","rt":1230.5,"correct":true,"confidence":4},{"trial_n":43,"min":85,"max":170,"target":"present","response":"absent","rt":3369.200000003,"correct":false,"confidence":1},{"trial_n":44,"min":84,"max":171,"target":"present","response":"present","rt":935.29999999702,"correct":true,"confidence":4},{"trial_n":45,"min":84,"max":171,"target":"present","response":"present","rt":757.79999999702,"correct":true,"confidence":5},{"trial_n":46,"min":85,"max":170,"target":"absent","response":"absent","rt":750.89999999106,"correct":true,"confidence":5},{"trial_n":47,"min":85,"max":170,"target":"absent","response":"absent","rt":1661.8999999911,"correct":true,"confidence":2},{"trial_n":48,"min":86,"max":169,"target":"present","response":"present","rt":804,"correct":true,"confidence":5},{"trial_n":49,"min":86,"max":169,"target":"present","response":"absent","rt":1986.1999999881,"correct":false,"confidence":3},{"trial_n":50,"min":85,"max":170,"target":"present","response":"absent","rt":1888.1999999881,"correct":false,"confidence":4},{"trial_n":51,"min":84,"max":171,"target":"present","response":"absent","rt":1496.700000003,"correct":false,"confidence":4},{"trial_n":52,"min":83,"max":172,"target":"absent","response":"absent","rt":1445.700000003,"correct":true,"confidence":5},{"trial_n":53,"min":83,"max":172,"target":"absent","response":"absent","rt":911.89999999106,"correct":true,"confidence":5},{"trial_n":54,"min":84,"max":171,"target":"present","response":"present","rt":1867.799999997,"correct":true,"confidence":3},{"trial_n":55,"min":84,"max":171,"target":"present","response":"absent","rt":5441.6000000089,"correct":false,"confidence":2},{"trial_n":56,"min":83,"max":172,"target":"absent","response":"absent","rt":1453.200000003,"correct":true,"confidence":5},{"trial_n":57,"min":83,"max":172,"target":"absent","response":"present","rt":4257.200000003,"correct":false,"confidence":2},{"trial_n":58,"min":82,"max":173,"target":"absent","response":"present","rt":1099.099999994,"correct":false,"confidence":3},{"trial_n":59,"min":81,"max":174,"target":"absent","response":"absent","rt":1002.900000006,"correct":true,"confidence":3},{"trial_n":60,"min":81,"max":174,"target":"absent","response":"absent","rt":1380.5,"correct":true,"confidence":4},{"trial_n":61,"min":82,"max":173,"target":"absent","response":"absent","rt":909,"correct":true,"confidence":4},{"trial_n":62,"min":82,"max":173,"target":"absent","response":"absent","rt":1015.400000006,"correct":true,"confidence":4},{"trial_n":63,"min":83,"max":172,"target":"absent","response":"present","rt":945,"correct":false,"confidence":4},{"trial_n":64,"min":82,"max":173,"target":"absent","response":"absent","rt":2142.400000006,"correct":true,"confidence":2},{"trial_n":65,"min":82,"max":173,"target":"absent","response":"absent","rt":949.5,"correct":true,"confidence":4},{"trial_n":66,"min":83,"max":172,"target":"absent","response":"present","rt":984.79999999702,"correct":false,"confidence":3},{"trial_n":67,"min":82,"max":173,"target":"absent","response":"absent","rt":4435.5,"correct":true,"confidence":1},{"trial_n":68,"min":82,"max":173,"target":"present","response":"absent","rt":1618.1000000089,"correct":false,"confidence":1},{"trial_n":69,"min":81,"max":174,"target":"absent","response":"absent","rt":1309.900000006,"correct":true,"confidence":3},{"trial_n":70,"min":81,"max":174,"target":"present","response":"present","rt":818,"correct":true,"confidence":4},{"trial_n":71,"min":41,"max":214,"target":"present","response":"present","rt":1130.200000003,"correct":true,"confidence":-1},{"trial_n":72,"min":41,"max":214,"target":"present","response":"present","rt":2521.8999999911,"correct":true,"confidence":-1},{"trial_n":73,"min":57,"max":198,"target":"absent","response":"absent","rt":1012.8999999911,"correct":true,"confidence":-1},{"trial_n":74,"min":57,"max":198,"target":"absent","response":"absent","rt":863.40000000596,"correct":true,"confidence":-1},{"trial_n":75,"min":73,"max":182,"target":"present","response":"present","rt":680.29999999702,"correct":true,"confidence":-1},{"trial_n":76,"min":73,"max":182,"target":"present","response":"present","rt":1155.900000006,"correct":true,"confidence":-1},{"trial_n":77,"min":89,"max":166,"target":"absent","response":"present","rt":917,"correct":false,"confidence":-1},{"trial_n":78,"min":73,"max":182,"target":"present","response":"present","rt":783.20000000298,"correct":true,"confidence":-1},{"trial_n":79,"min":73,"max":182,"target":"absent","response":"absent","rt":1087.6000000089,"correct":true,"confidence":-1},{"trial_n":80,"min":89,"max":166,"target":"present","response":"present","rt":1977.799999997,"correct":true,"confidence":-1},{"trial_n":81,"min":89,"max":166,"target":"absent","response":"present","rt":1130.200000003,"correct":false,"confidence":-1},{"trial_n":82,"min":81,"max":174,"target":"present","response":"present","rt":571.40000000596,"correct":true,"confidence":-1},{"trial_n":83,"min":81,"max":174,"target":"present","response":"present","rt":984.79999999702,"correct":true,"confidence":-1},{"trial_n":84,"min":89,"max":166,"target":"present","response":"present","rt":800.5,"correct":true,"confidence":-1},{"trial_n":85,"min":89,"max":166,"target":"present","response":"present","rt":905.40000000596,"correct":true,"confidence":-1},{"trial_n":86,"min":97,"max":158,"target":"present","response":"present","rt":809.20000000298,"correct":true,"confidence":-1},{"trial_n":87,"min":97,"max":158,"target":"present","response":"present","rt":1056.8999999911,"correct":true,"confidence":-1},{"trial_n":88,"min":105,"max":150,"target":"absent","response":"present","rt":900.40000000596,"correct":false,"confidence":-1},{"trial_n":89,"min":97,"max":158,"target":"absent","response":"present","rt":3859.700000003,"correct":false,"confidence":-1},{"trial_n":90,"min":89,"max":166,"target":"absent","response":"absent","rt":852.5,"correct":true,"confidence":-1},{"trial_n":91,"min":89,"max":166,"target":"present","response":"present","rt":1029.200000003,"correct":true,"confidence":4},{"trial_n":92,"min":93,"max":162,"target":"absent","response":"present","rt":1938.599999994,"correct":false,"confidence":2},{"trial_n":93,"min":89,"max":166,"target":"present","response":"present","rt":752.29999999702,"correct":true,"confidence":5},{"trial_n":94,"min":89,"max":166,"target":"absent","response":"present","rt":965.09999999404,"correct":false,"confidence":4},{"trial_n":95,"min":85,"max":170,"target":"absent","response":"absent","rt":1089.700000003,"correct":true,"confidence":5},{"trial_n":96,"min":85,"max":170,"target":"absent","response":"absent","rt":1539.900000006,"correct":true,"confidence":3},{"trial_n":97,"min":89,"max":166,"target":"present","response":"present","rt":1746.299999997,"correct":true,"confidence":2},{"trial_n":98,"min":89,"max":166,"target":"absent","response":"present","rt":933.80000001192,"correct":false,"confidence":2},{"trial_n":99,"min":85,"max":170,"target":"absent","response":"present","rt":859.90000000596,"correct":false,"confidence":3},{"trial_n":100,"min":81,"max":174,"target":"absent","response":"absent","rt":904.29999999702,"correct":true,"confidence":5},{"trial_n":101,"min":81,"max":174,"target":"present","response":"present","rt":924,"correct":true,"confidence":5},{"trial_n":102,"min":83,"max":172,"target":"present","response":"present","rt":744.70000000298,"correct":true,"confidence":5},{"trial_n":103,"min":83,"max":172,"target":"present","response":"present","rt":702.19999998808,"correct":true,"confidence":5},{"trial_n":104,"min":85,"max":170,"target":"absent","response":"absent","rt":858,"correct":true,"confidence":5},{"trial_n":105,"min":85,"max":170,"target":"absent","response":"absent","rt":1706.700000003,"correct":true,"confidence":3},{"trial_n":106,"min":87,"max":168,"target":"present","response":"present","rt":4155.799999997,"correct":true,"confidence":1},{"trial_n":107,"min":87,"max":168,"target":"absent","response":"present","rt":817.59999999404,"correct":false,"confidence":3},{"trial_n":108,"min":85,"max":170,"target":"absent","response":"absent","rt":943.29999999702,"correct":true,"confidence":3},{"trial_n":109,"min":85,"max":170,"target":"absent","response":"absent","rt":1070.400000006,"correct":true,"confidence":3},{"trial_n":110,"min":87,"max":168,"target":"absent","response":"absent","rt":1010.5,"correct":true,"confidence":4},{"trial_n":111,"min":87,"max":168,"target":"present","response":"present","rt":574.20000000298,"correct":true,"confidence":4},{"trial_n":112,"min":88,"max":167,"target":"present","response":"present","rt":1122.3999999911,"correct":true,"confidence":4},{"trial_n":113,"min":88,"max":167,"target":"present","response":"present","rt":881.79999999702,"correct":true,"confidence":3},{"trial_n":114,"min":89,"max":166,"target":"present","response":"present","rt":827.69999998808,"correct":true,"confidence":4},{"trial_n":115,"min":89,"max":166,"target":"present","response":"present","rt":989.59999999404,"correct":true,"confidence":3},{"trial_n":116,"min":90,"max":165,"target":"present","response":"present","rt":622.79999999702,"correct":true,"confidence":5},{"trial_n":117,"min":90,"max":165,"target":"absent","response":"absent","rt":881.69999998808,"correct":true,"confidence":4},{"trial_n":118,"min":91,"max":164,"target":"absent","response":"present","rt":1134.6000000089,"correct":false,"confidence":1},{"trial_n":119,"min":90,"max":165,"target":"present","response":"present","rt":808.60000000894,"correct":true,"confidence":4},{"trial_n":120,"min":90,"max":165,"target":"absent","response":"present","rt":972.20000000298,"correct":false,"confidence":2},{"trial_n":121,"min":89,"max":166,"target":"present","response":"present","rt":652.69999998808,"correct":true,"confidence":5},{"trial_n":122,"min":89,"max":166,"target":"present","response":"present","rt":1252.700000003,"correct":true,"confidence":4},{"trial_n":123,"min":90,"max":165,"target":"absent","response":"absent","rt":1009.6999999881,"correct":true,"confidence":3},{"trial_n":124,"min":90,"max":165,"target":"present","response":"present","rt":980.90000000596,"correct":true,"confidence":3},{"trial_n":125,"min":91,"max":164,"target":"present","response":"present","rt":644.59999999404,"correct":true,"confidence":5},{"trial_n":126,"min":91,"max":164,"target":"absent","response":"absent","rt":892.79999999702,"correct":true,"confidence":4},{"trial_n":127,"min":92,"max":163,"target":"absent","response":"present","rt":1294.099999994,"correct":false,"confidence":2},{"trial_n":128,"min":91,"max":164,"target":"absent","response":"present","rt":642.40000000596,"correct":false,"confidence":4},{"trial_n":129,"min":90,"max":165,"target":"present","response":"present","rt":1888.5,"correct":true,"confidence":5},{"trial_n":130,"min":90,"max":165,"target":"absent","response":"absent","rt":1411.900000006,"correct":true,"confidence":1},{"trial_n":131,"min":91,"max":164,"target":"absent","response":"present","rt":907.90000000596,"correct":false,"confidence":3},{"trial_n":132,"min":90,"max":165,"target":"absent","response":"present","rt":975.90000000596,"correct":false,"confidence":2},{"trial_n":133,"min":89,"max":166,"target":"absent","response":"present","rt":570.60000000894,"correct":false,"confidence":4},{"trial_n":134,"min":88,"max":167,"target":"present","response":"present","rt":1169.6000000089,"correct":true,"confidence":3},{"trial_n":135,"min":88,"max":167,"target":"present","response":"present","rt":590.70000000298,"correct":true,"confidence":5},{"trial_n":136,"min":89,"max":166,"target":"present","response":"present","rt":3296,"correct":true,"confidence":2},{"trial_n":137,"min":89,"max":166,"target":"present","response":"present","rt":897.20000000298,"correct":true,"confidence":4},{"trial_n":138,"min":90,"max":165,"target":"absent","response":"present","rt":1224.6000000089,"correct":false,"confidence":3},{"trial_n":139,"min":89,"max":166,"target":"absent","response":"present","rt":1785.599999994,"correct":false,"confidence":2},{"trial_n":140,"min":88,"max":167,"target":"present","response":"present","rt":652.30000001192,"correct":true,"confidence":4}]