[{"trial_n":1,"n_dots":4.25,"target":"left","response":"left","rt":1755,"correct":true,"confidence":-1},{"trial_n":2,"n_dots":4.25,"target":"right","response":"right","rt":870,"correct":true,"confidence":-1},{"trial_n":3,"n_dots":3.85,"target":"right","response":"left","rt":1540,"correct":false,"confidence":-1},{"trial_n":4,"n_dots":4.25,"target":"left","response":"right","rt":1178,"correct":false,"confidence":-1},{"trial_n":5,"n_dots":4.65,"target":"left","response":"right","rt":935,"correct":false,"confidence":-1},{"trial_n":6,"n_dots":5.05,"target":"left","response":"right","rt":819,"correct":false,"confidence":-1},{"trial_n":7,"n_dots":5.45,"target":"left","response":"left","rt":847,"correct":true,"confidence":-1},{"trial_n":8,"n_dots":5.45,"target":"left","response":"left","rt":705.00000000001,"correct":true,"confidence":-1},{"trial_n":9,"n_dots":5.25,"target":"left","response":"left","rt":662.99999999999,"correct":true,"confidence":-1},{"trial_n":10,"n_dots":5.25,"target":"right","response":"right","rt":410.99999999999,"correct":true,"confidence":-1},{"trial_n":11,"n_dots":5.05,"target":"left","response":"left","rt":619,"correct":true,"confidence":-1},{"trial_n":12,"n_dots":5.05,"target":"left","response":"left","rt":520,"correct":true,"confidence":-1},{"trial_n":13,"n_dots":4.95,"target":"left","response":"right","rt":944,"correct":false,"confidence":-1},{"trial_n":14,"n_dots":5.05,"target":"right","response":"right","rt":409,"correct":true,"confidence":-1},{"trial_n":15,"n_dots":5.05,"target":"left","response":"left","rt":672,"correct":true,"confidence":-1},{"trial_n":16,"n_dots":4.95,"target":"left","response":"left","rt":538.00000000001,"correct":true,"confidence":-1},{"trial_n":17,"n_dots":4.95,"target":"left","response":"left","rt":561.00000000001,"correct":true,"confidence":-1},{"trial_n":18,"n_dots":4.85,"target":"right","response":"right","rt":462,"correct":true,"confidence":-1},{"trial_n":19,"n_dots":4.85,"target":"right","response":"right","rt":486,"correct":true,"confidence":-1},{"trial_n":20,"n_dots":4.75,"target":"left","response":"left","rt":621,"correct":true,"confidence":-1},{"trial_n":21,"n_dots":4.75,"target":"right","response":"right","rt":463,"correct":true,"confidence":3},{"trial_n":22,"n_dots":4.65,"target":"left","response":"left","rt":570,"correct":true,"confidence":3},{"trial_n":23,"n_dots":4.65,"target":"right","response":"right","rt":503,"correct":true,"confidence":3},{"trial_n":24,"n_dots":4.55,"target":"right","response":"right","rt":682,"correct":true,"confidence":3},{"trial_n":25,"n_dots":4.55,"target":"left","response":"left","rt":542,"correct":true,"confidence":3},{"trial_n":26,"n_dots":4.45,"target":"left","response":"left","rt":1192,"correct":true,"confidence":2},{"trial_n":27,"n_dots":4.45,"target":"left","response":"left","rt":822,"correct":true,"confidence":3},{"trial_n":28,"n_dots":4.35,"target":"left","response":"left","rt":896,"correct":true,"confidence":2},{"trial_n":29,"n_dots":4.35,"target":"right","response":"right","rt":879,"correct":true,"confidence":2},{"trial_n":30,"n_dots":4.25,"target":"left","response":"right","rt":926,"correct":false,"confidence":2},{"trial_n":31,"n_dots":4.35,"target":"left","response":"left","rt":895,"correct":true,"confidence":2},{"trial_n":32,"n_dots":4.35,"target":"left","response":"left","rt":830.99999999999,"correct":true,"confidence":2},{"trial_n":33,"n_dots":4.25,"target":"right","response":"right","rt":659,"correct":true,"confidence":3},{"trial_n":34,"n_dots":4.25,"target":"right","response":"right","rt":709.99999999999,"correct":true,"confidence":3},{"trial_n":35,"n_dots":4.15,"target":"right","response":"right","rt":702,"correct":true,"confidence":3},{"trial_n":36,"n_dots":4.15,"target":"right","response":"right","rt":721,"correct":true,"confidence":3},{"trial_n":37,"n_dots":4.05,"target":"left","response":"right","rt":908,"correct":false,"confidence":2},{"trial_n":38,"n_dots":4.15,"target":"right","response":"right","rt":627,"correct":true,"confidence":2},{"trial_n":39,"n_dots":4.15,"target":"left","response":"left","rt":812,"correct":true,"confidence":3},{"trial_n":40,"n_dots":4.05,"target":"right","response":"right","rt":742,"correct":true,"confidence":3},{"trial_n":41,"n_dots":4.05,"target":"right","response":"right","rt":645,"correct":true,"confidence":3},{"trial_n":42,"n_dots":3.95,"target":"right","response":"right","rt":582,"correct":true,"confidence":3},{"trial_n":43,"n_dots":3.95,"target":"right","response":"right","rt":749,"correct":true,"confidence":3},{"trial_n":44,"n_dots":3.85,"target":"right","response":"right","rt":569,"correct":true,"confidence":2},{"trial_n":45,"n_dots":3.85,"target":"left","response":"right","rt":802,"correct":false,"confidence":2},{"trial_n":46,"n_dots":3.95,"target":"left","response":"left","rt":1111,"correct":true,"confidence":2},{"trial_n":47,"n_dots":3.95,"target":"left","response":"left","rt":793,"correct":true,"confidence":2},{"trial_n":48,"n_dots":3.85,"target":"left","response":"right","rt":2111,"correct":false,"confidence":2},{"trial_n":49,"n_dots":3.95,"target":"right","response":"right","rt":744,"correct":true,"confidence":2},{"trial_n":50,"n_dots":3.95,"target":"right","response":"right","rt":670,"correct":true,"confidence":2},{"trial_n":51,"n_dots":3.85,"target":"right","response":"right","rt":675.00000000003,"correct":true,"confidence":2},{"trial_n":52,"n_dots":3.85,"target":"right","response":"left","rt":1447,"correct":false,"confidence":2},{"trial_n":53,"n_dots":3.95,"target":"right","response":"right","rt":753,"correct":true,"confidence":2},{"trial_n":54,"n_dots":3.95,"target":"right","response":"right","rt":593,"correct":true,"confidence":3},{"trial_n":55,"n_dots":3.85,"target":"right","response":"right","rt":723,"correct":true,"confidence":3},{"trial_n":56,"n_dots":3.85,"target":"left","response":"right","rt":797,"correct":false,"confidence":2},{"trial_n":57,"n_dots":3.95,"target":"left","response":"right","rt":765,"correct":false,"confidence":2},{"trial_n":58,"n_dots":4.05,"target":"left","response":"left","rt":689,"correct":true,"confidence":3},{"trial_n":59,"n_dots":4.05,"target":"left","response":"left","rt":1531,"correct":true,"confidence":2},{"trial_n":60,"n_dots":3.95,"target":"right","response":"right","rt":670,"correct":true,"confidence":2},{"trial_n":61,"n_dots":3.95,"target":"right","response":"right","rt":562,"correct":true,"confidence":3},{"trial_n":62,"n_dots":3.85,"target":"right","response":"right","rt":2476,"correct":true,"confidence":2},{"trial_n":63,"n_dots":3.85,"target":"left","response":"right","rt":1049,"correct":false,"confidence":2},{"trial_n":64,"n_dots":3.95,"target":"right","response":"right","rt":854,"correct":true,"confidence":3},{"trial_n":65,"n_dots":3.95,"target":"right","response":"right","rt":707,"correct":true,"confidence":3},{"trial_n":66,"n_dots":3.85,"target":"right","response":"right","rt":655.99999999997,"correct":true,"confidence":3},{"trial_n":67,"n_dots":3.85,"target":"left","response":"right","rt":865.99999999997,"correct":false,"confidence":2},{"trial_n":68,"n_dots":3.95,"target":"right","response":"left","rt":967.99999999994,"correct":false,"confidence":2},{"trial_n":69,"n_dots":4.05,"target":"right","response":"right","rt":758,"correct":true,"confidence":3},{"trial_n":70,"n_dots":4.05,"target":"right","response":"right","rt":561,"correct":true,"confidence":3},{"trial_n":71,"n_dots":3.95,"target":"right","response":"right","rt":670,"correct":true,"confidence":3},{"trial_n":72,"n_dots":3.95,"target":"left","response":"right","rt":823,"correct":false,"confidence":2},{"trial_n":73,"n_dots":4.05,"target":"left","response":"left","rt":1162,"correct":true,"confidence":2},{"trial_n":74,"n_dots":4.05,"target":"left","response":"left","rt":889,"correct":true,"confidence":2},{"trial_n":75,"n_dots":3.95,"target":"right","response":"right","rt":542,"correct":true,"confidence":3},{"trial_n":76,"n_dots":3.95,"target":"right","response":"right","rt":542.00000000006,"correct":true,"confidence":3},{"trial_n":77,"n_dots":3.85,"target":"right","response":"right","rt":784,"correct":true,"confidence":2},{"trial_n":78,"n_dots":3.85,"target":"right","response":"right","rt":863,"correct":true,"confidence":2},{"trial_n":79,"n_dots":3.75,"target":"left","response":"left","rt":874.00000000006,"correct":true,"confidence":2},{"trial_n":80,"n_dots":3.75,"target":"left","response":"left","rt":1173,"correct":true,"confidence":2},{"trial_n":81,"n_dots":3.65,"target":"right","response":"right","rt":784.99999999994,"correct":true,"confidence":2},{"trial_n":82,"n_dots":3.65,"target":"right","response":"right","rt":679,"correct":true,"confidence":3},{"trial_n":83,"n_dots":3.55,"target":"right","response":"right","rt":711,"correct":true,"confidence":2},{"trial_n":84,"n_dots":3.55,"target":"left","response":"left","rt":725,"correct":true,"confidence":3},{"trial_n":85,"n_dots":3.45,"target":"right","response":"right","rt":674,"correct":true,"confidence":3},{"trial_n":86,"n_dots":3.45,"target":"left","response":"left","rt":833,"correct":true,"confidence":2},{"trial_n":87,"n_dots":3.35,"target":"left","response":"left","rt":1077,"correct":true,"confidence":2},{"trial_n":88,"n_dots":3.35,"target":"left","response":"left","rt":3907,"correct":true,"confidence":3},{"trial_n":89,"n_dots":3.25,"target":"right","response":"right","rt":750,"correct":true,"confidence":3},{"trial_n":90,"n_dots":3.25,"target":"right","response":"right","rt":531,"correct":true,"confidence":3},{"trial_n":91,"n_dots":3.15,"target":"left","response":"right","rt":1118,"correct":false,"confidence":2},{"trial_n":92,"n_dots":3.25,"target":"left","response":"right","rt":1082,"correct":false,"confidence":2},{"trial_n":93,"n_dots":3.35,"target":"left","response":"right","rt":1131.9999999999,"correct":false,"confidence":2},{"trial_n":94,"n_dots":3.45,"target":"left","response":"right","rt":972,"correct":false,"confidence":2},{"trial_n":95,"n_dots":3.55,"target":"right","response":"right","rt":695.99999999994,"correct":true,"confidence":3},{"trial_n":96,"n_dots":3.55,"target":"left","response":"left","rt":2395,"correct":true,"confidence":2},{"trial_n":97,"n_dots":3.45,"target":"left","response":"left","rt":1132,"correct":true,"confidence":2},{"trial_n":98,"n_dots":3.45,"target":"left","response":"left","rt":1490,"correct":true,"confidence":2},{"trial_n":99,"n_dots":3.35,"target":"left","response":"right","rt":984,"correct":false,"confidence":2},{"trial_n":100,"n_dots":3.45,"target":"left","response":"right","rt":904.99999999994,"correct":false,"confidence":2},{"trial_n":101,"n_dots":3.55,"target":"left","response":"left","rt":919,"correct":true,"confidence":2},{"trial_n":102,"n_dots":3.55,"target":"left","response":"left","rt":2005,"correct":true,"confidence":3},{"trial_n":103,"n_dots":3.45,"target":"right","response":"right","rt":583,"correct":true,"confidence":3},{"trial_n":104,"n_dots":3.45,"target":"right","response":"right","rt":1624,"correct":true,"confidence":2},{"trial_n":105,"n_dots":3.35,"target":"right","response":"right","rt":685,"correct":true,"confidence":2},{"trial_n":106,"n_dots":3.35,"target":"left","response":"left","rt":2179,"correct":true,"confidence":2},{"trial_n":107,"n_dots":3.25,"target":"left","response":"left","rt":990,"correct":true,"confidence":2},{"trial_n":108,"n_dots":3.25,"target":"right","response":"right","rt":776.99999999994,"correct":true,"confidence":2},{"trial_n":109,"n_dots":3.15,"target":"left","response":"right","rt":685,"correct":false,"confidence":2},{"trial_n":110,"n_dots":3.25,"target":"right","response":"right","rt":661,"correct":true,"confidence":3},{"trial_n":111,"n_dots":3.25,"target":"right","response":"right","rt":711,"correct":true,"confidence":3},{"trial_n":112,"n_dots":3.15,"target":"right","response":"right","rt":587.00000000006,"correct":true,"confidence":2},{"trial_n":113,"n_dots":3.15,"target":"right","response":"right","rt":368,"correct":true,"confidence":3},{"trial_n":114,"n_dots":3.05,"target":"left","response":"right","rt":1000,"correct":false,"confidence":2},{"trial_n":115,"n_dots":3.15,"target":"left","response":"left","rt":755,"correct":true,"confidence":2},{"trial_n":116,"n_dots":3.15,"target":"left","response":"right","rt":814.99999999994,"correct":false,"confidence":2},{"trial_n":117,"n_dots":3.25,"target":"right","response":"right","rt":523,"correct":true,"confidence":3},{"trial_n":118,"n_dots":3.25,"target":"right","response":"right","rt":953,"correct":true,"confidence":2},{"trial_n":119,"n_dots":3.15,"target":"right","response":"right","rt":629,"correct":true,"confidence":2},{"trial_n":120,"n_dots":3.15,"target":"right","response":"right","rt":592,"correct":true,"confidence":2}]