[{"trial_n":1,"span":8,"encoder":"35544622","distractor":"35543622","target":"present","response":"present","rt":"4000","correct":true,"confidence":-1},{"trial_n":2,"span":8,"encoder":"91649606","distractor":"91649706","target":"present","response":"absent","rt":"3747","correct":false,"confidence":-1},{"trial_n":3,"span":6,"encoder":"549652","distractor":"540652","target":"absent","response":"absent","rt":"2194","correct":true,"confidence":-1},{"trial_n":4,"span":6,"encoder":"342083","distractor":"349083","target":"absent","response":"absent","rt":"1667","correct":true,"confidence":-1},{"trial_n":5,"span":8,"encoder":"84538310","distractor":"74538310","target":"present","response":"present","rt":"2716","correct":true,"confidence":-1},{"trial_n":6,"span":8,"encoder":"62013478","distractor":"62813478","target":"present","response":"present","rt":"3005","correct":true,"confidence":-1},{"trial_n":7,"span":10,"encoder":"2975437185","distractor":"2975437125","target":"absent","response":"absent","rt":"1898","correct":true,"confidence":-1},{"trial_n":8,"span":10,"encoder":"3743020550","distractor":"3746020550","target":"present","response":"present","rt":"3364","correct":true,"confidence":-1},{"trial_n":9,"span":12,"encoder":"946480096303","distractor":"946480396303","target":"absent","response":"present","rt":"3796","correct":false,"confidence":-1},{"trial_n":10,"span":10,"encoder":"4013328513","distractor":"4019328513","target":"present","response":"absent","rt":"2787","correct":false,"confidence":-1},{"trial_n":11,"span":8,"encoder":"86171287","distractor":"06171287","target":"present","response":"present","rt":"3696","correct":true,"confidence":-1},{"trial_n":12,"span":8,"encoder":"33437949","distractor":"33487949","target":"absent","response":"absent","rt":"2426","correct":true,"confidence":-1},{"trial_n":13,"span":9,"encoder":"967318695","distractor":"167318695","target":"absent","response":"present","rt":"4732","correct":false,"confidence":-1},{"trial_n":14,"span":8,"encoder":"35851389","distractor":"35851329","target":"absent","response":"present","rt":"3459","correct":false,"confidence":-1},{"trial_n":15,"span":7,"encoder":"9166656","distractor":"9165656","target":"present","response":"present","rt":"3265","correct":true,"confidence":-1},{"trial_n":16,"span":7,"encoder":"8700279","distractor":"8710279","target":"present","response":"present","rt":"2733","correct":true,"confidence":-1},{"trial_n":17,"span":8,"encoder":"72590471","distractor":"72090471","target":"present","response":"present","rt":"3916","correct":true,"confidence":-1},{"trial_n":18,"span":8,"encoder":"21105371","distractor":"21405371","target":"absent","response":"absent","rt":"3115","correct":true,"confidence":-1},{"trial_n":19,"span":9,"encoder":"359835842","distractor":"359895842","target":"absent","response":"absent","rt":"3167","correct":true,"confidence":-1},{"trial_n":20,"span":9,"encoder":"804651499","distractor":"824651499","target":"absent","response":"absent","rt":"2316","correct":true,"confidence":-1},{"trial_n":21,"span":10,"encoder":"6813641302","distractor":"6913641302","target":"present","response":"present","rt":"3174","correct":true,"confidence":3},{"trial_n":22,"span":10,"encoder":"0473472725","distractor":"0473479725","target":"absent","response":"absent","rt":"3750","correct":true,"confidence":4},{"trial_n":23,"span":11,"encoder":"86257501585","distractor":"86251501585","target":"present","response":"present","rt":"4415","correct":true,"confidence":3},{"trial_n":24,"span":11,"encoder":"28609430910","distractor":"28609430980","target":"absent","response":"absent","rt":"2245","correct":true,"confidence":3},{"trial_n":25,"span":12,"encoder":"506275497284","distractor":"506275397284","target":"absent","response":"present","rt":"3750","correct":false,"confidence":2},{"trial_n":26,"span":11,"encoder":"08225809050","distractor":"08225801050","target":"present","response":"present","rt":"4169","correct":true,"confidence":3},{"trial_n":27,"span":11,"encoder":"11052221332","distractor":"11056221332","target":"absent","response":"absent","rt":"3781","correct":true,"confidence":3},{"trial_n":28,"span":12,"encoder":"740391398970","distractor":"740391398370","target":"absent","response":"present","rt":"5186.0000000001","correct":false,"confidence":2},{"trial_n":29,"span":11,"encoder":"38439833690","distractor":"78439833690","target":"absent","response":"present","rt":"3629.0000000001","correct":false,"confidence":2},{"trial_n":30,"span":10,"encoder":"8497268095","distractor":"8497868095","target":"absent","response":"absent","rt":"2811","correct":true,"confidence":3},{"trial_n":31,"span":10,"encoder":"8384549125","distractor":"8354549125","target":"absent","response":"absent","rt":"4096","correct":true,"confidence":3},{"trial_n":32,"span":11,"encoder":"96106794507","distractor":"96106794547","target":"present","response":"present","rt":"4893","correct":true,"confidence":2},{"trial_n":33,"span":11,"encoder":"52638942524","distractor":"52838942524","target":"absent","response":"present","rt":"2761","correct":false,"confidence":2},{"trial_n":34,"span":10,"encoder":"0112808372","distractor":"0112807372","target":"present","response":"present","rt":"3448.9999999999","correct":true,"confidence":2},{"trial_n":35,"span":10,"encoder":"4987608146","distractor":"4987608136","target":"absent","response":"present","rt":"3529","correct":false,"confidence":2},{"trial_n":36,"span":9,"encoder":"208088364","distractor":"208488364","target":"present","response":"present","rt":"3248","correct":true,"confidence":2},{"trial_n":37,"span":9,"encoder":"565846522","distractor":"575846522","target":"present","response":"present","rt":"4351","correct":true,"confidence":2},{"trial_n":38,"span":10,"encoder":"3039101255","distractor":"6039101255","target":"absent","response":"absent","rt":"4912","correct":true,"confidence":3},{"trial_n":39,"span":10,"encoder":"4490361701","distractor":"4490351701","target":"present","response":"present","rt":"3333.0000000001","correct":true,"confidence":3},{"trial_n":40,"span":11,"encoder":"37250773072","distractor":"37250703072","target":"absent","response":"absent","rt":"4560.9999999999","correct":true,"confidence":2},{"trial_n":41,"span":11,"encoder":"92830178099","distractor":"92830173099","target":"absent","response":"present","rt":"5133","correct":false,"confidence":2},{"trial_n":42,"span":10,"encoder":"5101483082","distractor":"5101488082","target":"absent","response":"present","rt":"4390","correct":false,"confidence":2},{"trial_n":43,"span":9,"encoder":"116995211","distractor":"136995211","target":"present","response":"present","rt":"2876.9999999999","correct":true,"confidence":2},{"trial_n":44,"span":9,"encoder":"725770047","distractor":"625770047","target":"present","response":"present","rt":"3648.0000000001","correct":true,"confidence":2},{"trial_n":45,"span":10,"encoder":"3911921751","distractor":"3911921750","target":"absent","response":"present","rt":"3514","correct":false,"confidence":2},{"trial_n":46,"span":9,"encoder":"433518343","distractor":"413518343","target":"present","response":"present","rt":"2718","correct":true,"confidence":2},{"trial_n":47,"span":9,"encoder":"782620622","distractor":"782320622","target":"present","response":"absent","rt":"3092","correct":false,"confidence":2},{"trial_n":48,"span":8,"encoder":"95576851","distractor":"95476851","target":"absent","response":"absent","rt":"2545","correct":true,"confidence":2},{"trial_n":49,"span":8,"encoder":"29576548","distractor":"29586548","target":"absent","response":"absent","rt":"3278","correct":true,"confidence":3},{"trial_n":50,"span":9,"encoder":"146039421","distractor":"146039491","target":"present","response":"present","rt":"3260","correct":true,"confidence":2},{"trial_n":51,"span":9,"encoder":"829350303","distractor":"889350303","target":"absent","response":"absent","rt":"2918","correct":true,"confidence":2},{"trial_n":52,"span":10,"encoder":"6324391279","distractor":"6329391279","target":"present","response":"present","rt":"3628","correct":true,"confidence":2},{"trial_n":53,"span":10,"encoder":"9172985822","distractor":"9178985822","target":"present","response":"present","rt":"6674","correct":true,"confidence":3},{"trial_n":54,"span":11,"encoder":"06245449621","distractor":"06245449626","target":"absent","response":"absent","rt":"1829","correct":true,"confidence":3},{"trial_n":55,"span":11,"encoder":"29442346876","distractor":"29442246876","target":"present","response":"absent","rt":"6991","correct":false,"confidence":2},{"trial_n":56,"span":10,"encoder":"7143825685","distractor":"7143225685","target":"present","response":"present","rt":"4170","correct":true,"confidence":3},{"trial_n":57,"span":10,"encoder":"5578719142","distractor":"3578719142","target":"present","response":"present","rt":"3901","correct":true,"confidence":3},{"trial_n":58,"span":11,"encoder":"06214894833","distractor":"06714894833","target":"absent","response":"present","rt":"5108.9999999999","correct":false,"confidence":3},{"trial_n":59,"span":10,"encoder":"9479072260","distractor":"9479078260","target":"present","response":"present","rt":"3939","correct":true,"confidence":3},{"trial_n":60,"span":10,"encoder":"5648299416","distractor":"5648299216","target":"present","response":"present","rt":"5119","correct":true,"confidence":3},{"trial_n":61,"span":11,"encoder":"44086378743","distractor":"49086378743","target":"present","response":"present","rt":"3854","correct":true,"confidence":3},{"trial_n":62,"span":11,"encoder":"38166955351","distractor":"38176955351","target":"present","response":"present","rt":"5000","correct":true,"confidence":3},{"trial_n":63,"span":12,"encoder":"209012604687","distractor":"209012604686","target":"absent","response":"present","rt":"4232.0000000001","correct":false,"confidence":3},{"trial_n":64,"span":11,"encoder":"36735732506","distractor":"26735732506","target":"present","response":"present","rt":"5678","correct":true,"confidence":3},{"trial_n":65,"span":11,"encoder":"69018334690","distractor":"69018354690","target":"present","response":"present","rt":"5686","correct":true,"confidence":3},{"trial_n":66,"span":12,"encoder":"334618436607","distractor":"334608436607","target":"present","response":"present","rt":"4883","correct":true,"confidence":3},{"trial_n":67,"span":12,"encoder":"874940634372","distractor":"874940644372","target":"present","response":"present","rt":"6253.0000000001","correct":true,"confidence":3},{"trial_n":68,"span":13,"encoder":"1015144655657","distractor":"1015144655157","target":"absent","response":"present","rt":"4910","correct":false,"confidence":3},{"trial_n":69,"span":12,"encoder":"484872689594","distractor":"484872681594","target":"absent","response":"absent","rt":"3888","correct":true,"confidence":3},{"trial_n":70,"span":12,"encoder":"121859752206","distractor":"121859752906","target":"absent","response":"absent","rt":"1719","correct":true,"confidence":3},{"trial_n":71,"span":8,"encoder":"14778708","distractor":"14478708","target":"present","response":"present","rt":"5159.0000000001","correct":true,"confidence":-1},{"trial_n":72,"span":8,"encoder":"31810766","distractor":"31860766","target":"present","response":"present","rt":"4227","correct":true,"confidence":-1},{"trial_n":73,"span":9,"encoder":"505920034","distractor":"505920134","target":"absent","response":"absent","rt":"4910.0000000001","correct":true,"confidence":-1},{"trial_n":74,"span":9,"encoder":"345422958","distractor":"345422957","target":"absent","response":"present","rt":"6204.9999999999","correct":false,"confidence":-1},{"trial_n":75,"span":8,"encoder":"85243213","distractor":"83243213","target":"present","response":"present","rt":"5132.9999999999","correct":true,"confidence":-1},{"trial_n":76,"span":8,"encoder":"77903926","distractor":"77993926","target":"present","response":"present","rt":"4113.9999999999","correct":true,"confidence":-1},{"trial_n":77,"span":9,"encoder":"764014549","distractor":"764014545","target":"present","response":"present","rt":"3268","correct":true,"confidence":-1},{"trial_n":78,"span":9,"encoder":"517189461","distractor":"517169461","target":"absent","response":"present","rt":"2659.0000000001","correct":false,"confidence":-1},{"trial_n":79,"span":8,"encoder":"77991320","distractor":"78991320","target":"absent","response":"absent","rt":"1241","correct":true,"confidence":-1},{"trial_n":80,"span":8,"encoder":"78603921","distractor":"78603926","target":"absent","response":"present","rt":"2916","correct":false,"confidence":-1},{"trial_n":81,"span":7,"encoder":"7248684","distractor":"7248694","target":"absent","response":"absent","rt":"2470","correct":true,"confidence":-1},{"trial_n":82,"span":7,"encoder":"2359431","distractor":"2359434","target":"present","response":"present","rt":"1945.0000000001","correct":true,"confidence":-1},{"trial_n":83,"span":8,"encoder":"31709021","distractor":"31709029","target":"absent","response":"absent","rt":"3221","correct":true,"confidence":-1},{"trial_n":84,"span":8,"encoder":"92495304","distractor":"92495301","target":"absent","response":"absent","rt":"4161.9999999999","correct":true,"confidence":-1},{"trial_n":85,"span":9,"encoder":"635477568","distractor":"639477568","target":"absent","response":"absent","rt":"6568","correct":true,"confidence":-1},{"trial_n":86,"span":9,"encoder":"930888782","distractor":"930888182","target":"present","response":"absent","rt":"6515","correct":false,"confidence":-1},{"trial_n":87,"span":8,"encoder":"95699502","distractor":"95599502","target":"present","response":"absent","rt":"4694","correct":false,"confidence":-1},{"trial_n":88,"span":7,"encoder":"6919570","distractor":"6119570","target":"absent","response":"absent","rt":"4385","correct":true,"confidence":-1},{"trial_n":89,"span":7,"encoder":"8564263","distractor":"8569263","target":"present","response":"absent","rt":"7140","correct":false,"confidence":-1},{"trial_n":90,"span":6,"encoder":"199385","distractor":"399385","target":"present","response":"present","rt":"2664","correct":true,"confidence":-1},{"trial_n":91,"span":6,"encoder":"470974","distractor":"670974","target":"present","response":"present","rt":"1784","correct":true,"confidence":3},{"trial_n":92,"span":7,"encoder":"5857393","distractor":"5257393","target":"present","response":"present","rt":"2909.9999999999","correct":true,"confidence":3},{"trial_n":93,"span":7,"encoder":"0562325","distractor":"5562325","target":"absent","response":"absent","rt":"1759","correct":true,"confidence":3},{"trial_n":94,"span":8,"encoder":"35374156","distractor":"35334156","target":"present","response":"present","rt":"3541","correct":true,"confidence":3},{"trial_n":95,"span":8,"encoder":"97412619","distractor":"94412619","target":"present","response":"present","rt":"3611","correct":true,"confidence":3},{"trial_n":96,"span":9,"encoder":"680752469","distractor":"280752469","target":"present","response":"present","rt":"3053.0000000001","correct":true,"confidence":2},{"trial_n":97,"span":9,"encoder":"252924449","distractor":"252924443","target":"absent","response":"present","rt":"14964","correct":false,"confidence":3},{"trial_n":98,"span":8,"encoder":"51986850","distractor":"51986890","target":"absent","response":"absent","rt":"2047","correct":true,"confidence":3},{"trial_n":99,"span":8,"encoder":"31503667","distractor":"31503669","target":"present","response":"present","rt":"4478","correct":true,"confidence":3},{"trial_n":100,"span":9,"encoder":"339999654","distractor":"339999674","target":"present","response":"present","rt":"2758","correct":true,"confidence":3},{"trial_n":101,"span":9,"encoder":"420466859","distractor":"427466859","target":"present","response":"present","rt":"6020","correct":true,"confidence":3},{"trial_n":102,"span":10,"encoder":"6241261600","distractor":"6241268600","target":"absent","response":"absent","rt":"4968","correct":true,"confidence":3},{"trial_n":103,"span":10,"encoder":"8929632117","distractor":"8921632117","target":"absent","response":"present","rt":"5277","correct":false,"confidence":3},{"trial_n":104,"span":9,"encoder":"213417652","distractor":"213417659","target":"present","response":"absent","rt":"10757","correct":false,"confidence":3},{"trial_n":105,"span":8,"encoder":"68095733","distractor":"58095733","target":"present","response":"present","rt":"5073","correct":true,"confidence":3},{"trial_n":106,"span":8,"encoder":"78855334","distractor":"74855334","target":"absent","response":"absent","rt":"2848.0000000002","correct":true,"confidence":3},{"trial_n":107,"span":9,"encoder":"937062673","distractor":"937662673","target":"absent","response":"absent","rt":"2115","correct":true,"confidence":4},{"trial_n":108,"span":9,"encoder":"518962535","distractor":"518922535","target":"present","response":"present","rt":"9873","correct":true,"confidence":2},{"trial_n":109,"span":10,"encoder":"4405041883","distractor":"4405041886","target":"absent","response":"absent","rt":"3531","correct":true,"confidence":3},{"trial_n":110,"span":10,"encoder":"0792845402","distractor":"0792845102","target":"absent","response":"absent","rt":"2609.0000000002","correct":true,"confidence":4},{"trial_n":111,"span":11,"encoder":"55840784785","distractor":"55840786785","target":"present","response":"present","rt":"4765","correct":true,"confidence":4},{"trial_n":112,"span":11,"encoder":"40112423334","distractor":"40712423334","target":"absent","response":"absent","rt":"10502","correct":true,"confidence":3},{"trial_n":113,"span":12,"encoder":"102123217129","distractor":"302123217129","target":"present","response":"present","rt":"12122","correct":true,"confidence":2},{"trial_n":114,"span":12,"encoder":"597615806512","distractor":"592615806512","target":"present","response":"present","rt":"7306","correct":true,"confidence":3},{"trial_n":115,"span":13,"encoder":"6069302560529","distractor":"6069312560529","target":"present","response":"absent","rt":"15470","correct":false,"confidence":3},{"trial_n":116,"span":12,"encoder":"792194958774","distractor":"792194956774","target":"present","response":"present","rt":"3183","correct":true,"confidence":4},{"trial_n":117,"span":12,"encoder":"368652222147","distractor":"368652232147","target":"present","response":"absent","rt":"9339.0000000002","correct":false,"confidence":2},{"trial_n":118,"span":11,"encoder":"49119464875","distractor":"45119464875","target":"present","response":"present","rt":"8572","correct":true,"confidence":3},{"trial_n":119,"span":11,"encoder":"53364650361","distractor":"43364650361","target":"absent","response":"absent","rt":"4378","correct":true,"confidence":3},{"trial_n":120,"span":12,"encoder":"550516414355","distractor":"550516814355","target":"absent","response":"absent","rt":"11183","correct":true,"confidence":3},{"trial_n":121,"span":12,"encoder":"846983636654","distractor":"846983636657","target":"present","response":"present","rt":"9418.0000000002","correct":true,"confidence":3},{"trial_n":122,"span":13,"encoder":"7086526654517","distractor":"7086526654537","target":"absent","response":"absent","rt":"6037.0000000002","correct":true,"confidence":3},{"trial_n":123,"span":13,"encoder":"4240385220444","distractor":"4247385220444","target":"present","response":"absent","rt":"12211","correct":false,"confidence":3},{"trial_n":124,"span":12,"encoder":"449664970235","distractor":"449664970295","target":"absent","response":"absent","rt":"4578","correct":true,"confidence":3},{"trial_n":125,"span":12,"encoder":"360092768988","distractor":"860092768988","target":"present","response":"present","rt":"4203.0000000002","correct":true,"confidence":3},{"trial_n":126,"span":13,"encoder":"0520639615502","distractor":"0520636615502","target":"absent","response":"absent","rt":"5548","correct":true,"confidence":3},{"trial_n":127,"span":13,"encoder":"1876578623257","distractor":"1876578223257","target":"absent","response":"present","rt":"5815","correct":false,"confidence":3},{"trial_n":128,"span":12,"encoder":"505697472288","distractor":"505697473288","target":"present","response":"present","rt":"1942","correct":true,"confidence":3},{"trial_n":129,"span":12,"encoder":"184282291385","distractor":"184284291385","target":"present","response":"present","rt":"4682","correct":true,"confidence":4},{"trial_n":130,"span":13,"encoder":"9433312553277","distractor":"9433312550277","target":"present","response":"present","rt":"3543.0000000002","correct":true,"confidence":4},{"trial_n":131,"span":13,"encoder":"1392377316811","distractor":"1392378316811","target":"absent","response":"present","rt":"7530","correct":false,"confidence":2},{"trial_n":132,"span":12,"encoder":"265943801897","distractor":"265943501897","target":"absent","response":"present","rt":"5583","correct":false,"confidence":2},{"trial_n":133,"span":11,"encoder":"98640247452","distractor":"98640207452","target":"absent","response":"present","rt":"4425","correct":false,"confidence":3},{"trial_n":134,"span":10,"encoder":"4885303579","distractor":"4985303579","target":"absent","response":"present","rt":"6605","correct":false,"confidence":2},{"trial_n":135,"span":9,"encoder":"965726572","distractor":"565726572","target":"present","response":"present","rt":"8358","correct":true,"confidence":4},{"trial_n":136,"span":9,"encoder":"558432065","distractor":"558402065","target":"absent","response":"absent","rt":"3013","correct":true,"confidence":4},{"trial_n":137,"span":10,"encoder":"1082272231","distractor":"1082272201","target":"present","response":"absent","rt":"4668","correct":false,"confidence":3},{"trial_n":138,"span":9,"encoder":"357174434","distractor":"357144434","target":"absent","response":"absent","rt":"3310","correct":true,"confidence":3},{"trial_n":139,"span":9,"encoder":"064898751","distractor":"064898758","target":"absent","response":"absent","rt":"7403","correct":true,"confidence":2},{"trial_n":140,"span":10,"encoder":"7853477852","distractor":"7853457852","target":"absent","response":"absent","rt":"4270","correct":true,"confidence":3}]