[{"trial_n":1,"min":25,"max":230,"target":"present","response":"present","rt":2301,"correct":true,"confidence":-1},{"trial_n":2,"min":25,"max":230,"target":"present","response":"present","rt":928,"correct":true,"confidence":-1},{"trial_n":3,"min":41,"max":214,"target":"absent","response":"absent","rt":1436,"correct":true,"confidence":-1},{"trial_n":4,"min":41,"max":214,"target":"absent","response":"absent","rt":869,"correct":true,"confidence":-1},{"trial_n":5,"min":57,"max":198,"target":"present","response":"present","rt":768,"correct":true,"confidence":-1},{"trial_n":6,"min":57,"max":198,"target":"absent","response":"absent","rt":3180,"correct":true,"confidence":-1},{"trial_n":7,"min":73,"max":182,"target":"present","response":"present","rt":792,"correct":true,"confidence":-1},{"trial_n":8,"min":73,"max":182,"target":"absent","response":"absent","rt":806,"correct":true,"confidence":-1},{"trial_n":9,"min":89,"max":166,"target":"absent","response":"absent","rt":768,"correct":true,"confidence":-1},{"trial_n":10,"min":89,"max":166,"target":"present","response":"absent","rt":695,"correct":false,"confidence":-1},{"trial_n":11,"min":81,"max":174,"target":"present","response":"present","rt":1074,"correct":true,"confidence":-1},{"trial_n":12,"min":81,"max":174,"target":"absent","response":"absent","rt":903,"correct":true,"confidence":-1},{"trial_n":13,"min":89,"max":166,"target":"absent","response":"absent","rt":802,"correct":true,"confidence":-1},{"trial_n":14,"min":89,"max":166,"target":"present","response":"absent","rt":707,"correct":false,"confidence":-1},{"trial_n":15,"min":81,"max":174,"target":"present","response":"absent","rt":779.99999999999,"correct":false,"confidence":-1},{"trial_n":16,"min":73,"max":182,"target":"absent","response":"absent","rt":729,"correct":true,"confidence":-1},{"trial_n":17,"min":73,"max":182,"target":"present","response":"present","rt":750,"correct":true,"confidence":-1},{"trial_n":18,"min":81,"max":174,"target":"present","response":"present","rt":1769,"correct":true,"confidence":-1},{"trial_n":19,"min":81,"max":174,"target":"absent","response":"absent","rt":910,"correct":true,"confidence":-1},{"trial_n":20,"min":89,"max":166,"target":"present","response":"present","rt":742,"correct":true,"confidence":-1},{"trial_n":21,"min":89,"max":166,"target":"absent","response":"absent","rt":788.00000000001,"correct":true,"confidence":2},{"trial_n":22,"min":93,"max":162,"target":"present","response":"absent","rt":1105,"correct":false,"confidence":2},{"trial_n":23,"min":89,"max":166,"target":"absent","response":"absent","rt":828,"correct":true,"confidence":2},{"trial_n":24,"min":89,"max":166,"target":"absent","response":"absent","rt":1041,"correct":true,"confidence":2},{"trial_n":25,"min":93,"max":162,"target":"absent","response":"absent","rt":998.00000000001,"correct":true,"confidence":2},{"trial_n":26,"min":93,"max":162,"target":"absent","response":"absent","rt":788,"correct":true,"confidence":2},{"trial_n":27,"min":97,"max":158,"target":"present","response":"present","rt":1199,"correct":true,"confidence":2},{"trial_n":28,"min":97,"max":158,"target":"present","response":"absent","rt":1238,"correct":false,"confidence":2},{"trial_n":29,"min":93,"max":162,"target":"present","response":"absent","rt":906.00000000001,"correct":false,"confidence":2},{"trial_n":30,"min":89,"max":166,"target":"present","response":"absent","rt":747,"correct":false,"confidence":2},{"trial_n":31,"min":87,"max":168,"target":"absent","response":"absent","rt":830.99999999999,"correct":true,"confidence":2},{"trial_n":32,"min":87,"max":168,"target":"absent","response":"absent","rt":933,"correct":true,"confidence":2},{"trial_n":33,"min":89,"max":166,"target":"present","response":"absent","rt":848,"correct":false,"confidence":2},{"trial_n":34,"min":87,"max":168,"target":"absent","response":"absent","rt":943,"correct":true,"confidence":2},{"trial_n":35,"min":87,"max":168,"target":"absent","response":"absent","rt":2420,"correct":true,"confidence":2},{"trial_n":36,"min":89,"max":166,"target":"present","response":"absent","rt":764.00000000001,"correct":false,"confidence":2},{"trial_n":37,"min":87,"max":168,"target":"absent","response":"absent","rt":707,"correct":true,"confidence":2},{"trial_n":38,"min":87,"max":168,"target":"present","response":"present","rt":823,"correct":true,"confidence":2},{"trial_n":39,"min":89,"max":166,"target":"present","response":"absent","rt":884,"correct":false,"confidence":2},{"trial_n":40,"min":87,"max":168,"target":"present","response":"absent","rt":711,"correct":false,"confidence":2},{"trial_n":41,"min":86,"max":169,"target":"present","response":"present","rt":1663,"correct":true,"confidence":2},{"trial_n":42,"min":86,"max":169,"target":"present","response":"present","rt":772.99999999999,"correct":true,"confidence":2},{"trial_n":43,"min":87,"max":168,"target":"absent","response":"absent","rt":2145,"correct":true,"confidence":2},{"trial_n":44,"min":87,"max":168,"target":"present","response":"absent","rt":844.00000000003,"correct":false,"confidence":2},{"trial_n":45,"min":86,"max":169,"target":"present","response":"absent","rt":887,"correct":false,"confidence":2},{"trial_n":46,"min":85,"max":170,"target":"absent","response":"absent","rt":793,"correct":true,"confidence":2},{"trial_n":47,"min":85,"max":170,"target":"present","response":"present","rt":908,"correct":true,"confidence":2},{"trial_n":48,"min":86,"max":169,"target":"absent","response":"absent","rt":806,"correct":true,"confidence":2},{"trial_n":49,"min":86,"max":169,"target":"absent","response":"absent","rt":802.00000000003,"correct":true,"confidence":2},{"trial_n":50,"min":87,"max":168,"target":"present","response":"present","rt":908,"correct":true,"confidence":2},{"trial_n":51,"min":87,"max":168,"target":"absent","response":"present","rt":1385,"correct":false,"confidence":2},{"trial_n":52,"min":86,"max":169,"target":"absent","response":"absent","rt":1033,"correct":true,"confidence":2},{"trial_n":53,"min":86,"max":169,"target":"absent","response":"absent","rt":748,"correct":true,"confidence":2},{"trial_n":54,"min":87,"max":168,"target":"absent","response":"absent","rt":736,"correct":true,"confidence":2},{"trial_n":55,"min":87,"max":168,"target":"present","response":"absent","rt":837,"correct":false,"confidence":2},{"trial_n":56,"min":86,"max":169,"target":"present","response":"present","rt":1750,"correct":true,"confidence":2},{"trial_n":57,"min":86,"max":169,"target":"present","response":"absent","rt":766,"correct":false,"confidence":2},{"trial_n":58,"min":85,"max":170,"target":"present","response":"absent","rt":723.99999999997,"correct":false,"confidence":2},{"trial_n":59,"min":84,"max":171,"target":"absent","response":"absent","rt":686,"correct":true,"confidence":2},{"trial_n":60,"min":84,"max":171,"target":"present","response":"present","rt":943,"correct":true,"confidence":2},{"trial_n":61,"min":85,"max":170,"target":"absent","response":"absent","rt":805,"correct":true,"confidence":2},{"trial_n":62,"min":85,"max":170,"target":"absent","response":"absent","rt":746.99999999997,"correct":true,"confidence":2},{"trial_n":63,"min":86,"max":169,"target":"absent","response":"absent","rt":700.00000000003,"correct":true,"confidence":2},{"trial_n":64,"min":86,"max":169,"target":"present","response":"present","rt":824,"correct":true,"confidence":2},{"trial_n":65,"min":87,"max":168,"target":"present","response":"present","rt":820,"correct":true,"confidence":2},{"trial_n":66,"min":87,"max":168,"target":"present","response":"present","rt":1099,"correct":true,"confidence":2},{"trial_n":67,"min":88,"max":167,"target":"absent","response":"absent","rt":935,"correct":true,"confidence":2},{"trial_n":68,"min":88,"max":167,"target":"present","response":"absent","rt":762,"correct":false,"confidence":2},{"trial_n":69,"min":87,"max":168,"target":"absent","response":"absent","rt":848,"correct":true,"confidence":2},{"trial_n":70,"min":87,"max":168,"target":"absent","response":"absent","rt":730,"correct":true,"confidence":2},{"trial_n":71,"min":41,"max":214,"target":"present","response":"present","rt":1036,"correct":true,"confidence":-1},{"trial_n":72,"min":41,"max":214,"target":"present","response":"present","rt":720,"correct":true,"confidence":-1},{"trial_n":73,"min":57,"max":198,"target":"absent","response":"absent","rt":1016,"correct":true,"confidence":-1},{"trial_n":74,"min":57,"max":198,"target":"absent","response":"absent","rt":810.99999999997,"correct":true,"confidence":-1},{"trial_n":75,"min":73,"max":182,"target":"present","response":"present","rt":699,"correct":true,"confidence":-1},{"trial_n":76,"min":73,"max":182,"target":"absent","response":"absent","rt":2846,"correct":true,"confidence":-1},{"trial_n":77,"min":89,"max":166,"target":"present","response":"present","rt":1245,"correct":true,"confidence":-1},{"trial_n":78,"min":89,"max":166,"target":"absent","response":"absent","rt":1344,"correct":true,"confidence":-1},{"trial_n":79,"min":105,"max":150,"target":"absent","response":"present","rt":1004,"correct":false,"confidence":-1},{"trial_n":80,"min":89,"max":166,"target":"present","response":"present","rt":1884,"correct":true,"confidence":-1},{"trial_n":81,"min":89,"max":166,"target":"present","response":"present","rt":936,"correct":true,"confidence":-1},{"trial_n":82,"min":97,"max":158,"target":"absent","response":"present","rt":965,"correct":false,"confidence":-1},{"trial_n":83,"min":89,"max":166,"target":"present","response":"absent","rt":2910,"correct":false,"confidence":-1},{"trial_n":84,"min":81,"max":174,"target":"present","response":"present","rt":847,"correct":true,"confidence":-1},{"trial_n":85,"min":81,"max":174,"target":"present","response":"present","rt":731,"correct":true,"confidence":-1},{"trial_n":86,"min":89,"max":166,"target":"present","response":"present","rt":892.00000000003,"correct":true,"confidence":-1},{"trial_n":87,"min":89,"max":166,"target":"present","response":"present","rt":834,"correct":true,"confidence":-1},{"trial_n":88,"min":97,"max":158,"target":"absent","response":"absent","rt":3267,"correct":true,"confidence":-1},{"trial_n":89,"min":97,"max":158,"target":"absent","response":"present","rt":911,"correct":false,"confidence":-1},{"trial_n":90,"min":89,"max":166,"target":"absent","response":"absent","rt":1411,"correct":true,"confidence":-1},{"trial_n":91,"min":89,"max":166,"target":"present","response":"present","rt":1227,"correct":true,"confidence":2},{"trial_n":92,"min":93,"max":162,"target":"present","response":"present","rt":829,"correct":true,"confidence":2},{"trial_n":93,"min":93,"max":162,"target":"present","response":"present","rt":812,"correct":true,"confidence":2},{"trial_n":94,"min":97,"max":158,"target":"absent","response":"present","rt":737,"correct":false,"confidence":1},{"trial_n":95,"min":93,"max":162,"target":"absent","response":"present","rt":866,"correct":false,"confidence":1},{"trial_n":96,"min":89,"max":166,"target":"absent","response":"present","rt":927,"correct":false,"confidence":1},{"trial_n":97,"min":85,"max":170,"target":"absent","response":"present","rt":770,"correct":false,"confidence":1},{"trial_n":98,"min":81,"max":174,"target":"absent","response":"present","rt":940,"correct":false,"confidence":1},{"trial_n":99,"min":77,"max":178,"target":"present","response":"present","rt":794,"correct":true,"confidence":2},{"trial_n":100,"min":77,"max":178,"target":"absent","response":"present","rt":2341,"correct":false,"confidence":2},{"trial_n":101,"min":75,"max":180,"target":"absent","response":"absent","rt":915,"correct":true,"confidence":2},{"trial_n":102,"min":75,"max":180,"target":"present","response":"present","rt":910,"correct":true,"confidence":2},{"trial_n":103,"min":77,"max":178,"target":"present","response":"present","rt":1478,"correct":true,"confidence":2},{"trial_n":104,"min":77,"max":178,"target":"present","response":"present","rt":940,"correct":true,"confidence":2},{"trial_n":105,"min":79,"max":176,"target":"absent","response":"absent","rt":2290,"correct":true,"confidence":2},{"trial_n":106,"min":79,"max":176,"target":"absent","response":"absent","rt":1418,"correct":true,"confidence":2},{"trial_n":107,"min":81,"max":174,"target":"absent","response":"absent","rt":990,"correct":true,"confidence":2},{"trial_n":108,"min":81,"max":174,"target":"absent","response":"absent","rt":1287,"correct":true,"confidence":2},{"trial_n":109,"min":83,"max":172,"target":"present","response":"present","rt":1315,"correct":true,"confidence":2},{"trial_n":110,"min":83,"max":172,"target":"present","response":"present","rt":814,"correct":true,"confidence":2},{"trial_n":111,"min":84,"max":171,"target":"absent","response":"present","rt":982,"correct":false,"confidence":1},{"trial_n":112,"min":83,"max":172,"target":"absent","response":"present","rt":1046.9999999999,"correct":false,"confidence":1},{"trial_n":113,"min":82,"max":173,"target":"absent","response":"present","rt":850.99999999994,"correct":false,"confidence":1},{"trial_n":114,"min":81,"max":174,"target":"present","response":"present","rt":919,"correct":true,"confidence":1},{"trial_n":115,"min":81,"max":174,"target":"absent","response":"present","rt":847,"correct":false,"confidence":1},{"trial_n":116,"min":80,"max":175,"target":"present","response":"present","rt":968.00000000006,"correct":true,"confidence":1},{"trial_n":117,"min":80,"max":175,"target":"absent","response":"present","rt":747.99999999994,"correct":false,"confidence":1},{"trial_n":118,"min":79,"max":176,"target":"absent","response":"absent","rt":1535,"correct":true,"confidence":1},{"trial_n":119,"min":79,"max":176,"target":"present","response":"present","rt":1094,"correct":true,"confidence":1},{"trial_n":120,"min":80,"max":175,"target":"present","response":"present","rt":1529,"correct":true,"confidence":1},{"trial_n":121,"min":80,"max":175,"target":"absent","response":"present","rt":1080,"correct":false,"confidence":1},{"trial_n":122,"min":79,"max":176,"target":"present","response":"present","rt":746,"correct":true,"confidence":1},{"trial_n":123,"min":79,"max":176,"target":"present","response":"present","rt":709.99999999994,"correct":true,"confidence":1},{"trial_n":124,"min":80,"max":175,"target":"absent","response":"present","rt":747.99999999994,"correct":false,"confidence":1},{"trial_n":125,"min":79,"max":176,"target":"present","response":"present","rt":737,"correct":true,"confidence":1},{"trial_n":126,"min":79,"max":176,"target":"absent","response":"absent","rt":1034.0000000001,"correct":true,"confidence":2},{"trial_n":127,"min":80,"max":175,"target":"absent","response":"present","rt":2087,"correct":false,"confidence":2},{"trial_n":128,"min":79,"max":176,"target":"present","response":"present","rt":1158,"correct":true,"confidence":1},{"trial_n":129,"min":79,"max":176,"target":"absent","response":"present","rt":867,"correct":false,"confidence":1},{"trial_n":130,"min":78,"max":177,"target":"absent","response":"present","rt":1001.0000000001,"correct":false,"confidence":1},{"trial_n":131,"min":77,"max":178,"target":"present","response":"present","rt":861.00000000006,"correct":true,"confidence":2},{"trial_n":132,"min":77,"max":178,"target":"present","response":"present","rt":1184,"correct":true,"confidence":2},{"trial_n":133,"min":78,"max":177,"target":"present","response":"present","rt":774,"correct":true,"confidence":2},{"trial_n":134,"min":78,"max":177,"target":"present","response":"present","rt":931,"correct":true,"confidence":1},{"trial_n":135,"min":79,"max":176,"target":"present","response":"present","rt":753,"correct":true,"confidence":1},{"trial_n":136,"min":79,"max":176,"target":"present","response":"present","rt":712,"correct":true,"confidence":1},{"trial_n":137,"min":80,"max":175,"target":"absent","response":"present","rt":2482.0000000001,"correct":false,"confidence":2},{"trial_n":138,"min":79,"max":176,"target":"present","response":"present","rt":935,"correct":true,"confidence":1},{"trial_n":139,"min":79,"max":176,"target":"present","response":"present","rt":822,"correct":true,"confidence":1},{"trial_n":140,"min":80,"max":175,"target":"absent","response":"absent","rt":1649,"correct":true,"confidence":1}]