[{"trial_n":1,"min":25,"max":230,"target":"present","response":"present","rt":8850.7999999523,"correct":true,"confidence":-1},{"trial_n":2,"min":25,"max":230,"target":"present","response":"present","rt":3888.7000000477,"correct":true,"confidence":-1},{"trial_n":3,"min":41,"max":214,"target":"absent","response":"present","rt":3731.7000000477,"correct":false,"confidence":-1},{"trial_n":4,"min":25,"max":230,"target":"absent","response":"absent","rt":1299.7000000477,"correct":true,"confidence":-1},{"trial_n":5,"min":25,"max":230,"target":"present","response":"present","rt":1510.2000000477,"correct":true,"confidence":-1},{"trial_n":6,"min":41,"max":214,"target":"absent","response":"absent","rt":2226.1000001431,"correct":true,"confidence":-1},{"trial_n":7,"min":41,"max":214,"target":"present","response":"present","rt":1276.6000001431,"correct":true,"confidence":-1},{"trial_n":8,"min":57,"max":198,"target":"present","response":"absent","rt":1023.9000000954,"correct":false,"confidence":-1},{"trial_n":9,"min":41,"max":214,"target":"present","response":"present","rt":1201.2000000477,"correct":true,"confidence":-1},{"trial_n":10,"min":41,"max":214,"target":"absent","response":"absent","rt":988.19999980927,"correct":true,"confidence":-1},{"trial_n":11,"min":49,"max":206,"target":"absent","response":"absent","rt":703,"correct":true,"confidence":-1},{"trial_n":12,"min":49,"max":206,"target":"present","response":"present","rt":1237.8999998569,"correct":true,"confidence":-1},{"trial_n":13,"min":57,"max":198,"target":"present","response":"present","rt":1274.0999999046,"correct":true,"confidence":-1},{"trial_n":14,"min":57,"max":198,"target":"present","response":"present","rt":1064.2999999523,"correct":true,"confidence":-1},{"trial_n":15,"min":65,"max":190,"target":"absent","response":"absent","rt":1208.4000000954,"correct":true,"confidence":-1},{"trial_n":16,"min":65,"max":190,"target":"present","response":"absent","rt":842.29999995232,"correct":false,"confidence":-1},{"trial_n":17,"min":57,"max":198,"target":"present","response":"absent","rt":817.19999980927,"correct":false,"confidence":-1},{"trial_n":18,"min":49,"max":206,"target":"present","response":"present","rt":1193.8999998569,"correct":true,"confidence":-1},{"trial_n":19,"min":49,"max":206,"target":"absent","response":"absent","rt":1748.2000000477,"correct":true,"confidence":-1},{"trial_n":20,"min":57,"max":198,"target":"present","response":"present","rt":1208,"correct":true,"confidence":-1},{"trial_n":21,"min":57,"max":198,"target":"present","response":"present","rt":1098.0999999046,"correct":true,"confidence":5},{"trial_n":22,"min":61,"max":194,"target":"absent","response":"absent","rt":2799.1000001431,"correct":true,"confidence":2},{"trial_n":23,"min":61,"max":194,"target":"absent","response":"present","rt":4007.8999998569,"correct":false,"confidence":3},{"trial_n":24,"min":57,"max":198,"target":"present","response":"present","rt":1005.6000001431,"correct":true,"confidence":5},{"trial_n":25,"min":57,"max":198,"target":"present","response":"present","rt":1147.4000000954,"correct":true,"confidence":5},{"trial_n":26,"min":61,"max":194,"target":"present","response":"present","rt":846.39999985695,"correct":true,"confidence":5},{"trial_n":27,"min":61,"max":194,"target":"absent","response":"absent","rt":1192.8999998569,"correct":true,"confidence":4},{"trial_n":28,"min":65,"max":190,"target":"absent","response":"absent","rt":1299.8999998569,"correct":true,"confidence":4},{"trial_n":29,"min":65,"max":190,"target":"present","response":"present","rt":1092.5,"correct":true,"confidence":5},{"trial_n":30,"min":69,"max":186,"target":"absent","response":"absent","rt":1196.2000000477,"correct":true,"confidence":4},{"trial_n":31,"min":69,"max":186,"target":"present","response":"present","rt":2422,"correct":true,"confidence":3},{"trial_n":32,"min":71,"max":184,"target":"absent","response":"present","rt":1233.5,"correct":false,"confidence":4},{"trial_n":33,"min":69,"max":186,"target":"absent","response":"present","rt":1509.7000000477,"correct":false,"confidence":4},{"trial_n":34,"min":67,"max":188,"target":"absent","response":"present","rt":3563.2000000477,"correct":false,"confidence":3},{"trial_n":35,"min":65,"max":190,"target":"absent","response":"present","rt":1529.6000001431,"correct":false,"confidence":3},{"trial_n":36,"min":63,"max":192,"target":"present","response":"present","rt":1286.2999999523,"correct":true,"confidence":4},{"trial_n":37,"min":63,"max":192,"target":"absent","response":"present","rt":5450.6999998093,"correct":false,"confidence":4},{"trial_n":38,"min":61,"max":194,"target":"present","response":"present","rt":1134.5,"correct":true,"confidence":5},{"trial_n":39,"min":61,"max":194,"target":"present","response":"present","rt":1518.7000000477,"correct":true,"confidence":5},{"trial_n":40,"min":63,"max":192,"target":"absent","response":"absent","rt":1070.5,"correct":true,"confidence":4},{"trial_n":41,"min":63,"max":192,"target":"absent","response":"absent","rt":1032.7999999523,"correct":true,"confidence":4},{"trial_n":42,"min":64,"max":191,"target":"present","response":"present","rt":1083.3999998569,"correct":true,"confidence":5},{"trial_n":43,"min":64,"max":191,"target":"absent","response":"present","rt":1039.6000001431,"correct":false,"confidence":5},{"trial_n":44,"min":63,"max":192,"target":"absent","response":"present","rt":1481.2999999523,"correct":false,"confidence":4},{"trial_n":45,"min":62,"max":193,"target":"present","response":"present","rt":1027.5999999046,"correct":true,"confidence":4},{"trial_n":46,"min":62,"max":193,"target":"absent","response":"absent","rt":877,"correct":true,"confidence":4},{"trial_n":47,"min":63,"max":192,"target":"present","response":"present","rt":1076.5,"correct":true,"confidence":5},{"trial_n":48,"min":63,"max":192,"target":"absent","response":"present","rt":1087.2999999523,"correct":false,"confidence":5},{"trial_n":49,"min":62,"max":193,"target":"absent","response":"present","rt":876.90000009537,"correct":false,"confidence":5},{"trial_n":50,"min":61,"max":194,"target":"present","response":"present","rt":1211.2000000477,"correct":true,"confidence":4},{"trial_n":51,"min":61,"max":194,"target":"present","response":"present","rt":1267.0999999046,"correct":true,"confidence":4},{"trial_n":52,"min":62,"max":193,"target":"present","response":"present","rt":1055.2000000477,"correct":true,"confidence":5},{"trial_n":53,"min":62,"max":193,"target":"absent","response":"present","rt":1177.1000001431,"correct":false,"confidence":4},{"trial_n":54,"min":61,"max":194,"target":"absent","response":"absent","rt":960,"correct":true,"confidence":4},{"trial_n":55,"min":61,"max":194,"target":"present","response":"present","rt":1102.0999999046,"correct":true,"confidence":5},{"trial_n":56,"min":62,"max":193,"target":"present","response":"present","rt":1208.1000001431,"correct":true,"confidence":5},{"trial_n":57,"min":62,"max":193,"target":"absent","response":"present","rt":918.20000004768,"correct":false,"confidence":5},{"trial_n":58,"min":61,"max":194,"target":"absent","response":"present","rt":3601.6999998093,"correct":false,"confidence":4},{"trial_n":59,"min":60,"max":195,"target":"present","response":"present","rt":971,"correct":true,"confidence":5},{"trial_n":60,"min":60,"max":195,"target":"present","response":"present","rt":1078.4000000954,"correct":true,"confidence":5},{"trial_n":61,"min":61,"max":194,"target":"absent","response":"absent","rt":1310.3000001907,"correct":true,"confidence":4},{"trial_n":62,"min":61,"max":194,"target":"present","response":"present","rt":1244.7000000477,"correct":true,"confidence":5},{"trial_n":63,"min":62,"max":193,"target":"absent","response":"absent","rt":1114.7000000477,"correct":true,"confidence":4},{"trial_n":64,"min":62,"max":193,"target":"absent","response":"present","rt":1582.5,"correct":false,"confidence":4},{"trial_n":65,"min":61,"max":194,"target":"absent","response":"absent","rt":861.70000004768,"correct":true,"confidence":4},{"trial_n":66,"min":61,"max":194,"target":"absent","response":"absent","rt":1065.7999999523,"correct":true,"confidence":4},{"trial_n":67,"min":62,"max":193,"target":"present","response":"present","rt":1262.2000000477,"correct":true,"confidence":5},{"trial_n":68,"min":62,"max":193,"target":"absent","response":"absent","rt":1225.2000000477,"correct":true,"confidence":4},{"trial_n":69,"min":63,"max":192,"target":"present","response":"present","rt":1261.6999998093,"correct":true,"confidence":5},{"trial_n":70,"min":63,"max":192,"target":"present","response":"present","rt":934.90000009537,"correct":true,"confidence":5},{"trial_n":71,"min":41,"max":214,"target":"present","response":"present","rt":5381.6999998093,"correct":true,"confidence":-1},{"trial_n":72,"min":41,"max":214,"target":"present","response":"present","rt":1982.6000001431,"correct":true,"confidence":-1},{"trial_n":73,"min":57,"max":198,"target":"absent","response":"absent","rt":786.29999995232,"correct":true,"confidence":-1},{"trial_n":74,"min":57,"max":198,"target":"absent","response":"present","rt":688.59999990463,"correct":false,"confidence":-1},{"trial_n":75,"min":41,"max":214,"target":"present","response":"present","rt":1602.2999999523,"correct":true,"confidence":-1},{"trial_n":76,"min":41,"max":214,"target":"absent","response":"absent","rt":831.5,"correct":true,"confidence":-1},{"trial_n":77,"min":57,"max":198,"target":"absent","response":"absent","rt":811.20000004768,"correct":true,"confidence":-1},{"trial_n":78,"min":57,"max":198,"target":"present","response":"present","rt":482.5,"correct":true,"confidence":-1},{"trial_n":79,"min":73,"max":182,"target":"present","response":"present","rt":663.19999980927,"correct":true,"confidence":-1},{"trial_n":80,"min":73,"max":182,"target":"present","response":"present","rt":494.20000004768,"correct":true,"confidence":-1},{"trial_n":81,"min":81,"max":174,"target":"absent","response":"present","rt":1684.1000001431,"correct":false,"confidence":-1},{"trial_n":82,"min":73,"max":182,"target":"absent","response":"absent","rt":682.10000014305,"correct":true,"confidence":-1},{"trial_n":83,"min":73,"max":182,"target":"absent","response":"absent","rt":1350.0999999046,"correct":true,"confidence":-1},{"trial_n":84,"min":81,"max":174,"target":"present","response":"present","rt":471.10000014305,"correct":true,"confidence":-1},{"trial_n":85,"min":81,"max":174,"target":"absent","response":"present","rt":556.5,"correct":false,"confidence":-1},{"trial_n":86,"min":73,"max":182,"target":"absent","response":"absent","rt":779.90000009537,"correct":true,"confidence":-1},{"trial_n":87,"min":73,"max":182,"target":"absent","response":"absent","rt":1227.7999999523,"correct":true,"confidence":-1},{"trial_n":88,"min":81,"max":174,"target":"present","response":"present","rt":481.5,"correct":true,"confidence":-1},{"trial_n":89,"min":81,"max":174,"target":"present","response":"present","rt":1055.8000001907,"correct":true,"confidence":-1},{"trial_n":90,"min":89,"max":166,"target":"present","response":"present","rt":406.79999995232,"correct":true,"confidence":-1},{"trial_n":91,"min":89,"max":166,"target":"absent","response":"absent","rt":689.79999995232,"correct":true,"confidence":4},{"trial_n":92,"min":93,"max":162,"target":"present","response":"present","rt":719.5,"correct":true,"confidence":3},{"trial_n":93,"min":93,"max":162,"target":"present","response":"present","rt":729.10000014305,"correct":true,"confidence":4},{"trial_n":94,"min":97,"max":158,"target":"present","response":"absent","rt":3035.5,"correct":false,"confidence":2},{"trial_n":95,"min":93,"max":162,"target":"absent","response":"present","rt":1393.8000001907,"correct":false,"confidence":2},{"trial_n":96,"min":89,"max":166,"target":"present","response":"present","rt":1962.7000000477,"correct":true,"confidence":2},{"trial_n":97,"min":89,"max":166,"target":"absent","response":"present","rt":3739.2999999523,"correct":false,"confidence":2},{"trial_n":98,"min":85,"max":170,"target":"present","response":"present","rt":2265.7000000477,"correct":true,"confidence":3},{"trial_n":99,"min":85,"max":170,"target":"absent","response":"present","rt":783.79999995232,"correct":false,"confidence":3},{"trial_n":100,"min":81,"max":174,"target":"present","response":"present","rt":892.70000004768,"correct":true,"confidence":4},{"trial_n":101,"min":81,"max":174,"target":"present","response":"present","rt":840,"correct":true,"confidence":3},{"trial_n":102,"min":83,"max":172,"target":"absent","response":"present","rt":668.90000009537,"correct":false,"confidence":3},{"trial_n":103,"min":81,"max":174,"target":"present","response":"present","rt":2780,"correct":true,"confidence":2},{"trial_n":104,"min":81,"max":174,"target":"absent","response":"present","rt":2308.7000000477,"correct":false,"confidence":3},{"trial_n":105,"min":79,"max":176,"target":"absent","response":"present","rt":1491.0999999046,"correct":false,"confidence":3},{"trial_n":106,"min":77,"max":178,"target":"present","response":"present","rt":788.29999995232,"correct":true,"confidence":4},{"trial_n":107,"min":77,"max":178,"target":"present","response":"present","rt":785.60000014305,"correct":true,"confidence":4},{"trial_n":108,"min":79,"max":176,"target":"absent","response":"absent","rt":1536.7999999523,"correct":true,"confidence":4},{"trial_n":109,"min":79,"max":176,"target":"present","response":"present","rt":811.90000009537,"correct":true,"confidence":4},{"trial_n":110,"min":81,"max":174,"target":"present","response":"present","rt":767.20000004768,"correct":true,"confidence":4},{"trial_n":111,"min":81,"max":174,"target":"present","response":"present","rt":637.79999995232,"correct":true,"confidence":4},{"trial_n":112,"min":82,"max":173,"target":"present","response":"present","rt":1346.5,"correct":true,"confidence":3},{"trial_n":113,"min":82,"max":173,"target":"absent","response":"absent","rt":1158.2999999523,"correct":true,"confidence":4},{"trial_n":114,"min":83,"max":172,"target":"absent","response":"absent","rt":2428.4000000954,"correct":true,"confidence":3},{"trial_n":115,"min":83,"max":172,"target":"absent","response":"present","rt":2733,"correct":false,"confidence":2},{"trial_n":116,"min":82,"max":173,"target":"absent","response":"present","rt":2627.7000000477,"correct":false,"confidence":2},{"trial_n":117,"min":81,"max":174,"target":"present","response":"present","rt":859.59999990463,"correct":true,"confidence":4},{"trial_n":118,"min":81,"max":174,"target":"present","response":"present","rt":784.09999990463,"correct":true,"confidence":4},{"trial_n":119,"min":82,"max":173,"target":"present","response":"present","rt":587.09999990463,"correct":true,"confidence":4},{"trial_n":120,"min":82,"max":173,"target":"absent","response":"absent","rt":933.5,"correct":true,"confidence":4},{"trial_n":121,"min":83,"max":172,"target":"absent","response":"absent","rt":702,"correct":true,"confidence":4},{"trial_n":122,"min":83,"max":172,"target":"absent","response":"present","rt":1253.2000000477,"correct":false,"confidence":4},{"trial_n":123,"min":82,"max":173,"target":"absent","response":"absent","rt":2386.5,"correct":true,"confidence":3},{"trial_n":124,"min":82,"max":173,"target":"present","response":"present","rt":1356.5999999046,"correct":true,"confidence":3},{"trial_n":125,"min":83,"max":172,"target":"present","response":"present","rt":526.89999985695,"correct":true,"confidence":4},{"trial_n":126,"min":83,"max":172,"target":"present","response":"present","rt":1554.7000000477,"correct":true,"confidence":3},{"trial_n":127,"min":84,"max":171,"target":"present","response":"present","rt":670.10000014305,"correct":true,"confidence":4},{"trial_n":128,"min":84,"max":171,"target":"absent","response":"absent","rt":1209,"correct":true,"confidence":4},{"trial_n":129,"min":85,"max":170,"target":"absent","response":"absent","rt":723.70000004768,"correct":true,"confidence":4},{"trial_n":130,"min":85,"max":170,"target":"absent","response":"present","rt":543.89999985695,"correct":false,"confidence":4},{"trial_n":131,"min":84,"max":171,"target":"present","response":"present","rt":570.10000014305,"correct":true,"confidence":4},{"trial_n":132,"min":84,"max":171,"target":"absent","response":"present","rt":908.19999980927,"correct":false,"confidence":4},{"trial_n":133,"min":83,"max":172,"target":"present","response":"present","rt":998.09999990463,"correct":true,"confidence":5},{"trial_n":134,"min":83,"max":172,"target":"present","response":"present","rt":815.40000009537,"correct":true,"confidence":4},{"trial_n":135,"min":84,"max":171,"target":"present","response":"present","rt":765,"correct":true,"confidence":3},{"trial_n":136,"min":84,"max":171,"target":"absent","response":"present","rt":1224.3999998569,"correct":false,"confidence":2},{"trial_n":137,"min":83,"max":172,"target":"present","response":"absent","rt":3659.9000000954,"correct":false,"confidence":2},{"trial_n":138,"min":82,"max":173,"target":"absent","response":"present","rt":614.19999980927,"correct":false,"confidence":3},{"trial_n":139,"min":81,"max":174,"target":"absent","response":"absent","rt":2345.4000000954,"correct":true,"confidence":2},{"trial_n":140,"min":81,"max":174,"target":"absent","response":"absent","rt":1085.5999999046,"correct":true,"confidence":4}]