[{"trial_n":1,"span":8,"encoder":"38494864","distractor":"32494864","target":"present","response":"present","rt":"4635.5999999046","correct":true,"confidence":-1},{"trial_n":2,"span":8,"encoder":"76681885","distractor":"79681885","target":"present","response":"present","rt":"2862.2000000477","correct":true,"confidence":-1},{"trial_n":3,"span":10,"encoder":"8756222476","distractor":"8754222476","target":"absent","response":"present","rt":"3704","correct":false,"confidence":-1},{"trial_n":4,"span":8,"encoder":"47862044","distractor":"57862044","target":"absent","response":"absent","rt":"2970.2000000477","correct":true,"confidence":-1},{"trial_n":5,"span":8,"encoder":"64720564","distractor":"64720064","target":"present","response":"present","rt":"2795.2000000477","correct":true,"confidence":-1},{"trial_n":6,"span":10,"encoder":"2085567596","distractor":"2085547596","target":"present","response":"present","rt":"3641.5","correct":true,"confidence":-1},{"trial_n":7,"span":10,"encoder":"8211431993","distractor":"8221431993","target":"absent","response":"present","rt":"4508.5","correct":false,"confidence":-1},{"trial_n":8,"span":8,"encoder":"35445521","distractor":"34445521","target":"absent","response":"absent","rt":"3577.6000001431","correct":true,"confidence":-1},{"trial_n":9,"span":8,"encoder":"03125503","distractor":"93125503","target":"absent","response":"absent","rt":"4040.7999999523","correct":true,"confidence":-1},{"trial_n":10,"span":10,"encoder":"5526517102","distractor":"5026517102","target":"absent","response":"present","rt":"2994","correct":false,"confidence":-1},{"trial_n":11,"span":8,"encoder":"47876498","distractor":"17876498","target":"present","response":"present","rt":"3482.1999998093","correct":true,"confidence":-1},{"trial_n":12,"span":8,"encoder":"28122695","distractor":"20122695","target":"present","response":"present","rt":"2791.4000000954","correct":true,"confidence":-1},{"trial_n":13,"span":9,"encoder":"338438587","distractor":"338938587","target":"absent","response":"absent","rt":"2557.2000000477","correct":true,"confidence":-1},{"trial_n":14,"span":9,"encoder":"184187733","distractor":"084187733","target":"absent","response":"present","rt":"2933.7999999523","correct":false,"confidence":-1},{"trial_n":15,"span":8,"encoder":"53804995","distractor":"63804995","target":"absent","response":"present","rt":"1590.6000001431","correct":false,"confidence":-1},{"trial_n":16,"span":7,"encoder":"5184904","distractor":"5189904","target":"absent","response":"present","rt":"1645","correct":false,"confidence":-1},{"trial_n":17,"span":6,"encoder":"630823","distractor":"030823","target":"absent","response":"absent","rt":"2610.1000001431","correct":true,"confidence":-1},{"trial_n":18,"span":6,"encoder":"330443","distractor":"335443","target":"present","response":"present","rt":"1970.7000000477","correct":true,"confidence":-1},{"trial_n":19,"span":7,"encoder":"1379675","distractor":"1379635","target":"present","response":"present","rt":"2153.7000000477","correct":true,"confidence":-1},{"trial_n":20,"span":7,"encoder":"0226308","distractor":"0226908","target":"present","response":"present","rt":"2281","correct":true,"confidence":-1},{"trial_n":21,"span":8,"encoder":"27632496","distractor":"57632496","target":"present","response":"present","rt":"3145.7999999523","correct":true,"confidence":1},{"trial_n":22,"span":8,"encoder":"62917753","distractor":"62917703","target":"absent","response":"absent","rt":"4107.5","correct":true,"confidence":1},{"trial_n":23,"span":9,"encoder":"447629494","distractor":"444629494","target":"absent","response":"absent","rt":"5114","correct":true,"confidence":4},{"trial_n":24,"span":9,"encoder":"126767196","distractor":"126767192","target":"present","response":"present","rt":"3130.5999999046","correct":true,"confidence":3},{"trial_n":25,"span":10,"encoder":"3043734922","distractor":"3043724922","target":"present","response":"present","rt":"4074.2999999523","correct":true,"confidence":4},{"trial_n":26,"span":10,"encoder":"2674331346","distractor":"2674381346","target":"present","response":"absent","rt":"6249.4000000954","correct":false,"confidence":3},{"trial_n":27,"span":9,"encoder":"279349370","distractor":"270349370","target":"absent","response":"absent","rt":"6640.9000000954","correct":true,"confidence":3},{"trial_n":28,"span":9,"encoder":"912235187","distractor":"912235287","target":"absent","response":"present","rt":"4280.2999999523","correct":false,"confidence":3},{"trial_n":29,"span":8,"encoder":"96003045","distractor":"86003045","target":"present","response":"present","rt":"2172.0999999046","correct":true,"confidence":3},{"trial_n":30,"span":8,"encoder":"71533949","distractor":"71433949","target":"absent","response":"absent","rt":"5487.2999999523","correct":true,"confidence":4},{"trial_n":31,"span":9,"encoder":"995043767","distractor":"995043768","target":"present","response":"present","rt":"3568.2000000477","correct":true,"confidence":4},{"trial_n":32,"span":9,"encoder":"632130530","distractor":"632130560","target":"absent","response":"absent","rt":"2521.4000000954","correct":true,"confidence":4},{"trial_n":33,"span":10,"encoder":"1577475634","distractor":"1577475334","target":"present","response":"present","rt":"4166.7000000477","correct":true,"confidence":4},{"trial_n":34,"span":10,"encoder":"1176655376","distractor":"1176695376","target":"absent","response":"absent","rt":"5231.7000000477","correct":true,"confidence":3},{"trial_n":35,"span":11,"encoder":"85162284655","distractor":"85162284355","target":"present","response":"present","rt":"4164","correct":true,"confidence":4},{"trial_n":36,"span":11,"encoder":"01390782080","distractor":"01300782080","target":"present","response":"present","rt":"3913.9000000954","correct":true,"confidence":4},{"trial_n":37,"span":12,"encoder":"550198633386","distractor":"550190633386","target":"present","response":"present","rt":"4101.0999999046","correct":true,"confidence":4},{"trial_n":38,"span":12,"encoder":"707801067941","distractor":"707861067941","target":"absent","response":"absent","rt":"5956.5","correct":true,"confidence":3},{"trial_n":39,"span":13,"encoder":"9760238186306","distractor":"9960238186306","target":"present","response":"absent","rt":"3671.8000001907","correct":false,"confidence":2},{"trial_n":40,"span":12,"encoder":"790139609910","distractor":"790139600910","target":"absent","response":"absent","rt":"2393.5","correct":true,"confidence":4},{"trial_n":41,"span":12,"encoder":"740533441161","distractor":"740533141161","target":"absent","response":"absent","rt":"8433.2000000477","correct":true,"confidence":3},{"trial_n":42,"span":13,"encoder":"9635773292525","distractor":"9635773292529","target":"absent","response":"present","rt":"4049.0999999046","correct":false,"confidence":3},{"trial_n":43,"span":12,"encoder":"212004775296","distractor":"212604775296","target":"present","response":"present","rt":"3453.1000001431","correct":true,"confidence":3},{"trial_n":44,"span":12,"encoder":"675406831248","distractor":"675506831248","target":"present","response":"present","rt":"3430.2000000477","correct":true,"confidence":3},{"trial_n":45,"span":13,"encoder":"8573195157692","distractor":"8573135157692","target":"present","response":"present","rt":"7982.2000000477","correct":true,"confidence":3},{"trial_n":46,"span":13,"encoder":"0249723898369","distractor":"9249723898369","target":"absent","response":"absent","rt":"3363.5999999046","correct":true,"confidence":4},{"trial_n":47,"span":14,"encoder":"77390419585642","distractor":"57390419585642","target":"present","response":"present","rt":"5995.0999999046","correct":true,"confidence":2},{"trial_n":48,"span":14,"encoder":"31878770805102","distractor":"31878771805102","target":"present","response":"present","rt":"5023.4000000954","correct":true,"confidence":3},{"trial_n":49,"span":15,"encoder":"216348941082414","distractor":"216348941081414","target":"absent","response":"absent","rt":"2496.5999999046","correct":true,"confidence":4},{"trial_n":50,"span":15,"encoder":"087044618867409","distractor":"087344618867409","target":"absent","response":"absent","rt":"3390.5","correct":true,"confidence":2},{"trial_n":51,"span":16,"encoder":"5209545276118765","distractor":"5209545276418765","target":"absent","response":"absent","rt":"2497.7000000477","correct":true,"confidence":4},{"trial_n":52,"span":16,"encoder":"3786439110095636","distractor":"3776439110095636","target":"present","response":"present","rt":"5874","correct":true,"confidence":3},{"trial_n":53,"span":17,"encoder":"85074018725820729","distractor":"85075018725820729","target":"present","response":"absent","rt":"12612.5","correct":false,"confidence":2},{"trial_n":54,"span":16,"encoder":"0480507208845580","distractor":"0480507208845480","target":"absent","response":"present","rt":"6141.0999999046","correct":false,"confidence":3},{"trial_n":55,"span":15,"encoder":"666707452726637","distractor":"666807452726637","target":"absent","response":"absent","rt":"9109","correct":true,"confidence":3},{"trial_n":56,"span":15,"encoder":"481109569320742","distractor":"481109569321742","target":"present","response":"absent","rt":"7676.8999998569","correct":false,"confidence":2},{"trial_n":57,"span":14,"encoder":"66311057831713","distractor":"66311054831713","target":"absent","response":"absent","rt":"9100.1000001431","correct":true,"confidence":3},{"trial_n":58,"span":14,"encoder":"02964009841357","distractor":"02964009841157","target":"present","response":"present","rt":"5593.9000000954","correct":true,"confidence":4},{"trial_n":59,"span":15,"encoder":"181098328117148","distractor":"184098328117148","target":"absent","response":"present","rt":"6243.5999999046","correct":false,"confidence":4},{"trial_n":60,"span":14,"encoder":"23591819613691","distractor":"27591819613691","target":"present","response":"present","rt":"6049.3999998569","correct":true,"confidence":3},{"trial_n":61,"span":14,"encoder":"17577234273224","distractor":"17573234273224","target":"present","response":"present","rt":"5825","correct":true,"confidence":3},{"trial_n":62,"span":15,"encoder":"251481246451449","distractor":"251481246481449","target":"absent","response":"absent","rt":"7345.1999998093","correct":true,"confidence":2},{"trial_n":63,"span":15,"encoder":"550932202705804","distractor":"550932202705834","target":"present","response":"present","rt":"5106.2000000477","correct":true,"confidence":2},{"trial_n":64,"span":16,"encoder":"4086535188397878","distractor":"4086505188397878","target":"present","response":"present","rt":"6079","correct":true,"confidence":2},{"trial_n":65,"span":16,"encoder":"7831439973799120","distractor":"3831439973799120","target":"absent","response":"absent","rt":"9237.0999999046","correct":true,"confidence":1},{"trial_n":66,"span":17,"encoder":"16989978424000140","distractor":"16989978424003140","target":"present","response":"present","rt":"4403","correct":true,"confidence":2},{"trial_n":67,"span":17,"encoder":"16313416999583235","distractor":"16313416999583435","target":"present","response":"present","rt":"9052.5999999046","correct":true,"confidence":2},{"trial_n":68,"span":18,"encoder":"389216694257481627","distractor":"389216694250481627","target":"absent","response":"present","rt":"6528.6999998093","correct":false,"confidence":2},{"trial_n":69,"span":17,"encoder":"80955565272653098","distractor":"80955565572653098","target":"present","response":"present","rt":"4898.1999998093","correct":true,"confidence":3},{"trial_n":70,"span":17,"encoder":"90106160497955285","distractor":"90106160417955285","target":"absent","response":"present","rt":"14640.900000095","correct":false,"confidence":3},{"trial_n":71,"span":8,"encoder":"49684529","distractor":"49681529","target":"present","response":"present","rt":"7552.8999998569","correct":true,"confidence":-1},{"trial_n":72,"span":8,"encoder":"32703557","distractor":"32703357","target":"present","response":"present","rt":"5417.4000000954","correct":true,"confidence":-1},{"trial_n":73,"span":9,"encoder":"627540072","distractor":"627540572","target":"absent","response":"absent","rt":"2073.0999999046","correct":true,"confidence":-1},{"trial_n":74,"span":9,"encoder":"351777558","distractor":"351777555","target":"absent","response":"absent","rt":"3133.7999999523","correct":true,"confidence":-1},{"trial_n":75,"span":10,"encoder":"9633542163","distractor":"9633592163","target":"present","response":"absent","rt":"10496.400000095","correct":false,"confidence":-1},{"trial_n":76,"span":9,"encoder":"839702140","distractor":"839712140","target":"absent","response":"absent","rt":"3629.2000000477","correct":true,"confidence":-1},{"trial_n":77,"span":9,"encoder":"777975808","distractor":"777975308","target":"present","response":"present","rt":"2002.1000001431","correct":true,"confidence":-1},{"trial_n":78,"span":10,"encoder":"8112044610","distractor":"8113044610","target":"absent","response":"absent","rt":"3548","correct":true,"confidence":-1},{"trial_n":79,"span":10,"encoder":"2994032904","distractor":"2994132904","target":"present","response":"present","rt":"8435.7999999523","correct":true,"confidence":-1},{"trial_n":80,"span":11,"encoder":"38567109500","distractor":"48567109500","target":"absent","response":"absent","rt":"6593.1000001431","correct":true,"confidence":-1},{"trial_n":81,"span":11,"encoder":"06531273888","distractor":"06531273882","target":"absent","response":"absent","rt":"3091.6999998093","correct":true,"confidence":-1},{"trial_n":82,"span":12,"encoder":"393662710776","distractor":"393162710776","target":"present","response":"present","rt":"5453.1000001431","correct":true,"confidence":-1},{"trial_n":83,"span":12,"encoder":"114740312861","distractor":"114740362861","target":"present","response":"present","rt":"6284.0999999046","correct":true,"confidence":-1},{"trial_n":84,"span":13,"encoder":"4033197183890","distractor":"4633197183890","target":"present","response":"present","rt":"2177.7000000477","correct":true,"confidence":-1},{"trial_n":85,"span":13,"encoder":"3337899391396","distractor":"3337879391396","target":"absent","response":"absent","rt":"5826.1000001431","correct":true,"confidence":-1},{"trial_n":86,"span":14,"encoder":"13495174966287","distractor":"13496174966287","target":"absent","response":"absent","rt":"6030.7999999523","correct":true,"confidence":-1},{"trial_n":87,"span":14,"encoder":"21654609121307","distractor":"21654709121307","target":"absent","response":"present","rt":"1693.7999999523","correct":false,"confidence":-1},{"trial_n":88,"span":13,"encoder":"2257298026293","distractor":"2257297026293","target":"absent","response":"absent","rt":"2227","correct":true,"confidence":-1},{"trial_n":89,"span":13,"encoder":"2303912943969","distractor":"2503912943969","target":"absent","response":"absent","rt":"1926.5","correct":true,"confidence":-1},{"trial_n":90,"span":14,"encoder":"80471378474320","distractor":"80471377474320","target":"present","response":"present","rt":"8373.2000000477","correct":true,"confidence":-1},{"trial_n":91,"span":14,"encoder":"01382588940443","distractor":"01380588940443","target":"present","response":"present","rt":"11496.899999857","correct":true,"confidence":3},{"trial_n":92,"span":15,"encoder":"507052050940355","distractor":"507052050940352","target":"absent","response":"absent","rt":"9681.9000000954","correct":true,"confidence":3},{"trial_n":93,"span":15,"encoder":"288456918516610","distractor":"288456918516410","target":"present","response":"present","rt":"1958.8999998569","correct":true,"confidence":4},{"trial_n":94,"span":16,"encoder":"7974442074853404","distractor":"7974448074853404","target":"present","response":"present","rt":"10182","correct":true,"confidence":3},{"trial_n":95,"span":16,"encoder":"1537972483586360","distractor":"1537972483586365","target":"present","response":"present","rt":"15781.799999952","correct":true,"confidence":3},{"trial_n":96,"span":17,"encoder":"10525476789570609","distractor":"11525476789570609","target":"absent","response":"absent","rt":"9899.7000000477","correct":true,"confidence":3},{"trial_n":97,"span":17,"encoder":"90612386815873800","distractor":"90616386815873800","target":"present","response":"absent","rt":"8573.9000000954","correct":false,"confidence":3},{"trial_n":98,"span":16,"encoder":"0584715313992580","distractor":"0584715313952580","target":"present","response":"present","rt":"2883.5","correct":true,"confidence":4},{"trial_n":99,"span":16,"encoder":"1765866736826850","distractor":"1765866736827850","target":"present","response":"present","rt":"26199","correct":true,"confidence":2},{"trial_n":100,"span":17,"encoder":"00849276357815009","distractor":"00849276357815019","target":"present","response":"present","rt":"1653.5999999046","correct":true,"confidence":4},{"trial_n":101,"span":17,"encoder":"86873877643058964","distractor":"86873877743058964","target":"present","response":"present","rt":"14529.600000143","correct":true,"confidence":2},{"trial_n":102,"span":18,"encoder":"675522998980034631","distractor":"675526998980034631","target":"absent","response":"present","rt":"9715.7999999523","correct":false,"confidence":3},{"trial_n":103,"span":17,"encoder":"94912613586786231","distractor":"94917613586786231","target":"present","response":"present","rt":"13771.599999905","correct":true,"confidence":3},{"trial_n":104,"span":17,"encoder":"71076763847457585","distractor":"71076363847457585","target":"present","response":"absent","rt":"16348.599999905","correct":false,"confidence":3},{"trial_n":105,"span":16,"encoder":"7961915576274747","distractor":"7963915576274747","target":"absent","response":"present","rt":"11626.299999952","correct":false,"confidence":3},{"trial_n":106,"span":15,"encoder":"942093522623345","distractor":"942094522623345","target":"absent","response":"absent","rt":"5406.5","correct":true,"confidence":4},{"trial_n":107,"span":15,"encoder":"869522140204942","distractor":"869522100204942","target":"present","response":"absent","rt":"8087.5999999046","correct":false,"confidence":2},{"trial_n":108,"span":14,"encoder":"36188141245572","distractor":"30188141245572","target":"absent","response":"absent","rt":"3483.9000000954","correct":true,"confidence":4},{"trial_n":109,"span":14,"encoder":"36508270352999","distractor":"36708270352999","target":"absent","response":"absent","rt":"2673.7000000477","correct":true,"confidence":4},{"trial_n":110,"span":15,"encoder":"330056245390819","distractor":"330056245590819","target":"present","response":"absent","rt":"8509.0999999046","correct":false,"confidence":2},{"trial_n":111,"span":14,"encoder":"96799656044307","distractor":"96799456044307","target":"present","response":"present","rt":"5609.7999999523","correct":true,"confidence":3},{"trial_n":112,"span":14,"encoder":"31537737534989","distractor":"31537734534989","target":"present","response":"absent","rt":"15515.400000095","correct":false,"confidence":2},{"trial_n":113,"span":13,"encoder":"2848762779095","distractor":"2841762779095","target":"absent","response":"absent","rt":"10164.099999905","correct":true,"confidence":3},{"trial_n":114,"span":13,"encoder":"9099191729050","distractor":"9099491729050","target":"absent","response":"absent","rt":"9657.3999998569","correct":true,"confidence":4},{"trial_n":115,"span":14,"encoder":"81221816066821","distractor":"81227816066821","target":"present","response":"absent","rt":"11790.400000095","correct":false,"confidence":2},{"trial_n":116,"span":13,"encoder":"8189675477025","distractor":"8181675477025","target":"present","response":"absent","rt":"15364.5","correct":false,"confidence":3},{"trial_n":117,"span":12,"encoder":"449465861884","distractor":"419465861884","target":"absent","response":"absent","rt":"7612","correct":true,"confidence":3},{"trial_n":118,"span":12,"encoder":"028680066949","distractor":"068680066949","target":"present","response":"present","rt":"6764.0999999046","correct":true,"confidence":3},{"trial_n":119,"span":13,"encoder":"4988944989764","distractor":"4988944089764","target":"absent","response":"absent","rt":"5576.9000000954","correct":true,"confidence":4},{"trial_n":120,"span":13,"encoder":"2464983874295","distractor":"7464983874295","target":"present","response":"present","rt":"10139","correct":true,"confidence":4},{"trial_n":121,"span":14,"encoder":"37428208423071","distractor":"37428108423071","target":"absent","response":"absent","rt":"8339.5999999046","correct":true,"confidence":4},{"trial_n":122,"span":14,"encoder":"45869415311224","distractor":"42869415311224","target":"absent","response":"absent","rt":"11522.900000095","correct":true,"confidence":3},{"trial_n":123,"span":15,"encoder":"927899211457935","distractor":"927849211457935","target":"present","response":"present","rt":"7017.9000000954","correct":true,"confidence":3},{"trial_n":124,"span":15,"encoder":"337204119636847","distractor":"307204119636847","target":"absent","response":"absent","rt":"8045.9000000954","correct":true,"confidence":3},{"trial_n":125,"span":16,"encoder":"0326964907540481","distractor":"0326964957540481","target":"present","response":"present","rt":"10414.900000095","correct":true,"confidence":1},{"trial_n":126,"span":16,"encoder":"0661950342365410","distractor":"0661970342365410","target":"absent","response":"absent","rt":"7965.5","correct":true,"confidence":3},{"trial_n":127,"span":17,"encoder":"61096416147639404","distractor":"61096416447639404","target":"absent","response":"absent","rt":"12936.700000048","correct":true,"confidence":2},{"trial_n":128,"span":17,"encoder":"84387290551233911","distractor":"84387290541233911","target":"present","response":"absent","rt":"14762.5","correct":false,"confidence":2},{"trial_n":129,"span":16,"encoder":"1357290908795324","distractor":"1357290907795324","target":"absent","response":"absent","rt":"6029.7999999523","correct":true,"confidence":4},{"trial_n":130,"span":16,"encoder":"4139797791467816","distractor":"4139797791467811","target":"present","response":"present","rt":"3770.2000000477","correct":true,"confidence":4},{"trial_n":131,"span":17,"encoder":"95437554281331998","distractor":"95417554281331998","target":"absent","response":"absent","rt":"11685.5","correct":true,"confidence":2},{"trial_n":132,"span":17,"encoder":"59118915144741089","distractor":"59118915144721089","target":"absent","response":"absent","rt":"8367.2000000477","correct":true,"confidence":3},{"trial_n":133,"span":18,"encoder":"194835140348784232","distractor":"194875140348784232","target":"present","response":"absent","rt":"12894.100000143","correct":false,"confidence":3},{"trial_n":134,"span":17,"encoder":"32706337501773822","distractor":"12706337501773822","target":"present","response":"present","rt":"10384","correct":true,"confidence":3},{"trial_n":135,"span":17,"encoder":"04832315102257903","distractor":"04892315102257903","target":"present","response":"absent","rt":"14804.300000191","correct":false,"confidence":2},{"trial_n":136,"span":16,"encoder":"4868849559167912","distractor":"4868849557167912","target":"present","response":"absent","rt":"9523.1999998093","correct":false,"confidence":1},{"trial_n":137,"span":15,"encoder":"103684975703291","distractor":"103686975703291","target":"absent","response":"absent","rt":"5599.5999999046","correct":true,"confidence":4},{"trial_n":138,"span":15,"encoder":"123866379842141","distractor":"123866279842141","target":"absent","response":"absent","rt":"14171.600000143","correct":true,"confidence":1},{"trial_n":139,"span":16,"encoder":"2844851346213652","distractor":"2844851346213656","target":"absent","response":"absent","rt":"12470.900000095","correct":true,"confidence":4},{"trial_n":140,"span":16,"encoder":"8228940900972599","distractor":"8828940900972599","target":"absent","response":"absent","rt":"14247.700000048","correct":true,"confidence":3}]