[{"trial_n":1,"n_dots":4.25,"target":"left","response":"left","rt":7331.0999999046,"correct":true,"confidence":-1},{"trial_n":2,"n_dots":4.25,"target":"left","response":"left","rt":457.20000004768,"correct":true,"confidence":-1},{"trial_n":3,"n_dots":3.85,"target":"left","response":"left","rt":429.40000009537,"correct":true,"confidence":-1},{"trial_n":4,"n_dots":3.85,"target":"left","response":"left","rt":562.59999990463,"correct":true,"confidence":-1},{"trial_n":5,"n_dots":3.45,"target":"left","response":"left","rt":921,"correct":true,"confidence":-1},{"trial_n":6,"n_dots":3.45,"target":"left","response":"left","rt":697.70000004768,"correct":true,"confidence":-1},{"trial_n":7,"n_dots":3.05,"target":"left","response":"left","rt":590.70000004768,"correct":true,"confidence":-1},{"trial_n":8,"n_dots":3.05,"target":"right","response":"left","rt":911.79999995232,"correct":false,"confidence":-1},{"trial_n":9,"n_dots":3.25,"target":"right","response":"right","rt":738.70000004768,"correct":true,"confidence":-1},{"trial_n":10,"n_dots":3.25,"target":"left","response":"left","rt":421.79999995232,"correct":true,"confidence":-1},{"trial_n":11,"n_dots":3.05,"target":"right","response":"right","rt":455.59999990463,"correct":true,"confidence":-1},{"trial_n":12,"n_dots":3.05,"target":"left","response":"left","rt":745.29999995232,"correct":true,"confidence":-1},{"trial_n":13,"n_dots":2.95,"target":"left","response":"left","rt":440.79999995232,"correct":true,"confidence":-1},{"trial_n":14,"n_dots":2.95,"target":"right","response":"left","rt":505.5,"correct":false,"confidence":-1},{"trial_n":15,"n_dots":3.05,"target":"left","response":"left","rt":481.20000004768,"correct":true,"confidence":-1},{"trial_n":16,"n_dots":3.05,"target":"right","response":"right","rt":1106.5,"correct":true,"confidence":-1},{"trial_n":17,"n_dots":2.95,"target":"right","response":"left","rt":763.20000004768,"correct":false,"confidence":-1},{"trial_n":18,"n_dots":3.05,"target":"left","response":"left","rt":401.90000009537,"correct":true,"confidence":-1},{"trial_n":19,"n_dots":3.05,"target":"left","response":"left","rt":468.89999985695,"correct":true,"confidence":-1},{"trial_n":20,"n_dots":2.95,"target":"right","response":"right","rt":1056.7000000477,"correct":true,"confidence":-1},{"trial_n":21,"n_dots":2.95,"target":"right","response":"right","rt":905.5,"correct":true,"confidence":3},{"trial_n":22,"n_dots":2.85,"target":"left","response":"left","rt":646.59999990463,"correct":true,"confidence":3},{"trial_n":23,"n_dots":2.85,"target":"right","response":"right","rt":481,"correct":true,"confidence":3},{"trial_n":24,"n_dots":2.75,"target":"right","response":"right","rt":1405.9000000954,"correct":true,"confidence":3},{"trial_n":25,"n_dots":2.75,"target":"right","response":"left","rt":1380.2000000477,"correct":false,"confidence":2},{"trial_n":26,"n_dots":2.85,"target":"left","response":"left","rt":1789.7999999523,"correct":true,"confidence":3},{"trial_n":27,"n_dots":2.85,"target":"left","response":"left","rt":1584.7999999523,"correct":true,"confidence":2},{"trial_n":28,"n_dots":2.75,"target":"right","response":"left","rt":1561.5999999046,"correct":false,"confidence":2},{"trial_n":29,"n_dots":2.85,"target":"left","response":"right","rt":915,"correct":false,"confidence":3},{"trial_n":30,"n_dots":2.95,"target":"left","response":"left","rt":1516.7999999523,"correct":true,"confidence":3},{"trial_n":31,"n_dots":2.95,"target":"right","response":"left","rt":1004,"correct":false,"confidence":3},{"trial_n":32,"n_dots":3.05,"target":"left","response":"left","rt":1121.6999998093,"correct":true,"confidence":3},{"trial_n":33,"n_dots":3.05,"target":"right","response":"right","rt":826.10000014305,"correct":true,"confidence":3},{"trial_n":34,"n_dots":2.95,"target":"left","response":"left","rt":614.5,"correct":true,"confidence":3},{"trial_n":35,"n_dots":2.95,"target":"left","response":"right","rt":1501.5,"correct":false,"confidence":3},{"trial_n":36,"n_dots":3.05,"target":"left","response":"left","rt":684.60000014305,"correct":true,"confidence":3},{"trial_n":37,"n_dots":3.05,"target":"right","response":"right","rt":1133.3000001907,"correct":true,"confidence":3},{"trial_n":38,"n_dots":2.95,"target":"left","response":"left","rt":1225.4000000954,"correct":true,"confidence":3},{"trial_n":39,"n_dots":2.95,"target":"left","response":"left","rt":1089.1999998093,"correct":true,"confidence":2},{"trial_n":40,"n_dots":2.85,"target":"right","response":"left","rt":1362,"correct":false,"confidence":2},{"trial_n":41,"n_dots":2.95,"target":"right","response":"left","rt":1857.7999999523,"correct":false,"confidence":2},{"trial_n":42,"n_dots":3.05,"target":"left","response":"left","rt":510.20000004768,"correct":true,"confidence":3},{"trial_n":43,"n_dots":3.05,"target":"right","response":"right","rt":732.5,"correct":true,"confidence":3},{"trial_n":44,"n_dots":2.95,"target":"right","response":"right","rt":1030.2999999523,"correct":true,"confidence":3},{"trial_n":45,"n_dots":2.95,"target":"right","response":"right","rt":1035.5,"correct":true,"confidence":3},{"trial_n":46,"n_dots":2.85,"target":"right","response":"right","rt":1022.7999999523,"correct":true,"confidence":3},{"trial_n":47,"n_dots":2.85,"target":"left","response":"left","rt":816.5,"correct":true,"confidence":3},{"trial_n":48,"n_dots":2.75,"target":"right","response":"right","rt":1491.2999999523,"correct":true,"confidence":2},{"trial_n":49,"n_dots":2.75,"target":"left","response":"right","rt":517.5,"correct":false,"confidence":3},{"trial_n":50,"n_dots":2.85,"target":"left","response":"right","rt":877.59999990463,"correct":false,"confidence":3},{"trial_n":51,"n_dots":2.95,"target":"right","response":"right","rt":508.29999995232,"correct":true,"confidence":4},{"trial_n":52,"n_dots":2.95,"target":"left","response":"left","rt":610.70000004768,"correct":true,"confidence":3},{"trial_n":53,"n_dots":2.85,"target":"right","response":"right","rt":2211.4000000954,"correct":true,"confidence":2},{"trial_n":54,"n_dots":2.85,"target":"right","response":"right","rt":544.5,"correct":true,"confidence":3},{"trial_n":55,"n_dots":2.75,"target":"right","response":"right","rt":588.59999990463,"correct":true,"confidence":3},{"trial_n":56,"n_dots":2.75,"target":"left","response":"right","rt":644.29999995232,"correct":false,"confidence":3},{"trial_n":57,"n_dots":2.85,"target":"left","response":"left","rt":466.40000009537,"correct":true,"confidence":3},{"trial_n":58,"n_dots":2.85,"target":"left","response":"left","rt":703.79999995232,"correct":true,"confidence":3},{"trial_n":59,"n_dots":2.75,"target":"right","response":"right","rt":475.20000004768,"correct":true,"confidence":3},{"trial_n":60,"n_dots":2.75,"target":"left","response":"left","rt":974.5,"correct":true,"confidence":2},{"trial_n":61,"n_dots":2.65,"target":"right","response":"left","rt":1294,"correct":false,"confidence":2},{"trial_n":62,"n_dots":2.75,"target":"right","response":"right","rt":519.29999995232,"correct":true,"confidence":3},{"trial_n":63,"n_dots":2.75,"target":"left","response":"right","rt":1450.9000000954,"correct":false,"confidence":3},{"trial_n":64,"n_dots":2.85,"target":"right","response":"right","rt":730.5,"correct":true,"confidence":3},{"trial_n":65,"n_dots":2.85,"target":"left","response":"left","rt":541.5,"correct":true,"confidence":3},{"trial_n":66,"n_dots":2.75,"target":"left","response":"right","rt":1946.5,"correct":false,"confidence":2},{"trial_n":67,"n_dots":2.85,"target":"right","response":"right","rt":1004.2000000477,"correct":true,"confidence":2},{"trial_n":68,"n_dots":2.85,"target":"left","response":"left","rt":945.20000004768,"correct":true,"confidence":3},{"trial_n":69,"n_dots":2.75,"target":"right","response":"right","rt":2729.0999999046,"correct":true,"confidence":2},{"trial_n":70,"n_dots":2.75,"target":"right","response":"right","rt":830.90000009537,"correct":true,"confidence":3},{"trial_n":71,"n_dots":2.65,"target":"right","response":"right","rt":649.70000004768,"correct":true,"confidence":3},{"trial_n":72,"n_dots":2.65,"target":"right","response":"right","rt":738.70000004768,"correct":true,"confidence":3},{"trial_n":73,"n_dots":2.55,"target":"right","response":"left","rt":587.39999985695,"correct":false,"confidence":3},{"trial_n":74,"n_dots":2.65,"target":"right","response":"left","rt":1838.2000000477,"correct":false,"confidence":2},{"trial_n":75,"n_dots":2.75,"target":"left","response":"left","rt":744.20000004768,"correct":true,"confidence":3},{"trial_n":76,"n_dots":2.75,"target":"left","response":"left","rt":847.10000014305,"correct":true,"confidence":3},{"trial_n":77,"n_dots":2.65,"target":"left","response":"left","rt":455.20000004768,"correct":true,"confidence":3},{"trial_n":78,"n_dots":2.65,"target":"right","response":"right","rt":538.29999995232,"correct":true,"confidence":3},{"trial_n":79,"n_dots":2.55,"target":"left","response":"left","rt":557,"correct":true,"confidence":3},{"trial_n":80,"n_dots":2.55,"target":"left","response":"left","rt":1832.7000000477,"correct":true,"confidence":2},{"trial_n":81,"n_dots":2.45,"target":"left","response":"left","rt":604.09999990463,"correct":true,"confidence":3},{"trial_n":82,"n_dots":2.45,"target":"left","response":"left","rt":286.70000004768,"correct":true,"confidence":3},{"trial_n":83,"n_dots":2.35,"target":"right","response":"right","rt":226.39999985695,"correct":true,"confidence":3},{"trial_n":84,"n_dots":2.35,"target":"left","response":"right","rt":582.90000009537,"correct":false,"confidence":3},{"trial_n":85,"n_dots":2.45,"target":"right","response":"right","rt":831.90000009537,"correct":true,"confidence":3},{"trial_n":86,"n_dots":2.45,"target":"left","response":"right","rt":693.90000009537,"correct":false,"confidence":3},{"trial_n":87,"n_dots":2.55,"target":"left","response":"left","rt":526.29999995232,"correct":true,"confidence":3},{"trial_n":88,"n_dots":2.55,"target":"right","response":"left","rt":1222.7999999523,"correct":false,"confidence":2},{"trial_n":89,"n_dots":2.65,"target":"right","response":"left","rt":1852,"correct":false,"confidence":2},{"trial_n":90,"n_dots":2.75,"target":"left","response":"left","rt":633.70000004768,"correct":true,"confidence":3},{"trial_n":91,"n_dots":2.75,"target":"left","response":"left","rt":576.20000004768,"correct":true,"confidence":3},{"trial_n":92,"n_dots":2.65,"target":"right","response":"right","rt":674.29999995232,"correct":true,"confidence":3},{"trial_n":93,"n_dots":2.65,"target":"right","response":"right","rt":527.59999990463,"correct":true,"confidence":3},{"trial_n":94,"n_dots":2.55,"target":"left","response":"left","rt":1287.9000000954,"correct":true,"confidence":2},{"trial_n":95,"n_dots":2.55,"target":"right","response":"right","rt":978.70000004768,"correct":true,"confidence":3},{"trial_n":96,"n_dots":2.45,"target":"right","response":"left","rt":1015.4000000954,"correct":false,"confidence":3},{"trial_n":97,"n_dots":2.55,"target":"right","response":"right","rt":1102.6000001431,"correct":true,"confidence":3},{"trial_n":98,"n_dots":2.55,"target":"left","response":"left","rt":486.30000019073,"correct":true,"confidence":4},{"trial_n":99,"n_dots":2.45,"target":"left","response":"right","rt":2129.0999999046,"correct":false,"confidence":2},{"trial_n":100,"n_dots":2.55,"target":"right","response":"right","rt":896,"correct":true,"confidence":3},{"trial_n":101,"n_dots":2.55,"target":"right","response":"left","rt":879.89999985695,"correct":false,"confidence":3},{"trial_n":102,"n_dots":2.65,"target":"left","response":"left","rt":1356.3999998569,"correct":true,"confidence":3},{"trial_n":103,"n_dots":2.65,"target":"right","response":"right","rt":1045.2000000477,"correct":true,"confidence":3},{"trial_n":104,"n_dots":2.55,"target":"right","response":"right","rt":1147.3000001907,"correct":true,"confidence":3},{"trial_n":105,"n_dots":2.55,"target":"right","response":"left","rt":380.79999995232,"correct":false,"confidence":3},{"trial_n":106,"n_dots":2.65,"target":"left","response":"left","rt":483.70000004768,"correct":true,"confidence":3},{"trial_n":107,"n_dots":2.65,"target":"right","response":"right","rt":392.60000014305,"correct":true,"confidence":3},{"trial_n":108,"n_dots":2.55,"target":"right","response":"left","rt":1102.2999999523,"correct":false,"confidence":3},{"trial_n":109,"n_dots":2.65,"target":"right","response":"right","rt":1086.3999998569,"correct":true,"confidence":3},{"trial_n":110,"n_dots":2.65,"target":"left","response":"left","rt":447.29999995232,"correct":true,"confidence":3},{"trial_n":111,"n_dots":2.55,"target":"left","response":"left","rt":651.29999995232,"correct":true,"confidence":3},{"trial_n":112,"n_dots":2.55,"target":"left","response":"left","rt":503.79999995232,"correct":true,"confidence":3},{"trial_n":113,"n_dots":2.45,"target":"left","response":"left","rt":1242.0999999046,"correct":true,"confidence":4},{"trial_n":114,"n_dots":2.45,"target":"right","response":"left","rt":705,"correct":false,"confidence":3},{"trial_n":115,"n_dots":2.55,"target":"right","response":"right","rt":2841.1999998093,"correct":true,"confidence":3},{"trial_n":116,"n_dots":2.55,"target":"right","response":"left","rt":817.29999995232,"correct":false,"confidence":3},{"trial_n":117,"n_dots":2.65,"target":"right","response":"right","rt":713.79999995232,"correct":true,"confidence":3},{"trial_n":118,"n_dots":2.65,"target":"left","response":"left","rt":568.09999990463,"correct":true,"confidence":3},{"trial_n":119,"n_dots":2.55,"target":"left","response":"left","rt":1934.5999999046,"correct":true,"confidence":2},{"trial_n":120,"n_dots":2.55,"target":"right","response":"right","rt":710.29999995232,"correct":true,"confidence":3}]