[{"trial_n":1,"n_dots":4.25,"target":"left","response":"left","rt":1036.7000000179,"correct":true,"confidence":-1},{"trial_n":2,"n_dots":4.25,"target":"right","response":"right","rt":20,"correct":true,"confidence":-1},{"trial_n":3,"n_dots":3.85,"target":"left","response":"left","rt":518.40000000596,"correct":true,"confidence":-1},{"trial_n":4,"n_dots":3.85,"target":"left","response":"left","rt":176.5,"correct":true,"confidence":-1},{"trial_n":5,"n_dots":3.45,"target":"left","response":"right","rt":2789.900000006,"correct":false,"confidence":-1},{"trial_n":6,"n_dots":3.85,"target":"left","response":"left","rt":653.80000001192,"correct":true,"confidence":-1},{"trial_n":7,"n_dots":3.85,"target":"left","response":"right","rt":508.40000000596,"correct":false,"confidence":-1},{"trial_n":8,"n_dots":4.05,"target":"right","response":"right","rt":90.5,"correct":true,"confidence":-1},{"trial_n":9,"n_dots":4.05,"target":"right","response":"right","rt":282,"correct":true,"confidence":-1},{"trial_n":10,"n_dots":3.85,"target":"left","response":"left","rt":118.19999998808,"correct":true,"confidence":-1},{"trial_n":11,"n_dots":3.85,"target":"right","response":"right","rt":634.90000000596,"correct":true,"confidence":-1},{"trial_n":12,"n_dots":3.65,"target":"right","response":"left","rt":527.70000001788,"correct":false,"confidence":-1},{"trial_n":13,"n_dots":3.75,"target":"right","response":"right","rt":140.40000000596,"correct":true,"confidence":-1},{"trial_n":14,"n_dots":3.75,"target":"right","response":"right","rt":311.69999998808,"correct":true,"confidence":-1},{"trial_n":15,"n_dots":3.65,"target":"right","response":"right","rt":372.90000000596,"correct":true,"confidence":-1},{"trial_n":16,"n_dots":3.65,"target":"left","response":"left","rt":213.60000002384,"correct":true,"confidence":-1},{"trial_n":17,"n_dots":3.55,"target":"left","response":"left","rt":318.90000000596,"correct":true,"confidence":-1},{"trial_n":18,"n_dots":3.55,"target":"right","response":"right","rt":611.39999997616,"correct":true,"confidence":-1},{"trial_n":19,"n_dots":3.45,"target":"left","response":"left","rt":287.5,"correct":true,"confidence":-1},{"trial_n":20,"n_dots":3.45,"target":"left","response":"right","rt":338.90000000596,"correct":false,"confidence":-1},{"trial_n":21,"n_dots":3.55,"target":"right","response":"right","rt":866.29999998212,"correct":true,"confidence":-1},{"trial_n":22,"n_dots":3.55,"target":"left","response":"left","rt":409.90000000596,"correct":true,"confidence":-1},{"trial_n":23,"n_dots":3.45,"target":"left","response":"left","rt":471.59999999404,"correct":true,"confidence":-1},{"trial_n":24,"n_dots":3.45,"target":"left","response":"left","rt":479,"correct":true,"confidence":-1},{"trial_n":25,"n_dots":3.35,"target":"left","response":"left","rt":557,"correct":true,"confidence":-1},{"trial_n":26,"n_dots":3.35,"target":"left","response":"left","rt":389,"correct":true,"confidence":-1},{"trial_n":27,"n_dots":3.25,"target":"left","response":"right","rt":498.79999998212,"correct":false,"confidence":2},{"trial_n":28,"n_dots":3.35,"target":"left","response":"left","rt":369.09999999404,"correct":true,"confidence":2},{"trial_n":29,"n_dots":3.35,"target":"right","response":"right","rt":689.59999999404,"correct":true,"confidence":4},{"trial_n":30,"n_dots":3.25,"target":"left","response":"left","rt":425.29999998212,"correct":true,"confidence":2},{"trial_n":31,"n_dots":3.25,"target":"right","response":"right","rt":632.79999998212,"correct":true,"confidence":2},{"trial_n":32,"n_dots":3.15,"target":"left","response":"right","rt":765.70000001788,"correct":false,"confidence":2},{"trial_n":33,"n_dots":3.25,"target":"left","response":"right","rt":393.10000002384,"correct":false,"confidence":2},{"trial_n":34,"n_dots":3.35,"target":"left","response":"left","rt":324.40000000596,"correct":true,"confidence":2},{"trial_n":35,"n_dots":3.35,"target":"right","response":"right","rt":1265.6999999881,"correct":true,"confidence":2},{"trial_n":36,"n_dots":3.25,"target":"right","response":"right","rt":474.40000000596,"correct":true,"confidence":2},{"trial_n":37,"n_dots":3.25,"target":"right","response":"right","rt":141.80000001192,"correct":true,"confidence":2},{"trial_n":38,"n_dots":3.15,"target":"left","response":"right","rt":516.79999998212,"correct":false,"confidence":2},{"trial_n":39,"n_dots":3.25,"target":"left","response":"left","rt":495,"correct":true,"confidence":2},{"trial_n":40,"n_dots":3.25,"target":"right","response":"right","rt":505.5,"correct":true,"confidence":2},{"trial_n":41,"n_dots":3.15,"target":"right","response":"right","rt":42.200000017881,"correct":true,"confidence":2},{"trial_n":42,"n_dots":3.15,"target":"right","response":"left","rt":1959,"correct":false,"confidence":1},{"trial_n":43,"n_dots":3.25,"target":"right","response":"right","rt":298.79999998212,"correct":true,"confidence":2},{"trial_n":44,"n_dots":3.25,"target":"right","response":"right","rt":362,"correct":true,"confidence":2},{"trial_n":45,"n_dots":3.15,"target":"right","response":"right","rt":588.90000000596,"correct":true,"confidence":2},{"trial_n":46,"n_dots":3.15,"target":"right","response":"left","rt":486.5,"correct":false,"confidence":2},{"trial_n":47,"n_dots":3.25,"target":"left","response":"left","rt":350.30000001192,"correct":true,"confidence":2},{"trial_n":48,"n_dots":3.25,"target":"right","response":"right","rt":549.09999999404,"correct":true,"confidence":2},{"trial_n":49,"n_dots":3.15,"target":"right","response":"right","rt":549.09999999404,"correct":true,"confidence":2},{"trial_n":50,"n_dots":3.15,"target":"left","response":"right","rt":510.5,"correct":false,"confidence":2},{"trial_n":51,"n_dots":3.25,"target":"left","response":"left","rt":518,"correct":true,"confidence":2},{"trial_n":52,"n_dots":3.25,"target":"left","response":"right","rt":448.20000001788,"correct":false,"confidence":2},{"trial_n":53,"n_dots":3.35,"target":"left","response":"left","rt":402.90000000596,"correct":true,"confidence":2},{"trial_n":54,"n_dots":3.35,"target":"right","response":"right","rt":278.30000001192,"correct":true,"confidence":2},{"trial_n":55,"n_dots":3.25,"target":"right","response":"right","rt":577.09999999404,"correct":true,"confidence":2},{"trial_n":56,"n_dots":3.25,"target":"right","response":"left","rt":1483.900000006,"correct":false,"confidence":2},{"trial_n":57,"n_dots":3.35,"target":"left","response":"right","rt":377.89999997616,"correct":false,"confidence":2},{"trial_n":58,"n_dots":3.45,"target":"left","response":"left","rt":4780.400000006,"correct":true,"confidence":2},{"trial_n":59,"n_dots":3.45,"target":"left","response":"left","rt":407.70000001788,"correct":true,"confidence":2},{"trial_n":60,"n_dots":3.35,"target":"right","response":"right","rt":807.59999999404,"correct":true,"confidence":2},{"trial_n":61,"n_dots":3.35,"target":"right","response":"right","rt":54.299999982119,"correct":true,"confidence":2},{"trial_n":62,"n_dots":3.25,"target":"left","response":"left","rt":408.30000001192,"correct":true,"confidence":2},{"trial_n":63,"n_dots":3.25,"target":"right","response":"right","rt":251.70000001788,"correct":true,"confidence":2},{"trial_n":64,"n_dots":3.15,"target":"left","response":"right","rt":456.09999999404,"correct":false,"confidence":2},{"trial_n":65,"n_dots":3.25,"target":"left","response":"right","rt":366.59999999404,"correct":false,"confidence":2},{"trial_n":66,"n_dots":3.35,"target":"right","response":"left","rt":682,"correct":false,"confidence":2},{"trial_n":67,"n_dots":3.45,"target":"right","response":"right","rt":360.90000000596,"correct":true,"confidence":2},{"trial_n":68,"n_dots":3.45,"target":"right","response":"right","rt":803.09999999404,"correct":true,"confidence":2},{"trial_n":69,"n_dots":3.35,"target":"right","response":"right","rt":82.799999982119,"correct":true,"confidence":2},{"trial_n":70,"n_dots":3.35,"target":"right","response":"right","rt":557.20000001788,"correct":true,"confidence":2},{"trial_n":71,"n_dots":3.25,"target":"right","response":"right","rt":265.80000001192,"correct":true,"confidence":2},{"trial_n":72,"n_dots":3.25,"target":"left","response":"left","rt":375,"correct":true,"confidence":2},{"trial_n":73,"n_dots":3.15,"target":"right","response":"right","rt":491.5,"correct":true,"confidence":2},{"trial_n":74,"n_dots":3.15,"target":"left","response":"right","rt":381.19999998808,"correct":false,"confidence":2},{"trial_n":75,"n_dots":3.25,"target":"left","response":"right","rt":231.19999998808,"correct":false,"confidence":2},{"trial_n":76,"n_dots":3.35,"target":"right","response":"right","rt":122.30000001192,"correct":true,"confidence":2},{"trial_n":77,"n_dots":3.35,"target":"left","response":"right","rt":115.89999997616,"correct":false,"confidence":2},{"trial_n":78,"n_dots":3.45,"target":"right","response":"right","rt":8.4000000059605,"correct":true,"confidence":2},{"trial_n":79,"n_dots":3.45,"target":"left","response":"left","rt":639,"correct":true,"confidence":2},{"trial_n":80,"n_dots":3.35,"target":"right","response":"right","rt":391.5,"correct":true,"confidence":2},{"trial_n":81,"n_dots":3.35,"target":"left","response":"left","rt":892.30000001192,"correct":true,"confidence":2},{"trial_n":82,"n_dots":3.25,"target":"right","response":"right","rt":494.5,"correct":true,"confidence":2},{"trial_n":83,"n_dots":3.25,"target":"left","response":"left","rt":264.30000001192,"correct":true,"confidence":2},{"trial_n":84,"n_dots":3.15,"target":"left","response":"right","rt":194.59999999404,"correct":false,"confidence":2},{"trial_n":85,"n_dots":3.25,"target":"right","response":"left","rt":342.5,"correct":false,"confidence":2},{"trial_n":86,"n_dots":3.35,"target":"left","response":"left","rt":396.20000001788,"correct":true,"confidence":2},{"trial_n":87,"n_dots":3.35,"target":"left","response":"left","rt":334.60000002384,"correct":true,"confidence":2},{"trial_n":88,"n_dots":3.25,"target":"left","response":"right","rt":718.5,"correct":false,"confidence":2},{"trial_n":89,"n_dots":3.35,"target":"left","response":"left","rt":4159.099999994,"correct":true,"confidence":2},{"trial_n":90,"n_dots":3.35,"target":"left","response":"right","rt":506.29999998212,"correct":false,"confidence":2},{"trial_n":91,"n_dots":3.45,"target":"left","response":"left","rt":117.19999998808,"correct":true,"confidence":2},{"trial_n":92,"n_dots":3.45,"target":"right","response":"right","rt":314.80000001192,"correct":true,"confidence":2},{"trial_n":93,"n_dots":3.35,"target":"right","response":"right","rt":502.30000001192,"correct":true,"confidence":2},{"trial_n":94,"n_dots":3.35,"target":"right","response":"right","rt":193.79999998212,"correct":true,"confidence":2},{"trial_n":95,"n_dots":3.25,"target":"right","response":"right","rt":469.20000001788,"correct":true,"confidence":2},{"trial_n":96,"n_dots":3.25,"target":"left","response":"left","rt":4870.3000000119,"correct":true,"confidence":2},{"trial_n":97,"n_dots":3.15,"target":"right","response":"right","rt":95.5,"correct":true,"confidence":2},{"trial_n":98,"n_dots":3.15,"target":"right","response":"right","rt":326.59999999404,"correct":true,"confidence":2},{"trial_n":99,"n_dots":3.05,"target":"left","response":"left","rt":262.5,"correct":true,"confidence":2},{"trial_n":100,"n_dots":3.05,"target":"left","response":"right","rt":661.40000000596,"correct":false,"confidence":2},{"trial_n":101,"n_dots":3.15,"target":"right","response":"right","rt":388,"correct":true,"confidence":2},{"trial_n":102,"n_dots":3.15,"target":"left","response":"right","rt":2381.5,"correct":false,"confidence":2},{"trial_n":103,"n_dots":3.25,"target":"right","response":"right","rt":36.300000011921,"correct":true,"confidence":2},{"trial_n":104,"n_dots":3.25,"target":"right","response":"left","rt":617,"correct":false,"confidence":2},{"trial_n":105,"n_dots":3.35,"target":"right","response":"right","rt":423.70000001788,"correct":true,"confidence":2},{"trial_n":106,"n_dots":3.35,"target":"right","response":"left","rt":1213,"correct":false,"confidence":2},{"trial_n":107,"n_dots":3.45,"target":"left","response":"left","rt":5.1999999880791,"correct":true,"confidence":2},{"trial_n":108,"n_dots":3.45,"target":"left","response":"left","rt":649.5,"correct":true,"confidence":2},{"trial_n":109,"n_dots":3.35,"target":"left","response":"right","rt":579.80000001192,"correct":false,"confidence":2},{"trial_n":110,"n_dots":3.45,"target":"right","response":"right","rt":316.5,"correct":true,"confidence":2},{"trial_n":111,"n_dots":3.45,"target":"left","response":"right","rt":10816.300000012,"correct":false,"confidence":2},{"trial_n":112,"n_dots":3.55,"target":"right","response":"right","rt":319.59999999404,"correct":true,"confidence":2},{"trial_n":113,"n_dots":3.55,"target":"right","response":"right","rt":379.5,"correct":true,"confidence":2},{"trial_n":114,"n_dots":3.45,"target":"left","response":"left","rt":345.09999999404,"correct":true,"confidence":2},{"trial_n":115,"n_dots":3.45,"target":"right","response":"right","rt":413.19999998808,"correct":true,"confidence":2},{"trial_n":116,"n_dots":3.35,"target":"right","response":"right","rt":282.30000001192,"correct":true,"confidence":2},{"trial_n":117,"n_dots":3.35,"target":"right","response":"right","rt":630.59999999404,"correct":true,"confidence":2},{"trial_n":118,"n_dots":3.25,"target":"left","response":"left","rt":333.89999997616,"correct":true,"confidence":2},{"trial_n":119,"n_dots":3.25,"target":"left","response":"left","rt":309.30000001192,"correct":true,"confidence":2},{"trial_n":120,"n_dots":3.15,"target":"right","response":"right","rt":401.09999999404,"correct":true,"confidence":2},{"trial_n":121,"n_dots":3.15,"target":"right","response":"right","rt":179.40000000596,"correct":true,"confidence":2},{"trial_n":122,"n_dots":3.05,"target":"left","response":"left","rt":400.09999999404,"correct":true,"confidence":2},{"trial_n":123,"n_dots":3.05,"target":"left","response":"left","rt":723.79999998212,"correct":true,"confidence":2},{"trial_n":124,"n_dots":2.95,"target":"right","response":"right","rt":343.09999999404,"correct":true,"confidence":2},{"trial_n":125,"n_dots":2.95,"target":"right","response":"right","rt":409.79999998212,"correct":true,"confidence":2},{"trial_n":126,"n_dots":2.85,"target":"left","response":"right","rt":602.19999998808,"correct":false,"confidence":2},{"trial_n":127,"n_dots":2.95,"target":"left","response":"left","rt":303.40000000596,"correct":true,"confidence":2},{"trial_n":128,"n_dots":2.95,"target":"left","response":"left","rt":331,"correct":true,"confidence":2},{"trial_n":129,"n_dots":2.85,"target":"right","response":"right","rt":621.5,"correct":true,"confidence":2},{"trial_n":130,"n_dots":2.85,"target":"right","response":"right","rt":194.79999998212,"correct":true,"confidence":2},{"trial_n":131,"n_dots":2.75,"target":"right","response":"right","rt":453,"correct":true,"confidence":2},{"trial_n":132,"n_dots":2.75,"target":"right","response":"right","rt":552.09999999404,"correct":true,"confidence":2},{"trial_n":133,"n_dots":2.65,"target":"left","response":"left","rt":40.09999999404,"correct":true,"confidence":2},{"trial_n":134,"n_dots":2.65,"target":"right","response":"right","rt":385.20000001788,"correct":true,"confidence":2},{"trial_n":135,"n_dots":2.55,"target":"left","response":"left","rt":102.40000000596,"correct":true,"confidence":1},{"trial_n":136,"n_dots":2.55,"target":"right","response":"right","rt":725.40000000596,"correct":true,"confidence":2},{"trial_n":137,"n_dots":2.45,"target":"right","response":"right","rt":459.19999998808,"correct":true,"confidence":2},{"trial_n":138,"n_dots":2.45,"target":"right","response":"right","rt":587.39999997616,"correct":true,"confidence":2},{"trial_n":139,"n_dots":2.35,"target":"right","response":"left","rt":349.89999997616,"correct":false,"confidence":2},{"trial_n":140,"n_dots":2.45,"target":"left","response":"right","rt":278.30000001192,"correct":false,"confidence":2},{"trial_n":141,"n_dots":2.55,"target":"left","response":"left","rt":354.40000000596,"correct":true,"confidence":2},{"trial_n":142,"n_dots":2.55,"target":"left","response":"right","rt":236.90000000596,"correct":false,"confidence":2},{"trial_n":143,"n_dots":2.65,"target":"left","response":"left","rt":322.5,"correct":true,"confidence":2},{"trial_n":144,"n_dots":2.65,"target":"right","response":"right","rt":427,"correct":true,"confidence":2},{"trial_n":145,"n_dots":2.55,"target":"left","response":"left","rt":376.19999998808,"correct":true,"confidence":2},{"trial_n":146,"n_dots":2.55,"target":"right","response":"right","rt":442.39999997616,"correct":true,"confidence":2},{"trial_n":147,"n_dots":2.45,"target":"right","response":"right","rt":387.09999999404,"correct":true,"confidence":2},{"trial_n":148,"n_dots":2.45,"target":"left","response":"left","rt":454,"correct":true,"confidence":2},{"trial_n":149,"n_dots":2.35,"target":"left","response":"right","rt":414.5,"correct":false,"confidence":2},{"trial_n":150,"n_dots":2.45,"target":"right","response":"right","rt":97.90000000596,"correct":true,"confidence":2},{"trial_n":151,"n_dots":2.45,"target":"right","response":"right","rt":774.5,"correct":true,"confidence":2},{"trial_n":152,"n_dots":2.35,"target":"right","response":"right","rt":451.19999998808,"correct":true,"confidence":2},{"trial_n":153,"n_dots":2.35,"target":"left","response":"right","rt":2.7000000178814,"correct":false,"confidence":2},{"trial_n":154,"n_dots":2.45,"target":"right","response":"right","rt":152.10000002384,"correct":true,"confidence":2},{"trial_n":155,"n_dots":2.45,"target":"right","response":"right","rt":220.90000000596,"correct":true,"confidence":2},{"trial_n":156,"n_dots":2.35,"target":"left","response":"right","rt":593.5,"correct":false,"confidence":2},{"trial_n":157,"n_dots":2.45,"target":"left","response":"left","rt":2.1000000238419,"correct":true,"confidence":2},{"trial_n":158,"n_dots":2.45,"target":"left","response":"right","rt":382.90000000596,"correct":false,"confidence":2},{"trial_n":159,"n_dots":2.55,"target":"left","response":"right","rt":558.19999998808,"correct":false,"confidence":2},{"trial_n":160,"n_dots":2.65,"target":"left","response":"left","rt":527.90000000596,"correct":true,"confidence":2},{"trial_n":161,"n_dots":2.65,"target":"left","response":"right","rt":419.10000002384,"correct":false,"confidence":2},{"trial_n":162,"n_dots":2.75,"target":"left","response":"right","rt":301.10000002384,"correct":false,"confidence":2},{"trial_n":163,"n_dots":2.85,"target":"right","response":"right","rt":1108.5,"correct":true,"confidence":2},{"trial_n":164,"n_dots":2.85,"target":"right","response":"right","rt":298.30000001192,"correct":true,"confidence":2},{"trial_n":165,"n_dots":2.75,"target":"right","response":"right","rt":118.5,"correct":true,"confidence":2},{"trial_n":166,"n_dots":2.75,"target":"left","response":"left","rt":417,"correct":true,"confidence":2},{"trial_n":167,"n_dots":2.65,"target":"left","response":"right","rt":408.90000000596,"correct":false,"confidence":2},{"trial_n":168,"n_dots":2.75,"target":"left","response":"right","rt":713.30000001192,"correct":false,"confidence":2},{"trial_n":169,"n_dots":2.85,"target":"right","response":"left","rt":593.59999999404,"correct":false,"confidence":2},{"trial_n":170,"n_dots":2.95,"target":"left","response":"right","rt":31.899999976158,"correct":false,"confidence":2},{"trial_n":171,"n_dots":3.05,"target":"right","response":"right","rt":475.30000001192,"correct":true,"confidence":2},{"trial_n":172,"n_dots":3.05,"target":"left","response":"left","rt":375.19999998808,"correct":true,"confidence":2},{"trial_n":173,"n_dots":2.95,"target":"right","response":"right","rt":295.5,"correct":true,"confidence":2},{"trial_n":174,"n_dots":2.95,"target":"right","response":"left","rt":420.59999999404,"correct":false,"confidence":2},{"trial_n":175,"n_dots":3.05,"target":"right","response":"right","rt":469.39999997616,"correct":true,"confidence":2},{"trial_n":176,"n_dots":3.05,"target":"right","response":"left","rt":427.19999998808,"correct":false,"confidence":2},{"trial_n":177,"n_dots":3.15,"target":"left","response":"right","rt":5776.900000006,"correct":false,"confidence":2},{"trial_n":178,"n_dots":3.25,"target":"right","response":"left","rt":2154.7999999821,"correct":false,"confidence":2},{"trial_n":179,"n_dots":3.35,"target":"right","response":"right","rt":1163.900000006,"correct":true,"confidence":2},{"trial_n":180,"n_dots":3.35,"target":"left","response":"right","rt":395.5,"correct":false,"confidence":2},{"trial_n":181,"n_dots":3.45,"target":"right","response":"right","rt":211.20000001788,"correct":true,"confidence":2},{"trial_n":182,"n_dots":3.45,"target":"right","response":"right","rt":63.40000000596,"correct":true,"confidence":2},{"trial_n":183,"n_dots":3.35,"target":"right","response":"right","rt":649.90000000596,"correct":true,"confidence":2},{"trial_n":184,"n_dots":3.35,"target":"right","response":"right","rt":337.59999999404,"correct":true,"confidence":2},{"trial_n":185,"n_dots":3.25,"target":"left","response":"left","rt":352.80000001192,"correct":true,"confidence":2},{"trial_n":186,"n_dots":3.25,"target":"left","response":"right","rt":372.79999998212,"correct":false,"confidence":2},{"trial_n":187,"n_dots":3.35,"target":"left","response":"right","rt":356.40000000596,"correct":false,"confidence":2},{"trial_n":188,"n_dots":3.45,"target":"right","response":"right","rt":167.09999999404,"correct":true,"confidence":2},{"trial_n":189,"n_dots":3.45,"target":"left","response":"left","rt":507.20000001788,"correct":true,"confidence":2},{"trial_n":190,"n_dots":3.35,"target":"left","response":"left","rt":523.59999999404,"correct":true,"confidence":2},{"trial_n":191,"n_dots":3.35,"target":"left","response":"right","rt":390.30000001192,"correct":false,"confidence":2},{"trial_n":192,"n_dots":3.45,"target":"left","response":"right","rt":470.09999999404,"correct":false,"confidence":2},{"trial_n":193,"n_dots":3.55,"target":"right","response":"right","rt":370.60000002384,"correct":true,"confidence":2},{"trial_n":194,"n_dots":3.55,"target":"left","response":"right","rt":431.80000001192,"correct":false,"confidence":2}]