[{"trial_n":1,"n_dots":4.25,"target":"right","response":"left","rt":493.29999995232,"correct":false,"confidence":-1},{"trial_n":2,"n_dots":4.25,"target":"right","response":"left","rt":429.89999997616,"correct":false,"confidence":-1},{"trial_n":3,"n_dots":4.65,"target":"right","response":"left","rt":673.79999995232,"correct":false,"confidence":-1},{"trial_n":4,"n_dots":5.05,"target":"left","response":"left","rt":140.40000009537,"correct":true,"confidence":-1},{"trial_n":5,"n_dots":5.05,"target":"right","response":"right","rt":314.89999997616,"correct":true,"confidence":-1},{"trial_n":6,"n_dots":4.65,"target":"right","response":"right","rt":290.19999992847,"correct":true,"confidence":-1},{"trial_n":7,"n_dots":4.65,"target":"right","response":"left","rt":670.80000007153,"correct":false,"confidence":-1},{"trial_n":8,"n_dots":4.85,"target":"right","response":"right","rt":385.10000002384,"correct":true,"confidence":-1},{"trial_n":9,"n_dots":4.85,"target":"right","response":"left","rt":1798.3000000715,"correct":false,"confidence":-1},{"trial_n":10,"n_dots":5.05,"target":"left","response":"left","rt":646.20000004768,"correct":true,"confidence":-1},{"trial_n":11,"n_dots":5.05,"target":"left","response":"left","rt":277.39999997616,"correct":true,"confidence":-1},{"trial_n":12,"n_dots":4.85,"target":"right","response":"right","rt":456.89999997616,"correct":true,"confidence":-1},{"trial_n":13,"n_dots":4.85,"target":"left","response":"left","rt":89.200000047684,"correct":true,"confidence":-1},{"trial_n":14,"n_dots":4.75,"target":"left","response":"left","rt":388.39999997616,"correct":true,"confidence":-1},{"trial_n":15,"n_dots":4.75,"target":"right","response":"right","rt":158.30000007153,"correct":true,"confidence":-1},{"trial_n":16,"n_dots":4.65,"target":"right","response":"right","rt":634.20000004768,"correct":true,"confidence":-1},{"trial_n":17,"n_dots":4.65,"target":"right","response":"right","rt":415.19999992847,"correct":true,"confidence":-1},{"trial_n":18,"n_dots":4.55,"target":"left","response":"left","rt":610.39999997616,"correct":true,"confidence":-1},{"trial_n":19,"n_dots":4.55,"target":"right","response":"right","rt":473.79999995232,"correct":true,"confidence":-1},{"trial_n":20,"n_dots":4.45,"target":"right","response":"left","rt":583.90000009537,"correct":false,"confidence":-1},{"trial_n":21,"n_dots":4.55,"target":"right","response":"left","rt":913.80000007153,"correct":false,"confidence":-1},{"trial_n":22,"n_dots":4.65,"target":"right","response":"right","rt":386,"correct":true,"confidence":-1},{"trial_n":23,"n_dots":4.65,"target":"left","response":"left","rt":314.80000007153,"correct":true,"confidence":-1},{"trial_n":24,"n_dots":4.55,"target":"left","response":"left","rt":383.89999997616,"correct":true,"confidence":-1},{"trial_n":25,"n_dots":4.55,"target":"left","response":"left","rt":525.19999992847,"correct":true,"confidence":-1},{"trial_n":26,"n_dots":4.45,"target":"left","response":"left","rt":499.20000004768,"correct":true,"confidence":-1},{"trial_n":27,"n_dots":4.45,"target":"right","response":"left","rt":1117.2000000477,"correct":false,"confidence":4},{"trial_n":28,"n_dots":4.55,"target":"left","response":"left","rt":328.79999995232,"correct":true,"confidence":4},{"trial_n":29,"n_dots":4.55,"target":"left","response":"left","rt":374.29999995232,"correct":true,"confidence":4},{"trial_n":30,"n_dots":4.45,"target":"right","response":"right","rt":561.20000004768,"correct":true,"confidence":4},{"trial_n":31,"n_dots":4.45,"target":"right","response":"right","rt":343.19999992847,"correct":true,"confidence":4},{"trial_n":32,"n_dots":4.35,"target":"left","response":"left","rt":174.60000002384,"correct":true,"confidence":4},{"trial_n":33,"n_dots":4.35,"target":"left","response":"left","rt":486.60000002384,"correct":true,"confidence":4},{"trial_n":34,"n_dots":4.25,"target":"right","response":"right","rt":318.29999995232,"correct":true,"confidence":3},{"trial_n":35,"n_dots":4.25,"target":"left","response":"left","rt":328,"correct":true,"confidence":4},{"trial_n":36,"n_dots":4.15,"target":"right","response":"left","rt":513.30000007153,"correct":false,"confidence":5},{"trial_n":37,"n_dots":4.25,"target":"right","response":"right","rt":499.79999995232,"correct":true,"confidence":6},{"trial_n":38,"n_dots":4.25,"target":"right","response":"left","rt":801.30000007153,"correct":false,"confidence":2},{"trial_n":39,"n_dots":4.35,"target":"right","response":"right","rt":602.10000002384,"correct":true,"confidence":1},{"trial_n":40,"n_dots":4.35,"target":"right","response":"right","rt":645.59999990463,"correct":true,"confidence":2},{"trial_n":41,"n_dots":4.25,"target":"left","response":"left","rt":311.19999992847,"correct":true,"confidence":6},{"trial_n":42,"n_dots":4.25,"target":"right","response":"right","rt":1157.8999999762,"correct":true,"confidence":3},{"trial_n":43,"n_dots":4.15,"target":"right","response":"right","rt":438.40000009537,"correct":true,"confidence":1},{"trial_n":44,"n_dots":4.15,"target":"left","response":"left","rt":81.299999952316,"correct":true,"confidence":4},{"trial_n":45,"n_dots":4.05,"target":"right","response":"right","rt":393.5,"correct":true,"confidence":5},{"trial_n":46,"n_dots":4.05,"target":"left","response":"left","rt":239.10000002384,"correct":true,"confidence":4},{"trial_n":47,"n_dots":3.95,"target":"right","response":"left","rt":1330.2999999523,"correct":false,"confidence":2},{"trial_n":48,"n_dots":4.05,"target":"left","response":"right","rt":145.89999997616,"correct":false,"confidence":3},{"trial_n":49,"n_dots":4.15,"target":"right","response":"right","rt":224.29999995232,"correct":true,"confidence":3},{"trial_n":50,"n_dots":4.15,"target":"left","response":"left","rt":456.30000007153,"correct":true,"confidence":3},{"trial_n":51,"n_dots":4.05,"target":"right","response":"right","rt":126.5,"correct":true,"confidence":4},{"trial_n":52,"n_dots":4.05,"target":"left","response":"left","rt":566.20000004768,"correct":true,"confidence":3},{"trial_n":53,"n_dots":3.95,"target":"left","response":"left","rt":90.600000023842,"correct":true,"confidence":4},{"trial_n":54,"n_dots":3.95,"target":"left","response":"left","rt":428.29999995232,"correct":true,"confidence":3},{"trial_n":55,"n_dots":3.85,"target":"left","response":"left","rt":386.79999995232,"correct":true,"confidence":5},{"trial_n":56,"n_dots":3.85,"target":"left","response":"right","rt":599.60000002384,"correct":false,"confidence":2},{"trial_n":57,"n_dots":3.95,"target":"left","response":"left","rt":683,"correct":true,"confidence":2},{"trial_n":58,"n_dots":3.95,"target":"right","response":"right","rt":611.60000002384,"correct":true,"confidence":2},{"trial_n":59,"n_dots":3.85,"target":"left","response":"left","rt":990.89999997616,"correct":true,"confidence":2},{"trial_n":60,"n_dots":3.85,"target":"left","response":"left","rt":422.10000002384,"correct":true,"confidence":4},{"trial_n":61,"n_dots":3.75,"target":"right","response":"right","rt":1010.6000000238,"correct":true,"confidence":2},{"trial_n":62,"n_dots":3.75,"target":"left","response":"left","rt":585.89999997616,"correct":true,"confidence":3},{"trial_n":63,"n_dots":3.65,"target":"left","response":"right","rt":636.20000004768,"correct":false,"confidence":4},{"trial_n":64,"n_dots":3.75,"target":"right","response":"right","rt":557.70000004768,"correct":true,"confidence":4},{"trial_n":65,"n_dots":3.75,"target":"right","response":"right","rt":449.70000004768,"correct":true,"confidence":3},{"trial_n":66,"n_dots":3.65,"target":"left","response":"left","rt":247.89999997616,"correct":true,"confidence":4},{"trial_n":67,"n_dots":3.65,"target":"right","response":"right","rt":1503.3999999762,"correct":true,"confidence":2},{"trial_n":68,"n_dots":3.55,"target":"left","response":"left","rt":403.69999992847,"correct":true,"confidence":1},{"trial_n":69,"n_dots":3.55,"target":"left","response":"left","rt":383.19999992847,"correct":true,"confidence":6},{"trial_n":70,"n_dots":3.45,"target":"left","response":"left","rt":656.30000007153,"correct":true,"confidence":3},{"trial_n":71,"n_dots":3.45,"target":"right","response":"right","rt":717.29999995232,"correct":true,"confidence":3},{"trial_n":72,"n_dots":3.35,"target":"right","response":"right","rt":427.5,"correct":true,"confidence":2},{"trial_n":73,"n_dots":3.35,"target":"left","response":"left","rt":628.5,"correct":true,"confidence":2},{"trial_n":74,"n_dots":3.25,"target":"right","response":"right","rt":712.29999995232,"correct":true,"confidence":2},{"trial_n":75,"n_dots":3.25,"target":"right","response":"right","rt":800.30000007153,"correct":true,"confidence":2},{"trial_n":76,"n_dots":3.15,"target":"right","response":"left","rt":480.60000002384,"correct":false,"confidence":2},{"trial_n":77,"n_dots":3.25,"target":"left","response":"left","rt":325,"correct":true,"confidence":2},{"trial_n":78,"n_dots":3.25,"target":"left","response":"right","rt":1423.3999999762,"correct":false,"confidence":2},{"trial_n":79,"n_dots":3.35,"target":"right","response":"left","rt":643.20000004768,"correct":false,"confidence":1},{"trial_n":80,"n_dots":3.45,"target":"left","response":"left","rt":1141.3999999762,"correct":true,"confidence":2},{"trial_n":81,"n_dots":3.45,"target":"left","response":"left","rt":986.20000004768,"correct":true,"confidence":2},{"trial_n":82,"n_dots":3.35,"target":"right","response":"left","rt":847.20000004768,"correct":false,"confidence":2},{"trial_n":83,"n_dots":3.45,"target":"right","response":"right","rt":772.69999992847,"correct":true,"confidence":2},{"trial_n":84,"n_dots":3.45,"target":"left","response":"right","rt":1001.2999999523,"correct":false,"confidence":3},{"trial_n":85,"n_dots":3.55,"target":"right","response":"left","rt":1181.7000000477,"correct":false,"confidence":2},{"trial_n":86,"n_dots":3.65,"target":"right","response":"right","rt":567.10000002384,"correct":true,"confidence":3},{"trial_n":87,"n_dots":3.65,"target":"right","response":"right","rt":463,"correct":true,"confidence":3},{"trial_n":88,"n_dots":3.55,"target":"left","response":"left","rt":471.89999997616,"correct":true,"confidence":4},{"trial_n":89,"n_dots":3.55,"target":"right","response":"right","rt":723.79999995232,"correct":true,"confidence":2},{"trial_n":90,"n_dots":3.45,"target":"left","response":"left","rt":191.19999992847,"correct":true,"confidence":4},{"trial_n":91,"n_dots":3.45,"target":"right","response":"right","rt":581,"correct":true,"confidence":3},{"trial_n":92,"n_dots":3.35,"target":"right","response":"right","rt":840,"correct":true,"confidence":3},{"trial_n":93,"n_dots":3.35,"target":"left","response":"left","rt":94.200000047684,"correct":true,"confidence":3},{"trial_n":94,"n_dots":3.25,"target":"left","response":"left","rt":637.89999997616,"correct":true,"confidence":2},{"trial_n":95,"n_dots":3.25,"target":"right","response":"right","rt":441.29999995232,"correct":true,"confidence":3},{"trial_n":96,"n_dots":3.15,"target":"left","response":"right","rt":1372.8999999762,"correct":false,"confidence":4},{"trial_n":97,"n_dots":3.25,"target":"right","response":"left","rt":509.89999997616,"correct":false,"confidence":3},{"trial_n":98,"n_dots":3.35,"target":"left","response":"right","rt":660.60000002384,"correct":false,"confidence":4},{"trial_n":99,"n_dots":3.45,"target":"right","response":"right","rt":787.80000007153,"correct":true,"confidence":2},{"trial_n":100,"n_dots":3.45,"target":"left","response":"left","rt":287.69999992847,"correct":true,"confidence":3},{"trial_n":101,"n_dots":3.35,"target":"left","response":"right","rt":849.70000004768,"correct":false,"confidence":3},{"trial_n":102,"n_dots":3.45,"target":"left","response":"left","rt":357.89999997616,"correct":true,"confidence":3},{"trial_n":103,"n_dots":3.45,"target":"left","response":"right","rt":506.30000007153,"correct":false,"confidence":3},{"trial_n":104,"n_dots":3.55,"target":"right","response":"left","rt":569.89999997616,"correct":false,"confidence":3},{"trial_n":105,"n_dots":3.65,"target":"left","response":"left","rt":617.79999995232,"correct":true,"confidence":4},{"trial_n":106,"n_dots":3.65,"target":"right","response":"right","rt":286.10000002384,"correct":true,"confidence":3},{"trial_n":107,"n_dots":3.55,"target":"right","response":"left","rt":268.10000002384,"correct":false,"confidence":2},{"trial_n":108,"n_dots":3.65,"target":"right","response":"left","rt":469.5,"correct":false,"confidence":2},{"trial_n":109,"n_dots":3.75,"target":"left","response":"left","rt":430.60000002384,"correct":true,"confidence":4},{"trial_n":110,"n_dots":3.75,"target":"right","response":"left","rt":490.10000002384,"correct":false,"confidence":5},{"trial_n":111,"n_dots":3.85,"target":"right","response":"right","rt":870.79999995232,"correct":true,"confidence":3},{"trial_n":112,"n_dots":3.85,"target":"left","response":"left","rt":344.79999995232,"correct":true,"confidence":3},{"trial_n":113,"n_dots":3.75,"target":"left","response":"left","rt":294.60000002384,"correct":true,"confidence":5},{"trial_n":114,"n_dots":3.75,"target":"left","response":"left","rt":659.69999992847,"correct":true,"confidence":4},{"trial_n":115,"n_dots":3.65,"target":"right","response":"right","rt":721,"correct":true,"confidence":3},{"trial_n":116,"n_dots":3.65,"target":"left","response":"left","rt":312.39999997616,"correct":true,"confidence":3},{"trial_n":117,"n_dots":3.55,"target":"right","response":"left","rt":866.69999992847,"correct":false,"confidence":3},{"trial_n":118,"n_dots":3.65,"target":"left","response":"left","rt":592.69999992847,"correct":true,"confidence":4},{"trial_n":119,"n_dots":3.65,"target":"left","response":"right","rt":1093.7000000477,"correct":false,"confidence":2},{"trial_n":120,"n_dots":3.75,"target":"left","response":"left","rt":222.39999997616,"correct":true,"confidence":6},{"trial_n":121,"n_dots":3.75,"target":"left","response":"left","rt":604.29999995232,"correct":true,"confidence":3},{"trial_n":122,"n_dots":3.65,"target":"left","response":"right","rt":375.89999997616,"correct":false,"confidence":2},{"trial_n":123,"n_dots":3.75,"target":"right","response":"right","rt":564.20000004768,"correct":true,"confidence":3},{"trial_n":124,"n_dots":3.75,"target":"right","response":"right","rt":837.10000002384,"correct":true,"confidence":2},{"trial_n":125,"n_dots":3.65,"target":"left","response":"left","rt":327.39999997616,"correct":true,"confidence":3},{"trial_n":126,"n_dots":3.65,"target":"right","response":"right","rt":392,"correct":true,"confidence":2},{"trial_n":127,"n_dots":3.55,"target":"right","response":"right","rt":1276,"correct":true,"confidence":2},{"trial_n":128,"n_dots":3.55,"target":"left","response":"left","rt":314.90000009537,"correct":true,"confidence":3},{"trial_n":129,"n_dots":3.45,"target":"right","response":"right","rt":359.70000004768,"correct":true,"confidence":3},{"trial_n":130,"n_dots":3.45,"target":"right","response":"right","rt":637.70000004768,"correct":true,"confidence":2},{"trial_n":131,"n_dots":3.35,"target":"left","response":"left","rt":179.60000002384,"correct":true,"confidence":4},{"trial_n":132,"n_dots":3.35,"target":"right","response":"right","rt":632.60000002384,"correct":true,"confidence":2},{"trial_n":133,"n_dots":3.25,"target":"left","response":"left","rt":264.10000002384,"correct":true,"confidence":3},{"trial_n":134,"n_dots":3.25,"target":"left","response":"right","rt":822.20000004768,"correct":false,"confidence":3},{"trial_n":135,"n_dots":3.35,"target":"left","response":"left","rt":288.5,"correct":true,"confidence":3},{"trial_n":136,"n_dots":3.35,"target":"right","response":"right","rt":654.30000007153,"correct":true,"confidence":3},{"trial_n":137,"n_dots":3.25,"target":"left","response":"left","rt":493.5,"correct":true,"confidence":3},{"trial_n":138,"n_dots":3.25,"target":"left","response":"left","rt":647,"correct":true,"confidence":3},{"trial_n":139,"n_dots":3.15,"target":"left","response":"left","rt":464.89999997616,"correct":true,"confidence":3},{"trial_n":140,"n_dots":3.15,"target":"left","response":"right","rt":570.39999997616,"correct":false,"confidence":2},{"trial_n":141,"n_dots":3.25,"target":"right","response":"right","rt":571,"correct":true,"confidence":2},{"trial_n":142,"n_dots":3.25,"target":"left","response":"left","rt":112.69999992847,"correct":true,"confidence":2},{"trial_n":143,"n_dots":3.15,"target":"right","response":"right","rt":586,"correct":true,"confidence":3},{"trial_n":144,"n_dots":3.15,"target":"left","response":"left","rt":625.09999990463,"correct":true,"confidence":4},{"trial_n":145,"n_dots":3.05,"target":"right","response":"right","rt":812.60000002384,"correct":true,"confidence":5},{"trial_n":146,"n_dots":3.05,"target":"right","response":"right","rt":534.09999990463,"correct":true,"confidence":6},{"trial_n":147,"n_dots":2.95,"target":"right","response":"left","rt":1133,"correct":false,"confidence":2},{"trial_n":148,"n_dots":3.05,"target":"right","response":"left","rt":653.70000004768,"correct":false,"confidence":2},{"trial_n":149,"n_dots":3.15,"target":"left","response":"left","rt":969.60000002384,"correct":true,"confidence":2},{"trial_n":150,"n_dots":3.15,"target":"left","response":"right","rt":642.10000002384,"correct":false,"confidence":3},{"trial_n":151,"n_dots":3.25,"target":"right","response":"right","rt":477.70000004768,"correct":true,"confidence":3},{"trial_n":152,"n_dots":3.25,"target":"right","response":"right","rt":825.90000009537,"correct":true,"confidence":2},{"trial_n":153,"n_dots":3.15,"target":"right","response":"left","rt":728.20000004768,"correct":false,"confidence":4},{"trial_n":154,"n_dots":3.25,"target":"right","response":"left","rt":350,"correct":false,"confidence":2},{"trial_n":155,"n_dots":3.35,"target":"right","response":"right","rt":522.5,"correct":true,"confidence":2},{"trial_n":156,"n_dots":3.35,"target":"left","response":"left","rt":438,"correct":true,"confidence":2},{"trial_n":157,"n_dots":3.25,"target":"left","response":"right","rt":255.60000002384,"correct":false,"confidence":2},{"trial_n":158,"n_dots":3.35,"target":"left","response":"left","rt":409.89999997616,"correct":true,"confidence":2},{"trial_n":159,"n_dots":3.35,"target":"left","response":"left","rt":327.5,"correct":true,"confidence":2},{"trial_n":160,"n_dots":3.25,"target":"right","response":"right","rt":535.80000007153,"correct":true,"confidence":2},{"trial_n":161,"n_dots":3.25,"target":"left","response":"left","rt":791.39999997616,"correct":true,"confidence":2},{"trial_n":162,"n_dots":3.15,"target":"right","response":"left","rt":466.29999995232,"correct":false,"confidence":2},{"trial_n":163,"n_dots":3.25,"target":"right","response":"right","rt":903.30000007153,"correct":true,"confidence":2},{"trial_n":164,"n_dots":3.25,"target":"right","response":"left","rt":448.20000004768,"correct":false,"confidence":2},{"trial_n":165,"n_dots":3.35,"target":"right","response":"right","rt":132.5,"correct":true,"confidence":2},{"trial_n":166,"n_dots":3.35,"target":"left","response":"left","rt":301.19999992847,"correct":true,"confidence":2},{"trial_n":167,"n_dots":3.25,"target":"left","response":"left","rt":74.699999928474,"correct":true,"confidence":2},{"trial_n":168,"n_dots":3.25,"target":"right","response":"left","rt":98.299999952316,"correct":false,"confidence":2},{"trial_n":169,"n_dots":3.35,"target":"left","response":"left","rt":528.89999997616,"correct":true,"confidence":2},{"trial_n":170,"n_dots":3.35,"target":"left","response":"left","rt":413.89999997616,"correct":true,"confidence":2},{"trial_n":171,"n_dots":3.25,"target":"right","response":"right","rt":446.10000002384,"correct":true,"confidence":3},{"trial_n":172,"n_dots":3.25,"target":"left","response":"left","rt":38.100000023842,"correct":true,"confidence":3},{"trial_n":173,"n_dots":3.15,"target":"right","response":"right","rt":599.10000002384,"correct":true,"confidence":3},{"trial_n":174,"n_dots":3.15,"target":"left","response":"left","rt":382.5,"correct":true,"confidence":3},{"trial_n":175,"n_dots":3.05,"target":"right","response":"left","rt":531.10000002384,"correct":false,"confidence":3},{"trial_n":176,"n_dots":3.15,"target":"left","response":"left","rt":558.70000004768,"correct":true,"confidence":3},{"trial_n":177,"n_dots":3.15,"target":"left","response":"left","rt":372.5,"correct":true,"confidence":6},{"trial_n":178,"n_dots":3.05,"target":"left","response":"left","rt":350.60000002384,"correct":true,"confidence":2},{"trial_n":179,"n_dots":3.05,"target":"right","response":"right","rt":503,"correct":true,"confidence":3},{"trial_n":180,"n_dots":2.95,"target":"right","response":"left","rt":785.5,"correct":false,"confidence":2},{"trial_n":181,"n_dots":3.05,"target":"left","response":"left","rt":514.80000007153,"correct":true,"confidence":5},{"trial_n":182,"n_dots":3.05,"target":"right","response":"left","rt":156,"correct":false,"confidence":2},{"trial_n":183,"n_dots":3.15,"target":"left","response":"left","rt":229.5,"correct":true,"confidence":2},{"trial_n":184,"n_dots":3.15,"target":"right","response":"right","rt":884,"correct":true,"confidence":2},{"trial_n":185,"n_dots":3.05,"target":"left","response":"left","rt":402.69999992847,"correct":true,"confidence":2},{"trial_n":186,"n_dots":3.05,"target":"left","response":"left","rt":812.10000002384,"correct":true,"confidence":2},{"trial_n":187,"n_dots":2.95,"target":"left","response":"left","rt":186.89999997616,"correct":true,"confidence":2},{"trial_n":188,"n_dots":2.95,"target":"right","response":"left","rt":148,"correct":false,"confidence":2},{"trial_n":189,"n_dots":3.05,"target":"left","response":"right","rt":429,"correct":false,"confidence":1},{"trial_n":190,"n_dots":3.15,"target":"right","response":"right","rt":1638.7999999523,"correct":true,"confidence":2},{"trial_n":191,"n_dots":3.15,"target":"right","response":"right","rt":738.30000007153,"correct":true,"confidence":6},{"trial_n":192,"n_dots":3.05,"target":"left","response":"left","rt":253,"correct":true,"confidence":3},{"trial_n":193,"n_dots":3.05,"target":"right","response":"left","rt":740.40000009537,"correct":false,"confidence":2},{"trial_n":194,"n_dots":3.15,"target":"left","response":"right","rt":600.20000004768,"correct":false,"confidence":3}]