[{"trial_n":1,"n_dots":4.25,"target":"left","response":"left","rt":1372.5999999978,"correct":true,"confidence":-1},{"trial_n":2,"n_dots":4.25,"target":"left","response":"left","rt":480.09999999776,"correct":true,"confidence":-1},{"trial_n":3,"n_dots":3.85,"target":"left","response":"right","rt":552.19999999925,"correct":false,"confidence":-1},{"trial_n":4,"n_dots":4.25,"target":"right","response":"right","rt":613.80000000075,"correct":true,"confidence":-1},{"trial_n":5,"n_dots":4.25,"target":"right","response":"right","rt":351,"correct":true,"confidence":-1},{"trial_n":6,"n_dots":3.85,"target":"right","response":"left","rt":571.19999999925,"correct":false,"confidence":-1},{"trial_n":7,"n_dots":4.25,"target":"left","response":"left","rt":304.80000000075,"correct":true,"confidence":-1},{"trial_n":8,"n_dots":4.25,"target":"right","response":"right","rt":453.5,"correct":true,"confidence":-1},{"trial_n":9,"n_dots":4.05,"target":"left","response":"left","rt":265,"correct":true,"confidence":-1},{"trial_n":10,"n_dots":4.05,"target":"right","response":"right","rt":186.30000000075,"correct":true,"confidence":-1},{"trial_n":11,"n_dots":3.85,"target":"right","response":"right","rt":542.60000000149,"correct":true,"confidence":-1},{"trial_n":12,"n_dots":3.85,"target":"left","response":"left","rt":270.89999999851,"correct":true,"confidence":-1},{"trial_n":13,"n_dots":3.75,"target":"right","response":"right","rt":138.10000000149,"correct":true,"confidence":-1},{"trial_n":14,"n_dots":3.75,"target":"right","response":"right","rt":324.30000000075,"correct":true,"confidence":-1},{"trial_n":15,"n_dots":3.65,"target":"right","response":"left","rt":421.59999999776,"correct":false,"confidence":-1},{"trial_n":16,"n_dots":3.75,"target":"left","response":"right","rt":261.80000000075,"correct":false,"confidence":-1},{"trial_n":17,"n_dots":3.85,"target":"left","response":"left","rt":147.10000000149,"correct":true,"confidence":-1},{"trial_n":18,"n_dots":3.85,"target":"left","response":"left","rt":310.5,"correct":true,"confidence":-1},{"trial_n":19,"n_dots":3.75,"target":"right","response":"right","rt":173.59999999776,"correct":true,"confidence":-1},{"trial_n":20,"n_dots":3.75,"target":"left","response":"right","rt":99.199999999255,"correct":false,"confidence":-1},{"trial_n":21,"n_dots":3.85,"target":"right","response":"right","rt":554.20000000298,"correct":true,"confidence":-1},{"trial_n":22,"n_dots":3.85,"target":"left","response":"left","rt":363.30000000075,"correct":true,"confidence":-1},{"trial_n":23,"n_dots":3.75,"target":"right","response":"right","rt":394.69999999925,"correct":true,"confidence":-1},{"trial_n":24,"n_dots":3.75,"target":"right","response":"right","rt":790.09999999776,"correct":true,"confidence":-1},{"trial_n":25,"n_dots":3.65,"target":"left","response":"left","rt":518.39999999851,"correct":true,"confidence":-1},{"trial_n":26,"n_dots":3.65,"target":"right","response":"right","rt":173.5,"correct":true,"confidence":-1},{"trial_n":27,"n_dots":3.55,"target":"left","response":"left","rt":342.5,"correct":true,"confidence":4},{"trial_n":28,"n_dots":3.55,"target":"right","response":"right","rt":400.29999999702,"correct":true,"confidence":4},{"trial_n":29,"n_dots":3.45,"target":"left","response":"left","rt":329.89999999851,"correct":true,"confidence":4},{"trial_n":30,"n_dots":3.45,"target":"left","response":"left","rt":316.09999999776,"correct":true,"confidence":3},{"trial_n":31,"n_dots":3.35,"target":"left","response":"left","rt":470.80000000075,"correct":true,"confidence":3},{"trial_n":32,"n_dots":3.35,"target":"left","response":"right","rt":769.10000000149,"correct":false,"confidence":3},{"trial_n":33,"n_dots":3.45,"target":"left","response":"left","rt":354.29999999702,"correct":true,"confidence":5},{"trial_n":34,"n_dots":3.45,"target":"left","response":"right","rt":777.80000000075,"correct":false,"confidence":3},{"trial_n":35,"n_dots":3.55,"target":"right","response":"right","rt":468.09999999776,"correct":true,"confidence":4},{"trial_n":36,"n_dots":3.55,"target":"left","response":"left","rt":461.80000000075,"correct":true,"confidence":3},{"trial_n":37,"n_dots":3.45,"target":"right","response":"right","rt":478.89999999851,"correct":true,"confidence":3},{"trial_n":38,"n_dots":3.45,"target":"left","response":"left","rt":289.39999999851,"correct":true,"confidence":4},{"trial_n":39,"n_dots":3.35,"target":"left","response":"right","rt":638.80000000075,"correct":false,"confidence":4},{"trial_n":40,"n_dots":3.45,"target":"left","response":"left","rt":424.39999999851,"correct":true,"confidence":4},{"trial_n":41,"n_dots":3.45,"target":"left","response":"left","rt":297.70000000298,"correct":true,"confidence":4},{"trial_n":42,"n_dots":3.35,"target":"left","response":"left","rt":307.10000000149,"correct":true,"confidence":4},{"trial_n":43,"n_dots":3.35,"target":"left","response":"left","rt":301.5,"correct":true,"confidence":4},{"trial_n":44,"n_dots":3.25,"target":"left","response":"left","rt":324.89999999851,"correct":true,"confidence":4},{"trial_n":45,"n_dots":3.25,"target":"left","response":"left","rt":162.19999999925,"correct":true,"confidence":4},{"trial_n":46,"n_dots":3.15,"target":"left","response":"right","rt":413.5,"correct":false,"confidence":4},{"trial_n":47,"n_dots":3.25,"target":"left","response":"left","rt":475.89999999851,"correct":true,"confidence":4},{"trial_n":48,"n_dots":3.25,"target":"left","response":"left","rt":361.90000000224,"correct":true,"confidence":4},{"trial_n":49,"n_dots":3.15,"target":"right","response":"left","rt":309.5,"correct":false,"confidence":4},{"trial_n":50,"n_dots":3.25,"target":"right","response":"right","rt":417.89999999851,"correct":true,"confidence":4},{"trial_n":51,"n_dots":3.25,"target":"right","response":"right","rt":596.30000000075,"correct":true,"confidence":3},{"trial_n":52,"n_dots":3.15,"target":"right","response":"right","rt":377.80000000075,"correct":true,"confidence":3},{"trial_n":53,"n_dots":3.15,"target":"right","response":"left","rt":498,"correct":false,"confidence":3},{"trial_n":54,"n_dots":3.25,"target":"left","response":"left","rt":309.89999999851,"correct":true,"confidence":3},{"trial_n":55,"n_dots":3.25,"target":"left","response":"left","rt":176.80000000075,"correct":true,"confidence":4},{"trial_n":56,"n_dots":3.15,"target":"left","response":"left","rt":424.30000000075,"correct":true,"confidence":5},{"trial_n":57,"n_dots":3.15,"target":"right","response":"right","rt":331.80000000075,"correct":true,"confidence":6},{"trial_n":58,"n_dots":3.05,"target":"right","response":"right","rt":638.89999999851,"correct":true,"confidence":3},{"trial_n":59,"n_dots":3.05,"target":"left","response":"left","rt":313,"correct":true,"confidence":3},{"trial_n":60,"n_dots":2.95,"target":"right","response":"right","rt":240.10000000149,"correct":true,"confidence":6},{"trial_n":61,"n_dots":2.95,"target":"right","response":"left","rt":659.10000000149,"correct":false,"confidence":5},{"trial_n":62,"n_dots":3.05,"target":"right","response":"right","rt":329.29999999702,"correct":true,"confidence":6},{"trial_n":63,"n_dots":3.05,"target":"right","response":"right","rt":674.39999999851,"correct":true,"confidence":6},{"trial_n":64,"n_dots":2.95,"target":"right","response":"right","rt":256.5,"correct":true,"confidence":6},{"trial_n":65,"n_dots":2.95,"target":"right","response":"right","rt":214.60000000149,"correct":true,"confidence":6},{"trial_n":66,"n_dots":2.85,"target":"left","response":"left","rt":462.10000000149,"correct":true,"confidence":4},{"trial_n":67,"n_dots":2.85,"target":"left","response":"left","rt":381.69999999925,"correct":true,"confidence":4},{"trial_n":68,"n_dots":2.75,"target":"right","response":"right","rt":390.69999999925,"correct":true,"confidence":6},{"trial_n":69,"n_dots":2.75,"target":"right","response":"right","rt":459.10000000149,"correct":true,"confidence":4},{"trial_n":70,"n_dots":2.65,"target":"right","response":"left","rt":355,"correct":false,"confidence":4},{"trial_n":71,"n_dots":2.75,"target":"left","response":"right","rt":345.39999999851,"correct":false,"confidence":4},{"trial_n":72,"n_dots":2.85,"target":"right","response":"right","rt":517.80000000075,"correct":true,"confidence":4},{"trial_n":73,"n_dots":2.85,"target":"right","response":"right","rt":362.19999999925,"correct":true,"confidence":4},{"trial_n":74,"n_dots":2.75,"target":"left","response":"left","rt":448.5,"correct":true,"confidence":4},{"trial_n":75,"n_dots":2.75,"target":"left","response":"left","rt":314,"correct":true,"confidence":4},{"trial_n":76,"n_dots":2.65,"target":"left","response":"left","rt":303.30000000075,"correct":true,"confidence":4},{"trial_n":77,"n_dots":2.65,"target":"left","response":"right","rt":1205.6999999993,"correct":false,"confidence":4},{"trial_n":78,"n_dots":2.75,"target":"left","response":"left","rt":261.40000000224,"correct":true,"confidence":4},{"trial_n":79,"n_dots":2.75,"target":"right","response":"left","rt":639.5,"correct":false,"confidence":3},{"trial_n":80,"n_dots":2.85,"target":"right","response":"left","rt":619.79999999702,"correct":false,"confidence":3},{"trial_n":81,"n_dots":2.95,"target":"right","response":"right","rt":300.19999999925,"correct":true,"confidence":4},{"trial_n":82,"n_dots":2.95,"target":"left","response":"left","rt":762.69999999925,"correct":true,"confidence":3},{"trial_n":83,"n_dots":2.85,"target":"left","response":"left","rt":94.10000000149,"correct":true,"confidence":4},{"trial_n":84,"n_dots":2.85,"target":"right","response":"left","rt":312.29999999702,"correct":false,"confidence":3},{"trial_n":85,"n_dots":2.95,"target":"left","response":"right","rt":691.69999999925,"correct":false,"confidence":4},{"trial_n":86,"n_dots":3.05,"target":"left","response":"left","rt":629.19999999925,"correct":true,"confidence":5},{"trial_n":87,"n_dots":3.05,"target":"left","response":"left","rt":391.20000000298,"correct":true,"confidence":4},{"trial_n":88,"n_dots":2.95,"target":"left","response":"right","rt":701,"correct":false,"confidence":5},{"trial_n":89,"n_dots":3.05,"target":"right","response":"right","rt":420.29999999702,"correct":true,"confidence":4},{"trial_n":90,"n_dots":3.05,"target":"left","response":"left","rt":549.69999999925,"correct":true,"confidence":4},{"trial_n":91,"n_dots":2.95,"target":"right","response":"right","rt":227.20000000298,"correct":true,"confidence":5},{"trial_n":92,"n_dots":2.95,"target":"left","response":"left","rt":494.30000000075,"correct":true,"confidence":4},{"trial_n":93,"n_dots":2.85,"target":"left","response":"right","rt":573.80000000075,"correct":false,"confidence":4},{"trial_n":94,"n_dots":2.95,"target":"right","response":"right","rt":643.30000000075,"correct":true,"confidence":4},{"trial_n":95,"n_dots":2.95,"target":"right","response":"right","rt":1728.4000000022,"correct":true,"confidence":4},{"trial_n":96,"n_dots":2.85,"target":"right","response":"right","rt":7389,"correct":true,"confidence":3},{"trial_n":97,"n_dots":2.85,"target":"left","response":"left","rt":489.40000000224,"correct":true,"confidence":5},{"trial_n":98,"n_dots":2.75,"target":"left","response":"left","rt":234.5,"correct":true,"confidence":4},{"trial_n":99,"n_dots":2.75,"target":"left","response":"left","rt":44.79999999702,"correct":true,"confidence":4},{"trial_n":100,"n_dots":2.65,"target":"left","response":"right","rt":477.09999999776,"correct":false,"confidence":4},{"trial_n":101,"n_dots":2.75,"target":"right","response":"left","rt":389.20000000298,"correct":false,"confidence":5},{"trial_n":102,"n_dots":2.85,"target":"right","response":"left","rt":462.89999999851,"correct":false,"confidence":4},{"trial_n":103,"n_dots":2.95,"target":"left","response":"left","rt":371.30000000075,"correct":true,"confidence":4},{"trial_n":104,"n_dots":2.95,"target":"right","response":"right","rt":241.59999999776,"correct":true,"confidence":4},{"trial_n":105,"n_dots":2.85,"target":"right","response":"right","rt":250.79999999702,"correct":true,"confidence":5},{"trial_n":106,"n_dots":2.85,"target":"right","response":"right","rt":586.30000000075,"correct":true,"confidence":4},{"trial_n":107,"n_dots":2.75,"target":"left","response":"left","rt":386.20000000298,"correct":true,"confidence":5},{"trial_n":108,"n_dots":2.75,"target":"left","response":"left","rt":313,"correct":true,"confidence":6},{"trial_n":109,"n_dots":2.65,"target":"left","response":"left","rt":644.30000000075,"correct":true,"confidence":4},{"trial_n":110,"n_dots":2.65,"target":"right","response":"right","rt":426.80000000075,"correct":true,"confidence":5},{"trial_n":111,"n_dots":2.55,"target":"left","response":"left","rt":567.19999999925,"correct":true,"confidence":4},{"trial_n":112,"n_dots":2.55,"target":"left","response":"left","rt":579.69999999925,"correct":true,"confidence":3},{"trial_n":113,"n_dots":2.45,"target":"right","response":"right","rt":368,"correct":true,"confidence":3},{"trial_n":114,"n_dots":2.45,"target":"left","response":"left","rt":383.39999999851,"correct":true,"confidence":4},{"trial_n":115,"n_dots":2.35,"target":"left","response":"right","rt":214.69999999925,"correct":false,"confidence":4},{"trial_n":116,"n_dots":2.45,"target":"left","response":"left","rt":439.19999999925,"correct":true,"confidence":4},{"trial_n":117,"n_dots":2.45,"target":"right","response":"right","rt":519.29999999702,"correct":true,"confidence":3},{"trial_n":118,"n_dots":2.35,"target":"right","response":"left","rt":480.80000000075,"correct":false,"confidence":3},{"trial_n":119,"n_dots":2.45,"target":"right","response":"left","rt":409.30000000075,"correct":false,"confidence":2},{"trial_n":120,"n_dots":2.55,"target":"right","response":"right","rt":378.29999999702,"correct":true,"confidence":3},{"trial_n":121,"n_dots":2.55,"target":"right","response":"left","rt":673.89999999851,"correct":false,"confidence":3},{"trial_n":122,"n_dots":2.65,"target":"right","response":"right","rt":286.30000000075,"correct":true,"confidence":4},{"trial_n":123,"n_dots":2.65,"target":"left","response":"left","rt":585.59999999776,"correct":true,"confidence":1},{"trial_n":124,"n_dots":2.55,"target":"left","response":"left","rt":547,"correct":true,"confidence":2},{"trial_n":125,"n_dots":2.55,"target":"right","response":"right","rt":462.29999999702,"correct":true,"confidence":3},{"trial_n":126,"n_dots":2.45,"target":"left","response":"right","rt":447.30000000075,"correct":false,"confidence":3},{"trial_n":127,"n_dots":2.55,"target":"left","response":"left","rt":172.10000000149,"correct":true,"confidence":3},{"trial_n":128,"n_dots":2.55,"target":"left","response":"right","rt":471.5,"correct":false,"confidence":3},{"trial_n":129,"n_dots":2.65,"target":"right","response":"left","rt":361.5,"correct":false,"confidence":4},{"trial_n":130,"n_dots":2.75,"target":"right","response":"right","rt":251.20000000298,"correct":true,"confidence":5},{"trial_n":131,"n_dots":2.75,"target":"left","response":"left","rt":596.39999999851,"correct":true,"confidence":2},{"trial_n":132,"n_dots":2.65,"target":"right","response":"left","rt":792.79999999702,"correct":false,"confidence":1},{"trial_n":133,"n_dots":2.75,"target":"left","response":"left","rt":193,"correct":true,"confidence":6},{"trial_n":134,"n_dots":2.75,"target":"right","response":"right","rt":478.60000000149,"correct":true,"confidence":4},{"trial_n":135,"n_dots":2.65,"target":"left","response":"right","rt":1200,"correct":false,"confidence":5},{"trial_n":136,"n_dots":2.75,"target":"right","response":"left","rt":329.19999999925,"correct":false,"confidence":3},{"trial_n":137,"n_dots":2.85,"target":"right","response":"right","rt":315.69999999925,"correct":true,"confidence":3},{"trial_n":138,"n_dots":2.85,"target":"right","response":"right","rt":254,"correct":true,"confidence":3},{"trial_n":139,"n_dots":2.75,"target":"right","response":"right","rt":1518.3999999985,"correct":true,"confidence":2},{"trial_n":140,"n_dots":2.75,"target":"left","response":"left","rt":439.69999999925,"correct":true,"confidence":5},{"trial_n":141,"n_dots":2.65,"target":"right","response":"right","rt":336,"correct":true,"confidence":4},{"trial_n":142,"n_dots":2.65,"target":"left","response":"left","rt":381.69999999925,"correct":true,"confidence":4},{"trial_n":143,"n_dots":2.55,"target":"right","response":"right","rt":2370.1999999993,"correct":true,"confidence":4},{"trial_n":144,"n_dots":2.55,"target":"left","response":"left","rt":454.80000000075,"correct":true,"confidence":3},{"trial_n":145,"n_dots":2.45,"target":"right","response":"right","rt":262.90000000224,"correct":true,"confidence":3},{"trial_n":146,"n_dots":2.45,"target":"left","response":"left","rt":1624.6999999993,"correct":true,"confidence":3},{"trial_n":147,"n_dots":2.35,"target":"left","response":"left","rt":476,"correct":true,"confidence":1},{"trial_n":148,"n_dots":2.35,"target":"left","response":"left","rt":485.19999999925,"correct":true,"confidence":3},{"trial_n":149,"n_dots":2.25,"target":"left","response":"right","rt":835.69999999925,"correct":false,"confidence":3},{"trial_n":150,"n_dots":2.35,"target":"right","response":"right","rt":1444.1000000015,"correct":true,"confidence":4},{"trial_n":151,"n_dots":2.35,"target":"right","response":"right","rt":425.69999999925,"correct":true,"confidence":3},{"trial_n":152,"n_dots":2.25,"target":"right","response":"left","rt":359,"correct":false,"confidence":4},{"trial_n":153,"n_dots":2.35,"target":"right","response":"right","rt":249.39999999851,"correct":true,"confidence":4},{"trial_n":154,"n_dots":2.35,"target":"left","response":"right","rt":452.69999999925,"correct":false,"confidence":4},{"trial_n":155,"n_dots":2.45,"target":"left","response":"left","rt":326.10000000149,"correct":true,"confidence":4},{"trial_n":156,"n_dots":2.45,"target":"right","response":"right","rt":852.5,"correct":true,"confidence":4},{"trial_n":157,"n_dots":2.35,"target":"right","response":"left","rt":192.80000000075,"correct":false,"confidence":4},{"trial_n":158,"n_dots":2.45,"target":"left","response":"left","rt":412,"correct":true,"confidence":3},{"trial_n":159,"n_dots":2.45,"target":"right","response":"right","rt":238.39999999851,"correct":true,"confidence":5},{"trial_n":160,"n_dots":2.35,"target":"right","response":"left","rt":367.80000000075,"correct":false,"confidence":3},{"trial_n":161,"n_dots":2.45,"target":"right","response":"right","rt":1488.3000000007,"correct":true,"confidence":3},{"trial_n":162,"n_dots":2.45,"target":"right","response":"left","rt":463.69999999925,"correct":false,"confidence":3},{"trial_n":163,"n_dots":2.55,"target":"left","response":"left","rt":404.89999999851,"correct":true,"confidence":3},{"trial_n":164,"n_dots":2.55,"target":"right","response":"right","rt":550.39999999851,"correct":true,"confidence":2},{"trial_n":165,"n_dots":2.45,"target":"right","response":"right","rt":555.79999999702,"correct":true,"confidence":3},{"trial_n":166,"n_dots":2.45,"target":"right","response":"right","rt":534.19999999925,"correct":true,"confidence":3},{"trial_n":167,"n_dots":2.35,"target":"right","response":"right","rt":429.60000000149,"correct":true,"confidence":3},{"trial_n":168,"n_dots":2.35,"target":"left","response":"left","rt":629,"correct":true,"confidence":3},{"trial_n":169,"n_dots":2.25,"target":"left","response":"right","rt":392.19999999925,"correct":false,"confidence":2},{"trial_n":170,"n_dots":2.35,"target":"right","response":"left","rt":506.40000000224,"correct":false,"confidence":2},{"trial_n":171,"n_dots":2.45,"target":"right","response":"left","rt":554.89999999851,"correct":false,"confidence":2},{"trial_n":172,"n_dots":2.55,"target":"right","response":"left","rt":358.30000000075,"correct":false,"confidence":3},{"trial_n":173,"n_dots":2.65,"target":"right","response":"left","rt":1013.6999999993,"correct":false,"confidence":1},{"trial_n":174,"n_dots":2.75,"target":"left","response":"left","rt":590.10000000149,"correct":true,"confidence":5},{"trial_n":175,"n_dots":2.75,"target":"right","response":"right","rt":168.39999999851,"correct":true,"confidence":4},{"trial_n":176,"n_dots":2.65,"target":"left","response":"left","rt":852.80000000075,"correct":true,"confidence":3},{"trial_n":177,"n_dots":2.65,"target":"left","response":"left","rt":330.10000000149,"correct":true,"confidence":4},{"trial_n":178,"n_dots":2.55,"target":"left","response":"left","rt":609.39999999851,"correct":true,"confidence":4},{"trial_n":179,"n_dots":2.55,"target":"left","response":"right","rt":423.69999999925,"correct":false,"confidence":5},{"trial_n":180,"n_dots":2.65,"target":"right","response":"left","rt":439.30000000075,"correct":false,"confidence":4},{"trial_n":181,"n_dots":2.75,"target":"right","response":"right","rt":277.89999999851,"correct":true,"confidence":4},{"trial_n":182,"n_dots":2.75,"target":"left","response":"right","rt":990,"correct":false,"confidence":4},{"trial_n":183,"n_dots":2.85,"target":"right","response":"left","rt":693.60000000149,"correct":false,"confidence":4},{"trial_n":184,"n_dots":2.95,"target":"left","response":"right","rt":352.89999999851,"correct":false,"confidence":4},{"trial_n":185,"n_dots":3.05,"target":"right","response":"right","rt":185.30000000075,"correct":true,"confidence":4},{"trial_n":186,"n_dots":3.05,"target":"right","response":"right","rt":73.5,"correct":true,"confidence":4},{"trial_n":187,"n_dots":2.95,"target":"left","response":"left","rt":210.89999999851,"correct":true,"confidence":4},{"trial_n":188,"n_dots":2.95,"target":"left","response":"left","rt":209.19999999925,"correct":true,"confidence":3},{"trial_n":189,"n_dots":2.85,"target":"right","response":"right","rt":484.5,"correct":true,"confidence":3},{"trial_n":190,"n_dots":2.85,"target":"left","response":"right","rt":490.80000000075,"correct":false,"confidence":3},{"trial_n":191,"n_dots":2.95,"target":"right","response":"right","rt":241.30000000075,"correct":true,"confidence":3},{"trial_n":192,"n_dots":2.95,"target":"right","response":"right","rt":419.5,"correct":true,"confidence":4},{"trial_n":193,"n_dots":2.85,"target":"left","response":"left","rt":314.59999999776,"correct":true,"confidence":4},{"trial_n":194,"n_dots":2.85,"target":"right","response":"right","rt":276.30000000075,"correct":true,"confidence":5}]