[{"trial_n":1,"n_dots":4.25,"target":"right","response":"left","rt":9721.1000000238,"correct":false,"confidence":-1},{"trial_n":2,"n_dots":4.25,"target":"right","response":"right","rt":1232.3999999762,"correct":true,"confidence":-1},{"trial_n":3,"n_dots":4.25,"target":"right","response":"right","rt":682.29999995232,"correct":true,"confidence":-1},{"trial_n":4,"n_dots":3.85,"target":"right","response":"right","rt":354.89999997616,"correct":true,"confidence":-1},{"trial_n":5,"n_dots":3.85,"target":"right","response":"right","rt":556.20000004768,"correct":true,"confidence":-1},{"trial_n":6,"n_dots":3.45,"target":"right","response":"right","rt":536.19999992847,"correct":true,"confidence":-1},{"trial_n":7,"n_dots":3.45,"target":"right","response":"right","rt":1162.8999999762,"correct":true,"confidence":-1},{"trial_n":8,"n_dots":3.25,"target":"right","response":"left","rt":464.70000004768,"correct":false,"confidence":-1},{"trial_n":9,"n_dots":3.45,"target":"left","response":"right","rt":2010.1000000238,"correct":false,"confidence":-1},{"trial_n":10,"n_dots":3.65,"target":"right","response":"left","rt":749.5,"correct":false,"confidence":-1},{"trial_n":11,"n_dots":3.85,"target":"left","response":"left","rt":117.29999995232,"correct":true,"confidence":-1},{"trial_n":12,"n_dots":3.85,"target":"right","response":"right","rt":561.60000002384,"correct":true,"confidence":-1},{"trial_n":13,"n_dots":3.75,"target":"right","response":"right","rt":422.60000002384,"correct":true,"confidence":-1},{"trial_n":14,"n_dots":3.75,"target":"right","response":"right","rt":373.70000004768,"correct":true,"confidence":-1},{"trial_n":15,"n_dots":3.65,"target":"left","response":"left","rt":712.5,"correct":true,"confidence":-1},{"trial_n":16,"n_dots":3.65,"target":"left","response":"left","rt":353.10000002384,"correct":true,"confidence":-1},{"trial_n":17,"n_dots":3.55,"target":"right","response":"right","rt":366.19999992847,"correct":true,"confidence":-1},{"trial_n":18,"n_dots":3.55,"target":"left","response":"left","rt":324.79999995232,"correct":true,"confidence":-1},{"trial_n":19,"n_dots":3.45,"target":"left","response":"left","rt":92.5,"correct":true,"confidence":-1},{"trial_n":20,"n_dots":3.45,"target":"left","response":"left","rt":294.70000004768,"correct":true,"confidence":-1},{"trial_n":21,"n_dots":3.35,"target":"left","response":"left","rt":231.79999995232,"correct":true,"confidence":-1},{"trial_n":22,"n_dots":3.35,"target":"left","response":"left","rt":180.60000002384,"correct":true,"confidence":-1},{"trial_n":23,"n_dots":3.25,"target":"right","response":"left","rt":151.20000004768,"correct":false,"confidence":-1},{"trial_n":24,"n_dots":3.35,"target":"left","response":"left","rt":384,"correct":true,"confidence":-1},{"trial_n":25,"n_dots":3.35,"target":"left","response":"left","rt":224,"correct":true,"confidence":-1},{"trial_n":26,"n_dots":3.25,"target":"right","response":"right","rt":376.89999997616,"correct":true,"confidence":-1},{"trial_n":27,"n_dots":3.25,"target":"right","response":"right","rt":235.90000009537,"correct":true,"confidence":5},{"trial_n":28,"n_dots":3.15,"target":"right","response":"left","rt":1794,"correct":false,"confidence":2},{"trial_n":29,"n_dots":3.25,"target":"right","response":"right","rt":323.39999997616,"correct":true,"confidence":4},{"trial_n":30,"n_dots":3.25,"target":"left","response":"left","rt":312.30000007153,"correct":true,"confidence":5},{"trial_n":31,"n_dots":3.15,"target":"left","response":"left","rt":1001.1000000238,"correct":true,"confidence":3},{"trial_n":32,"n_dots":3.15,"target":"left","response":"left","rt":317,"correct":true,"confidence":4},{"trial_n":33,"n_dots":3.05,"target":"left","response":"left","rt":1996.5,"correct":true,"confidence":2},{"trial_n":34,"n_dots":3.05,"target":"right","response":"left","rt":1164.3999999762,"correct":false,"confidence":3},{"trial_n":35,"n_dots":3.15,"target":"right","response":"right","rt":435,"correct":true,"confidence":4},{"trial_n":36,"n_dots":3.15,"target":"left","response":"left","rt":379.39999997616,"correct":true,"confidence":6},{"trial_n":37,"n_dots":3.05,"target":"right","response":"right","rt":1568.6999999285,"correct":true,"confidence":3},{"trial_n":38,"n_dots":3.05,"target":"left","response":"left","rt":540.20000004768,"correct":true,"confidence":3},{"trial_n":39,"n_dots":2.95,"target":"right","response":"right","rt":2364.3999999762,"correct":true,"confidence":2},{"trial_n":40,"n_dots":2.95,"target":"left","response":"right","rt":1024.2999999523,"correct":false,"confidence":2},{"trial_n":41,"n_dots":3.05,"target":"right","response":"right","rt":2178.7999999523,"correct":true,"confidence":1},{"trial_n":42,"n_dots":3.05,"target":"right","response":"right","rt":951.89999997616,"correct":true,"confidence":2},{"trial_n":43,"n_dots":2.95,"target":"left","response":"left","rt":904.10000002384,"correct":true,"confidence":3},{"trial_n":44,"n_dots":2.95,"target":"left","response":"left","rt":991,"correct":true,"confidence":4},{"trial_n":45,"n_dots":2.85,"target":"right","response":"right","rt":393.10000002384,"correct":true,"confidence":2},{"trial_n":46,"n_dots":2.85,"target":"left","response":"left","rt":1298.7999999523,"correct":true,"confidence":1},{"trial_n":47,"n_dots":2.75,"target":"left","response":"right","rt":999.89999997616,"correct":false,"confidence":2},{"trial_n":48,"n_dots":2.85,"target":"right","response":"left","rt":1050.7000000477,"correct":false,"confidence":2},{"trial_n":49,"n_dots":2.95,"target":"left","response":"left","rt":910,"correct":true,"confidence":4},{"trial_n":50,"n_dots":2.95,"target":"right","response":"right","rt":934.79999995232,"correct":true,"confidence":3},{"trial_n":51,"n_dots":2.85,"target":"right","response":"right","rt":999,"correct":true,"confidence":3},{"trial_n":52,"n_dots":2.85,"target":"left","response":"left","rt":214.19999992847,"correct":true,"confidence":4},{"trial_n":53,"n_dots":2.75,"target":"left","response":"left","rt":354.10000002384,"correct":true,"confidence":3},{"trial_n":54,"n_dots":2.75,"target":"right","response":"left","rt":772.80000007153,"correct":false,"confidence":3},{"trial_n":55,"n_dots":2.85,"target":"right","response":"left","rt":308,"correct":false,"confidence":2},{"trial_n":56,"n_dots":2.95,"target":"right","response":"left","rt":1515.2999999523,"correct":false,"confidence":1},{"trial_n":57,"n_dots":3.05,"target":"left","response":"left","rt":783.20000004768,"correct":true,"confidence":1},{"trial_n":58,"n_dots":3.05,"target":"right","response":"right","rt":625.79999995232,"correct":true,"confidence":3},{"trial_n":59,"n_dots":2.95,"target":"left","response":"right","rt":270.70000004768,"correct":false,"confidence":2},{"trial_n":60,"n_dots":3.05,"target":"left","response":"left","rt":1164.3999999762,"correct":true,"confidence":1},{"trial_n":61,"n_dots":3.05,"target":"right","response":"right","rt":273.29999995232,"correct":true,"confidence":5},{"trial_n":62,"n_dots":2.95,"target":"right","response":"right","rt":745.70000004768,"correct":true,"confidence":4},{"trial_n":63,"n_dots":2.95,"target":"left","response":"left","rt":178,"correct":true,"confidence":5},{"trial_n":64,"n_dots":2.85,"target":"left","response":"right","rt":512.39999997616,"correct":false,"confidence":2},{"trial_n":65,"n_dots":2.95,"target":"right","response":"right","rt":306.80000007153,"correct":true,"confidence":4},{"trial_n":66,"n_dots":2.95,"target":"left","response":"right","rt":1211.1000000238,"correct":false,"confidence":2},{"trial_n":67,"n_dots":3.05,"target":"right","response":"right","rt":284.10000002384,"correct":true,"confidence":4},{"trial_n":68,"n_dots":3.05,"target":"right","response":"right","rt":321.80000007153,"correct":true,"confidence":4},{"trial_n":69,"n_dots":2.95,"target":"right","response":"right","rt":398.79999995232,"correct":true,"confidence":3},{"trial_n":70,"n_dots":2.95,"target":"left","response":"right","rt":1476.2999999523,"correct":false,"confidence":1},{"trial_n":71,"n_dots":3.05,"target":"right","response":"right","rt":239.79999995232,"correct":true,"confidence":5},{"trial_n":72,"n_dots":3.05,"target":"left","response":"left","rt":460.39999997616,"correct":true,"confidence":2},{"trial_n":73,"n_dots":2.95,"target":"right","response":"right","rt":801.70000004768,"correct":true,"confidence":3},{"trial_n":74,"n_dots":2.95,"target":"left","response":"right","rt":1066.2999999523,"correct":false,"confidence":3},{"trial_n":75,"n_dots":3.05,"target":"left","response":"left","rt":1304,"correct":true,"confidence":1},{"trial_n":76,"n_dots":3.05,"target":"right","response":"right","rt":553.80000007153,"correct":true,"confidence":3},{"trial_n":77,"n_dots":2.95,"target":"left","response":"left","rt":456.79999995232,"correct":true,"confidence":2},{"trial_n":78,"n_dots":2.95,"target":"right","response":"right","rt":184.39999997616,"correct":true,"confidence":4},{"trial_n":79,"n_dots":2.85,"target":"left","response":"left","rt":916.59999990463,"correct":true,"confidence":1},{"trial_n":80,"n_dots":2.85,"target":"left","response":"right","rt":539.60000002384,"correct":false,"confidence":2},{"trial_n":81,"n_dots":2.95,"target":"left","response":"right","rt":534,"correct":false,"confidence":1},{"trial_n":82,"n_dots":3.05,"target":"right","response":"right","rt":198.70000004768,"correct":true,"confidence":4},{"trial_n":83,"n_dots":3.05,"target":"left","response":"left","rt":1257,"correct":true,"confidence":1},{"trial_n":84,"n_dots":2.95,"target":"right","response":"right","rt":754.60000002384,"correct":true,"confidence":3},{"trial_n":85,"n_dots":2.95,"target":"right","response":"right","rt":663.60000002384,"correct":true,"confidence":2},{"trial_n":86,"n_dots":2.85,"target":"right","response":"right","rt":573.70000004768,"correct":true,"confidence":4},{"trial_n":87,"n_dots":2.85,"target":"right","response":"right","rt":1041.3000000715,"correct":true,"confidence":2},{"trial_n":88,"n_dots":2.75,"target":"left","response":"left","rt":52.299999952316,"correct":true,"confidence":5},{"trial_n":89,"n_dots":2.75,"target":"right","response":"right","rt":1160.3999999762,"correct":true,"confidence":4},{"trial_n":90,"n_dots":2.65,"target":"left","response":"left","rt":757.20000004768,"correct":true,"confidence":5},{"trial_n":91,"n_dots":2.65,"target":"right","response":"left","rt":511.89999997616,"correct":false,"confidence":2},{"trial_n":92,"n_dots":2.75,"target":"left","response":"left","rt":1552.5999999046,"correct":true,"confidence":1},{"trial_n":93,"n_dots":2.75,"target":"left","response":"left","rt":957.30000007153,"correct":true,"confidence":1},{"trial_n":94,"n_dots":2.65,"target":"right","response":"right","rt":931.5,"correct":true,"confidence":2},{"trial_n":95,"n_dots":2.65,"target":"left","response":"left","rt":590.69999992847,"correct":true,"confidence":3},{"trial_n":96,"n_dots":2.55,"target":"right","response":"left","rt":358.69999992847,"correct":false,"confidence":3},{"trial_n":97,"n_dots":2.65,"target":"right","response":"left","rt":325.30000007153,"correct":false,"confidence":2},{"trial_n":98,"n_dots":2.75,"target":"right","response":"right","rt":609,"correct":true,"confidence":1},{"trial_n":99,"n_dots":2.75,"target":"right","response":"left","rt":520.19999992847,"correct":false,"confidence":1},{"trial_n":100,"n_dots":2.85,"target":"left","response":"right","rt":757.29999995232,"correct":false,"confidence":4},{"trial_n":101,"n_dots":2.95,"target":"left","response":"left","rt":395.10000002384,"correct":true,"confidence":5},{"trial_n":102,"n_dots":2.95,"target":"right","response":"right","rt":681.19999992847,"correct":true,"confidence":4},{"trial_n":103,"n_dots":2.85,"target":"left","response":"left","rt":390.79999995232,"correct":true,"confidence":4},{"trial_n":104,"n_dots":2.85,"target":"left","response":"left","rt":526.69999992847,"correct":true,"confidence":4},{"trial_n":105,"n_dots":2.75,"target":"left","response":"left","rt":19.5,"correct":true,"confidence":5},{"trial_n":106,"n_dots":2.75,"target":"right","response":"right","rt":825.39999997616,"correct":true,"confidence":3},{"trial_n":107,"n_dots":2.65,"target":"right","response":"right","rt":758.39999997616,"correct":true,"confidence":2},{"trial_n":108,"n_dots":2.65,"target":"left","response":"left","rt":926.69999992847,"correct":true,"confidence":1},{"trial_n":109,"n_dots":2.55,"target":"left","response":"left","rt":352.70000004768,"correct":true,"confidence":1},{"trial_n":110,"n_dots":2.55,"target":"left","response":"left","rt":800.79999995232,"correct":true,"confidence":2},{"trial_n":111,"n_dots":2.45,"target":"left","response":"left","rt":534.70000004768,"correct":true,"confidence":2},{"trial_n":112,"n_dots":2.45,"target":"left","response":"left","rt":615.5,"correct":true,"confidence":3},{"trial_n":113,"n_dots":2.35,"target":"left","response":"left","rt":506.40000009537,"correct":true,"confidence":3},{"trial_n":114,"n_dots":2.35,"target":"left","response":"left","rt":576.60000002384,"correct":true,"confidence":2},{"trial_n":115,"n_dots":2.25,"target":"left","response":"left","rt":1149,"correct":true,"confidence":1},{"trial_n":116,"n_dots":2.25,"target":"right","response":"left","rt":760.5,"correct":false,"confidence":1},{"trial_n":117,"n_dots":2.35,"target":"right","response":"right","rt":830.59999990463,"correct":true,"confidence":2},{"trial_n":118,"n_dots":2.35,"target":"left","response":"left","rt":258.10000002384,"correct":true,"confidence":3},{"trial_n":119,"n_dots":2.25,"target":"left","response":"right","rt":779.10000002384,"correct":false,"confidence":1},{"trial_n":120,"n_dots":2.35,"target":"right","response":"left","rt":386.80000007153,"correct":false,"confidence":3},{"trial_n":121,"n_dots":2.45,"target":"right","response":"left","rt":809.60000002384,"correct":false,"confidence":1},{"trial_n":122,"n_dots":2.55,"target":"right","response":"right","rt":868.80000007153,"correct":true,"confidence":2},{"trial_n":123,"n_dots":2.55,"target":"left","response":"left","rt":588.29999995232,"correct":true,"confidence":3},{"trial_n":124,"n_dots":2.45,"target":"right","response":"left","rt":849.30000007153,"correct":false,"confidence":1},{"trial_n":125,"n_dots":2.55,"target":"right","response":"left","rt":1383.5,"correct":false,"confidence":1},{"trial_n":126,"n_dots":2.65,"target":"left","response":"left","rt":929,"correct":true,"confidence":3},{"trial_n":127,"n_dots":2.65,"target":"left","response":"left","rt":309.39999997616,"correct":true,"confidence":2},{"trial_n":128,"n_dots":2.55,"target":"left","response":"left","rt":809.89999997616,"correct":true,"confidence":1},{"trial_n":129,"n_dots":2.55,"target":"right","response":"right","rt":654.19999992847,"correct":true,"confidence":1},{"trial_n":130,"n_dots":2.45,"target":"right","response":"left","rt":285.59999990463,"correct":false,"confidence":3},{"trial_n":131,"n_dots":2.55,"target":"left","response":"right","rt":1203.7000000477,"correct":false,"confidence":3},{"trial_n":132,"n_dots":2.65,"target":"left","response":"left","rt":292.29999995232,"correct":true,"confidence":5},{"trial_n":133,"n_dots":2.65,"target":"left","response":"right","rt":1077.1000000238,"correct":false,"confidence":2},{"trial_n":134,"n_dots":2.75,"target":"right","response":"left","rt":1093.7999999523,"correct":false,"confidence":2},{"trial_n":135,"n_dots":2.85,"target":"right","response":"right","rt":886.60000002384,"correct":true,"confidence":3},{"trial_n":136,"n_dots":2.85,"target":"left","response":"left","rt":196.29999995232,"correct":true,"confidence":4},{"trial_n":137,"n_dots":2.75,"target":"left","response":"left","rt":314.5,"correct":true,"confidence":5},{"trial_n":138,"n_dots":2.75,"target":"right","response":"left","rt":1531.1999999285,"correct":false,"confidence":3},{"trial_n":139,"n_dots":2.85,"target":"right","response":"right","rt":2317.8000000715,"correct":true,"confidence":3},{"trial_n":140,"n_dots":2.85,"target":"right","response":"right","rt":1065.2999999523,"correct":true,"confidence":3},{"trial_n":141,"n_dots":2.75,"target":"right","response":"left","rt":835.80000007153,"correct":false,"confidence":2},{"trial_n":142,"n_dots":2.85,"target":"left","response":"left","rt":709.70000004768,"correct":true,"confidence":1},{"trial_n":143,"n_dots":2.85,"target":"left","response":"left","rt":446.39999997616,"correct":true,"confidence":5},{"trial_n":144,"n_dots":2.75,"target":"left","response":"left","rt":133.5,"correct":true,"confidence":5},{"trial_n":145,"n_dots":2.75,"target":"left","response":"left","rt":518.60000002384,"correct":true,"confidence":4},{"trial_n":146,"n_dots":2.65,"target":"right","response":"left","rt":868.80000007153,"correct":false,"confidence":3},{"trial_n":147,"n_dots":2.75,"target":"left","response":"right","rt":881.70000004768,"correct":false,"confidence":2},{"trial_n":148,"n_dots":2.85,"target":"left","response":"left","rt":96.699999928474,"correct":true,"confidence":4},{"trial_n":149,"n_dots":2.85,"target":"right","response":"right","rt":742.10000002384,"correct":true,"confidence":3},{"trial_n":150,"n_dots":2.75,"target":"left","response":"left","rt":366.39999997616,"correct":true,"confidence":2},{"trial_n":151,"n_dots":2.75,"target":"left","response":"left","rt":229.70000004768,"correct":true,"confidence":2},{"trial_n":152,"n_dots":2.65,"target":"left","response":"right","rt":976.20000004768,"correct":false,"confidence":1},{"trial_n":153,"n_dots":2.75,"target":"right","response":"right","rt":1310,"correct":true,"confidence":1},{"trial_n":154,"n_dots":2.75,"target":"left","response":"left","rt":490.79999995232,"correct":true,"confidence":1},{"trial_n":155,"n_dots":2.65,"target":"left","response":"right","rt":995.60000002384,"correct":false,"confidence":2},{"trial_n":156,"n_dots":2.75,"target":"right","response":"right","rt":2305.5,"correct":true,"confidence":2},{"trial_n":157,"n_dots":2.75,"target":"right","response":"left","rt":374.79999995232,"correct":false,"confidence":3},{"trial_n":158,"n_dots":2.85,"target":"right","response":"right","rt":697.10000002384,"correct":true,"confidence":3},{"trial_n":159,"n_dots":2.85,"target":"right","response":"left","rt":480.89999997616,"correct":false,"confidence":4},{"trial_n":160,"n_dots":2.95,"target":"right","response":"right","rt":1936.3999999762,"correct":true,"confidence":3},{"trial_n":161,"n_dots":2.95,"target":"right","response":"left","rt":350.10000002384,"correct":false,"confidence":3},{"trial_n":162,"n_dots":3.05,"target":"left","response":"right","rt":462.19999992847,"correct":false,"confidence":2},{"trial_n":163,"n_dots":3.15,"target":"right","response":"right","rt":664.80000007153,"correct":true,"confidence":4},{"trial_n":164,"n_dots":3.15,"target":"left","response":"left","rt":26.600000023842,"correct":true,"confidence":6},{"trial_n":165,"n_dots":3.05,"target":"left","response":"right","rt":910.30000007153,"correct":false,"confidence":4},{"trial_n":166,"n_dots":3.15,"target":"left","response":"right","rt":1712.6000000238,"correct":false,"confidence":1},{"trial_n":167,"n_dots":3.25,"target":"right","response":"right","rt":955.09999990463,"correct":true,"confidence":4},{"trial_n":168,"n_dots":3.25,"target":"left","response":"left","rt":259.60000002384,"correct":true,"confidence":4},{"trial_n":169,"n_dots":3.15,"target":"left","response":"left","rt":787.60000002384,"correct":true,"confidence":1},{"trial_n":170,"n_dots":3.15,"target":"right","response":"right","rt":559.5,"correct":true,"confidence":1},{"trial_n":171,"n_dots":3.05,"target":"right","response":"left","rt":2740,"correct":false,"confidence":1},{"trial_n":172,"n_dots":3.15,"target":"right","response":"right","rt":1120.7000000477,"correct":true,"confidence":3},{"trial_n":173,"n_dots":3.15,"target":"right","response":"right","rt":971.80000007153,"correct":true,"confidence":2},{"trial_n":174,"n_dots":3.05,"target":"right","response":"left","rt":1028.8999999762,"correct":false,"confidence":3},{"trial_n":175,"n_dots":3.15,"target":"right","response":"left","rt":670,"correct":false,"confidence":3},{"trial_n":176,"n_dots":3.25,"target":"left","response":"right","rt":1139.0999999046,"correct":false,"confidence":3},{"trial_n":177,"n_dots":3.35,"target":"right","response":"left","rt":569.10000002384,"correct":false,"confidence":3},{"trial_n":178,"n_dots":3.45,"target":"right","response":"right","rt":865.40000009537,"correct":true,"confidence":3},{"trial_n":179,"n_dots":3.45,"target":"left","response":"left","rt":1029.8000000715,"correct":true,"confidence":5},{"trial_n":180,"n_dots":3.35,"target":"left","response":"left","rt":160.60000002384,"correct":true,"confidence":5},{"trial_n":181,"n_dots":3.35,"target":"right","response":"right","rt":1250.1999999285,"correct":true,"confidence":1},{"trial_n":182,"n_dots":3.25,"target":"left","response":"left","rt":84,"correct":true,"confidence":4},{"trial_n":183,"n_dots":3.25,"target":"right","response":"left","rt":631.19999992847,"correct":false,"confidence":2},{"trial_n":184,"n_dots":3.35,"target":"left","response":"left","rt":74.700000047684,"correct":true,"confidence":5},{"trial_n":185,"n_dots":3.35,"target":"right","response":"right","rt":730.39999997616,"correct":true,"confidence":4},{"trial_n":186,"n_dots":3.25,"target":"right","response":"right","rt":617.20000004768,"correct":true,"confidence":4},{"trial_n":187,"n_dots":3.25,"target":"left","response":"left","rt":742.90000009537,"correct":true,"confidence":4},{"trial_n":188,"n_dots":3.15,"target":"left","response":"left","rt":2300.8000000715,"correct":true,"confidence":2},{"trial_n":189,"n_dots":3.15,"target":"left","response":"left","rt":544.5,"correct":true,"confidence":4},{"trial_n":190,"n_dots":3.05,"target":"left","response":"left","rt":355.20000004768,"correct":true,"confidence":5},{"trial_n":191,"n_dots":3.05,"target":"left","response":"left","rt":2632.7999999523,"correct":true,"confidence":1},{"trial_n":192,"n_dots":2.95,"target":"left","response":"right","rt":1353.6000000238,"correct":false,"confidence":1},{"trial_n":193,"n_dots":3.05,"target":"right","response":"right","rt":854.89999997616,"correct":true,"confidence":3},{"trial_n":194,"n_dots":3.05,"target":"right","response":"left","rt":780.10000002384,"correct":false,"confidence":4}]