[{"trial_n":1,"n_dots":4.25,"target":"right","response":"left","rt":4108.2000000011,"correct":false,"confidence":-1},{"trial_n":2,"n_dots":4.25,"target":"right","response":"right","rt":3819.6000000015,"correct":true,"confidence":-1},{"trial_n":3,"n_dots":4.25,"target":"left","response":"left","rt":886.29999999888,"correct":true,"confidence":-1},{"trial_n":4,"n_dots":3.85,"target":"left","response":"left","rt":416.30000000075,"correct":true,"confidence":-1},{"trial_n":5,"n_dots":3.85,"target":"right","response":"right","rt":325.30000000075,"correct":true,"confidence":-1},{"trial_n":6,"n_dots":3.45,"target":"left","response":"left","rt":750,"correct":true,"confidence":-1},{"trial_n":7,"n_dots":3.45,"target":"left","response":"left","rt":668.5,"correct":true,"confidence":-1},{"trial_n":8,"n_dots":3.25,"target":"left","response":"left","rt":490,"correct":true,"confidence":-1},{"trial_n":9,"n_dots":3.25,"target":"left","response":"left","rt":646.79999999888,"correct":true,"confidence":-1},{"trial_n":10,"n_dots":3.05,"target":"left","response":"left","rt":733,"correct":true,"confidence":-1},{"trial_n":11,"n_dots":3.05,"target":"right","response":"right","rt":579.29999999888,"correct":true,"confidence":-1},{"trial_n":12,"n_dots":2.85,"target":"right","response":"left","rt":828.70000000112,"correct":false,"confidence":-1},{"trial_n":13,"n_dots":2.95,"target":"left","response":"left","rt":678.59999999963,"correct":true,"confidence":-1},{"trial_n":14,"n_dots":2.95,"target":"right","response":"right","rt":528.30000000075,"correct":true,"confidence":-1},{"trial_n":15,"n_dots":2.85,"target":"left","response":"left","rt":568.30000000075,"correct":true,"confidence":-1},{"trial_n":16,"n_dots":2.85,"target":"right","response":"left","rt":257.79999999888,"correct":false,"confidence":-1},{"trial_n":17,"n_dots":2.95,"target":"left","response":"left","rt":69.799999998882,"correct":true,"confidence":-1},{"trial_n":18,"n_dots":2.95,"target":"left","response":"left","rt":308.10000000149,"correct":true,"confidence":-1},{"trial_n":19,"n_dots":2.85,"target":"right","response":"right","rt":123.19999999925,"correct":true,"confidence":-1},{"trial_n":20,"n_dots":2.85,"target":"right","response":"right","rt":281.30000000075,"correct":true,"confidence":-1},{"trial_n":21,"n_dots":2.75,"target":"right","response":"left","rt":212.40000000037,"correct":false,"confidence":-1},{"trial_n":22,"n_dots":2.85,"target":"left","response":"left","rt":157.69999999925,"correct":true,"confidence":-1},{"trial_n":23,"n_dots":2.85,"target":"right","response":"right","rt":117.30000000075,"correct":true,"confidence":-1},{"trial_n":24,"n_dots":2.75,"target":"right","response":"left","rt":36.39999999851,"correct":false,"confidence":-1},{"trial_n":25,"n_dots":2.85,"target":"left","response":"left","rt":188.40000000037,"correct":true,"confidence":-1},{"trial_n":26,"n_dots":2.85,"target":"right","response":"right","rt":119,"correct":true,"confidence":-1},{"trial_n":27,"n_dots":2.75,"target":"right","response":"left","rt":216.5,"correct":false,"confidence":4},{"trial_n":28,"n_dots":2.85,"target":"left","response":"left","rt":307.59999999963,"correct":true,"confidence":4},{"trial_n":29,"n_dots":2.85,"target":"right","response":"left","rt":35.10000000149,"correct":false,"confidence":6},{"trial_n":30,"n_dots":2.95,"target":"left","response":"left","rt":409.10000000149,"correct":true,"confidence":6},{"trial_n":31,"n_dots":2.95,"target":"left","response":"left","rt":304.90000000037,"correct":true,"confidence":6},{"trial_n":32,"n_dots":2.85,"target":"right","response":"left","rt":464.40000000037,"correct":false,"confidence":6},{"trial_n":33,"n_dots":2.95,"target":"left","response":"left","rt":557.89999999851,"correct":true,"confidence":5},{"trial_n":34,"n_dots":2.95,"target":"right","response":"right","rt":549,"correct":true,"confidence":6},{"trial_n":35,"n_dots":2.85,"target":"right","response":"right","rt":393.5,"correct":true,"confidence":6},{"trial_n":36,"n_dots":2.85,"target":"left","response":"right","rt":243.90000000037,"correct":false,"confidence":6},{"trial_n":37,"n_dots":2.95,"target":"left","response":"left","rt":396.29999999888,"correct":true,"confidence":6},{"trial_n":38,"n_dots":2.95,"target":"left","response":"right","rt":858.60000000149,"correct":false,"confidence":2},{"trial_n":39,"n_dots":3.05,"target":"left","response":"right","rt":405.69999999925,"correct":false,"confidence":6},{"trial_n":40,"n_dots":3.15,"target":"left","response":"right","rt":344.29999999888,"correct":false,"confidence":6},{"trial_n":41,"n_dots":3.25,"target":"left","response":"right","rt":206.80000000075,"correct":false,"confidence":6},{"trial_n":42,"n_dots":3.35,"target":"left","response":"left","rt":741,"correct":true,"confidence":1},{"trial_n":43,"n_dots":3.35,"target":"right","response":"right","rt":284.29999999888,"correct":true,"confidence":6},{"trial_n":44,"n_dots":3.25,"target":"left","response":"right","rt":199.79999999888,"correct":false,"confidence":4},{"trial_n":45,"n_dots":3.35,"target":"right","response":"right","rt":138.40000000037,"correct":true,"confidence":4},{"trial_n":46,"n_dots":3.35,"target":"left","response":"left","rt":419.10000000149,"correct":true,"confidence":6},{"trial_n":47,"n_dots":3.25,"target":"left","response":"right","rt":257.20000000112,"correct":false,"confidence":4},{"trial_n":48,"n_dots":3.35,"target":"right","response":"right","rt":84.099999999627,"correct":true,"confidence":6},{"trial_n":49,"n_dots":3.35,"target":"left","response":"left","rt":837.5,"correct":true,"confidence":6},{"trial_n":50,"n_dots":3.25,"target":"left","response":"left","rt":281.09999999963,"correct":true,"confidence":6},{"trial_n":51,"n_dots":3.25,"target":"left","response":"left","rt":270.40000000037,"correct":true,"confidence":6},{"trial_n":52,"n_dots":3.15,"target":"left","response":"left","rt":921.90000000037,"correct":true,"confidence":6},{"trial_n":53,"n_dots":3.15,"target":"right","response":"left","rt":1643.6999999993,"correct":false,"confidence":6},{"trial_n":54,"n_dots":3.25,"target":"left","response":"left","rt":1230.9000000004,"correct":true,"confidence":3},{"trial_n":55,"n_dots":3.25,"target":"right","response":"left","rt":1272.5,"correct":false,"confidence":6},{"trial_n":56,"n_dots":3.35,"target":"right","response":"left","rt":288.09999999963,"correct":false,"confidence":6},{"trial_n":57,"n_dots":3.45,"target":"right","response":"right","rt":876.29999999888,"correct":true,"confidence":6},{"trial_n":58,"n_dots":3.45,"target":"left","response":"left","rt":895,"correct":true,"confidence":6},{"trial_n":59,"n_dots":3.35,"target":"left","response":"left","rt":786,"correct":true,"confidence":5},{"trial_n":60,"n_dots":3.35,"target":"left","response":"left","rt":1006.6000000015,"correct":true,"confidence":5},{"trial_n":61,"n_dots":3.25,"target":"left","response":"left","rt":1004.0999999996,"correct":true,"confidence":6},{"trial_n":62,"n_dots":3.25,"target":"right","response":"right","rt":1224.9000000004,"correct":true,"confidence":6},{"trial_n":63,"n_dots":3.15,"target":"right","response":"right","rt":1324.5999999996,"correct":true,"confidence":6},{"trial_n":64,"n_dots":3.15,"target":"left","response":"left","rt":925.29999999888,"correct":true,"confidence":6},{"trial_n":65,"n_dots":3.05,"target":"right","response":"left","rt":480.5,"correct":false,"confidence":6},{"trial_n":66,"n_dots":3.15,"target":"right","response":"left","rt":1254,"correct":false,"confidence":3},{"trial_n":67,"n_dots":3.25,"target":"left","response":"left","rt":1271.0999999996,"correct":true,"confidence":6},{"trial_n":68,"n_dots":3.25,"target":"right","response":"left","rt":1.1000000014901,"correct":false,"confidence":6},{"trial_n":69,"n_dots":3.35,"target":"right","response":"right","rt":502.70000000112,"correct":true,"confidence":6},{"trial_n":70,"n_dots":3.35,"target":"right","response":"left","rt":1994.0999999996,"correct":false,"confidence":6},{"trial_n":71,"n_dots":3.45,"target":"left","response":"left","rt":1044.6999999993,"correct":true,"confidence":6},{"trial_n":72,"n_dots":3.45,"target":"left","response":"left","rt":908.30000000075,"correct":true,"confidence":6},{"trial_n":73,"n_dots":3.35,"target":"right","response":"left","rt":306.90000000037,"correct":false,"confidence":6},{"trial_n":74,"n_dots":3.45,"target":"left","response":"left","rt":192,"correct":true,"confidence":6},{"trial_n":75,"n_dots":3.45,"target":"left","response":"left","rt":849.80000000075,"correct":true,"confidence":6},{"trial_n":76,"n_dots":3.35,"target":"right","response":"left","rt":227.29999999888,"correct":false,"confidence":6},{"trial_n":77,"n_dots":3.45,"target":"right","response":"left","rt":82.099999999627,"correct":false,"confidence":6},{"trial_n":78,"n_dots":3.55,"target":"right","response":"left","rt":218.40000000037,"correct":false,"confidence":6},{"trial_n":79,"n_dots":3.65,"target":"left","response":"left","rt":987.80000000075,"correct":true,"confidence":5},{"trial_n":80,"n_dots":3.65,"target":"left","response":"left","rt":449.70000000112,"correct":true,"confidence":6},{"trial_n":81,"n_dots":3.55,"target":"right","response":"right","rt":797.90000000037,"correct":true,"confidence":6},{"trial_n":82,"n_dots":3.55,"target":"left","response":"left","rt":1002.5,"correct":true,"confidence":6},{"trial_n":83,"n_dots":3.45,"target":"right","response":"left","rt":916.80000000075,"correct":false,"confidence":6},{"trial_n":84,"n_dots":3.55,"target":"right","response":"right","rt":1500.7000000011,"correct":true,"confidence":6},{"trial_n":85,"n_dots":3.55,"target":"right","response":"left","rt":839.80000000075,"correct":false,"confidence":6},{"trial_n":86,"n_dots":3.65,"target":"right","response":"left","rt":872.90000000037,"correct":false,"confidence":6},{"trial_n":87,"n_dots":3.75,"target":"right","response":"left","rt":868.20000000112,"correct":false,"confidence":6},{"trial_n":88,"n_dots":3.85,"target":"right","response":"left","rt":2033.8000000007,"correct":false,"confidence":6},{"trial_n":89,"n_dots":3.95,"target":"right","response":"left","rt":3025.9000000004,"correct":false,"confidence":6},{"trial_n":90,"n_dots":4.05,"target":"left","response":"left","rt":1233.8000000007,"correct":true,"confidence":6},{"trial_n":91,"n_dots":4.05,"target":"left","response":"left","rt":567.40000000037,"correct":true,"confidence":5},{"trial_n":92,"n_dots":3.95,"target":"left","response":"left","rt":335,"correct":true,"confidence":6},{"trial_n":93,"n_dots":3.95,"target":"right","response":"right","rt":705.29999999888,"correct":true,"confidence":6},{"trial_n":94,"n_dots":3.85,"target":"left","response":"left","rt":773.69999999925,"correct":true,"confidence":6},{"trial_n":95,"n_dots":3.85,"target":"right","response":"right","rt":625.09999999963,"correct":true,"confidence":6},{"trial_n":96,"n_dots":3.75,"target":"right","response":"left","rt":459.5,"correct":false,"confidence":6},{"trial_n":97,"n_dots":3.85,"target":"left","response":"left","rt":519.69999999925,"correct":true,"confidence":6},{"trial_n":98,"n_dots":3.85,"target":"right","response":"left","rt":673.90000000037,"correct":false,"confidence":6},{"trial_n":99,"n_dots":3.95,"target":"left","response":"left","rt":312.90000000037,"correct":true,"confidence":6},{"trial_n":100,"n_dots":3.95,"target":"right","response":"right","rt":649.69999999925,"correct":true,"confidence":6},{"trial_n":101,"n_dots":3.85,"target":"right","response":"left","rt":860.20000000112,"correct":false,"confidence":6},{"trial_n":102,"n_dots":3.95,"target":"left","response":"left","rt":391.19999999925,"correct":true,"confidence":6},{"trial_n":103,"n_dots":3.95,"target":"right","response":"right","rt":710.5,"correct":true,"confidence":6},{"trial_n":104,"n_dots":3.85,"target":"right","response":"left","rt":403.80000000075,"correct":false,"confidence":6},{"trial_n":105,"n_dots":3.95,"target":"right","response":"right","rt":1016.2000000011,"correct":true,"confidence":6},{"trial_n":106,"n_dots":3.95,"target":"left","response":"left","rt":407.19999999925,"correct":true,"confidence":6},{"trial_n":107,"n_dots":3.85,"target":"right","response":"left","rt":530,"correct":false,"confidence":6},{"trial_n":108,"n_dots":3.95,"target":"right","response":"left","rt":892.60000000149,"correct":false,"confidence":6},{"trial_n":109,"n_dots":4.05,"target":"right","response":"left","rt":765.90000000037,"correct":false,"confidence":6},{"trial_n":110,"n_dots":4.15,"target":"left","response":"left","rt":228.59999999963,"correct":true,"confidence":6},{"trial_n":111,"n_dots":4.15,"target":"right","response":"left","rt":1039.8000000007,"correct":false,"confidence":6},{"trial_n":112,"n_dots":4.25,"target":"left","response":"left","rt":247.20000000112,"correct":true,"confidence":6},{"trial_n":113,"n_dots":4.25,"target":"left","response":"left","rt":415.80000000075,"correct":true,"confidence":1},{"trial_n":114,"n_dots":4.15,"target":"left","response":"left","rt":81.700000001118,"correct":true,"confidence":6},{"trial_n":115,"n_dots":4.15,"target":"left","response":"left","rt":264.70000000112,"correct":true,"confidence":6},{"trial_n":116,"n_dots":4.05,"target":"right","response":"left","rt":617,"correct":false,"confidence":6},{"trial_n":117,"n_dots":4.15,"target":"right","response":"left","rt":301.19999999925,"correct":false,"confidence":6},{"trial_n":118,"n_dots":4.25,"target":"right","response":"left","rt":733.30000000075,"correct":false,"confidence":6},{"trial_n":119,"n_dots":4.35,"target":"left","response":"left","rt":287.29999999888,"correct":true,"confidence":6},{"trial_n":120,"n_dots":4.35,"target":"right","response":"right","rt":999.09999999963,"correct":true,"confidence":6},{"trial_n":121,"n_dots":4.25,"target":"right","response":"right","rt":340.09999999963,"correct":true,"confidence":6},{"trial_n":122,"n_dots":4.25,"target":"left","response":"left","rt":592.5,"correct":true,"confidence":6},{"trial_n":123,"n_dots":4.15,"target":"right","response":"right","rt":1213.6999999993,"correct":true,"confidence":6},{"trial_n":124,"n_dots":4.15,"target":"left","response":"left","rt":250.5,"correct":true,"confidence":6},{"trial_n":125,"n_dots":4.05,"target":"left","response":"left","rt":2558.5999999996,"correct":true,"confidence":6},{"trial_n":126,"n_dots":4.05,"target":"left","response":"left","rt":952.80000000075,"correct":true,"confidence":6},{"trial_n":127,"n_dots":3.95,"target":"left","response":"left","rt":793.5,"correct":true,"confidence":6},{"trial_n":128,"n_dots":3.95,"target":"left","response":"left","rt":166.09999999963,"correct":true,"confidence":6},{"trial_n":129,"n_dots":3.85,"target":"right","response":"right","rt":304.89999999851,"correct":true,"confidence":6},{"trial_n":130,"n_dots":3.85,"target":"right","response":"left","rt":656.5,"correct":false,"confidence":6},{"trial_n":131,"n_dots":3.95,"target":"left","response":"left","rt":98.300000000745,"correct":true,"confidence":6},{"trial_n":132,"n_dots":3.95,"target":"right","response":"right","rt":607.20000000112,"correct":true,"confidence":6},{"trial_n":133,"n_dots":3.85,"target":"left","response":"left","rt":45.099999999627,"correct":true,"confidence":6},{"trial_n":134,"n_dots":3.85,"target":"right","response":"right","rt":1092.2999999989,"correct":true,"confidence":6},{"trial_n":135,"n_dots":3.75,"target":"right","response":"right","rt":977.80000000075,"correct":true,"confidence":6},{"trial_n":136,"n_dots":3.75,"target":"right","response":"left","rt":477.30000000075,"correct":false,"confidence":6},{"trial_n":137,"n_dots":3.85,"target":"left","response":"left","rt":416.19999999925,"correct":true,"confidence":6},{"trial_n":138,"n_dots":3.85,"target":"right","response":"left","rt":496,"correct":false,"confidence":6},{"trial_n":139,"n_dots":3.95,"target":"right","response":"left","rt":16.400000000373,"correct":false,"confidence":6},{"trial_n":140,"n_dots":4.05,"target":"right","response":"left","rt":1166.2000000011,"correct":false,"confidence":6},{"trial_n":141,"n_dots":4.15,"target":"right","response":"left","rt":166,"correct":false,"confidence":6},{"trial_n":142,"n_dots":4.25,"target":"left","response":"left","rt":864.59999999963,"correct":true,"confidence":6},{"trial_n":143,"n_dots":4.25,"target":"right","response":"right","rt":264.20000000112,"correct":true,"confidence":6},{"trial_n":144,"n_dots":4.15,"target":"right","response":"right","rt":185.20000000112,"correct":true,"confidence":6},{"trial_n":145,"n_dots":4.15,"target":"left","response":"left","rt":222.59999999963,"correct":true,"confidence":6},{"trial_n":146,"n_dots":4.05,"target":"right","response":"right","rt":384.19999999925,"correct":true,"confidence":6},{"trial_n":147,"n_dots":4.05,"target":"left","response":"left","rt":113.70000000112,"correct":true,"confidence":6},{"trial_n":148,"n_dots":3.95,"target":"left","response":"left","rt":153.79999999888,"correct":true,"confidence":6},{"trial_n":149,"n_dots":3.95,"target":"right","response":"right","rt":510.39999999851,"correct":true,"confidence":6},{"trial_n":150,"n_dots":3.85,"target":"right","response":"right","rt":539.59999999963,"correct":true,"confidence":6},{"trial_n":151,"n_dots":3.85,"target":"left","response":"left","rt":212.09999999963,"correct":true,"confidence":6},{"trial_n":152,"n_dots":3.75,"target":"right","response":"right","rt":585.90000000037,"correct":true,"confidence":6},{"trial_n":153,"n_dots":3.75,"target":"right","response":"left","rt":66.700000001118,"correct":false,"confidence":6},{"trial_n":154,"n_dots":3.85,"target":"left","response":"left","rt":443,"correct":true,"confidence":6},{"trial_n":155,"n_dots":3.85,"target":"right","response":"right","rt":479.90000000037,"correct":true,"confidence":6},{"trial_n":156,"n_dots":3.75,"target":"left","response":"left","rt":219.20000000112,"correct":true,"confidence":6},{"trial_n":157,"n_dots":3.75,"target":"left","response":"left","rt":203.09999999963,"correct":true,"confidence":6},{"trial_n":158,"n_dots":3.65,"target":"left","response":"left","rt":1082.0999999996,"correct":true,"confidence":6},{"trial_n":159,"n_dots":3.65,"target":"left","response":"left","rt":448.30000000075,"correct":true,"confidence":6},{"trial_n":160,"n_dots":3.55,"target":"left","response":"left","rt":105,"correct":true,"confidence":6},{"trial_n":161,"n_dots":3.55,"target":"right","response":"left","rt":229.69999999925,"correct":false,"confidence":6},{"trial_n":162,"n_dots":3.65,"target":"left","response":"left","rt":286.30000000075,"correct":true,"confidence":6},{"trial_n":163,"n_dots":3.65,"target":"left","response":"left","rt":461.5,"correct":true,"confidence":6},{"trial_n":164,"n_dots":3.55,"target":"right","response":"left","rt":768.40000000037,"correct":false,"confidence":6},{"trial_n":165,"n_dots":3.65,"target":"left","response":"left","rt":149.59999999963,"correct":true,"confidence":6},{"trial_n":166,"n_dots":3.65,"target":"right","response":"right","rt":682.79999999888,"correct":true,"confidence":6},{"trial_n":167,"n_dots":3.55,"target":"right","response":"right","rt":444.5,"correct":true,"confidence":6},{"trial_n":168,"n_dots":3.55,"target":"left","response":"left","rt":388.90000000037,"correct":true,"confidence":6},{"trial_n":169,"n_dots":3.45,"target":"right","response":"left","rt":343.09999999963,"correct":false,"confidence":6},{"trial_n":170,"n_dots":3.55,"target":"left","response":"left","rt":35.5,"correct":true,"confidence":6},{"trial_n":171,"n_dots":3.55,"target":"left","response":"left","rt":66.699999999255,"correct":true,"confidence":6},{"trial_n":172,"n_dots":3.45,"target":"right","response":"left","rt":410.5,"correct":false,"confidence":6},{"trial_n":173,"n_dots":3.55,"target":"left","response":"left","rt":122.69999999925,"correct":true,"confidence":6},{"trial_n":174,"n_dots":3.55,"target":"right","response":"left","rt":141.69999999925,"correct":false,"confidence":6},{"trial_n":175,"n_dots":3.65,"target":"left","response":"left","rt":55.5,"correct":true,"confidence":6},{"trial_n":176,"n_dots":3.65,"target":"left","response":"left","rt":10.900000000373,"correct":true,"confidence":6},{"trial_n":177,"n_dots":3.55,"target":"right","response":"left","rt":6.7000000011176,"correct":false,"confidence":6},{"trial_n":178,"n_dots":3.65,"target":"left","response":"left","rt":875.70000000112,"correct":true,"confidence":6},{"trial_n":179,"n_dots":3.65,"target":"left","response":"left","rt":453.89999999851,"correct":true,"confidence":6},{"trial_n":180,"n_dots":3.55,"target":"left","response":"left","rt":785.59999999963,"correct":true,"confidence":6},{"trial_n":181,"n_dots":3.55,"target":"right","response":"left","rt":701.80000000075,"correct":false,"confidence":6},{"trial_n":182,"n_dots":3.65,"target":"left","response":"left","rt":175.5,"correct":true,"confidence":6},{"trial_n":183,"n_dots":3.65,"target":"left","response":"left","rt":203.29999999888,"correct":true,"confidence":6},{"trial_n":184,"n_dots":3.55,"target":"right","response":"left","rt":287.70000000112,"correct":false,"confidence":6},{"trial_n":185,"n_dots":3.65,"target":"left","response":"left","rt":190,"correct":true,"confidence":6},{"trial_n":186,"n_dots":3.65,"target":"right","response":"left","rt":676.5,"correct":false,"confidence":6},{"trial_n":187,"n_dots":3.75,"target":"right","response":"left","rt":663.5,"correct":false,"confidence":6},{"trial_n":188,"n_dots":3.85,"target":"right","response":"left","rt":182.29999999888,"correct":false,"confidence":6},{"trial_n":189,"n_dots":3.95,"target":"left","response":"left","rt":177.90000000037,"correct":true,"confidence":6},{"trial_n":190,"n_dots":3.95,"target":"left","response":"left","rt":279.30000000075,"correct":true,"confidence":6},{"trial_n":191,"n_dots":3.85,"target":"left","response":"left","rt":99.699999999255,"correct":true,"confidence":6},{"trial_n":192,"n_dots":3.85,"target":"right","response":"right","rt":669.19999999925,"correct":true,"confidence":6},{"trial_n":193,"n_dots":3.75,"target":"right","response":"left","rt":649,"correct":false,"confidence":6},{"trial_n":194,"n_dots":3.85,"target":"right","response":"left","rt":519.69999999925,"correct":false,"confidence":6}]