[{"trial_n":1,"n_dots":4.25,"target":"left","response":"left","rt":1801.0999999046,"correct":true,"confidence":-1},{"trial_n":2,"n_dots":4.25,"target":"left","response":"left","rt":352.2000002861,"correct":true,"confidence":-1},{"trial_n":3,"n_dots":3.85,"target":"left","response":"left","rt":204.59999990463,"correct":true,"confidence":-1},{"trial_n":4,"n_dots":3.85,"target":"left","response":"left","rt":175.90000009537,"correct":true,"confidence":-1},{"trial_n":5,"n_dots":3.45,"target":"right","response":"right","rt":177.7000002861,"correct":true,"confidence":-1},{"trial_n":6,"n_dots":3.45,"target":"left","response":"left","rt":1154.3000001907,"correct":true,"confidence":-1},{"trial_n":7,"n_dots":3.05,"target":"left","response":"left","rt":205.80000019073,"correct":true,"confidence":-1},{"trial_n":8,"n_dots":3.05,"target":"left","response":"left","rt":246.90000009537,"correct":true,"confidence":-1},{"trial_n":9,"n_dots":2.85,"target":"left","response":"right","rt":417.39999961853,"correct":false,"confidence":-1},{"trial_n":10,"n_dots":3.05,"target":"right","response":"left","rt":402.69999980927,"correct":false,"confidence":-1},{"trial_n":11,"n_dots":3.25,"target":"left","response":"left","rt":599.5,"correct":true,"confidence":-1},{"trial_n":12,"n_dots":3.25,"target":"right","response":"right","rt":478.09999990463,"correct":true,"confidence":-1},{"trial_n":13,"n_dots":3.15,"target":"left","response":"left","rt":265.2000002861,"correct":true,"confidence":-1},{"trial_n":14,"n_dots":3.15,"target":"right","response":"right","rt":161.90000009537,"correct":true,"confidence":-1},{"trial_n":15,"n_dots":3.05,"target":"left","response":"left","rt":233.2999997139,"correct":true,"confidence":-1},{"trial_n":16,"n_dots":3.05,"target":"right","response":"right","rt":191.5,"correct":true,"confidence":-1},{"trial_n":17,"n_dots":2.95,"target":"left","response":"left","rt":307.2999997139,"correct":true,"confidence":-1},{"trial_n":18,"n_dots":2.95,"target":"right","response":"right","rt":425.40000009537,"correct":true,"confidence":-1},{"trial_n":19,"n_dots":2.85,"target":"right","response":"left","rt":515.90000009537,"correct":false,"confidence":-1},{"trial_n":20,"n_dots":2.95,"target":"right","response":"left","rt":304.80000019073,"correct":false,"confidence":-1},{"trial_n":21,"n_dots":3.05,"target":"right","response":"right","rt":580.09999990463,"correct":true,"confidence":-1},{"trial_n":22,"n_dots":3.05,"target":"left","response":"left","rt":255.2000002861,"correct":true,"confidence":-1},{"trial_n":23,"n_dots":2.95,"target":"right","response":"left","rt":178.09999990463,"correct":false,"confidence":-1},{"trial_n":24,"n_dots":3.05,"target":"left","response":"left","rt":468.2999997139,"correct":true,"confidence":-1},{"trial_n":25,"n_dots":3.05,"target":"right","response":"right","rt":272.90000009537,"correct":true,"confidence":-1},{"trial_n":26,"n_dots":2.95,"target":"right","response":"right","rt":91.10000038147,"correct":true,"confidence":-1},{"trial_n":27,"n_dots":2.95,"target":"right","response":"right","rt":347.59999990463,"correct":true,"confidence":3},{"trial_n":28,"n_dots":2.85,"target":"left","response":"left","rt":260.39999961853,"correct":true,"confidence":4},{"trial_n":29,"n_dots":2.85,"target":"right","response":"left","rt":645.19999980927,"correct":false,"confidence":1},{"trial_n":30,"n_dots":2.95,"target":"left","response":"left","rt":309.5,"correct":true,"confidence":3},{"trial_n":31,"n_dots":2.95,"target":"left","response":"left","rt":887,"correct":true,"confidence":4},{"trial_n":32,"n_dots":2.85,"target":"right","response":"right","rt":1194.1000003815,"correct":true,"confidence":1},{"trial_n":33,"n_dots":2.85,"target":"left","response":"left","rt":110.5,"correct":true,"confidence":5},{"trial_n":34,"n_dots":2.75,"target":"left","response":"left","rt":317.19999980927,"correct":true,"confidence":4},{"trial_n":35,"n_dots":2.75,"target":"left","response":"left","rt":309.30000019073,"correct":true,"confidence":4},{"trial_n":36,"n_dots":2.65,"target":"right","response":"left","rt":1795.9000000954,"correct":false,"confidence":1},{"trial_n":37,"n_dots":2.75,"target":"right","response":"right","rt":367.09999990463,"correct":true,"confidence":3},{"trial_n":38,"n_dots":2.75,"target":"left","response":"left","rt":398.80000019073,"correct":true,"confidence":3},{"trial_n":39,"n_dots":2.65,"target":"right","response":"left","rt":347.30000019073,"correct":false,"confidence":1},{"trial_n":40,"n_dots":2.75,"target":"left","response":"left","rt":185.59999990463,"correct":true,"confidence":4},{"trial_n":41,"n_dots":2.75,"target":"left","response":"right","rt":1247.6999998093,"correct":false,"confidence":4},{"trial_n":42,"n_dots":2.85,"target":"right","response":"right","rt":644.90000009537,"correct":true,"confidence":3},{"trial_n":43,"n_dots":2.85,"target":"left","response":"left","rt":667.5,"correct":true,"confidence":2},{"trial_n":44,"n_dots":2.75,"target":"left","response":"right","rt":429,"correct":false,"confidence":4},{"trial_n":45,"n_dots":2.85,"target":"left","response":"left","rt":303.7999997139,"correct":true,"confidence":4},{"trial_n":46,"n_dots":2.85,"target":"left","response":"left","rt":83.799999713898,"correct":true,"confidence":3},{"trial_n":47,"n_dots":2.75,"target":"left","response":"left","rt":784.69999980927,"correct":true,"confidence":2},{"trial_n":48,"n_dots":2.75,"target":"left","response":"left","rt":461.09999990463,"correct":true,"confidence":2},{"trial_n":49,"n_dots":2.65,"target":"right","response":"right","rt":656.40000009537,"correct":true,"confidence":1},{"trial_n":50,"n_dots":2.65,"target":"left","response":"left","rt":207.10000038147,"correct":true,"confidence":2},{"trial_n":51,"n_dots":2.55,"target":"right","response":"left","rt":1341.0999999046,"correct":false,"confidence":1},{"trial_n":52,"n_dots":2.65,"target":"left","response":"left","rt":565.60000038147,"correct":true,"confidence":1},{"trial_n":53,"n_dots":2.65,"target":"left","response":"right","rt":454.5,"correct":false,"confidence":1},{"trial_n":54,"n_dots":2.75,"target":"left","response":"right","rt":1076.6999998093,"correct":false,"confidence":1},{"trial_n":55,"n_dots":2.85,"target":"right","response":"left","rt":841.80000019073,"correct":false,"confidence":3},{"trial_n":56,"n_dots":2.95,"target":"right","response":"right","rt":518.69999980927,"correct":true,"confidence":1},{"trial_n":57,"n_dots":2.95,"target":"left","response":"left","rt":631.89999961853,"correct":true,"confidence":4},{"trial_n":58,"n_dots":2.85,"target":"left","response":"left","rt":164,"correct":true,"confidence":5},{"trial_n":59,"n_dots":2.85,"target":"right","response":"left","rt":511.69999980927,"correct":false,"confidence":4},{"trial_n":60,"n_dots":2.95,"target":"right","response":"right","rt":163.5,"correct":true,"confidence":4},{"trial_n":61,"n_dots":2.95,"target":"left","response":"left","rt":72.099999904633,"correct":true,"confidence":4},{"trial_n":62,"n_dots":2.85,"target":"left","response":"left","rt":569,"correct":true,"confidence":5},{"trial_n":63,"n_dots":2.85,"target":"right","response":"right","rt":262.39999961853,"correct":true,"confidence":3},{"trial_n":64,"n_dots":2.75,"target":"right","response":"right","rt":308,"correct":true,"confidence":2},{"trial_n":65,"n_dots":2.75,"target":"left","response":"left","rt":277.89999961853,"correct":true,"confidence":4},{"trial_n":66,"n_dots":2.65,"target":"left","response":"left","rt":334.40000009537,"correct":true,"confidence":2},{"trial_n":67,"n_dots":2.65,"target":"left","response":"left","rt":1625.3000001907,"correct":true,"confidence":1},{"trial_n":68,"n_dots":2.55,"target":"left","response":"left","rt":284.7999997139,"correct":true,"confidence":5},{"trial_n":69,"n_dots":2.55,"target":"left","response":"left","rt":195.09999990463,"correct":true,"confidence":4},{"trial_n":70,"n_dots":2.45,"target":"left","response":"left","rt":378.5,"correct":true,"confidence":4},{"trial_n":71,"n_dots":2.45,"target":"right","response":"left","rt":278.40000009537,"correct":false,"confidence":3},{"trial_n":72,"n_dots":2.55,"target":"right","response":"left","rt":134.7000002861,"correct":false,"confidence":2},{"trial_n":73,"n_dots":2.65,"target":"left","response":"right","rt":601.59999990463,"correct":false,"confidence":2},{"trial_n":74,"n_dots":2.75,"target":"left","response":"right","rt":251.7000002861,"correct":false,"confidence":2},{"trial_n":75,"n_dots":2.85,"target":"right","response":"left","rt":1524,"correct":false,"confidence":2},{"trial_n":76,"n_dots":2.95,"target":"left","response":"left","rt":1077.9000000954,"correct":true,"confidence":2},{"trial_n":77,"n_dots":2.95,"target":"left","response":"right","rt":418.59999990463,"correct":false,"confidence":2},{"trial_n":78,"n_dots":3.05,"target":"left","response":"left","rt":831.30000019073,"correct":true,"confidence":4},{"trial_n":79,"n_dots":3.05,"target":"left","response":"left","rt":871,"correct":true,"confidence":3},{"trial_n":80,"n_dots":2.95,"target":"right","response":"right","rt":457.39999961853,"correct":true,"confidence":3},{"trial_n":81,"n_dots":2.95,"target":"right","response":"right","rt":923.2999997139,"correct":true,"confidence":3},{"trial_n":82,"n_dots":2.85,"target":"left","response":"left","rt":265.7000002861,"correct":true,"confidence":3},{"trial_n":83,"n_dots":2.85,"target":"right","response":"right","rt":118.09999990463,"correct":true,"confidence":3},{"trial_n":84,"n_dots":2.75,"target":"left","response":"left","rt":364,"correct":true,"confidence":3},{"trial_n":85,"n_dots":2.75,"target":"right","response":"right","rt":287.5,"correct":true,"confidence":5},{"trial_n":86,"n_dots":2.65,"target":"right","response":"left","rt":486.40000009537,"correct":false,"confidence":3},{"trial_n":87,"n_dots":2.75,"target":"right","response":"right","rt":828.59999990463,"correct":true,"confidence":4},{"trial_n":88,"n_dots":2.75,"target":"right","response":"right","rt":273.30000019073,"correct":true,"confidence":4},{"trial_n":89,"n_dots":2.65,"target":"left","response":"right","rt":259.40000009537,"correct":false,"confidence":4},{"trial_n":90,"n_dots":2.75,"target":"right","response":"right","rt":888.19999980927,"correct":true,"confidence":5},{"trial_n":91,"n_dots":2.75,"target":"left","response":"left","rt":347.90000009537,"correct":true,"confidence":4},{"trial_n":92,"n_dots":2.65,"target":"left","response":"right","rt":426.59999990463,"correct":false,"confidence":5},{"trial_n":93,"n_dots":2.75,"target":"right","response":"left","rt":671.7000002861,"correct":false,"confidence":3},{"trial_n":94,"n_dots":2.85,"target":"right","response":"left","rt":605.80000019073,"correct":false,"confidence":3},{"trial_n":95,"n_dots":2.95,"target":"right","response":"left","rt":866.40000009537,"correct":false,"confidence":3},{"trial_n":96,"n_dots":3.05,"target":"left","response":"right","rt":369.09999990463,"correct":false,"confidence":4},{"trial_n":97,"n_dots":3.15,"target":"right","response":"right","rt":214.30000019073,"correct":true,"confidence":5},{"trial_n":98,"n_dots":3.15,"target":"right","response":"left","rt":246.39999961853,"correct":false,"confidence":3},{"trial_n":99,"n_dots":3.25,"target":"left","response":"left","rt":213.19999980927,"correct":true,"confidence":6},{"trial_n":100,"n_dots":3.25,"target":"right","response":"right","rt":707.30000019073,"correct":true,"confidence":3},{"trial_n":101,"n_dots":3.15,"target":"right","response":"right","rt":54.200000286102,"correct":true,"confidence":4},{"trial_n":102,"n_dots":3.15,"target":"right","response":"left","rt":3554.2000002861,"correct":false,"confidence":3},{"trial_n":103,"n_dots":3.25,"target":"right","response":"right","rt":385.19999980927,"correct":true,"confidence":2},{"trial_n":104,"n_dots":3.25,"target":"left","response":"left","rt":507.60000038147,"correct":true,"confidence":5},{"trial_n":105,"n_dots":3.15,"target":"right","response":"right","rt":1310.4000000954,"correct":true,"confidence":2},{"trial_n":106,"n_dots":3.15,"target":"right","response":"right","rt":195.30000019073,"correct":true,"confidence":1},{"trial_n":107,"n_dots":3.05,"target":"left","response":"left","rt":244.59999990463,"correct":true,"confidence":5},{"trial_n":108,"n_dots":3.05,"target":"left","response":"left","rt":119.40000009537,"correct":true,"confidence":5},{"trial_n":109,"n_dots":2.95,"target":"left","response":"left","rt":421.19999980927,"correct":true,"confidence":5},{"trial_n":110,"n_dots":2.95,"target":"left","response":"left","rt":312.69999980927,"correct":true,"confidence":4},{"trial_n":111,"n_dots":2.85,"target":"right","response":"left","rt":387.19999980927,"correct":false,"confidence":3},{"trial_n":112,"n_dots":2.95,"target":"right","response":"left","rt":266,"correct":false,"confidence":3},{"trial_n":113,"n_dots":3.05,"target":"right","response":"right","rt":1032.8000001907,"correct":true,"confidence":3},{"trial_n":114,"n_dots":3.05,"target":"right","response":"left","rt":66.5,"correct":false,"confidence":3},{"trial_n":115,"n_dots":3.15,"target":"left","response":"left","rt":1328.9000000954,"correct":true,"confidence":4},{"trial_n":116,"n_dots":3.15,"target":"right","response":"left","rt":311.2000002861,"correct":false,"confidence":4},{"trial_n":117,"n_dots":3.25,"target":"right","response":"right","rt":142.2000002861,"correct":true,"confidence":4},{"trial_n":118,"n_dots":3.25,"target":"left","response":"left","rt":356.80000019073,"correct":true,"confidence":4},{"trial_n":119,"n_dots":3.15,"target":"right","response":"right","rt":178.19999980927,"correct":true,"confidence":4},{"trial_n":120,"n_dots":3.15,"target":"right","response":"right","rt":444.90000009537,"correct":true,"confidence":3},{"trial_n":121,"n_dots":3.05,"target":"right","response":"right","rt":259.5,"correct":true,"confidence":5},{"trial_n":122,"n_dots":3.05,"target":"right","response":"left","rt":661.19999980927,"correct":false,"confidence":2},{"trial_n":123,"n_dots":3.15,"target":"right","response":"right","rt":278.5,"correct":true,"confidence":4},{"trial_n":124,"n_dots":3.15,"target":"left","response":"left","rt":513.80000019073,"correct":true,"confidence":3},{"trial_n":125,"n_dots":3.05,"target":"right","response":"right","rt":493,"correct":true,"confidence":4},{"trial_n":126,"n_dots":3.05,"target":"left","response":"left","rt":347.7000002861,"correct":true,"confidence":3},{"trial_n":127,"n_dots":2.95,"target":"left","response":"left","rt":1204.2999997139,"correct":true,"confidence":3},{"trial_n":128,"n_dots":2.95,"target":"left","response":"left","rt":174.89999961853,"correct":true,"confidence":4},{"trial_n":129,"n_dots":2.85,"target":"right","response":"left","rt":876.60000038147,"correct":false,"confidence":3},{"trial_n":130,"n_dots":2.95,"target":"right","response":"left","rt":418.59999990463,"correct":false,"confidence":1},{"trial_n":131,"n_dots":3.05,"target":"left","response":"left","rt":143.2000002861,"correct":true,"confidence":4},{"trial_n":132,"n_dots":3.05,"target":"right","response":"left","rt":375.59999990463,"correct":false,"confidence":3},{"trial_n":133,"n_dots":3.15,"target":"right","response":"left","rt":314.59999990463,"correct":false,"confidence":4},{"trial_n":134,"n_dots":3.25,"target":"right","response":"left","rt":489.09999990463,"correct":false,"confidence":2},{"trial_n":135,"n_dots":3.35,"target":"right","response":"right","rt":412.2999997139,"correct":true,"confidence":3},{"trial_n":136,"n_dots":3.35,"target":"left","response":"left","rt":255.30000019073,"correct":true,"confidence":5},{"trial_n":137,"n_dots":3.25,"target":"left","response":"left","rt":271.69999980927,"correct":true,"confidence":4},{"trial_n":138,"n_dots":3.25,"target":"left","response":"left","rt":360.90000009537,"correct":true,"confidence":5},{"trial_n":139,"n_dots":3.15,"target":"left","response":"right","rt":359.30000019073,"correct":false,"confidence":4},{"trial_n":140,"n_dots":3.25,"target":"right","response":"right","rt":528,"correct":true,"confidence":3},{"trial_n":141,"n_dots":3.25,"target":"left","response":"left","rt":96.700000286102,"correct":true,"confidence":4},{"trial_n":142,"n_dots":3.15,"target":"left","response":"left","rt":221.19999980927,"correct":true,"confidence":4},{"trial_n":143,"n_dots":3.15,"target":"right","response":"right","rt":509.09999990463,"correct":true,"confidence":4},{"trial_n":144,"n_dots":3.05,"target":"left","response":"left","rt":763.59999990463,"correct":true,"confidence":4},{"trial_n":145,"n_dots":3.05,"target":"left","response":"left","rt":1736.5,"correct":true,"confidence":5},{"trial_n":146,"n_dots":2.95,"target":"left","response":"right","rt":10829.800000191,"correct":false,"confidence":1},{"trial_n":147,"n_dots":3.05,"target":"right","response":"left","rt":4434.3000001907,"correct":false,"confidence":1},{"trial_n":148,"n_dots":3.15,"target":"right","response":"left","rt":695.7000002861,"correct":false,"confidence":1},{"trial_n":149,"n_dots":3.25,"target":"left","response":"left","rt":465.09999990463,"correct":true,"confidence":3},{"trial_n":150,"n_dots":3.25,"target":"left","response":"left","rt":1353.9000000954,"correct":true,"confidence":3},{"trial_n":151,"n_dots":3.15,"target":"left","response":"left","rt":152.59999990463,"correct":true,"confidence":3},{"trial_n":152,"n_dots":3.15,"target":"left","response":"left","rt":298.59999990463,"correct":true,"confidence":4},{"trial_n":153,"n_dots":3.05,"target":"right","response":"right","rt":359.7000002861,"correct":true,"confidence":3},{"trial_n":154,"n_dots":3.05,"target":"left","response":"left","rt":283.59999990463,"correct":true,"confidence":3},{"trial_n":155,"n_dots":2.95,"target":"left","response":"left","rt":5.4000000953674,"correct":true,"confidence":4},{"trial_n":156,"n_dots":2.95,"target":"right","response":"right","rt":29.599999904633,"correct":true,"confidence":4},{"trial_n":157,"n_dots":2.85,"target":"right","response":"left","rt":811.19999980927,"correct":false,"confidence":3},{"trial_n":158,"n_dots":2.95,"target":"right","response":"right","rt":806.59999990463,"correct":true,"confidence":4},{"trial_n":159,"n_dots":2.95,"target":"right","response":"right","rt":1994.4000000954,"correct":true,"confidence":1},{"trial_n":160,"n_dots":2.85,"target":"right","response":"right","rt":1260.7999997139,"correct":true,"confidence":3},{"trial_n":161,"n_dots":2.85,"target":"right","response":"left","rt":823.30000019073,"correct":false,"confidence":3},{"trial_n":162,"n_dots":2.95,"target":"right","response":"right","rt":306.7000002861,"correct":true,"confidence":2},{"trial_n":163,"n_dots":2.95,"target":"right","response":"left","rt":262.5,"correct":false,"confidence":3},{"trial_n":164,"n_dots":3.05,"target":"left","response":"left","rt":532.69999980927,"correct":true,"confidence":4},{"trial_n":165,"n_dots":3.05,"target":"right","response":"right","rt":445.2000002861,"correct":true,"confidence":3},{"trial_n":166,"n_dots":2.95,"target":"left","response":"left","rt":871.5,"correct":true,"confidence":4},{"trial_n":167,"n_dots":2.95,"target":"left","response":"left","rt":2017.6999998093,"correct":true,"confidence":4},{"trial_n":168,"n_dots":2.85,"target":"right","response":"right","rt":305.40000009537,"correct":true,"confidence":4},{"trial_n":169,"n_dots":2.85,"target":"right","response":"right","rt":978.60000038147,"correct":true,"confidence":1},{"trial_n":170,"n_dots":2.75,"target":"left","response":"left","rt":350.60000038147,"correct":true,"confidence":1},{"trial_n":171,"n_dots":2.75,"target":"left","response":"left","rt":628.69999980927,"correct":true,"confidence":1},{"trial_n":172,"n_dots":2.65,"target":"right","response":"right","rt":319,"correct":true,"confidence":3},{"trial_n":173,"n_dots":2.65,"target":"right","response":"right","rt":610.90000009537,"correct":true,"confidence":4},{"trial_n":174,"n_dots":2.55,"target":"left","response":"left","rt":586.59999990463,"correct":true,"confidence":4},{"trial_n":175,"n_dots":2.55,"target":"left","response":"left","rt":335.40000009537,"correct":true,"confidence":4},{"trial_n":176,"n_dots":2.45,"target":"right","response":"left","rt":251.39999961853,"correct":false,"confidence":4},{"trial_n":177,"n_dots":2.55,"target":"left","response":"left","rt":316.09999990463,"correct":true,"confidence":4},{"trial_n":178,"n_dots":2.55,"target":"right","response":"right","rt":336.90000009537,"correct":true,"confidence":4},{"trial_n":179,"n_dots":2.45,"target":"left","response":"left","rt":191.40000009537,"correct":true,"confidence":6},{"trial_n":180,"n_dots":2.45,"target":"right","response":"right","rt":249.59999990463,"correct":true,"confidence":4},{"trial_n":181,"n_dots":2.35,"target":"left","response":"left","rt":316.5,"correct":true,"confidence":3},{"trial_n":182,"n_dots":2.35,"target":"right","response":"right","rt":160,"correct":true,"confidence":4},{"trial_n":183,"n_dots":2.25,"target":"right","response":"left","rt":198.40000009537,"correct":false,"confidence":4},{"trial_n":184,"n_dots":2.35,"target":"right","response":"right","rt":261.59999990463,"correct":true,"confidence":3},{"trial_n":185,"n_dots":2.35,"target":"right","response":"left","rt":318.89999961853,"correct":false,"confidence":4},{"trial_n":186,"n_dots":2.45,"target":"right","response":"left","rt":303.59999990463,"correct":false,"confidence":4},{"trial_n":187,"n_dots":2.55,"target":"left","response":"right","rt":385.7000002861,"correct":false,"confidence":4},{"trial_n":188,"n_dots":2.65,"target":"right","response":"right","rt":627.19999980927,"correct":true,"confidence":1},{"trial_n":189,"n_dots":2.65,"target":"right","response":"right","rt":382.5,"correct":true,"confidence":4},{"trial_n":190,"n_dots":2.55,"target":"left","response":"left","rt":819,"correct":true,"confidence":4},{"trial_n":191,"n_dots":2.55,"target":"left","response":"left","rt":176.69999980927,"correct":true,"confidence":3},{"trial_n":192,"n_dots":2.45,"target":"right","response":"right","rt":581.59999990463,"correct":true,"confidence":4},{"trial_n":193,"n_dots":2.45,"target":"right","response":"left","rt":391.90000009537,"correct":false,"confidence":4},{"trial_n":194,"n_dots":2.55,"target":"left","response":"left","rt":993.30000019073,"correct":true,"confidence":2}]