[{"trial_n":1,"n_dots":4.25,"target":"left","response":"left","rt":9596,"correct":true,"confidence":-1},{"trial_n":2,"n_dots":4.25,"target":"left","response":"left","rt":1139,"correct":true,"confidence":-1},{"trial_n":3,"n_dots":3.85,"target":"left","response":"left","rt":1864,"correct":true,"confidence":-1},{"trial_n":4,"n_dots":3.85,"target":"left","response":"right","rt":1602,"correct":false,"confidence":-1},{"trial_n":5,"n_dots":4.25,"target":"left","response":"left","rt":2885,"correct":true,"confidence":-1},{"trial_n":6,"n_dots":4.25,"target":"left","response":"right","rt":1322,"correct":false,"confidence":-1},{"trial_n":7,"n_dots":4.65,"target":"right","response":"right","rt":1275.0000000001,"correct":true,"confidence":-1},{"trial_n":8,"n_dots":4.65,"target":"left","response":"left","rt":1513,"correct":true,"confidence":-1},{"trial_n":9,"n_dots":4.45,"target":"right","response":"right","rt":1091,"correct":true,"confidence":-1},{"trial_n":10,"n_dots":4.45,"target":"right","response":"right","rt":1333.9999999999,"correct":true,"confidence":-1},{"trial_n":11,"n_dots":4.25,"target":"right","response":"left","rt":616.99999999994,"correct":false,"confidence":-1},{"trial_n":12,"n_dots":4.45,"target":"left","response":"left","rt":611,"correct":true,"confidence":-1},{"trial_n":13,"n_dots":4.45,"target":"left","response":"left","rt":1165,"correct":true,"confidence":-1},{"trial_n":14,"n_dots":4.35,"target":"left","response":"right","rt":600,"correct":false,"confidence":-1},{"trial_n":15,"n_dots":4.45,"target":"left","response":"left","rt":603,"correct":true,"confidence":-1},{"trial_n":16,"n_dots":4.45,"target":"left","response":"right","rt":1129.9999999999,"correct":false,"confidence":-1},{"trial_n":17,"n_dots":4.55,"target":"right","response":"right","rt":723.00000000006,"correct":true,"confidence":-1},{"trial_n":18,"n_dots":4.55,"target":"right","response":"right","rt":291,"correct":true,"confidence":-1},{"trial_n":19,"n_dots":4.45,"target":"left","response":"left","rt":1951,"correct":true,"confidence":-1},{"trial_n":20,"n_dots":4.45,"target":"right","response":"right","rt":767,"correct":true,"confidence":-1},{"trial_n":21,"n_dots":4.35,"target":"left","response":"left","rt":615.99999999994,"correct":true,"confidence":-1},{"trial_n":22,"n_dots":4.35,"target":"right","response":"right","rt":678,"correct":true,"confidence":-1},{"trial_n":23,"n_dots":4.25,"target":"right","response":"left","rt":953,"correct":false,"confidence":-1},{"trial_n":24,"n_dots":4.35,"target":"right","response":"right","rt":440,"correct":true,"confidence":-1},{"trial_n":25,"n_dots":4.35,"target":"right","response":"right","rt":1243,"correct":true,"confidence":-1},{"trial_n":26,"n_dots":4.25,"target":"left","response":"left","rt":2534,"correct":true,"confidence":-1},{"trial_n":27,"n_dots":4.25,"target":"left","response":"right","rt":3688.9999999999,"correct":false,"confidence":1},{"trial_n":28,"n_dots":4.35,"target":"left","response":"left","rt":1887,"correct":true,"confidence":3},{"trial_n":29,"n_dots":4.35,"target":"left","response":"left","rt":386.00000000006,"correct":true,"confidence":2},{"trial_n":30,"n_dots":4.25,"target":"left","response":"left","rt":887,"correct":true,"confidence":3},{"trial_n":31,"n_dots":4.25,"target":"right","response":"left","rt":3121,"correct":false,"confidence":1},{"trial_n":32,"n_dots":4.35,"target":"right","response":"right","rt":1322,"correct":true,"confidence":3},{"trial_n":33,"n_dots":4.35,"target":"left","response":"left","rt":2305,"correct":true,"confidence":3},{"trial_n":34,"n_dots":4.25,"target":"left","response":"left","rt":1326,"correct":true,"confidence":2},{"trial_n":35,"n_dots":4.25,"target":"right","response":"left","rt":1890.0000000005,"correct":false,"confidence":4},{"trial_n":36,"n_dots":4.35,"target":"left","response":"left","rt":3124,"correct":true,"confidence":3},{"trial_n":37,"n_dots":4.35,"target":"right","response":"right","rt":786,"correct":true,"confidence":3},{"trial_n":38,"n_dots":4.25,"target":"right","response":"right","rt":2780.9999999995,"correct":true,"confidence":2},{"trial_n":39,"n_dots":4.25,"target":"left","response":"right","rt":2298,"correct":false,"confidence":2},{"trial_n":40,"n_dots":4.35,"target":"right","response":"right","rt":1155,"correct":true,"confidence":5},{"trial_n":41,"n_dots":4.35,"target":"left","response":"left","rt":1355,"correct":true,"confidence":2},{"trial_n":42,"n_dots":4.25,"target":"right","response":"right","rt":1266.0000000005,"correct":true,"confidence":3},{"trial_n":43,"n_dots":4.25,"target":"right","response":"right","rt":1392,"correct":true,"confidence":3},{"trial_n":44,"n_dots":4.15,"target":"left","response":"left","rt":2604,"correct":true,"confidence":2},{"trial_n":45,"n_dots":4.15,"target":"right","response":"right","rt":1286.0000000005,"correct":true,"confidence":5},{"trial_n":46,"n_dots":4.05,"target":"left","response":"left","rt":907,"correct":true,"confidence":4},{"trial_n":47,"n_dots":4.05,"target":"left","response":"left","rt":2268,"correct":true,"confidence":2},{"trial_n":48,"n_dots":3.95,"target":"right","response":"right","rt":1247,"correct":true,"confidence":3},{"trial_n":49,"n_dots":3.95,"target":"right","response":"right","rt":1277,"correct":true,"confidence":3},{"trial_n":50,"n_dots":3.85,"target":"left","response":"left","rt":1243,"correct":true,"confidence":2},{"trial_n":51,"n_dots":3.85,"target":"right","response":"right","rt":1137,"correct":true,"confidence":5},{"trial_n":52,"n_dots":3.75,"target":"right","response":"right","rt":1320,"correct":true,"confidence":4},{"trial_n":53,"n_dots":3.75,"target":"right","response":"left","rt":24666,"correct":false,"confidence":1},{"trial_n":54,"n_dots":3.85,"target":"left","response":"right","rt":1281,"correct":false,"confidence":3},{"trial_n":55,"n_dots":3.95,"target":"right","response":"right","rt":1051,"correct":true,"confidence":3},{"trial_n":56,"n_dots":3.95,"target":"right","response":"right","rt":977,"correct":true,"confidence":4},{"trial_n":57,"n_dots":3.85,"target":"left","response":"left","rt":681,"correct":true,"confidence":5},{"trial_n":58,"n_dots":3.85,"target":"right","response":"right","rt":767,"correct":true,"confidence":4},{"trial_n":59,"n_dots":3.75,"target":"left","response":"left","rt":1178.0000000005,"correct":true,"confidence":3},{"trial_n":60,"n_dots":3.75,"target":"right","response":"right","rt":669,"correct":true,"confidence":4},{"trial_n":61,"n_dots":3.65,"target":"left","response":"left","rt":1027,"correct":true,"confidence":2},{"trial_n":62,"n_dots":3.65,"target":"right","response":"right","rt":2036,"correct":true,"confidence":4},{"trial_n":63,"n_dots":3.55,"target":"left","response":"left","rt":1000,"correct":true,"confidence":3},{"trial_n":64,"n_dots":3.55,"target":"right","response":"left","rt":1619,"correct":false,"confidence":2},{"trial_n":65,"n_dots":3.65,"target":"right","response":"right","rt":653,"correct":true,"confidence":2},{"trial_n":66,"n_dots":3.65,"target":"right","response":"left","rt":1702,"correct":false,"confidence":1},{"trial_n":67,"n_dots":3.75,"target":"left","response":"right","rt":1385.0000000005,"correct":false,"confidence":4},{"trial_n":68,"n_dots":3.85,"target":"right","response":"right","rt":1311,"correct":true,"confidence":3},{"trial_n":69,"n_dots":3.85,"target":"right","response":"right","rt":1203,"correct":true,"confidence":4},{"trial_n":70,"n_dots":3.75,"target":"left","response":"left","rt":612,"correct":true,"confidence":4},{"trial_n":71,"n_dots":3.75,"target":"left","response":"left","rt":660,"correct":true,"confidence":3},{"trial_n":72,"n_dots":3.65,"target":"right","response":"right","rt":1370,"correct":true,"confidence":2},{"trial_n":73,"n_dots":3.65,"target":"left","response":"left","rt":1186,"correct":true,"confidence":2},{"trial_n":74,"n_dots":3.55,"target":"left","response":"left","rt":1358,"correct":true,"confidence":4},{"trial_n":75,"n_dots":3.55,"target":"left","response":"left","rt":1095.0000000005,"correct":true,"confidence":3},{"trial_n":76,"n_dots":3.45,"target":"right","response":"left","rt":1434,"correct":false,"confidence":3},{"trial_n":77,"n_dots":3.55,"target":"left","response":"left","rt":1084,"correct":true,"confidence":4},{"trial_n":78,"n_dots":3.55,"target":"right","response":"right","rt":1073,"correct":true,"confidence":4},{"trial_n":79,"n_dots":3.45,"target":"right","response":"right","rt":762.00000000047,"correct":true,"confidence":3},{"trial_n":80,"n_dots":3.45,"target":"right","response":"right","rt":789,"correct":true,"confidence":4},{"trial_n":81,"n_dots":3.35,"target":"left","response":"left","rt":1168.0000000005,"correct":true,"confidence":3},{"trial_n":82,"n_dots":3.35,"target":"right","response":"right","rt":759,"correct":true,"confidence":4},{"trial_n":83,"n_dots":3.25,"target":"right","response":"right","rt":1128.9999999995,"correct":true,"confidence":4},{"trial_n":84,"n_dots":3.25,"target":"right","response":"right","rt":-2895171,"correct":true,"confidence":3},{"trial_n":85,"n_dots":3.15,"target":"left","response":"left","rt":-2909771,"correct":true,"confidence":2},{"trial_n":86,"n_dots":3.15,"target":"right","response":"left","rt":3035.0000000005,"correct":false,"confidence":4},{"trial_n":87,"n_dots":3.25,"target":"right","response":"right","rt":813,"correct":true,"confidence":4},{"trial_n":88,"n_dots":3.25,"target":"right","response":"right","rt":822,"correct":true,"confidence":3},{"trial_n":89,"n_dots":3.15,"target":"left","response":"left","rt":1110,"correct":true,"confidence":2},{"trial_n":90,"n_dots":3.15,"target":"right","response":"left","rt":1570.9999999995,"correct":false,"confidence":2},{"trial_n":91,"n_dots":3.25,"target":"left","response":"right","rt":947.00000000047,"correct":false,"confidence":3},{"trial_n":92,"n_dots":3.35,"target":"right","response":"right","rt":719,"correct":true,"confidence":3},{"trial_n":93,"n_dots":3.35,"target":"left","response":"left","rt":1152.9999999995,"correct":true,"confidence":4},{"trial_n":94,"n_dots":3.25,"target":"left","response":"left","rt":1038.9999999995,"correct":true,"confidence":2},{"trial_n":95,"n_dots":3.25,"target":"left","response":"left","rt":1362,"correct":true,"confidence":2},{"trial_n":96,"n_dots":3.15,"target":"left","response":"left","rt":1125,"correct":true,"confidence":2},{"trial_n":97,"n_dots":3.15,"target":"right","response":"right","rt":504,"correct":true,"confidence":3},{"trial_n":98,"n_dots":3.05,"target":"right","response":"right","rt":1643,"correct":true,"confidence":2},{"trial_n":99,"n_dots":3.05,"target":"right","response":"left","rt":2316,"correct":false,"confidence":3},{"trial_n":100,"n_dots":3.15,"target":"right","response":"right","rt":953,"correct":true,"confidence":4},{"trial_n":101,"n_dots":3.15,"target":"right","response":"right","rt":987.00000000047,"correct":true,"confidence":5},{"trial_n":102,"n_dots":3.05,"target":"right","response":"right","rt":1650,"correct":true,"confidence":4},{"trial_n":103,"n_dots":3.05,"target":"left","response":"left","rt":1224,"correct":true,"confidence":3},{"trial_n":104,"n_dots":2.95,"target":"right","response":"right","rt":1081.9999999995,"correct":true,"confidence":4},{"trial_n":105,"n_dots":2.95,"target":"right","response":"left","rt":17822,"correct":false,"confidence":1},{"trial_n":106,"n_dots":3.05,"target":"right","response":"right","rt":1003,"correct":true,"confidence":3},{"trial_n":107,"n_dots":3.05,"target":"left","response":"left","rt":1401,"correct":true,"confidence":2},{"trial_n":108,"n_dots":2.95,"target":"right","response":"right","rt":1327,"correct":true,"confidence":3},{"trial_n":109,"n_dots":2.95,"target":"right","response":"right","rt":1994,"correct":true,"confidence":2},{"trial_n":110,"n_dots":2.85,"target":"right","response":"right","rt":1227,"correct":true,"confidence":2},{"trial_n":111,"n_dots":2.85,"target":"left","response":"left","rt":1048,"correct":true,"confidence":4},{"trial_n":112,"n_dots":2.75,"target":"left","response":"left","rt":1568,"correct":true,"confidence":3},{"trial_n":113,"n_dots":2.75,"target":"right","response":"right","rt":1269.0000000005,"correct":true,"confidence":2},{"trial_n":114,"n_dots":2.65,"target":"left","response":"left","rt":1085,"correct":true,"confidence":4},{"trial_n":115,"n_dots":2.65,"target":"right","response":"right","rt":1177,"correct":true,"confidence":3},{"trial_n":116,"n_dots":2.55,"target":"right","response":"right","rt":1193,"correct":true,"confidence":4},{"trial_n":117,"n_dots":2.55,"target":"right","response":"right","rt":1226,"correct":true,"confidence":3},{"trial_n":118,"n_dots":2.45,"target":"left","response":"left","rt":1055.0000000005,"correct":true,"confidence":2},{"trial_n":119,"n_dots":2.45,"target":"left","response":"right","rt":1449,"correct":false,"confidence":2},{"trial_n":120,"n_dots":2.55,"target":"right","response":"left","rt":1079,"correct":false,"confidence":3},{"trial_n":121,"n_dots":2.65,"target":"left","response":"right","rt":891,"correct":false,"confidence":2},{"trial_n":122,"n_dots":2.75,"target":"right","response":"left","rt":1698,"correct":false,"confidence":2},{"trial_n":123,"n_dots":2.85,"target":"left","response":"left","rt":1205.9999999995,"correct":true,"confidence":2},{"trial_n":124,"n_dots":2.85,"target":"left","response":"left","rt":1076,"correct":true,"confidence":4},{"trial_n":125,"n_dots":2.75,"target":"right","response":"right","rt":811,"correct":true,"confidence":3},{"trial_n":126,"n_dots":2.75,"target":"left","response":"right","rt":1344,"correct":false,"confidence":4},{"trial_n":127,"n_dots":2.85,"target":"right","response":"right","rt":977.99999999953,"correct":true,"confidence":4},{"trial_n":128,"n_dots":2.85,"target":"right","response":"left","rt":572.99999999953,"correct":false,"confidence":3},{"trial_n":129,"n_dots":2.95,"target":"right","response":"right","rt":1646,"correct":true,"confidence":2},{"trial_n":130,"n_dots":2.95,"target":"right","response":"right","rt":940,"correct":true,"confidence":2},{"trial_n":131,"n_dots":2.85,"target":"left","response":"left","rt":1168,"correct":true,"confidence":4},{"trial_n":132,"n_dots":2.85,"target":"right","response":"right","rt":1486,"correct":true,"confidence":2},{"trial_n":133,"n_dots":2.75,"target":"left","response":"left","rt":1136,"correct":true,"confidence":3},{"trial_n":134,"n_dots":2.75,"target":"left","response":"right","rt":851,"correct":false,"confidence":4},{"trial_n":135,"n_dots":2.85,"target":"right","response":"left","rt":1553.9999999995,"correct":false,"confidence":1},{"trial_n":136,"n_dots":2.95,"target":"left","response":"left","rt":1277.0000000005,"correct":true,"confidence":1},{"trial_n":137,"n_dots":2.95,"target":"right","response":"right","rt":1042.0000000005,"correct":true,"confidence":2},{"trial_n":138,"n_dots":2.85,"target":"left","response":"left","rt":1237,"correct":true,"confidence":2},{"trial_n":139,"n_dots":2.85,"target":"right","response":"right","rt":1055,"correct":true,"confidence":3},{"trial_n":140,"n_dots":2.75,"target":"left","response":"left","rt":805.00000000047,"correct":true,"confidence":2},{"trial_n":141,"n_dots":2.75,"target":"left","response":"left","rt":1251,"correct":true,"confidence":2},{"trial_n":142,"n_dots":2.65,"target":"right","response":"right","rt":501.00000000047,"correct":true,"confidence":1},{"trial_n":143,"n_dots":2.65,"target":"left","response":"left","rt":1210,"correct":true,"confidence":2},{"trial_n":144,"n_dots":2.55,"target":"left","response":"left","rt":1188,"correct":true,"confidence":3},{"trial_n":145,"n_dots":2.55,"target":"left","response":"left","rt":847.99999999953,"correct":true,"confidence":2},{"trial_n":146,"n_dots":2.45,"target":"right","response":"left","rt":1189,"correct":false,"confidence":3},{"trial_n":147,"n_dots":2.55,"target":"right","response":"right","rt":1199,"correct":true,"confidence":3},{"trial_n":148,"n_dots":2.55,"target":"left","response":"left","rt":686,"correct":true,"confidence":2},{"trial_n":149,"n_dots":2.45,"target":"left","response":"left","rt":1045,"correct":true,"confidence":3},{"trial_n":150,"n_dots":2.45,"target":"right","response":"right","rt":1226,"correct":true,"confidence":3},{"trial_n":151,"n_dots":2.35,"target":"left","response":"right","rt":1048,"correct":false,"confidence":4},{"trial_n":152,"n_dots":2.45,"target":"right","response":"right","rt":1205,"correct":true,"confidence":3},{"trial_n":153,"n_dots":2.45,"target":"right","response":"right","rt":1389,"correct":true,"confidence":3},{"trial_n":154,"n_dots":2.35,"target":"right","response":"left","rt":1549,"correct":false,"confidence":2},{"trial_n":155,"n_dots":2.45,"target":"left","response":"left","rt":1296,"correct":true,"confidence":4},{"trial_n":156,"n_dots":2.45,"target":"left","response":"left","rt":1570,"correct":true,"confidence":5},{"trial_n":157,"n_dots":2.35,"target":"right","response":"right","rt":1136.0000000005,"correct":true,"confidence":3},{"trial_n":158,"n_dots":2.35,"target":"right","response":"left","rt":1728.9999999995,"correct":false,"confidence":1},{"trial_n":159,"n_dots":2.45,"target":"left","response":"left","rt":1779,"correct":true,"confidence":1},{"trial_n":160,"n_dots":2.45,"target":"left","response":"right","rt":1544,"correct":false,"confidence":3},{"trial_n":161,"n_dots":2.55,"target":"right","response":"left","rt":1152.0000000005,"correct":false,"confidence":2},{"trial_n":162,"n_dots":2.65,"target":"right","response":"left","rt":1232,"correct":false,"confidence":2},{"trial_n":163,"n_dots":2.75,"target":"left","response":"left","rt":2691,"correct":true,"confidence":3},{"trial_n":164,"n_dots":2.75,"target":"right","response":"right","rt":826,"correct":true,"confidence":3},{"trial_n":165,"n_dots":2.65,"target":"right","response":"left","rt":1206,"correct":false,"confidence":2},{"trial_n":166,"n_dots":2.75,"target":"left","response":"left","rt":1008.9999999995,"correct":true,"confidence":3},{"trial_n":167,"n_dots":2.75,"target":"left","response":"left","rt":1725,"correct":true,"confidence":2},{"trial_n":168,"n_dots":2.65,"target":"left","response":"left","rt":779,"correct":true,"confidence":3},{"trial_n":169,"n_dots":2.65,"target":"right","response":"right","rt":1011,"correct":true,"confidence":2},{"trial_n":170,"n_dots":2.55,"target":"right","response":"left","rt":1081.9999999995,"correct":false,"confidence":2},{"trial_n":171,"n_dots":2.65,"target":"left","response":"left","rt":1365,"correct":true,"confidence":2},{"trial_n":172,"n_dots":2.65,"target":"left","response":"right","rt":1402,"correct":false,"confidence":3},{"trial_n":173,"n_dots":2.75,"target":"right","response":"left","rt":1294,"correct":false,"confidence":2},{"trial_n":174,"n_dots":2.85,"target":"left","response":"left","rt":968.99999999953,"correct":true,"confidence":3},{"trial_n":175,"n_dots":2.85,"target":"right","response":"right","rt":760,"correct":true,"confidence":3},{"trial_n":176,"n_dots":2.75,"target":"left","response":"right","rt":1026,"correct":false,"confidence":4},{"trial_n":177,"n_dots":2.85,"target":"left","response":"right","rt":1899,"correct":false,"confidence":2},{"trial_n":178,"n_dots":2.95,"target":"right","response":"left","rt":766,"correct":false,"confidence":2},{"trial_n":179,"n_dots":3.05,"target":"left","response":"left","rt":1197,"correct":true,"confidence":3},{"trial_n":180,"n_dots":3.05,"target":"left","response":"right","rt":709,"correct":false,"confidence":3},{"trial_n":181,"n_dots":3.15,"target":"left","response":"left","rt":853,"correct":true,"confidence":3},{"trial_n":182,"n_dots":3.15,"target":"left","response":"right","rt":989,"correct":false,"confidence":2},{"trial_n":183,"n_dots":3.25,"target":"right","response":"right","rt":1349.0000000005,"correct":true,"confidence":4},{"trial_n":184,"n_dots":3.25,"target":"left","response":"left","rt":1070.0000000005,"correct":true,"confidence":4},{"trial_n":185,"n_dots":3.15,"target":"right","response":"right","rt":1384,"correct":true,"confidence":3},{"trial_n":186,"n_dots":3.15,"target":"left","response":"right","rt":2084.9999999995,"correct":false,"confidence":2},{"trial_n":187,"n_dots":3.25,"target":"left","response":"left","rt":3690,"correct":true,"confidence":1},{"trial_n":188,"n_dots":3.25,"target":"left","response":"right","rt":1444.9999999995,"correct":false,"confidence":1},{"trial_n":189,"n_dots":3.35,"target":"left","response":"left","rt":1152.0000000005,"correct":true,"confidence":4},{"trial_n":190,"n_dots":3.35,"target":"left","response":"left","rt":1495.0000000005,"correct":true,"confidence":3},{"trial_n":191,"n_dots":3.25,"target":"left","response":"right","rt":1043,"correct":false,"confidence":3},{"trial_n":192,"n_dots":3.35,"target":"right","response":"right","rt":1235,"correct":true,"confidence":2},{"trial_n":193,"n_dots":3.35,"target":"left","response":"left","rt":1300.0000000005,"correct":true,"confidence":4},{"trial_n":194,"n_dots":3.25,"target":"right","response":"right","rt":1410,"correct":true,"confidence":4}]