[{"trial_n":1,"n_dots":4.25,"target":"right","response":"right","rt":4589.5,"correct":true,"confidence":-1},{"trial_n":2,"n_dots":4.25,"target":"left","response":"left","rt":463.10000002384,"correct":true,"confidence":-1},{"trial_n":3,"n_dots":3.85,"target":"left","response":"left","rt":364.29999995232,"correct":true,"confidence":-1},{"trial_n":4,"n_dots":3.85,"target":"left","response":"left","rt":295.89999997616,"correct":true,"confidence":-1},{"trial_n":5,"n_dots":3.45,"target":"left","response":"left","rt":372.5,"correct":true,"confidence":-1},{"trial_n":6,"n_dots":3.45,"target":"right","response":"right","rt":639.70000004768,"correct":true,"confidence":-1},{"trial_n":7,"n_dots":3.05,"target":"left","response":"left","rt":353.39999997616,"correct":true,"confidence":-1},{"trial_n":8,"n_dots":3.05,"target":"left","response":"left","rt":307.5,"correct":true,"confidence":-1},{"trial_n":9,"n_dots":2.85,"target":"right","response":"right","rt":631.20000004768,"correct":true,"confidence":-1},{"trial_n":10,"n_dots":2.85,"target":"left","response":"left","rt":219.60000002384,"correct":true,"confidence":-1},{"trial_n":11,"n_dots":2.65,"target":"right","response":"right","rt":768.5,"correct":true,"confidence":-1},{"trial_n":12,"n_dots":2.65,"target":"right","response":"left","rt":878.10000002384,"correct":false,"confidence":-1},{"trial_n":13,"n_dots":2.75,"target":"left","response":"left","rt":255.60000002384,"correct":true,"confidence":-1},{"trial_n":14,"n_dots":2.75,"target":"left","response":"left","rt":250,"correct":true,"confidence":-1},{"trial_n":15,"n_dots":2.65,"target":"left","response":"left","rt":402,"correct":true,"confidence":-1},{"trial_n":16,"n_dots":2.65,"target":"left","response":"right","rt":203.39999997616,"correct":false,"confidence":-1},{"trial_n":17,"n_dots":2.75,"target":"right","response":"left","rt":301.60000002384,"correct":false,"confidence":-1},{"trial_n":18,"n_dots":2.85,"target":"right","response":"right","rt":888.5,"correct":true,"confidence":-1},{"trial_n":19,"n_dots":2.85,"target":"right","response":"left","rt":292.89999997616,"correct":false,"confidence":-1},{"trial_n":20,"n_dots":2.95,"target":"right","response":"left","rt":750,"correct":false,"confidence":-1},{"trial_n":21,"n_dots":3.05,"target":"left","response":"left","rt":383.5,"correct":true,"confidence":-1},{"trial_n":22,"n_dots":3.05,"target":"right","response":"left","rt":646.5,"correct":false,"confidence":-1},{"trial_n":23,"n_dots":3.15,"target":"right","response":"left","rt":302,"correct":false,"confidence":-1},{"trial_n":24,"n_dots":3.25,"target":"left","response":"left","rt":304,"correct":true,"confidence":-1},{"trial_n":25,"n_dots":3.25,"target":"left","response":"right","rt":551.89999997616,"correct":false,"confidence":-1},{"trial_n":26,"n_dots":3.35,"target":"left","response":"left","rt":139.79999995232,"correct":true,"confidence":-1},{"trial_n":27,"n_dots":3.35,"target":"right","response":"left","rt":593.10000002384,"correct":false,"confidence":3},{"trial_n":28,"n_dots":3.45,"target":"right","response":"left","rt":785.59999990463,"correct":false,"confidence":5},{"trial_n":29,"n_dots":3.55,"target":"left","response":"left","rt":364.79999995232,"correct":true,"confidence":6},{"trial_n":30,"n_dots":3.55,"target":"right","response":"left","rt":631.60000002384,"correct":false,"confidence":2},{"trial_n":31,"n_dots":3.65,"target":"left","response":"left","rt":245.89999997616,"correct":true,"confidence":6},{"trial_n":32,"n_dots":3.65,"target":"right","response":"right","rt":441.90000009537,"correct":true,"confidence":1},{"trial_n":33,"n_dots":3.55,"target":"right","response":"left","rt":1430.3000000715,"correct":false,"confidence":1},{"trial_n":34,"n_dots":3.65,"target":"left","response":"left","rt":717,"correct":true,"confidence":4},{"trial_n":35,"n_dots":3.65,"target":"right","response":"right","rt":477.80000007153,"correct":true,"confidence":4},{"trial_n":36,"n_dots":3.55,"target":"right","response":"left","rt":445.39999997616,"correct":false,"confidence":3},{"trial_n":37,"n_dots":3.65,"target":"left","response":"left","rt":368.60000002384,"correct":true,"confidence":5},{"trial_n":38,"n_dots":3.65,"target":"left","response":"left","rt":541.20000004768,"correct":true,"confidence":5},{"trial_n":39,"n_dots":3.55,"target":"right","response":"right","rt":402.5,"correct":true,"confidence":1},{"trial_n":40,"n_dots":3.55,"target":"left","response":"left","rt":265.79999995232,"correct":true,"confidence":3},{"trial_n":41,"n_dots":3.45,"target":"right","response":"right","rt":264.29999995232,"correct":true,"confidence":1},{"trial_n":42,"n_dots":3.45,"target":"left","response":"left","rt":226.39999997616,"correct":true,"confidence":6},{"trial_n":43,"n_dots":3.35,"target":"left","response":"left","rt":264.69999992847,"correct":true,"confidence":5},{"trial_n":44,"n_dots":3.35,"target":"right","response":"left","rt":265.79999995232,"correct":false,"confidence":3},{"trial_n":45,"n_dots":3.45,"target":"right","response":"left","rt":350.20000004768,"correct":false,"confidence":5},{"trial_n":46,"n_dots":3.55,"target":"left","response":"left","rt":268,"correct":true,"confidence":6},{"trial_n":47,"n_dots":3.55,"target":"right","response":"left","rt":648.80000007153,"correct":false,"confidence":1},{"trial_n":48,"n_dots":3.65,"target":"right","response":"right","rt":1472.1999999285,"correct":true,"confidence":1},{"trial_n":49,"n_dots":3.65,"target":"right","response":"right","rt":453.39999997616,"correct":true,"confidence":1},{"trial_n":50,"n_dots":3.55,"target":"left","response":"left","rt":261.89999997616,"correct":true,"confidence":5},{"trial_n":51,"n_dots":3.55,"target":"right","response":"right","rt":240.39999997616,"correct":true,"confidence":4},{"trial_n":52,"n_dots":3.45,"target":"left","response":"left","rt":467.10000002384,"correct":true,"confidence":5},{"trial_n":53,"n_dots":3.45,"target":"left","response":"right","rt":587.70000004768,"correct":false,"confidence":1},{"trial_n":54,"n_dots":3.55,"target":"right","response":"right","rt":256.40000009537,"correct":true,"confidence":1},{"trial_n":55,"n_dots":3.55,"target":"left","response":"left","rt":297.5,"correct":true,"confidence":5},{"trial_n":56,"n_dots":3.45,"target":"right","response":"left","rt":532.79999995232,"correct":false,"confidence":3},{"trial_n":57,"n_dots":3.55,"target":"right","response":"right","rt":537.79999995232,"correct":true,"confidence":3},{"trial_n":58,"n_dots":3.55,"target":"right","response":"right","rt":652.5,"correct":true,"confidence":1},{"trial_n":59,"n_dots":3.45,"target":"right","response":"right","rt":1502.7000000477,"correct":true,"confidence":5},{"trial_n":60,"n_dots":3.45,"target":"left","response":"left","rt":387.10000002384,"correct":true,"confidence":5},{"trial_n":61,"n_dots":3.35,"target":"right","response":"right","rt":465.20000004768,"correct":true,"confidence":3},{"trial_n":62,"n_dots":3.35,"target":"left","response":"left","rt":332.20000004768,"correct":true,"confidence":4},{"trial_n":63,"n_dots":3.25,"target":"left","response":"left","rt":567.79999995232,"correct":true,"confidence":6},{"trial_n":64,"n_dots":3.25,"target":"right","response":"right","rt":491.10000002384,"correct":true,"confidence":2},{"trial_n":65,"n_dots":3.15,"target":"right","response":"right","rt":667.29999995232,"correct":true,"confidence":1},{"trial_n":66,"n_dots":3.15,"target":"left","response":"left","rt":351.70000004768,"correct":true,"confidence":4},{"trial_n":67,"n_dots":3.05,"target":"left","response":"left","rt":507,"correct":true,"confidence":5},{"trial_n":68,"n_dots":3.05,"target":"right","response":"right","rt":500.10000002384,"correct":true,"confidence":2},{"trial_n":69,"n_dots":2.95,"target":"left","response":"left","rt":439,"correct":true,"confidence":3},{"trial_n":70,"n_dots":2.95,"target":"right","response":"left","rt":650.39999997616,"correct":false,"confidence":1},{"trial_n":71,"n_dots":3.05,"target":"right","response":"right","rt":861.19999992847,"correct":true,"confidence":1},{"trial_n":72,"n_dots":3.05,"target":"right","response":"right","rt":429.29999995232,"correct":true,"confidence":1},{"trial_n":73,"n_dots":2.95,"target":"left","response":"left","rt":468.80000007153,"correct":true,"confidence":5},{"trial_n":74,"n_dots":2.95,"target":"left","response":"left","rt":640.10000002384,"correct":true,"confidence":6},{"trial_n":75,"n_dots":2.85,"target":"right","response":"right","rt":446.30000007153,"correct":true,"confidence":1},{"trial_n":76,"n_dots":2.85,"target":"left","response":"left","rt":437.89999997616,"correct":true,"confidence":5},{"trial_n":77,"n_dots":2.75,"target":"right","response":"right","rt":470.39999997616,"correct":true,"confidence":3},{"trial_n":78,"n_dots":2.75,"target":"left","response":"left","rt":394.10000002384,"correct":true,"confidence":5},{"trial_n":79,"n_dots":2.65,"target":"left","response":"left","rt":438.5,"correct":true,"confidence":2},{"trial_n":80,"n_dots":2.65,"target":"right","response":"right","rt":482.70000004768,"correct":true,"confidence":1},{"trial_n":81,"n_dots":2.55,"target":"right","response":"left","rt":277.79999995232,"correct":false,"confidence":3},{"trial_n":82,"n_dots":2.65,"target":"right","response":"right","rt":624.89999997616,"correct":true,"confidence":1},{"trial_n":83,"n_dots":2.65,"target":"left","response":"right","rt":493.30000007153,"correct":false,"confidence":1},{"trial_n":84,"n_dots":2.75,"target":"right","response":"left","rt":516.19999992847,"correct":false,"confidence":1},{"trial_n":85,"n_dots":2.85,"target":"left","response":"left","rt":444,"correct":true,"confidence":2},{"trial_n":86,"n_dots":2.85,"target":"left","response":"left","rt":493.69999992847,"correct":true,"confidence":2},{"trial_n":87,"n_dots":2.75,"target":"left","response":"left","rt":665.70000004768,"correct":true,"confidence":4},{"trial_n":88,"n_dots":2.75,"target":"left","response":"left","rt":568.19999992847,"correct":true,"confidence":2},{"trial_n":89,"n_dots":2.65,"target":"right","response":"right","rt":544.10000002384,"correct":true,"confidence":1},{"trial_n":90,"n_dots":2.65,"target":"left","response":"left","rt":363.30000007153,"correct":true,"confidence":6},{"trial_n":91,"n_dots":2.55,"target":"left","response":"left","rt":786.19999992847,"correct":true,"confidence":2},{"trial_n":92,"n_dots":2.55,"target":"left","response":"right","rt":692.79999995232,"correct":false,"confidence":3},{"trial_n":93,"n_dots":2.65,"target":"right","response":"right","rt":434.70000004768,"correct":true,"confidence":2},{"trial_n":94,"n_dots":2.65,"target":"right","response":"right","rt":750.89999997616,"correct":true,"confidence":2},{"trial_n":95,"n_dots":2.55,"target":"left","response":"left","rt":535.10000002384,"correct":true,"confidence":5},{"trial_n":96,"n_dots":2.55,"target":"right","response":"left","rt":781.89999997616,"correct":false,"confidence":1},{"trial_n":97,"n_dots":2.65,"target":"right","response":"left","rt":877.39999997616,"correct":false,"confidence":3},{"trial_n":98,"n_dots":2.75,"target":"right","response":"right","rt":531,"correct":true,"confidence":2},{"trial_n":99,"n_dots":2.75,"target":"right","response":"left","rt":415.39999997616,"correct":false,"confidence":5},{"trial_n":100,"n_dots":2.85,"target":"right","response":"left","rt":633.90000009537,"correct":false,"confidence":3},{"trial_n":101,"n_dots":2.95,"target":"right","response":"right","rt":583.19999992847,"correct":true,"confidence":3},{"trial_n":102,"n_dots":2.95,"target":"left","response":"left","rt":394.5,"correct":true,"confidence":5},{"trial_n":103,"n_dots":2.85,"target":"left","response":"left","rt":403.10000002384,"correct":true,"confidence":3},{"trial_n":104,"n_dots":2.85,"target":"right","response":"left","rt":385.40000009537,"correct":false,"confidence":2},{"trial_n":105,"n_dots":2.95,"target":"right","response":"right","rt":533,"correct":true,"confidence":3},{"trial_n":106,"n_dots":2.95,"target":"left","response":"left","rt":746.30000007153,"correct":true,"confidence":2},{"trial_n":107,"n_dots":2.85,"target":"right","response":"left","rt":925.19999992847,"correct":false,"confidence":2},{"trial_n":108,"n_dots":2.95,"target":"left","response":"left","rt":792.39999997616,"correct":true,"confidence":3},{"trial_n":109,"n_dots":2.95,"target":"left","response":"left","rt":564.5,"correct":true,"confidence":4},{"trial_n":110,"n_dots":2.85,"target":"left","response":"left","rt":610.39999997616,"correct":true,"confidence":5},{"trial_n":111,"n_dots":2.85,"target":"left","response":"left","rt":608.5,"correct":true,"confidence":3},{"trial_n":112,"n_dots":2.75,"target":"left","response":"right","rt":569.80000007153,"correct":false,"confidence":1},{"trial_n":113,"n_dots":2.85,"target":"right","response":"right","rt":968.5,"correct":true,"confidence":3},{"trial_n":114,"n_dots":2.85,"target":"right","response":"right","rt":364.39999997616,"correct":true,"confidence":2},{"trial_n":115,"n_dots":2.75,"target":"right","response":"left","rt":612.60000002384,"correct":false,"confidence":2},{"trial_n":116,"n_dots":2.85,"target":"right","response":"left","rt":408,"correct":false,"confidence":2},{"trial_n":117,"n_dots":2.95,"target":"right","response":"left","rt":595.90000009537,"correct":false,"confidence":1},{"trial_n":118,"n_dots":3.05,"target":"right","response":"right","rt":351.69999992847,"correct":true,"confidence":3},{"trial_n":119,"n_dots":3.05,"target":"right","response":"right","rt":306.89999997616,"correct":true,"confidence":4},{"trial_n":120,"n_dots":2.95,"target":"right","response":"left","rt":298.30000007153,"correct":false,"confidence":2},{"trial_n":121,"n_dots":3.05,"target":"left","response":"left","rt":532.5,"correct":true,"confidence":2},{"trial_n":122,"n_dots":3.05,"target":"left","response":"left","rt":360.20000004768,"correct":true,"confidence":6},{"trial_n":123,"n_dots":2.95,"target":"right","response":"left","rt":595.69999992847,"correct":false,"confidence":4},{"trial_n":124,"n_dots":3.05,"target":"right","response":"right","rt":372,"correct":true,"confidence":2},{"trial_n":125,"n_dots":3.05,"target":"left","response":"left","rt":267.60000002384,"correct":true,"confidence":5},{"trial_n":126,"n_dots":2.95,"target":"right","response":"right","rt":620.5,"correct":true,"confidence":3},{"trial_n":127,"n_dots":2.95,"target":"right","response":"right","rt":556.19999992847,"correct":true,"confidence":2},{"trial_n":128,"n_dots":2.85,"target":"right","response":"left","rt":269.59999990463,"correct":false,"confidence":2},{"trial_n":129,"n_dots":2.95,"target":"right","response":"right","rt":441.39999997616,"correct":true,"confidence":3},{"trial_n":130,"n_dots":2.95,"target":"right","response":"right","rt":302.40000009537,"correct":true,"confidence":4},{"trial_n":131,"n_dots":2.85,"target":"right","response":"right","rt":496.30000007153,"correct":true,"confidence":1},{"trial_n":132,"n_dots":2.85,"target":"right","response":"left","rt":620.29999995232,"correct":false,"confidence":2},{"trial_n":133,"n_dots":2.95,"target":"right","response":"right","rt":769.5,"correct":true,"confidence":3},{"trial_n":134,"n_dots":2.95,"target":"right","response":"right","rt":545.39999997616,"correct":true,"confidence":2},{"trial_n":135,"n_dots":2.85,"target":"left","response":"right","rt":431.40000009537,"correct":false,"confidence":2},{"trial_n":136,"n_dots":2.95,"target":"right","response":"left","rt":369.90000009537,"correct":false,"confidence":2},{"trial_n":137,"n_dots":3.05,"target":"left","response":"left","rt":409.5,"correct":true,"confidence":4},{"trial_n":138,"n_dots":3.05,"target":"right","response":"left","rt":380.79999995232,"correct":false,"confidence":1},{"trial_n":139,"n_dots":3.15,"target":"right","response":"right","rt":339,"correct":true,"confidence":5},{"trial_n":140,"n_dots":3.15,"target":"left","response":"left","rt":360.90000009537,"correct":true,"confidence":4},{"trial_n":141,"n_dots":3.05,"target":"right","response":"right","rt":339.70000004768,"correct":true,"confidence":4},{"trial_n":142,"n_dots":3.05,"target":"left","response":"left","rt":327,"correct":true,"confidence":3},{"trial_n":143,"n_dots":2.95,"target":"left","response":"left","rt":421.10000002384,"correct":true,"confidence":3},{"trial_n":144,"n_dots":2.95,"target":"left","response":"left","rt":486.60000002384,"correct":true,"confidence":3},{"trial_n":145,"n_dots":2.85,"target":"right","response":"right","rt":145.10000002384,"correct":true,"confidence":6},{"trial_n":146,"n_dots":2.85,"target":"left","response":"left","rt":534.89999997616,"correct":true,"confidence":3},{"trial_n":147,"n_dots":2.75,"target":"left","response":"left","rt":414.70000004768,"correct":true,"confidence":5},{"trial_n":148,"n_dots":2.75,"target":"left","response":"left","rt":337.69999992847,"correct":true,"confidence":5},{"trial_n":149,"n_dots":2.65,"target":"right","response":"right","rt":473.80000007153,"correct":true,"confidence":2},{"trial_n":150,"n_dots":2.65,"target":"right","response":"right","rt":286.29999995232,"correct":true,"confidence":2},{"trial_n":151,"n_dots":2.55,"target":"left","response":"right","rt":348.60000002384,"correct":false,"confidence":2},{"trial_n":152,"n_dots":2.65,"target":"left","response":"left","rt":315.60000002384,"correct":true,"confidence":3},{"trial_n":153,"n_dots":2.65,"target":"left","response":"right","rt":489.5,"correct":false,"confidence":4},{"trial_n":154,"n_dots":2.75,"target":"right","response":"right","rt":337.5,"correct":true,"confidence":4},{"trial_n":155,"n_dots":2.75,"target":"left","response":"left","rt":364.79999995232,"correct":true,"confidence":3},{"trial_n":156,"n_dots":2.65,"target":"right","response":"right","rt":342,"correct":true,"confidence":5},{"trial_n":157,"n_dots":2.65,"target":"left","response":"left","rt":278.10000002384,"correct":true,"confidence":3},{"trial_n":158,"n_dots":2.55,"target":"left","response":"right","rt":422.40000009537,"correct":false,"confidence":3},{"trial_n":159,"n_dots":2.65,"target":"right","response":"right","rt":378.39999997616,"correct":true,"confidence":5},{"trial_n":160,"n_dots":2.65,"target":"left","response":"left","rt":880.60000002384,"correct":true,"confidence":1},{"trial_n":161,"n_dots":2.55,"target":"right","response":"right","rt":628.70000004768,"correct":true,"confidence":3},{"trial_n":162,"n_dots":2.55,"target":"left","response":"right","rt":463.39999997616,"correct":false,"confidence":2},{"trial_n":163,"n_dots":2.65,"target":"right","response":"right","rt":397.70000004768,"correct":true,"confidence":2},{"trial_n":164,"n_dots":2.65,"target":"left","response":"left","rt":1122.9000000954,"correct":true,"confidence":2},{"trial_n":165,"n_dots":2.55,"target":"left","response":"left","rt":432.79999995232,"correct":true,"confidence":2},{"trial_n":166,"n_dots":2.55,"target":"left","response":"left","rt":453.79999995232,"correct":true,"confidence":3},{"trial_n":167,"n_dots":2.45,"target":"left","response":"left","rt":329.5,"correct":true,"confidence":4},{"trial_n":168,"n_dots":2.45,"target":"left","response":"left","rt":494.89999997616,"correct":true,"confidence":2},{"trial_n":169,"n_dots":2.35,"target":"right","response":"left","rt":803.80000007153,"correct":false,"confidence":2},{"trial_n":170,"n_dots":2.45,"target":"left","response":"right","rt":418.10000002384,"correct":false,"confidence":4},{"trial_n":171,"n_dots":2.55,"target":"right","response":"left","rt":274.10000002384,"correct":false,"confidence":3},{"trial_n":172,"n_dots":2.65,"target":"left","response":"right","rt":259,"correct":false,"confidence":2},{"trial_n":173,"n_dots":2.75,"target":"left","response":"left","rt":367.79999995232,"correct":true,"confidence":5},{"trial_n":174,"n_dots":2.75,"target":"left","response":"left","rt":402.70000004768,"correct":true,"confidence":3},{"trial_n":175,"n_dots":2.65,"target":"left","response":"left","rt":419.60000002384,"correct":true,"confidence":2},{"trial_n":176,"n_dots":2.65,"target":"left","response":"right","rt":600.79999995232,"correct":false,"confidence":2},{"trial_n":177,"n_dots":2.75,"target":"left","response":"left","rt":432.39999997616,"correct":true,"confidence":4},{"trial_n":178,"n_dots":2.75,"target":"right","response":"right","rt":514,"correct":true,"confidence":1},{"trial_n":179,"n_dots":2.65,"target":"right","response":"left","rt":627.69999992847,"correct":false,"confidence":3},{"trial_n":180,"n_dots":2.75,"target":"left","response":"left","rt":566.5,"correct":true,"confidence":2},{"trial_n":181,"n_dots":2.75,"target":"right","response":"right","rt":469,"correct":true,"confidence":3},{"trial_n":182,"n_dots":2.65,"target":"right","response":"left","rt":223.10000002384,"correct":false,"confidence":2},{"trial_n":183,"n_dots":2.75,"target":"right","response":"right","rt":1155.6999999285,"correct":true,"confidence":2},{"trial_n":184,"n_dots":2.75,"target":"right","response":"right","rt":412.5,"correct":true,"confidence":4},{"trial_n":185,"n_dots":2.65,"target":"left","response":"left","rt":272.29999995232,"correct":true,"confidence":3},{"trial_n":186,"n_dots":2.65,"target":"left","response":"left","rt":963.29999995232,"correct":true,"confidence":2},{"trial_n":187,"n_dots":2.55,"target":"right","response":"right","rt":957.60000002384,"correct":true,"confidence":1},{"trial_n":188,"n_dots":2.55,"target":"left","response":"left","rt":308.5,"correct":true,"confidence":4},{"trial_n":189,"n_dots":2.45,"target":"left","response":"right","rt":400.39999997616,"correct":false,"confidence":2},{"trial_n":190,"n_dots":2.55,"target":"left","response":"left","rt":315.60000002384,"correct":true,"confidence":3},{"trial_n":191,"n_dots":2.55,"target":"left","response":"right","rt":546,"correct":false,"confidence":1},{"trial_n":192,"n_dots":2.65,"target":"left","response":"right","rt":1304,"correct":false,"confidence":3},{"trial_n":193,"n_dots":2.75,"target":"right","response":"right","rt":440.30000007153,"correct":true,"confidence":5},{"trial_n":194,"n_dots":2.75,"target":"left","response":"left","rt":1396.6999999285,"correct":true,"confidence":4}]