[{"trial_n":1,"n_dots":4.25,"target":"left","response":"left","rt":3407.5,"correct":true,"confidence":-1},{"trial_n":2,"n_dots":4.25,"target":"left","response":"left","rt":381.20000000019,"correct":true,"confidence":-1},{"trial_n":3,"n_dots":3.85,"target":"right","response":"left","rt":541.20000000019,"correct":false,"confidence":-1},{"trial_n":4,"n_dots":4.25,"target":"right","response":"right","rt":667.19999999972,"correct":true,"confidence":-1},{"trial_n":5,"n_dots":4.25,"target":"left","response":"left","rt":328.79999999981,"correct":true,"confidence":-1},{"trial_n":6,"n_dots":3.85,"target":"right","response":"right","rt":317.19999999972,"correct":true,"confidence":-1},{"trial_n":7,"n_dots":3.85,"target":"left","response":"left","rt":880.60000000009,"correct":true,"confidence":-1},{"trial_n":8,"n_dots":3.65,"target":"left","response":"right","rt":800.20000000019,"correct":false,"confidence":-1},{"trial_n":9,"n_dots":3.85,"target":"right","response":"left","rt":535.10000000009,"correct":false,"confidence":-1},{"trial_n":10,"n_dots":4.05,"target":"right","response":"right","rt":552.30000000028,"correct":true,"confidence":-1},{"trial_n":11,"n_dots":4.05,"target":"right","response":"right","rt":382.10000000009,"correct":true,"confidence":-1},{"trial_n":12,"n_dots":3.85,"target":"left","response":"left","rt":318,"correct":true,"confidence":-1},{"trial_n":13,"n_dots":3.85,"target":"right","response":"right","rt":349.70000000019,"correct":true,"confidence":-1},{"trial_n":14,"n_dots":3.75,"target":"right","response":"right","rt":323.20000000019,"correct":true,"confidence":-1},{"trial_n":15,"n_dots":3.75,"target":"right","response":"left","rt":320.20000000019,"correct":false,"confidence":-1},{"trial_n":16,"n_dots":3.85,"target":"left","response":"left","rt":375,"correct":true,"confidence":-1},{"trial_n":17,"n_dots":3.85,"target":"right","response":"left","rt":463.80000000028,"correct":false,"confidence":-1},{"trial_n":18,"n_dots":3.95,"target":"left","response":"right","rt":433.60000000009,"correct":false,"confidence":-1},{"trial_n":19,"n_dots":4.05,"target":"left","response":"left","rt":329,"correct":true,"confidence":-1},{"trial_n":20,"n_dots":4.05,"target":"left","response":"left","rt":318.30000000028,"correct":true,"confidence":-1},{"trial_n":21,"n_dots":3.95,"target":"right","response":"left","rt":367.70000000019,"correct":false,"confidence":-1},{"trial_n":22,"n_dots":4.05,"target":"left","response":"left","rt":361.90000000037,"correct":true,"confidence":-1},{"trial_n":23,"n_dots":4.05,"target":"left","response":"left","rt":347.29999999981,"correct":true,"confidence":-1},{"trial_n":24,"n_dots":3.95,"target":"left","response":"left","rt":305.20000000019,"correct":true,"confidence":-1},{"trial_n":25,"n_dots":3.95,"target":"right","response":"right","rt":402,"correct":true,"confidence":-1},{"trial_n":26,"n_dots":3.85,"target":"right","response":"right","rt":354,"correct":true,"confidence":-1},{"trial_n":27,"n_dots":3.85,"target":"right","response":"right","rt":379.69999999972,"correct":true,"confidence":6},{"trial_n":28,"n_dots":3.75,"target":"left","response":"left","rt":8131,"correct":true,"confidence":5},{"trial_n":29,"n_dots":3.75,"target":"right","response":"right","rt":345.5,"correct":true,"confidence":4},{"trial_n":30,"n_dots":3.65,"target":"left","response":"left","rt":371.5,"correct":true,"confidence":4},{"trial_n":31,"n_dots":3.65,"target":"left","response":"left","rt":370.89999999991,"correct":true,"confidence":6},{"trial_n":32,"n_dots":3.55,"target":"right","response":"right","rt":367.39999999991,"correct":true,"confidence":4},{"trial_n":33,"n_dots":3.55,"target":"left","response":"left","rt":337.39999999991,"correct":true,"confidence":6},{"trial_n":34,"n_dots":3.45,"target":"left","response":"left","rt":325.60000000009,"correct":true,"confidence":3},{"trial_n":35,"n_dots":3.45,"target":"left","response":"left","rt":356.70000000019,"correct":true,"confidence":3},{"trial_n":36,"n_dots":3.35,"target":"right","response":"right","rt":372,"correct":true,"confidence":6},{"trial_n":37,"n_dots":3.35,"target":"left","response":"left","rt":370.20000000019,"correct":true,"confidence":6},{"trial_n":38,"n_dots":3.25,"target":"left","response":"left","rt":369.39999999991,"correct":true,"confidence":6},{"trial_n":39,"n_dots":3.25,"target":"right","response":"right","rt":341.89999999991,"correct":true,"confidence":6},{"trial_n":40,"n_dots":3.15,"target":"left","response":"right","rt":426.5,"correct":false,"confidence":6},{"trial_n":41,"n_dots":3.25,"target":"left","response":"right","rt":466.90000000037,"correct":false,"confidence":6},{"trial_n":42,"n_dots":3.35,"target":"left","response":"left","rt":377.79999999981,"correct":true,"confidence":6},{"trial_n":43,"n_dots":3.35,"target":"right","response":"right","rt":356.79999999981,"correct":true,"confidence":6},{"trial_n":44,"n_dots":3.25,"target":"left","response":"left","rt":388.90000000037,"correct":true,"confidence":6},{"trial_n":45,"n_dots":3.25,"target":"left","response":"left","rt":459,"correct":true,"confidence":6},{"trial_n":46,"n_dots":3.15,"target":"left","response":"left","rt":469.69999999972,"correct":true,"confidence":6},{"trial_n":47,"n_dots":3.15,"target":"right","response":"left","rt":348.60000000009,"correct":false,"confidence":6},{"trial_n":48,"n_dots":3.25,"target":"left","response":"left","rt":357.5,"correct":true,"confidence":6},{"trial_n":49,"n_dots":3.25,"target":"right","response":"right","rt":437,"correct":true,"confidence":6},{"trial_n":50,"n_dots":3.15,"target":"right","response":"right","rt":268.39999999991,"correct":true,"confidence":6},{"trial_n":51,"n_dots":3.15,"target":"right","response":"right","rt":362.39999999991,"correct":true,"confidence":6},{"trial_n":52,"n_dots":3.05,"target":"right","response":"left","rt":361,"correct":false,"confidence":6},{"trial_n":53,"n_dots":3.15,"target":"right","response":"right","rt":373,"correct":true,"confidence":5},{"trial_n":54,"n_dots":3.15,"target":"left","response":"right","rt":309.90000000037,"correct":false,"confidence":1},{"trial_n":55,"n_dots":3.25,"target":"left","response":"left","rt":362.39999999991,"correct":true,"confidence":6},{"trial_n":56,"n_dots":3.25,"target":"right","response":"right","rt":365.69999999972,"correct":true,"confidence":6},{"trial_n":57,"n_dots":3.15,"target":"left","response":"left","rt":334.29999999981,"correct":true,"confidence":6},{"trial_n":58,"n_dots":3.15,"target":"right","response":"left","rt":316.30000000028,"correct":false,"confidence":5},{"trial_n":59,"n_dots":3.25,"target":"left","response":"left","rt":321.90000000037,"correct":true,"confidence":6},{"trial_n":60,"n_dots":3.25,"target":"right","response":"right","rt":371.80000000028,"correct":true,"confidence":6},{"trial_n":61,"n_dots":3.15,"target":"right","response":"right","rt":371.60000000009,"correct":true,"confidence":6},{"trial_n":62,"n_dots":3.15,"target":"right","response":"right","rt":426.30000000028,"correct":true,"confidence":6},{"trial_n":63,"n_dots":3.05,"target":"right","response":"right","rt":371.90000000037,"correct":true,"confidence":1},{"trial_n":64,"n_dots":3.05,"target":"left","response":"right","rt":382.60000000009,"correct":false,"confidence":1},{"trial_n":65,"n_dots":3.15,"target":"right","response":"left","rt":372.39999999991,"correct":false,"confidence":6},{"trial_n":66,"n_dots":3.25,"target":"left","response":"left","rt":564.60000000009,"correct":true,"confidence":5},{"trial_n":67,"n_dots":3.25,"target":"left","response":"left","rt":470.40000000037,"correct":true,"confidence":5},{"trial_n":68,"n_dots":3.15,"target":"right","response":"right","rt":461.20000000019,"correct":true,"confidence":6},{"trial_n":69,"n_dots":3.15,"target":"left","response":"left","rt":343.69999999972,"correct":true,"confidence":5},{"trial_n":70,"n_dots":3.05,"target":"left","response":"left","rt":351.10000000009,"correct":true,"confidence":5},{"trial_n":71,"n_dots":3.05,"target":"right","response":"left","rt":370.60000000009,"correct":false,"confidence":6},{"trial_n":72,"n_dots":3.15,"target":"left","response":"left","rt":212.20000000019,"correct":true,"confidence":4},{"trial_n":73,"n_dots":3.15,"target":"left","response":"left","rt":391.10000000009,"correct":true,"confidence":4},{"trial_n":74,"n_dots":3.05,"target":"right","response":"right","rt":425.30000000028,"correct":true,"confidence":5},{"trial_n":75,"n_dots":3.05,"target":"left","response":"right","rt":426.60000000009,"correct":false,"confidence":5},{"trial_n":76,"n_dots":3.15,"target":"right","response":"right","rt":472,"correct":true,"confidence":5},{"trial_n":77,"n_dots":3.15,"target":"right","response":"right","rt":511.89999999991,"correct":true,"confidence":1},{"trial_n":78,"n_dots":3.05,"target":"left","response":"left","rt":399.09999999963,"correct":true,"confidence":1},{"trial_n":79,"n_dots":3.05,"target":"left","response":"left","rt":425.19999999972,"correct":true,"confidence":5},{"trial_n":80,"n_dots":2.95,"target":"left","response":"right","rt":602.09999999963,"correct":false,"confidence":6},{"trial_n":81,"n_dots":3.05,"target":"left","response":"left","rt":340.10000000009,"correct":true,"confidence":1},{"trial_n":82,"n_dots":3.05,"target":"left","response":"right","rt":560.5,"correct":false,"confidence":1},{"trial_n":83,"n_dots":3.15,"target":"left","response":"left","rt":393.79999999981,"correct":true,"confidence":1},{"trial_n":84,"n_dots":3.15,"target":"right","response":"right","rt":393.29999999981,"correct":true,"confidence":6},{"trial_n":85,"n_dots":3.05,"target":"right","response":"left","rt":937.80000000028,"correct":false,"confidence":5},{"trial_n":86,"n_dots":3.15,"target":"right","response":"right","rt":405.10000000009,"correct":true,"confidence":5},{"trial_n":87,"n_dots":3.15,"target":"right","response":"left","rt":543.10000000009,"correct":false,"confidence":1},{"trial_n":88,"n_dots":3.25,"target":"right","response":"left","rt":606.70000000019,"correct":false,"confidence":1},{"trial_n":89,"n_dots":3.35,"target":"left","response":"right","rt":428.80000000028,"correct":false,"confidence":6},{"trial_n":90,"n_dots":3.45,"target":"right","response":"right","rt":347.10000000009,"correct":true,"confidence":1},{"trial_n":91,"n_dots":3.45,"target":"right","response":"right","rt":436.5,"correct":true,"confidence":6},{"trial_n":92,"n_dots":3.35,"target":"left","response":"left","rt":1098.2999999998,"correct":true,"confidence":5},{"trial_n":93,"n_dots":3.35,"target":"left","response":"left","rt":522.39999999991,"correct":true,"confidence":6},{"trial_n":94,"n_dots":3.25,"target":"right","response":"left","rt":526.79999999981,"correct":false,"confidence":6},{"trial_n":95,"n_dots":3.35,"target":"left","response":"left","rt":396.20000000019,"correct":true,"confidence":6},{"trial_n":96,"n_dots":3.35,"target":"left","response":"left","rt":324.70000000019,"correct":true,"confidence":6},{"trial_n":97,"n_dots":3.25,"target":"right","response":"right","rt":349.39999999991,"correct":true,"confidence":6},{"trial_n":98,"n_dots":3.25,"target":"left","response":"left","rt":277.5,"correct":true,"confidence":6},{"trial_n":99,"n_dots":3.15,"target":"left","response":"left","rt":370.89999999991,"correct":true,"confidence":6},{"trial_n":100,"n_dots":3.15,"target":"right","response":"right","rt":522.29999999981,"correct":true,"confidence":5},{"trial_n":101,"n_dots":3.05,"target":"right","response":"right","rt":482.5,"correct":true,"confidence":6},{"trial_n":102,"n_dots":3.05,"target":"left","response":"left","rt":357.5,"correct":true,"confidence":6},{"trial_n":103,"n_dots":2.95,"target":"right","response":"right","rt":397.10000000009,"correct":true,"confidence":1},{"trial_n":104,"n_dots":2.95,"target":"left","response":"left","rt":343,"correct":true,"confidence":6},{"trial_n":105,"n_dots":2.85,"target":"left","response":"left","rt":370.29999999981,"correct":true,"confidence":1},{"trial_n":106,"n_dots":2.85,"target":"right","response":"left","rt":338.79999999981,"correct":false,"confidence":1},{"trial_n":107,"n_dots":2.95,"target":"right","response":"right","rt":298.20000000019,"correct":true,"confidence":6},{"trial_n":108,"n_dots":2.95,"target":"left","response":"left","rt":360.20000000019,"correct":true,"confidence":5},{"trial_n":109,"n_dots":2.85,"target":"left","response":"left","rt":398.79999999981,"correct":true,"confidence":1},{"trial_n":110,"n_dots":2.85,"target":"left","response":"left","rt":417.40000000037,"correct":true,"confidence":1},{"trial_n":111,"n_dots":2.75,"target":"left","response":"right","rt":306.10000000009,"correct":false,"confidence":2},{"trial_n":112,"n_dots":2.85,"target":"right","response":"left","rt":362.69999999972,"correct":false,"confidence":5},{"trial_n":113,"n_dots":2.95,"target":"left","response":"left","rt":422.70000000019,"correct":true,"confidence":6},{"trial_n":114,"n_dots":2.95,"target":"right","response":"left","rt":346.30000000028,"correct":false,"confidence":6},{"trial_n":115,"n_dots":3.05,"target":"right","response":"right","rt":369.29999999981,"correct":true,"confidence":5},{"trial_n":116,"n_dots":3.05,"target":"right","response":"left","rt":347.69999999972,"correct":false,"confidence":6},{"trial_n":117,"n_dots":3.15,"target":"right","response":"right","rt":460.70000000019,"correct":true,"confidence":5},{"trial_n":118,"n_dots":3.15,"target":"left","response":"left","rt":355.70000000019,"correct":true,"confidence":5},{"trial_n":119,"n_dots":3.05,"target":"right","response":"left","rt":359.20000000019,"correct":false,"confidence":5},{"trial_n":120,"n_dots":3.15,"target":"left","response":"left","rt":390.10000000009,"correct":true,"confidence":6},{"trial_n":121,"n_dots":3.15,"target":"right","response":"right","rt":386.10000000009,"correct":true,"confidence":4},{"trial_n":122,"n_dots":3.05,"target":"right","response":"right","rt":527.60000000009,"correct":true,"confidence":4},{"trial_n":123,"n_dots":3.05,"target":"right","response":"right","rt":390.80000000028,"correct":true,"confidence":4},{"trial_n":124,"n_dots":2.95,"target":"right","response":"left","rt":420.19999999972,"correct":false,"confidence":5},{"trial_n":125,"n_dots":3.05,"target":"left","response":"left","rt":268.29999999981,"correct":true,"confidence":5},{"trial_n":126,"n_dots":3.05,"target":"right","response":"right","rt":360,"correct":true,"confidence":6},{"trial_n":127,"n_dots":2.95,"target":"right","response":"right","rt":291.10000000009,"correct":true,"confidence":1},{"trial_n":128,"n_dots":2.95,"target":"left","response":"left","rt":464.89999999991,"correct":true,"confidence":5},{"trial_n":129,"n_dots":2.85,"target":"left","response":"left","rt":344.5,"correct":true,"confidence":1},{"trial_n":130,"n_dots":2.85,"target":"left","response":"left","rt":837.60000000009,"correct":true,"confidence":5},{"trial_n":131,"n_dots":2.75,"target":"right","response":"left","rt":462.10000000009,"correct":false,"confidence":6},{"trial_n":132,"n_dots":2.85,"target":"right","response":"right","rt":533.89999999991,"correct":true,"confidence":6},{"trial_n":133,"n_dots":2.85,"target":"right","response":"right","rt":623.70000000019,"correct":true,"confidence":6},{"trial_n":134,"n_dots":2.75,"target":"left","response":"right","rt":710.60000000009,"correct":false,"confidence":1},{"trial_n":135,"n_dots":2.85,"target":"right","response":"right","rt":396.10000000009,"correct":true,"confidence":6},{"trial_n":136,"n_dots":2.85,"target":"right","response":"right","rt":210.90000000037,"correct":true,"confidence":1},{"trial_n":137,"n_dots":2.75,"target":"right","response":"right","rt":300.5,"correct":true,"confidence":5},{"trial_n":138,"n_dots":2.75,"target":"left","response":"right","rt":267.5,"correct":false,"confidence":5},{"trial_n":139,"n_dots":2.85,"target":"right","response":"right","rt":197.19999999972,"correct":true,"confidence":1},{"trial_n":140,"n_dots":2.85,"target":"right","response":"right","rt":364.10000000009,"correct":true,"confidence":5},{"trial_n":141,"n_dots":2.75,"target":"right","response":"right","rt":508.39999999991,"correct":true,"confidence":1},{"trial_n":142,"n_dots":2.75,"target":"left","response":"left","rt":2217.7999999998,"correct":true,"confidence":2},{"trial_n":143,"n_dots":2.65,"target":"right","response":"right","rt":409.39999999991,"correct":true,"confidence":5},{"trial_n":144,"n_dots":2.65,"target":"right","response":"right","rt":551.10000000009,"correct":true,"confidence":2},{"trial_n":145,"n_dots":2.55,"target":"right","response":"right","rt":387.10000000009,"correct":true,"confidence":6},{"trial_n":146,"n_dots":2.55,"target":"right","response":"left","rt":351.89999999991,"correct":false,"confidence":5},{"trial_n":147,"n_dots":2.65,"target":"right","response":"right","rt":314,"correct":true,"confidence":5},{"trial_n":148,"n_dots":2.65,"target":"left","response":"left","rt":341.70000000019,"correct":true,"confidence":1},{"trial_n":149,"n_dots":2.55,"target":"left","response":"left","rt":381.19999999972,"correct":true,"confidence":1},{"trial_n":150,"n_dots":2.55,"target":"right","response":"left","rt":402.39999999991,"correct":false,"confidence":5},{"trial_n":151,"n_dots":2.65,"target":"right","response":"left","rt":523.79999999981,"correct":false,"confidence":1},{"trial_n":152,"n_dots":2.75,"target":"right","response":"right","rt":450.39999999991,"correct":true,"confidence":5},{"trial_n":153,"n_dots":2.75,"target":"left","response":"left","rt":397.30000000028,"correct":true,"confidence":1},{"trial_n":154,"n_dots":2.65,"target":"right","response":"left","rt":357.5,"correct":false,"confidence":1},{"trial_n":155,"n_dots":2.75,"target":"right","response":"right","rt":425.80000000028,"correct":true,"confidence":6},{"trial_n":156,"n_dots":2.75,"target":"right","response":"right","rt":531.60000000009,"correct":true,"confidence":5},{"trial_n":157,"n_dots":2.65,"target":"left","response":"right","rt":348.70000000019,"correct":false,"confidence":1},{"trial_n":158,"n_dots":2.75,"target":"left","response":"left","rt":335.5,"correct":true,"confidence":5},{"trial_n":159,"n_dots":2.75,"target":"right","response":"right","rt":321.30000000028,"correct":true,"confidence":1},{"trial_n":160,"n_dots":2.65,"target":"left","response":"left","rt":247.39999999991,"correct":true,"confidence":5},{"trial_n":161,"n_dots":2.65,"target":"left","response":"left","rt":316.89999999991,"correct":true,"confidence":1},{"trial_n":162,"n_dots":2.55,"target":"left","response":"left","rt":654,"correct":true,"confidence":5},{"trial_n":163,"n_dots":2.55,"target":"right","response":"left","rt":556.29999999981,"correct":false,"confidence":6},{"trial_n":164,"n_dots":2.65,"target":"right","response":"left","rt":307.29999999981,"correct":false,"confidence":5},{"trial_n":165,"n_dots":2.75,"target":"left","response":"right","rt":391.60000000009,"correct":false,"confidence":2},{"trial_n":166,"n_dots":2.85,"target":"right","response":"right","rt":425.39999999991,"correct":true,"confidence":5},{"trial_n":167,"n_dots":2.85,"target":"left","response":"left","rt":376.39999999991,"correct":true,"confidence":5},{"trial_n":168,"n_dots":2.75,"target":"right","response":"left","rt":599.09999999963,"correct":false,"confidence":4},{"trial_n":169,"n_dots":2.85,"target":"left","response":"left","rt":359.79999999981,"correct":true,"confidence":4},{"trial_n":170,"n_dots":2.85,"target":"left","response":"left","rt":564.70000000019,"correct":true,"confidence":4},{"trial_n":171,"n_dots":2.75,"target":"right","response":"left","rt":345.20000000019,"correct":false,"confidence":1},{"trial_n":172,"n_dots":2.85,"target":"left","response":"left","rt":547.20000000019,"correct":true,"confidence":5},{"trial_n":173,"n_dots":2.85,"target":"right","response":"right","rt":540.70000000019,"correct":true,"confidence":6},{"trial_n":174,"n_dots":2.75,"target":"left","response":"left","rt":340.09999999963,"correct":true,"confidence":5},{"trial_n":175,"n_dots":2.75,"target":"left","response":"left","rt":349.09999999963,"correct":true,"confidence":5},{"trial_n":176,"n_dots":2.65,"target":"left","response":"left","rt":347.39999999991,"correct":true,"confidence":1},{"trial_n":177,"n_dots":2.65,"target":"left","response":"left","rt":417,"correct":true,"confidence":6},{"trial_n":178,"n_dots":2.55,"target":"right","response":"right","rt":318.5,"correct":true,"confidence":5},{"trial_n":179,"n_dots":2.55,"target":"left","response":"left","rt":303.5,"correct":true,"confidence":6},{"trial_n":180,"n_dots":2.45,"target":"right","response":"left","rt":358.30000000028,"correct":false,"confidence":6},{"trial_n":181,"n_dots":2.55,"target":"left","response":"left","rt":463.79999999981,"correct":true,"confidence":2},{"trial_n":182,"n_dots":2.55,"target":"left","response":"left","rt":329.10000000009,"correct":true,"confidence":3},{"trial_n":183,"n_dots":2.45,"target":"right","response":"left","rt":347.10000000009,"correct":false,"confidence":1},{"trial_n":184,"n_dots":2.55,"target":"right","response":"right","rt":344.60000000009,"correct":true,"confidence":5},{"trial_n":185,"n_dots":2.55,"target":"left","response":"left","rt":316.89999999991,"correct":true,"confidence":6},{"trial_n":186,"n_dots":2.45,"target":"left","response":"left","rt":635.19999999972,"correct":true,"confidence":3},{"trial_n":187,"n_dots":2.45,"target":"left","response":"left","rt":344.19999999972,"correct":true,"confidence":3},{"trial_n":188,"n_dots":2.35,"target":"left","response":"left","rt":294.10000000009,"correct":true,"confidence":5},{"trial_n":189,"n_dots":2.35,"target":"right","response":"left","rt":315.19999999972,"correct":false,"confidence":5},{"trial_n":190,"n_dots":2.45,"target":"right","response":"left","rt":562,"correct":false,"confidence":3},{"trial_n":191,"n_dots":2.55,"target":"left","response":"left","rt":423.79999999981,"correct":true,"confidence":3},{"trial_n":192,"n_dots":2.55,"target":"left","response":"right","rt":413,"correct":false,"confidence":3},{"trial_n":193,"n_dots":2.65,"target":"right","response":"right","rt":407.30000000028,"correct":true,"confidence":6},{"trial_n":194,"n_dots":2.65,"target":"left","response":"left","rt":425.09999999963,"correct":true,"confidence":5}]