[{"trial_n":1,"n_dots":4.25,"target":"right","response":"left","rt":934.79999995232,"correct":false,"confidence":-1},{"trial_n":2,"n_dots":4.25,"target":"right","response":"right","rt":4099.2999999523,"correct":true,"confidence":-1},{"trial_n":3,"n_dots":4.25,"target":"right","response":"right","rt":386.30000019073,"correct":true,"confidence":-1},{"trial_n":4,"n_dots":3.85,"target":"right","response":"right","rt":252.59999990463,"correct":true,"confidence":-1},{"trial_n":5,"n_dots":3.85,"target":"left","response":"left","rt":257.80000019073,"correct":true,"confidence":-1},{"trial_n":6,"n_dots":3.45,"target":"right","response":"right","rt":217.40000009537,"correct":true,"confidence":-1},{"trial_n":7,"n_dots":3.45,"target":"right","response":"right","rt":384.39999985695,"correct":true,"confidence":-1},{"trial_n":8,"n_dots":3.25,"target":"left","response":"left","rt":282.20000004768,"correct":true,"confidence":-1},{"trial_n":9,"n_dots":3.25,"target":"left","response":"left","rt":274,"correct":true,"confidence":-1},{"trial_n":10,"n_dots":3.05,"target":"right","response":"left","rt":261.29999995232,"correct":false,"confidence":-1},{"trial_n":11,"n_dots":3.25,"target":"left","response":"left","rt":237.79999995232,"correct":true,"confidence":-1},{"trial_n":12,"n_dots":3.25,"target":"left","response":"left","rt":261.29999995232,"correct":true,"confidence":-1},{"trial_n":13,"n_dots":3.15,"target":"right","response":"right","rt":251.70000004768,"correct":true,"confidence":-1},{"trial_n":14,"n_dots":3.15,"target":"left","response":"left","rt":293.20000004768,"correct":true,"confidence":-1},{"trial_n":15,"n_dots":3.05,"target":"left","response":"right","rt":261.39999985695,"correct":false,"confidence":-1},{"trial_n":16,"n_dots":3.15,"target":"right","response":"left","rt":227,"correct":false,"confidence":-1},{"trial_n":17,"n_dots":3.25,"target":"right","response":"left","rt":322,"correct":false,"confidence":-1},{"trial_n":18,"n_dots":3.35,"target":"right","response":"right","rt":128.59999990463,"correct":true,"confidence":-1},{"trial_n":19,"n_dots":3.35,"target":"left","response":"right","rt":121.60000014305,"correct":false,"confidence":-1},{"trial_n":20,"n_dots":3.45,"target":"left","response":"left","rt":165.40000009537,"correct":true,"confidence":-1},{"trial_n":21,"n_dots":3.45,"target":"left","response":"left","rt":87.900000095367,"correct":true,"confidence":-1},{"trial_n":22,"n_dots":3.35,"target":"right","response":"left","rt":85.799999952316,"correct":false,"confidence":-1},{"trial_n":23,"n_dots":3.45,"target":"left","response":"left","rt":43.200000047684,"correct":true,"confidence":-1},{"trial_n":24,"n_dots":3.45,"target":"right","response":"right","rt":120,"correct":true,"confidence":-1},{"trial_n":25,"n_dots":3.35,"target":"left","response":"right","rt":222.40000009537,"correct":false,"confidence":-1},{"trial_n":26,"n_dots":3.45,"target":"left","response":"right","rt":87.700000047684,"correct":false,"confidence":-1},{"trial_n":27,"n_dots":3.55,"target":"left","response":"left","rt":169,"correct":true,"confidence":4},{"trial_n":28,"n_dots":3.55,"target":"left","response":"left","rt":261.40000009537,"correct":true,"confidence":3},{"trial_n":29,"n_dots":3.45,"target":"right","response":"right","rt":348.10000014305,"correct":true,"confidence":2},{"trial_n":30,"n_dots":3.45,"target":"right","response":"right","rt":33.5,"correct":true,"confidence":3},{"trial_n":31,"n_dots":3.35,"target":"right","response":"right","rt":84.600000143051,"correct":true,"confidence":3},{"trial_n":32,"n_dots":3.35,"target":"right","response":"right","rt":977.79999995232,"correct":true,"confidence":3},{"trial_n":33,"n_dots":3.25,"target":"left","response":"left","rt":243.60000014305,"correct":true,"confidence":2},{"trial_n":34,"n_dots":3.25,"target":"left","response":"left","rt":242.89999985695,"correct":true,"confidence":3},{"trial_n":35,"n_dots":3.15,"target":"left","response":"left","rt":315.5,"correct":true,"confidence":3},{"trial_n":36,"n_dots":3.15,"target":"right","response":"right","rt":371.60000014305,"correct":true,"confidence":3},{"trial_n":37,"n_dots":3.05,"target":"right","response":"right","rt":458.29999995232,"correct":true,"confidence":3},{"trial_n":38,"n_dots":3.05,"target":"right","response":"left","rt":150.59999990463,"correct":false,"confidence":2},{"trial_n":39,"n_dots":3.15,"target":"right","response":"right","rt":170.90000009537,"correct":true,"confidence":3},{"trial_n":40,"n_dots":3.15,"target":"left","response":"left","rt":95.599999904633,"correct":true,"confidence":2},{"trial_n":41,"n_dots":3.05,"target":"right","response":"left","rt":218.59999990463,"correct":false,"confidence":3},{"trial_n":42,"n_dots":3.15,"target":"left","response":"left","rt":196.80000019073,"correct":true,"confidence":3},{"trial_n":43,"n_dots":3.15,"target":"right","response":"right","rt":32.799999952316,"correct":true,"confidence":3},{"trial_n":44,"n_dots":3.05,"target":"left","response":"left","rt":136.5,"correct":true,"confidence":2},{"trial_n":45,"n_dots":3.05,"target":"right","response":"right","rt":72.200000047684,"correct":true,"confidence":3},{"trial_n":46,"n_dots":2.95,"target":"right","response":"left","rt":20,"correct":false,"confidence":2},{"trial_n":47,"n_dots":3.05,"target":"left","response":"right","rt":132.10000014305,"correct":false,"confidence":3},{"trial_n":48,"n_dots":3.15,"target":"left","response":"left","rt":119.69999980927,"correct":true,"confidence":3},{"trial_n":49,"n_dots":3.15,"target":"left","response":"right","rt":152,"correct":false,"confidence":3},{"trial_n":50,"n_dots":3.25,"target":"left","response":"left","rt":26.299999952316,"correct":true,"confidence":4},{"trial_n":51,"n_dots":3.25,"target":"left","response":"right","rt":103.30000019073,"correct":false,"confidence":3},{"trial_n":52,"n_dots":3.35,"target":"left","response":"right","rt":28.699999809265,"correct":false,"confidence":1},{"trial_n":53,"n_dots":3.45,"target":"left","response":"left","rt":268.70000004768,"correct":true,"confidence":3},{"trial_n":54,"n_dots":3.45,"target":"left","response":"left","rt":233.5,"correct":true,"confidence":2},{"trial_n":55,"n_dots":3.35,"target":"left","response":"left","rt":412.59999990463,"correct":true,"confidence":3},{"trial_n":56,"n_dots":3.35,"target":"left","response":"left","rt":144.09999990463,"correct":true,"confidence":3},{"trial_n":57,"n_dots":3.25,"target":"left","response":"right","rt":61.199999809265,"correct":false,"confidence":4},{"trial_n":58,"n_dots":3.35,"target":"left","response":"right","rt":4.5,"correct":false,"confidence":3},{"trial_n":59,"n_dots":3.45,"target":"left","response":"left","rt":80.700000047684,"correct":true,"confidence":3},{"trial_n":60,"n_dots":3.45,"target":"right","response":"right","rt":204.90000009537,"correct":true,"confidence":3},{"trial_n":61,"n_dots":3.35,"target":"right","response":"right","rt":682.89999985695,"correct":true,"confidence":3},{"trial_n":62,"n_dots":3.35,"target":"right","response":"right","rt":508.59999990463,"correct":true,"confidence":2},{"trial_n":63,"n_dots":3.25,"target":"right","response":"right","rt":123.09999990463,"correct":true,"confidence":1},{"trial_n":64,"n_dots":3.25,"target":"left","response":"right","rt":95,"correct":false,"confidence":5},{"trial_n":65,"n_dots":3.35,"target":"right","response":"right","rt":192,"correct":true,"confidence":3},{"trial_n":66,"n_dots":3.35,"target":"right","response":"right","rt":205.20000004768,"correct":true,"confidence":2},{"trial_n":67,"n_dots":3.25,"target":"left","response":"right","rt":60.700000047684,"correct":false,"confidence":1},{"trial_n":68,"n_dots":3.35,"target":"right","response":"right","rt":59,"correct":true,"confidence":3},{"trial_n":69,"n_dots":3.35,"target":"left","response":"right","rt":4.8000001907349,"correct":false,"confidence":2},{"trial_n":70,"n_dots":3.45,"target":"left","response":"right","rt":125.70000004768,"correct":false,"confidence":3},{"trial_n":71,"n_dots":3.55,"target":"right","response":"right","rt":71.100000143051,"correct":true,"confidence":3},{"trial_n":72,"n_dots":3.55,"target":"left","response":"right","rt":46.200000047684,"correct":false,"confidence":4},{"trial_n":73,"n_dots":3.65,"target":"right","response":"right","rt":415.79999995232,"correct":true,"confidence":2},{"trial_n":74,"n_dots":3.65,"target":"right","response":"right","rt":358.40000009537,"correct":true,"confidence":4},{"trial_n":75,"n_dots":3.55,"target":"left","response":"right","rt":124.30000019073,"correct":false,"confidence":5},{"trial_n":76,"n_dots":3.65,"target":"left","response":"left","rt":105.20000004768,"correct":true,"confidence":3},{"trial_n":77,"n_dots":3.65,"target":"left","response":"right","rt":131.70000004768,"correct":false,"confidence":2},{"trial_n":78,"n_dots":3.75,"target":"right","response":"left","rt":101.5,"correct":false,"confidence":4},{"trial_n":79,"n_dots":3.85,"target":"right","response":"right","rt":112,"correct":true,"confidence":3},{"trial_n":80,"n_dots":3.85,"target":"right","response":"right","rt":27.200000047684,"correct":true,"confidence":4},{"trial_n":81,"n_dots":3.75,"target":"left","response":"right","rt":337.40000009537,"correct":false,"confidence":3},{"trial_n":82,"n_dots":3.85,"target":"right","response":"right","rt":147.89999985695,"correct":true,"confidence":2},{"trial_n":83,"n_dots":3.85,"target":"left","response":"left","rt":69.099999904633,"correct":true,"confidence":4},{"trial_n":84,"n_dots":3.75,"target":"right","response":"left","rt":632.09999990463,"correct":false,"confidence":3},{"trial_n":85,"n_dots":3.85,"target":"right","response":"right","rt":815.79999995232,"correct":true,"confidence":5},{"trial_n":86,"n_dots":3.85,"target":"left","response":"left","rt":821.79999995232,"correct":true,"confidence":3},{"trial_n":87,"n_dots":3.75,"target":"left","response":"left","rt":16.5,"correct":true,"confidence":3},{"trial_n":88,"n_dots":3.75,"target":"right","response":"right","rt":238.5,"correct":true,"confidence":3},{"trial_n":89,"n_dots":3.65,"target":"right","response":"right","rt":156.19999980927,"correct":true,"confidence":3},{"trial_n":90,"n_dots":3.65,"target":"right","response":"right","rt":339.09999990463,"correct":true,"confidence":3},{"trial_n":91,"n_dots":3.55,"target":"right","response":"left","rt":572.70000004768,"correct":false,"confidence":2},{"trial_n":92,"n_dots":3.65,"target":"right","response":"right","rt":97.199999809265,"correct":true,"confidence":3},{"trial_n":93,"n_dots":3.65,"target":"left","response":"right","rt":243,"correct":false,"confidence":3},{"trial_n":94,"n_dots":3.75,"target":"right","response":"right","rt":574.70000004768,"correct":true,"confidence":3},{"trial_n":95,"n_dots":3.75,"target":"left","response":"left","rt":51.5,"correct":true,"confidence":3},{"trial_n":96,"n_dots":3.65,"target":"left","response":"left","rt":506.70000004768,"correct":true,"confidence":3},{"trial_n":97,"n_dots":3.65,"target":"left","response":"right","rt":593.70000004768,"correct":false,"confidence":4},{"trial_n":98,"n_dots":3.75,"target":"left","response":"right","rt":440.5,"correct":false,"confidence":3},{"trial_n":99,"n_dots":3.85,"target":"right","response":"right","rt":317.69999980927,"correct":true,"confidence":2},{"trial_n":100,"n_dots":3.85,"target":"left","response":"right","rt":144.90000009537,"correct":false,"confidence":3},{"trial_n":101,"n_dots":3.95,"target":"right","response":"right","rt":271.39999985695,"correct":true,"confidence":3},{"trial_n":102,"n_dots":3.95,"target":"left","response":"left","rt":227.70000004768,"correct":true,"confidence":3},{"trial_n":103,"n_dots":3.85,"target":"right","response":"right","rt":193.70000004768,"correct":true,"confidence":4},{"trial_n":104,"n_dots":3.85,"target":"left","response":"left","rt":588.30000019073,"correct":true,"confidence":3},{"trial_n":105,"n_dots":3.75,"target":"right","response":"right","rt":417.79999995232,"correct":true,"confidence":3},{"trial_n":106,"n_dots":3.75,"target":"left","response":"left","rt":375.5,"correct":true,"confidence":4},{"trial_n":107,"n_dots":3.65,"target":"right","response":"right","rt":143,"correct":true,"confidence":3},{"trial_n":108,"n_dots":3.65,"target":"left","response":"left","rt":88.399999856949,"correct":true,"confidence":3},{"trial_n":109,"n_dots":3.55,"target":"right","response":"left","rt":503.60000014305,"correct":false,"confidence":4},{"trial_n":110,"n_dots":3.65,"target":"left","response":"left","rt":443,"correct":true,"confidence":5},{"trial_n":111,"n_dots":3.65,"target":"left","response":"left","rt":446.09999990463,"correct":true,"confidence":3},{"trial_n":112,"n_dots":3.55,"target":"right","response":"right","rt":542,"correct":true,"confidence":4},{"trial_n":113,"n_dots":3.55,"target":"right","response":"right","rt":550,"correct":true,"confidence":4},{"trial_n":114,"n_dots":3.45,"target":"left","response":"right","rt":474.29999995232,"correct":false,"confidence":3},{"trial_n":115,"n_dots":3.55,"target":"left","response":"left","rt":27.600000143051,"correct":true,"confidence":3},{"trial_n":116,"n_dots":3.55,"target":"right","response":"left","rt":235.40000009537,"correct":false,"confidence":4},{"trial_n":117,"n_dots":3.65,"target":"left","response":"left","rt":137.09999990463,"correct":true,"confidence":3},{"trial_n":118,"n_dots":3.65,"target":"left","response":"left","rt":518.5,"correct":true,"confidence":4},{"trial_n":119,"n_dots":3.55,"target":"left","response":"left","rt":161.5,"correct":true,"confidence":2},{"trial_n":120,"n_dots":3.55,"target":"left","response":"right","rt":46.400000095367,"correct":false,"confidence":4},{"trial_n":121,"n_dots":3.65,"target":"right","response":"right","rt":77.299999952316,"correct":true,"confidence":3},{"trial_n":122,"n_dots":3.65,"target":"left","response":"right","rt":58.5,"correct":false,"confidence":1},{"trial_n":123,"n_dots":3.75,"target":"right","response":"right","rt":88.399999856949,"correct":true,"confidence":3},{"trial_n":124,"n_dots":3.75,"target":"right","response":"right","rt":96.5,"correct":true,"confidence":3},{"trial_n":125,"n_dots":3.65,"target":"left","response":"right","rt":67.599999904633,"correct":false,"confidence":1},{"trial_n":126,"n_dots":3.75,"target":"left","response":"left","rt":30.299999952316,"correct":true,"confidence":2},{"trial_n":127,"n_dots":3.75,"target":"left","response":"left","rt":37.900000095367,"correct":true,"confidence":5},{"trial_n":128,"n_dots":3.65,"target":"right","response":"right","rt":97.099999904633,"correct":true,"confidence":3},{"trial_n":129,"n_dots":3.65,"target":"left","response":"left","rt":34.600000143051,"correct":true,"confidence":2},{"trial_n":130,"n_dots":3.55,"target":"right","response":"right","rt":164.29999995232,"correct":true,"confidence":5},{"trial_n":131,"n_dots":3.55,"target":"right","response":"right","rt":90.299999952316,"correct":true,"confidence":3},{"trial_n":132,"n_dots":3.45,"target":"left","response":"left","rt":36.5,"correct":true,"confidence":4},{"trial_n":133,"n_dots":3.45,"target":"right","response":"right","rt":132.70000004768,"correct":true,"confidence":5},{"trial_n":134,"n_dots":3.35,"target":"left","response":"left","rt":33.600000143051,"correct":true,"confidence":4},{"trial_n":135,"n_dots":3.35,"target":"right","response":"right","rt":21.600000143051,"correct":true,"confidence":4},{"trial_n":136,"n_dots":3.25,"target":"right","response":"right","rt":158.29999995232,"correct":true,"confidence":3},{"trial_n":137,"n_dots":3.25,"target":"left","response":"right","rt":136.09999990463,"correct":false,"confidence":2},{"trial_n":138,"n_dots":3.35,"target":"right","response":"right","rt":77.599999904633,"correct":true,"confidence":2},{"trial_n":139,"n_dots":3.35,"target":"left","response":"left","rt":16.400000095367,"correct":true,"confidence":3},{"trial_n":140,"n_dots":3.25,"target":"left","response":"right","rt":250.79999995232,"correct":false,"confidence":1},{"trial_n":141,"n_dots":3.35,"target":"right","response":"right","rt":66.100000143051,"correct":true,"confidence":3},{"trial_n":142,"n_dots":3.35,"target":"left","response":"left","rt":171.90000009537,"correct":true,"confidence":3},{"trial_n":143,"n_dots":3.25,"target":"right","response":"right","rt":6.5999999046326,"correct":true,"confidence":4},{"trial_n":144,"n_dots":3.25,"target":"right","response":"left","rt":140.80000019073,"correct":false,"confidence":4},{"trial_n":145,"n_dots":3.35,"target":"right","response":"right","rt":78,"correct":true,"confidence":4},{"trial_n":146,"n_dots":3.35,"target":"left","response":"left","rt":27.5,"correct":true,"confidence":3},{"trial_n":147,"n_dots":3.25,"target":"left","response":"left","rt":162.5,"correct":true,"confidence":4},{"trial_n":148,"n_dots":3.25,"target":"left","response":"right","rt":94.799999952316,"correct":false,"confidence":2},{"trial_n":149,"n_dots":3.35,"target":"right","response":"right","rt":71.800000190735,"correct":true,"confidence":4},{"trial_n":150,"n_dots":3.35,"target":"right","response":"right","rt":80.900000095367,"correct":true,"confidence":3},{"trial_n":151,"n_dots":3.25,"target":"right","response":"right","rt":221.5,"correct":true,"confidence":4},{"trial_n":152,"n_dots":3.25,"target":"right","response":"right","rt":358.09999990463,"correct":true,"confidence":3},{"trial_n":153,"n_dots":3.15,"target":"right","response":"right","rt":106.70000004768,"correct":true,"confidence":3},{"trial_n":154,"n_dots":3.15,"target":"right","response":"left","rt":23.799999952316,"correct":false,"confidence":4},{"trial_n":155,"n_dots":3.25,"target":"left","response":"left","rt":104.70000004768,"correct":true,"confidence":3},{"trial_n":156,"n_dots":3.25,"target":"left","response":"right","rt":55.100000143051,"correct":false,"confidence":2},{"trial_n":157,"n_dots":3.35,"target":"left","response":"left","rt":46.900000095367,"correct":true,"confidence":3},{"trial_n":158,"n_dots":3.35,"target":"left","response":"right","rt":17.5,"correct":false,"confidence":2},{"trial_n":159,"n_dots":3.45,"target":"left","response":"right","rt":24.299999952316,"correct":false,"confidence":2},{"trial_n":160,"n_dots":3.55,"target":"right","response":"right","rt":2.3999998569489,"correct":true,"confidence":4},{"trial_n":161,"n_dots":3.55,"target":"right","response":"right","rt":3.8999998569489,"correct":true,"confidence":4},{"trial_n":162,"n_dots":3.45,"target":"left","response":"right","rt":99,"correct":false,"confidence":5},{"trial_n":163,"n_dots":3.55,"target":"right","response":"right","rt":33.599999904633,"correct":true,"confidence":4},{"trial_n":164,"n_dots":3.55,"target":"right","response":"right","rt":23.399999856949,"correct":true,"confidence":3},{"trial_n":165,"n_dots":3.45,"target":"right","response":"right","rt":146.79999995232,"correct":true,"confidence":5},{"trial_n":166,"n_dots":3.45,"target":"right","response":"right","rt":48.900000095367,"correct":true,"confidence":4},{"trial_n":167,"n_dots":3.35,"target":"left","response":"left","rt":18.400000095367,"correct":true,"confidence":4},{"trial_n":168,"n_dots":3.35,"target":"left","response":"right","rt":28.599999904633,"correct":false,"confidence":2},{"trial_n":169,"n_dots":3.45,"target":"left","response":"right","rt":73.900000095367,"correct":false,"confidence":3},{"trial_n":170,"n_dots":3.55,"target":"left","response":"left","rt":164.60000014305,"correct":true,"confidence":4},{"trial_n":171,"n_dots":3.55,"target":"left","response":"left","rt":36.299999952316,"correct":true,"confidence":5},{"trial_n":172,"n_dots":3.45,"target":"right","response":"right","rt":145,"correct":true,"confidence":2},{"trial_n":173,"n_dots":3.45,"target":"left","response":"left","rt":383,"correct":true,"confidence":4},{"trial_n":174,"n_dots":3.35,"target":"right","response":"left","rt":87.100000143051,"correct":false,"confidence":5},{"trial_n":175,"n_dots":3.45,"target":"right","response":"right","rt":125.20000004768,"correct":true,"confidence":4},{"trial_n":176,"n_dots":3.45,"target":"right","response":"right","rt":143.69999980927,"correct":true,"confidence":4},{"trial_n":177,"n_dots":3.35,"target":"left","response":"left","rt":187.20000004768,"correct":true,"confidence":5},{"trial_n":178,"n_dots":3.35,"target":"right","response":"right","rt":280.29999995232,"correct":true,"confidence":3},{"trial_n":179,"n_dots":3.25,"target":"right","response":"right","rt":355.20000004768,"correct":true,"confidence":2},{"trial_n":180,"n_dots":3.25,"target":"left","response":"left","rt":294.19999980927,"correct":true,"confidence":4},{"trial_n":181,"n_dots":3.15,"target":"right","response":"right","rt":210.10000014305,"correct":true,"confidence":4},{"trial_n":182,"n_dots":3.15,"target":"left","response":"left","rt":262.59999990463,"correct":true,"confidence":3},{"trial_n":183,"n_dots":3.05,"target":"right","response":"right","rt":272.40000009537,"correct":true,"confidence":4},{"trial_n":184,"n_dots":3.05,"target":"left","response":"left","rt":286,"correct":true,"confidence":3},{"trial_n":185,"n_dots":2.95,"target":"left","response":"left","rt":268.20000004768,"correct":true,"confidence":5},{"trial_n":186,"n_dots":2.95,"target":"right","response":"left","rt":314.29999995232,"correct":false,"confidence":4},{"trial_n":187,"n_dots":3.05,"target":"right","response":"right","rt":246.80000019073,"correct":true,"confidence":4},{"trial_n":188,"n_dots":3.05,"target":"right","response":"right","rt":231.40000009537,"correct":true,"confidence":3},{"trial_n":189,"n_dots":2.95,"target":"right","response":"left","rt":1375.3999998569,"correct":false,"confidence":2},{"trial_n":190,"n_dots":3.05,"target":"right","response":"right","rt":423.30000019073,"correct":true,"confidence":3},{"trial_n":191,"n_dots":3.05,"target":"right","response":"left","rt":295.90000009537,"correct":false,"confidence":2},{"trial_n":192,"n_dots":3.15,"target":"right","response":"right","rt":102.90000009537,"correct":true,"confidence":3},{"trial_n":193,"n_dots":3.15,"target":"left","response":"left","rt":268,"correct":true,"confidence":4},{"trial_n":194,"n_dots":3.05,"target":"left","response":"left","rt":65.099999904633,"correct":true,"confidence":4}]