[{"trial_n":1,"n_dots":4.25,"target":"right","response":"right","rt":8040.6999999881,"correct":true,"confidence":-1},{"trial_n":2,"n_dots":4.25,"target":"left","response":"right","rt":976.30000001192,"correct":false,"confidence":-1},{"trial_n":3,"n_dots":4.65,"target":"left","response":"left","rt":335.19999998808,"correct":true,"confidence":-1},{"trial_n":4,"n_dots":4.65,"target":"left","response":"left","rt":306.5,"correct":true,"confidence":-1},{"trial_n":5,"n_dots":4.25,"target":"right","response":"right","rt":99.699999988079,"correct":true,"confidence":-1},{"trial_n":6,"n_dots":4.25,"target":"left","response":"left","rt":84.699999988079,"correct":true,"confidence":-1},{"trial_n":7,"n_dots":3.85,"target":"right","response":"left","rt":228.5,"correct":false,"confidence":-1},{"trial_n":8,"n_dots":4.05,"target":"right","response":"right","rt":523.39999997616,"correct":true,"confidence":-1},{"trial_n":9,"n_dots":4.05,"target":"right","response":"right","rt":433.59999996424,"correct":true,"confidence":-1},{"trial_n":10,"n_dots":3.85,"target":"right","response":"right","rt":487.30000001192,"correct":true,"confidence":-1},{"trial_n":11,"n_dots":3.85,"target":"left","response":"left","rt":57.900000035763,"correct":true,"confidence":-1},{"trial_n":12,"n_dots":3.65,"target":"left","response":"right","rt":1055.6000000238,"correct":false,"confidence":-1},{"trial_n":13,"n_dots":3.75,"target":"right","response":"right","rt":312.69999998808,"correct":true,"confidence":-1},{"trial_n":14,"n_dots":3.75,"target":"left","response":"left","rt":269.59999996424,"correct":true,"confidence":-1},{"trial_n":15,"n_dots":3.65,"target":"right","response":"left","rt":623.5,"correct":false,"confidence":-1},{"trial_n":16,"n_dots":3.75,"target":"right","response":"left","rt":300.19999998808,"correct":false,"confidence":-1},{"trial_n":17,"n_dots":3.85,"target":"right","response":"right","rt":322.59999996424,"correct":true,"confidence":-1},{"trial_n":18,"n_dots":3.85,"target":"right","response":"left","rt":648.60000002384,"correct":false,"confidence":-1},{"trial_n":19,"n_dots":3.95,"target":"right","response":"left","rt":343.10000002384,"correct":false,"confidence":-1},{"trial_n":20,"n_dots":4.05,"target":"left","response":"left","rt":233.60000002384,"correct":true,"confidence":-1},{"trial_n":21,"n_dots":4.05,"target":"right","response":"right","rt":284.90000003576,"correct":true,"confidence":-1},{"trial_n":22,"n_dots":3.95,"target":"right","response":"right","rt":349.5,"correct":true,"confidence":-1},{"trial_n":23,"n_dots":3.95,"target":"right","response":"right","rt":266.60000002384,"correct":true,"confidence":-1},{"trial_n":24,"n_dots":3.85,"target":"left","response":"left","rt":452.89999997616,"correct":true,"confidence":-1},{"trial_n":25,"n_dots":3.85,"target":"left","response":"left","rt":297.19999998808,"correct":true,"confidence":-1},{"trial_n":26,"n_dots":3.75,"target":"left","response":"left","rt":306.5,"correct":true,"confidence":-1},{"trial_n":27,"n_dots":3.75,"target":"right","response":"left","rt":763.69999998808,"correct":false,"confidence":1},{"trial_n":28,"n_dots":3.85,"target":"left","response":"left","rt":684.59999996424,"correct":true,"confidence":4},{"trial_n":29,"n_dots":3.85,"target":"left","response":"left","rt":413.30000001192,"correct":true,"confidence":5},{"trial_n":30,"n_dots":3.75,"target":"left","response":"left","rt":275.90000003576,"correct":true,"confidence":5},{"trial_n":31,"n_dots":3.75,"target":"right","response":"right","rt":322.10000002384,"correct":true,"confidence":2},{"trial_n":32,"n_dots":3.65,"target":"left","response":"left","rt":288.80000001192,"correct":true,"confidence":6},{"trial_n":33,"n_dots":3.65,"target":"right","response":"right","rt":462.5,"correct":true,"confidence":2},{"trial_n":34,"n_dots":3.55,"target":"left","response":"left","rt":322.5,"correct":true,"confidence":4},{"trial_n":35,"n_dots":3.55,"target":"right","response":"right","rt":739.30000001192,"correct":true,"confidence":3},{"trial_n":36,"n_dots":3.45,"target":"left","response":"left","rt":243,"correct":true,"confidence":4},{"trial_n":37,"n_dots":3.45,"target":"left","response":"left","rt":389.30000001192,"correct":true,"confidence":5},{"trial_n":38,"n_dots":3.35,"target":"right","response":"left","rt":569.19999998808,"correct":false,"confidence":2},{"trial_n":39,"n_dots":3.45,"target":"right","response":"right","rt":391.20000004768,"correct":true,"confidence":1},{"trial_n":40,"n_dots":3.45,"target":"left","response":"left","rt":297.19999998808,"correct":true,"confidence":5},{"trial_n":41,"n_dots":3.35,"target":"right","response":"right","rt":400.30000001192,"correct":true,"confidence":6},{"trial_n":42,"n_dots":3.35,"target":"left","response":"left","rt":372,"correct":true,"confidence":2},{"trial_n":43,"n_dots":3.25,"target":"left","response":"left","rt":373.69999998808,"correct":true,"confidence":3},{"trial_n":44,"n_dots":3.25,"target":"left","response":"left","rt":336.09999996424,"correct":true,"confidence":2},{"trial_n":45,"n_dots":3.15,"target":"right","response":"right","rt":264.69999998808,"correct":true,"confidence":4},{"trial_n":46,"n_dots":3.15,"target":"left","response":"left","rt":665.59999996424,"correct":true,"confidence":4},{"trial_n":47,"n_dots":3.05,"target":"right","response":"left","rt":1338.8999999762,"correct":false,"confidence":1},{"trial_n":48,"n_dots":3.15,"target":"right","response":"right","rt":956,"correct":true,"confidence":2},{"trial_n":49,"n_dots":3.15,"target":"left","response":"left","rt":300.20000004768,"correct":true,"confidence":3},{"trial_n":50,"n_dots":3.05,"target":"right","response":"right","rt":757.09999996424,"correct":true,"confidence":2},{"trial_n":51,"n_dots":3.05,"target":"right","response":"right","rt":381.19999998808,"correct":true,"confidence":1},{"trial_n":52,"n_dots":2.95,"target":"right","response":"left","rt":1064.5,"correct":false,"confidence":2},{"trial_n":53,"n_dots":3.05,"target":"left","response":"left","rt":232.19999998808,"correct":true,"confidence":5},{"trial_n":54,"n_dots":3.05,"target":"right","response":"right","rt":1460.3999999762,"correct":true,"confidence":2},{"trial_n":55,"n_dots":2.95,"target":"left","response":"right","rt":2924.7000000477,"correct":false,"confidence":3},{"trial_n":56,"n_dots":3.05,"target":"left","response":"left","rt":397.30000001192,"correct":true,"confidence":4},{"trial_n":57,"n_dots":3.05,"target":"left","response":"left","rt":314.39999997616,"correct":true,"confidence":5},{"trial_n":58,"n_dots":2.95,"target":"right","response":"left","rt":1398.8000000119,"correct":false,"confidence":1},{"trial_n":59,"n_dots":3.05,"target":"right","response":"right","rt":1053.9000000358,"correct":true,"confidence":1},{"trial_n":60,"n_dots":3.05,"target":"left","response":"left","rt":599.69999998808,"correct":true,"confidence":3},{"trial_n":61,"n_dots":2.95,"target":"left","response":"left","rt":280.5,"correct":true,"confidence":6},{"trial_n":62,"n_dots":2.95,"target":"left","response":"left","rt":1130.8000000119,"correct":true,"confidence":6},{"trial_n":63,"n_dots":2.85,"target":"right","response":"right","rt":1499.3000000119,"correct":true,"confidence":1},{"trial_n":64,"n_dots":2.85,"target":"right","response":"left","rt":320.89999997616,"correct":false,"confidence":3},{"trial_n":65,"n_dots":2.95,"target":"left","response":"left","rt":279.80000001192,"correct":true,"confidence":4},{"trial_n":66,"n_dots":2.95,"target":"left","response":"left","rt":277.80000001192,"correct":true,"confidence":5},{"trial_n":67,"n_dots":2.85,"target":"left","response":"left","rt":623.30000001192,"correct":true,"confidence":2},{"trial_n":68,"n_dots":2.85,"target":"left","response":"left","rt":303.90000003576,"correct":true,"confidence":4},{"trial_n":69,"n_dots":2.75,"target":"right","response":"right","rt":441.5,"correct":true,"confidence":5},{"trial_n":70,"n_dots":2.75,"target":"left","response":"left","rt":262.80000001192,"correct":true,"confidence":1},{"trial_n":71,"n_dots":2.65,"target":"left","response":"left","rt":479.30000001192,"correct":true,"confidence":3},{"trial_n":72,"n_dots":2.65,"target":"right","response":"right","rt":853.70000004768,"correct":true,"confidence":3},{"trial_n":73,"n_dots":2.55,"target":"right","response":"left","rt":386.30000001192,"correct":false,"confidence":2},{"trial_n":74,"n_dots":2.65,"target":"left","response":"left","rt":348.80000001192,"correct":true,"confidence":5},{"trial_n":75,"n_dots":2.65,"target":"right","response":"right","rt":931.30000001192,"correct":true,"confidence":4},{"trial_n":76,"n_dots":2.55,"target":"left","response":"right","rt":1109.9000000358,"correct":false,"confidence":4},{"trial_n":77,"n_dots":2.65,"target":"left","response":"left","rt":814.19999998808,"correct":true,"confidence":2},{"trial_n":78,"n_dots":2.65,"target":"left","response":"right","rt":1001.4000000358,"correct":false,"confidence":1},{"trial_n":79,"n_dots":2.75,"target":"left","response":"left","rt":355.10000002384,"correct":true,"confidence":2},{"trial_n":80,"n_dots":2.75,"target":"right","response":"right","rt":434.70000004768,"correct":true,"confidence":3},{"trial_n":81,"n_dots":2.65,"target":"right","response":"left","rt":669.10000002384,"correct":false,"confidence":1},{"trial_n":82,"n_dots":2.75,"target":"right","response":"left","rt":598.5,"correct":false,"confidence":2},{"trial_n":83,"n_dots":2.85,"target":"left","response":"left","rt":661.59999996424,"correct":true,"confidence":3},{"trial_n":84,"n_dots":2.85,"target":"right","response":"left","rt":574.30000001192,"correct":false,"confidence":1},{"trial_n":85,"n_dots":2.95,"target":"right","response":"left","rt":1319.6000000238,"correct":false,"confidence":1},{"trial_n":86,"n_dots":3.05,"target":"left","response":"left","rt":699.29999995232,"correct":true,"confidence":3},{"trial_n":87,"n_dots":3.05,"target":"right","response":"left","rt":1597.5,"correct":false,"confidence":1},{"trial_n":88,"n_dots":3.15,"target":"left","response":"left","rt":428.80000001192,"correct":true,"confidence":4},{"trial_n":89,"n_dots":3.15,"target":"left","response":"left","rt":383.09999996424,"correct":true,"confidence":5},{"trial_n":90,"n_dots":3.05,"target":"left","response":"left","rt":580.89999997616,"correct":true,"confidence":5},{"trial_n":91,"n_dots":3.05,"target":"right","response":"right","rt":947.89999997616,"correct":true,"confidence":2},{"trial_n":92,"n_dots":2.95,"target":"right","response":"right","rt":1773.6000000238,"correct":true,"confidence":1},{"trial_n":93,"n_dots":2.95,"target":"right","response":"left","rt":804.10000002384,"correct":false,"confidence":1},{"trial_n":94,"n_dots":3.05,"target":"left","response":"left","rt":281.69999998808,"correct":true,"confidence":5},{"trial_n":95,"n_dots":3.05,"target":"left","response":"left","rt":384.90000003576,"correct":true,"confidence":3},{"trial_n":96,"n_dots":2.95,"target":"right","response":"right","rt":586.40000003576,"correct":true,"confidence":5},{"trial_n":97,"n_dots":2.95,"target":"right","response":"right","rt":407.39999997616,"correct":true,"confidence":6},{"trial_n":98,"n_dots":2.85,"target":"right","response":"right","rt":364.89999997616,"correct":true,"confidence":2},{"trial_n":99,"n_dots":2.85,"target":"right","response":"right","rt":696.5,"correct":true,"confidence":4},{"trial_n":100,"n_dots":2.75,"target":"left","response":"left","rt":784.30000001192,"correct":true,"confidence":2},{"trial_n":101,"n_dots":2.75,"target":"left","response":"left","rt":503,"correct":true,"confidence":5},{"trial_n":102,"n_dots":2.65,"target":"left","response":"left","rt":349.5,"correct":true,"confidence":6},{"trial_n":103,"n_dots":2.65,"target":"left","response":"left","rt":370.39999997616,"correct":true,"confidence":2},{"trial_n":104,"n_dots":2.55,"target":"left","response":"left","rt":1441.9000000358,"correct":true,"confidence":1},{"trial_n":105,"n_dots":2.55,"target":"left","response":"left","rt":333.20000004768,"correct":true,"confidence":2},{"trial_n":106,"n_dots":2.45,"target":"left","response":"left","rt":692.20000004768,"correct":true,"confidence":3},{"trial_n":107,"n_dots":2.45,"target":"left","response":"left","rt":840.80000001192,"correct":true,"confidence":2},{"trial_n":108,"n_dots":2.35,"target":"right","response":"left","rt":336.89999997616,"correct":false,"confidence":1},{"trial_n":109,"n_dots":2.45,"target":"left","response":"left","rt":289.30000001192,"correct":true,"confidence":2},{"trial_n":110,"n_dots":2.45,"target":"left","response":"left","rt":312.20000004768,"correct":true,"confidence":4},{"trial_n":111,"n_dots":2.35,"target":"left","response":"right","rt":869.09999996424,"correct":false,"confidence":2},{"trial_n":112,"n_dots":2.45,"target":"left","response":"left","rt":307.19999998808,"correct":true,"confidence":3},{"trial_n":113,"n_dots":2.45,"target":"left","response":"left","rt":919,"correct":true,"confidence":1},{"trial_n":114,"n_dots":2.35,"target":"right","response":"right","rt":930.89999997616,"correct":true,"confidence":2},{"trial_n":115,"n_dots":2.35,"target":"right","response":"left","rt":1555.0999999642,"correct":false,"confidence":1},{"trial_n":116,"n_dots":2.45,"target":"left","response":"left","rt":439.89999997616,"correct":true,"confidence":1},{"trial_n":117,"n_dots":2.45,"target":"left","response":"right","rt":643.69999998808,"correct":false,"confidence":1},{"trial_n":118,"n_dots":2.55,"target":"right","response":"left","rt":388,"correct":false,"confidence":2},{"trial_n":119,"n_dots":2.65,"target":"left","response":"left","rt":320.5,"correct":true,"confidence":1},{"trial_n":120,"n_dots":2.65,"target":"left","response":"left","rt":593.30000001192,"correct":true,"confidence":2},{"trial_n":121,"n_dots":2.55,"target":"right","response":"right","rt":309.19999998808,"correct":true,"confidence":1},{"trial_n":122,"n_dots":2.55,"target":"left","response":"left","rt":607.09999996424,"correct":true,"confidence":1},{"trial_n":123,"n_dots":2.45,"target":"right","response":"right","rt":648,"correct":true,"confidence":1},{"trial_n":124,"n_dots":2.45,"target":"right","response":"left","rt":610.29999995232,"correct":false,"confidence":1},{"trial_n":125,"n_dots":2.55,"target":"left","response":"right","rt":538.89999997616,"correct":false,"confidence":1},{"trial_n":126,"n_dots":2.65,"target":"left","response":"left","rt":256,"correct":true,"confidence":1},{"trial_n":127,"n_dots":2.65,"target":"left","response":"left","rt":438.70000004768,"correct":true,"confidence":1},{"trial_n":128,"n_dots":2.55,"target":"left","response":"left","rt":367.39999997616,"correct":true,"confidence":2},{"trial_n":129,"n_dots":2.55,"target":"left","response":"left","rt":275.39999997616,"correct":true,"confidence":2},{"trial_n":130,"n_dots":2.45,"target":"left","response":"left","rt":276.09999996424,"correct":true,"confidence":1},{"trial_n":131,"n_dots":2.45,"target":"left","response":"left","rt":326.90000003576,"correct":true,"confidence":1},{"trial_n":132,"n_dots":2.35,"target":"right","response":"left","rt":282.19999998808,"correct":false,"confidence":1},{"trial_n":133,"n_dots":2.45,"target":"left","response":"right","rt":270.69999998808,"correct":false,"confidence":1},{"trial_n":134,"n_dots":2.55,"target":"left","response":"left","rt":258.89999997616,"correct":true,"confidence":2},{"trial_n":135,"n_dots":2.55,"target":"left","response":"right","rt":876.09999996424,"correct":false,"confidence":3},{"trial_n":136,"n_dots":2.65,"target":"left","response":"left","rt":266.79999995232,"correct":true,"confidence":3},{"trial_n":137,"n_dots":2.65,"target":"right","response":"right","rt":826.5,"correct":true,"confidence":2},{"trial_n":138,"n_dots":2.55,"target":"left","response":"left","rt":657.10000002384,"correct":true,"confidence":1},{"trial_n":139,"n_dots":2.55,"target":"right","response":"left","rt":375.69999998808,"correct":false,"confidence":1},{"trial_n":140,"n_dots":2.65,"target":"right","response":"right","rt":729.5,"correct":true,"confidence":1},{"trial_n":141,"n_dots":2.65,"target":"left","response":"left","rt":579.09999996424,"correct":true,"confidence":1},{"trial_n":142,"n_dots":2.55,"target":"left","response":"right","rt":546.90000003576,"correct":false,"confidence":2},{"trial_n":143,"n_dots":2.65,"target":"right","response":"left","rt":833.40000003576,"correct":false,"confidence":1},{"trial_n":144,"n_dots":2.75,"target":"right","response":"right","rt":1049.5,"correct":true,"confidence":1},{"trial_n":145,"n_dots":2.75,"target":"left","response":"left","rt":414.39999997616,"correct":true,"confidence":1},{"trial_n":146,"n_dots":2.65,"target":"right","response":"left","rt":516.89999997616,"correct":false,"confidence":1},{"trial_n":147,"n_dots":2.75,"target":"left","response":"right","rt":862.59999996424,"correct":false,"confidence":1},{"trial_n":148,"n_dots":2.85,"target":"right","response":"left","rt":506.80000001192,"correct":false,"confidence":2},{"trial_n":149,"n_dots":2.95,"target":"left","response":"left","rt":267.70000004768,"correct":true,"confidence":1},{"trial_n":150,"n_dots":2.95,"target":"left","response":"left","rt":501.10000002384,"correct":true,"confidence":2},{"trial_n":151,"n_dots":2.85,"target":"left","response":"left","rt":342.39999997616,"correct":true,"confidence":3},{"trial_n":152,"n_dots":2.85,"target":"left","response":"left","rt":715.59999996424,"correct":true,"confidence":3},{"trial_n":153,"n_dots":2.75,"target":"right","response":"right","rt":336.40000003576,"correct":true,"confidence":4},{"trial_n":154,"n_dots":2.75,"target":"right","response":"right","rt":1780.6000000238,"correct":true,"confidence":2},{"trial_n":155,"n_dots":2.65,"target":"right","response":"left","rt":661.80000001192,"correct":false,"confidence":2},{"trial_n":156,"n_dots":2.75,"target":"right","response":"left","rt":508.69999998808,"correct":false,"confidence":1},{"trial_n":157,"n_dots":2.85,"target":"right","response":"right","rt":262.69999998808,"correct":true,"confidence":2},{"trial_n":158,"n_dots":2.85,"target":"left","response":"left","rt":339.39999997616,"correct":true,"confidence":3},{"trial_n":159,"n_dots":2.75,"target":"left","response":"left","rt":261.30000001192,"correct":true,"confidence":2},{"trial_n":160,"n_dots":2.75,"target":"right","response":"right","rt":358.89999997616,"correct":true,"confidence":3},{"trial_n":161,"n_dots":2.65,"target":"right","response":"left","rt":504.5,"correct":false,"confidence":2},{"trial_n":162,"n_dots":2.75,"target":"right","response":"right","rt":612.69999998808,"correct":true,"confidence":2},{"trial_n":163,"n_dots":2.75,"target":"left","response":"left","rt":314.09999996424,"correct":true,"confidence":4},{"trial_n":164,"n_dots":2.65,"target":"left","response":"left","rt":403.19999998808,"correct":true,"confidence":5},{"trial_n":165,"n_dots":2.65,"target":"right","response":"left","rt":427.89999997616,"correct":false,"confidence":4},{"trial_n":166,"n_dots":2.75,"target":"right","response":"right","rt":391.39999997616,"correct":true,"confidence":5},{"trial_n":167,"n_dots":2.75,"target":"right","response":"right","rt":766.89999997616,"correct":true,"confidence":4},{"trial_n":168,"n_dots":2.65,"target":"right","response":"left","rt":393.5,"correct":false,"confidence":2},{"trial_n":169,"n_dots":2.75,"target":"right","response":"right","rt":767.70000004768,"correct":true,"confidence":1},{"trial_n":170,"n_dots":2.75,"target":"right","response":"left","rt":355.30000001192,"correct":false,"confidence":2},{"trial_n":171,"n_dots":2.85,"target":"left","response":"left","rt":521.89999997616,"correct":true,"confidence":3},{"trial_n":172,"n_dots":2.85,"target":"right","response":"right","rt":705.40000003576,"correct":true,"confidence":2},{"trial_n":173,"n_dots":2.75,"target":"right","response":"left","rt":896.19999998808,"correct":false,"confidence":3},{"trial_n":174,"n_dots":2.85,"target":"right","response":"right","rt":398.5,"correct":true,"confidence":3},{"trial_n":175,"n_dots":2.85,"target":"right","response":"right","rt":643,"correct":true,"confidence":2},{"trial_n":176,"n_dots":2.75,"target":"right","response":"right","rt":385,"correct":true,"confidence":2},{"trial_n":177,"n_dots":2.75,"target":"left","response":"left","rt":441.30000001192,"correct":true,"confidence":2},{"trial_n":178,"n_dots":2.65,"target":"left","response":"left","rt":1234.1999999881,"correct":true,"confidence":2},{"trial_n":179,"n_dots":2.65,"target":"left","response":"left","rt":1592.9000000358,"correct":true,"confidence":1},{"trial_n":180,"n_dots":2.55,"target":"right","response":"right","rt":737.60000002384,"correct":true,"confidence":2},{"trial_n":181,"n_dots":2.55,"target":"right","response":"left","rt":541.80000001192,"correct":false,"confidence":2},{"trial_n":182,"n_dots":2.65,"target":"right","response":"right","rt":2419.8000000119,"correct":true,"confidence":1},{"trial_n":183,"n_dots":2.65,"target":"left","response":"left","rt":278.69999998808,"correct":true,"confidence":3},{"trial_n":184,"n_dots":2.55,"target":"right","response":"right","rt":768.80000001192,"correct":true,"confidence":2},{"trial_n":185,"n_dots":2.55,"target":"right","response":"right","rt":503.89999997616,"correct":true,"confidence":2},{"trial_n":186,"n_dots":2.45,"target":"right","response":"right","rt":823.90000003576,"correct":true,"confidence":3},{"trial_n":187,"n_dots":2.45,"target":"right","response":"right","rt":1478.6999999881,"correct":true,"confidence":2},{"trial_n":188,"n_dots":2.35,"target":"right","response":"right","rt":474.10000002384,"correct":true,"confidence":4},{"trial_n":189,"n_dots":2.35,"target":"right","response":"right","rt":331.40000003576,"correct":true,"confidence":2},{"trial_n":190,"n_dots":2.25,"target":"right","response":"left","rt":565.89999997616,"correct":false,"confidence":1},{"trial_n":191,"n_dots":2.35,"target":"right","response":"left","rt":354,"correct":false,"confidence":2},{"trial_n":192,"n_dots":2.45,"target":"right","response":"left","rt":649.39999997616,"correct":false,"confidence":1},{"trial_n":193,"n_dots":2.55,"target":"right","response":"left","rt":887.60000002384,"correct":false,"confidence":1},{"trial_n":194,"n_dots":2.65,"target":"left","response":"left","rt":499.39999997616,"correct":true,"confidence":2}]