[{"trial_n":1,"n_dots":4.25,"target":"left","response":"left","rt":10032,"correct":true,"confidence":-1},{"trial_n":2,"n_dots":4.25,"target":"right","response":"right","rt":630,"correct":true,"confidence":-1},{"trial_n":3,"n_dots":3.85,"target":"left","response":"left","rt":388,"correct":true,"confidence":-1},{"trial_n":4,"n_dots":3.85,"target":"right","response":"right","rt":360.99999999997,"correct":true,"confidence":-1},{"trial_n":5,"n_dots":3.45,"target":"left","response":"left","rt":311.00000000003,"correct":true,"confidence":-1},{"trial_n":6,"n_dots":3.45,"target":"right","response":"right","rt":650,"correct":true,"confidence":-1},{"trial_n":7,"n_dots":3.05,"target":"right","response":"right","rt":412,"correct":true,"confidence":-1},{"trial_n":8,"n_dots":3.05,"target":"left","response":"left","rt":464,"correct":true,"confidence":-1},{"trial_n":9,"n_dots":2.85,"target":"left","response":"left","rt":328,"correct":true,"confidence":-1},{"trial_n":10,"n_dots":2.85,"target":"left","response":"left","rt":633.00000000003,"correct":true,"confidence":-1},{"trial_n":11,"n_dots":2.65,"target":"left","response":"right","rt":489,"correct":false,"confidence":-1},{"trial_n":12,"n_dots":2.85,"target":"left","response":"left","rt":556.00000000003,"correct":true,"confidence":-1},{"trial_n":13,"n_dots":2.85,"target":"right","response":"right","rt":389,"correct":true,"confidence":-1},{"trial_n":14,"n_dots":2.75,"target":"left","response":"left","rt":329.00000000003,"correct":true,"confidence":-1},{"trial_n":15,"n_dots":2.75,"target":"left","response":"right","rt":424,"correct":false,"confidence":-1},{"trial_n":16,"n_dots":2.85,"target":"left","response":"left","rt":452,"correct":true,"confidence":-1},{"trial_n":17,"n_dots":2.85,"target":"left","response":"left","rt":322,"correct":true,"confidence":-1},{"trial_n":18,"n_dots":2.75,"target":"right","response":"right","rt":334,"correct":true,"confidence":-1},{"trial_n":19,"n_dots":2.75,"target":"right","response":"right","rt":356.00000000003,"correct":true,"confidence":-1},{"trial_n":20,"n_dots":2.65,"target":"left","response":"left","rt":371,"correct":true,"confidence":-1},{"trial_n":21,"n_dots":2.65,"target":"left","response":"right","rt":382,"correct":false,"confidence":-1},{"trial_n":22,"n_dots":2.75,"target":"right","response":"right","rt":305,"correct":true,"confidence":-1},{"trial_n":23,"n_dots":2.75,"target":"left","response":"right","rt":281,"correct":false,"confidence":-1},{"trial_n":24,"n_dots":2.85,"target":"right","response":"right","rt":157,"correct":true,"confidence":-1},{"trial_n":25,"n_dots":2.85,"target":"right","response":"right","rt":799,"correct":true,"confidence":-1},{"trial_n":26,"n_dots":2.75,"target":"left","response":"left","rt":497,"correct":true,"confidence":-1},{"trial_n":27,"n_dots":2.75,"target":"left","response":"left","rt":1286,"correct":true,"confidence":4},{"trial_n":28,"n_dots":2.65,"target":"right","response":"right","rt":1664,"correct":true,"confidence":4},{"trial_n":29,"n_dots":2.65,"target":"right","response":"right","rt":859,"correct":true,"confidence":6},{"trial_n":30,"n_dots":2.55,"target":"left","response":"left","rt":786,"correct":true,"confidence":6},{"trial_n":31,"n_dots":2.55,"target":"left","response":"right","rt":962,"correct":false,"confidence":5},{"trial_n":32,"n_dots":2.65,"target":"left","response":"left","rt":733,"correct":true,"confidence":5},{"trial_n":33,"n_dots":2.65,"target":"right","response":"right","rt":1073.9999999999,"correct":true,"confidence":4},{"trial_n":34,"n_dots":2.55,"target":"left","response":"left","rt":1087.9999999999,"correct":true,"confidence":6},{"trial_n":35,"n_dots":2.55,"target":"right","response":"left","rt":1095,"correct":false,"confidence":3},{"trial_n":36,"n_dots":2.65,"target":"right","response":"right","rt":667,"correct":true,"confidence":4},{"trial_n":37,"n_dots":2.65,"target":"left","response":"right","rt":815,"correct":false,"confidence":3},{"trial_n":38,"n_dots":2.75,"target":"right","response":"right","rt":804,"correct":true,"confidence":5},{"trial_n":39,"n_dots":2.75,"target":"left","response":"left","rt":-11,"correct":true,"confidence":6},{"trial_n":40,"n_dots":2.65,"target":"left","response":"left","rt":301,"correct":true,"confidence":5},{"trial_n":41,"n_dots":2.65,"target":"right","response":"right","rt":1228,"correct":true,"confidence":4},{"trial_n":42,"n_dots":2.55,"target":"right","response":"right","rt":671,"correct":true,"confidence":3},{"trial_n":43,"n_dots":2.55,"target":"right","response":"left","rt":1462,"correct":false,"confidence":3},{"trial_n":44,"n_dots":2.65,"target":"right","response":"left","rt":773.00000000023,"correct":false,"confidence":5},{"trial_n":45,"n_dots":2.75,"target":"right","response":"right","rt":514,"correct":true,"confidence":5},{"trial_n":46,"n_dots":2.75,"target":"right","response":"left","rt":731,"correct":false,"confidence":6},{"trial_n":47,"n_dots":2.85,"target":"left","response":"right","rt":138408,"correct":false,"confidence":1},{"trial_n":48,"n_dots":2.95,"target":"left","response":"left","rt":739,"correct":true,"confidence":5},{"trial_n":49,"n_dots":2.95,"target":"right","response":"right","rt":1198.9999999995,"correct":true,"confidence":3},{"trial_n":50,"n_dots":2.85,"target":"right","response":"left","rt":791.99999999953,"correct":false,"confidence":3},{"trial_n":51,"n_dots":2.95,"target":"right","response":"left","rt":804.00000000047,"correct":false,"confidence":3},{"trial_n":52,"n_dots":3.05,"target":"left","response":"right","rt":770,"correct":false,"confidence":3},{"trial_n":53,"n_dots":3.15,"target":"right","response":"right","rt":638,"correct":true,"confidence":4},{"trial_n":54,"n_dots":3.15,"target":"left","response":"left","rt":483,"correct":true,"confidence":6},{"trial_n":55,"n_dots":3.05,"target":"right","response":"left","rt":2341,"correct":false,"confidence":1},{"trial_n":56,"n_dots":3.15,"target":"right","response":"left","rt":1160,"correct":false,"confidence":2},{"trial_n":57,"n_dots":3.25,"target":"right","response":"right","rt":978.00000000047,"correct":true,"confidence":4},{"trial_n":58,"n_dots":3.25,"target":"right","response":"left","rt":1072,"correct":false,"confidence":3},{"trial_n":59,"n_dots":3.35,"target":"right","response":"left","rt":799,"correct":false,"confidence":5},{"trial_n":60,"n_dots":3.45,"target":"left","response":"left","rt":789,"correct":true,"confidence":4},{"trial_n":61,"n_dots":3.45,"target":"left","response":"right","rt":949,"correct":false,"confidence":3},{"trial_n":62,"n_dots":3.55,"target":"right","response":"right","rt":1254,"correct":true,"confidence":3},{"trial_n":63,"n_dots":3.55,"target":"right","response":"right","rt":569,"correct":true,"confidence":5},{"trial_n":64,"n_dots":3.45,"target":"right","response":"left","rt":1016,"correct":false,"confidence":4},{"trial_n":65,"n_dots":3.55,"target":"left","response":"left","rt":538.00000000093,"correct":true,"confidence":6},{"trial_n":66,"n_dots":3.55,"target":"right","response":"right","rt":779.00000000093,"correct":true,"confidence":5},{"trial_n":67,"n_dots":3.45,"target":"right","response":"right","rt":1010,"correct":true,"confidence":2},{"trial_n":68,"n_dots":3.45,"target":"right","response":"right","rt":982,"correct":true,"confidence":4},{"trial_n":69,"n_dots":3.35,"target":"left","response":"left","rt":794.99999999907,"correct":true,"confidence":4},{"trial_n":70,"n_dots":3.35,"target":"left","response":"left","rt":771,"correct":true,"confidence":5},{"trial_n":71,"n_dots":3.25,"target":"left","response":"left","rt":964,"correct":true,"confidence":5},{"trial_n":72,"n_dots":3.25,"target":"left","response":"right","rt":485,"correct":false,"confidence":4},{"trial_n":73,"n_dots":3.35,"target":"left","response":"right","rt":2113.9999999991,"correct":false,"confidence":3},{"trial_n":74,"n_dots":3.45,"target":"right","response":"right","rt":911,"correct":true,"confidence":5},{"trial_n":75,"n_dots":3.45,"target":"left","response":"right","rt":452261,"correct":false,"confidence":1},{"trial_n":76,"n_dots":3.55,"target":"right","response":"right","rt":860,"correct":true,"confidence":2},{"trial_n":77,"n_dots":3.55,"target":"left","response":"left","rt":1024,"correct":true,"confidence":2},{"trial_n":78,"n_dots":3.45,"target":"left","response":"right","rt":696,"correct":false,"confidence":3},{"trial_n":79,"n_dots":3.55,"target":"left","response":"left","rt":1171,"correct":true,"confidence":6},{"trial_n":80,"n_dots":3.55,"target":"right","response":"right","rt":875.99999999907,"correct":true,"confidence":3},{"trial_n":81,"n_dots":3.45,"target":"right","response":"right","rt":916,"correct":true,"confidence":3},{"trial_n":82,"n_dots":3.45,"target":"left","response":"left","rt":622.99999999907,"correct":true,"confidence":6},{"trial_n":83,"n_dots":3.35,"target":"left","response":"left","rt":804,"correct":true,"confidence":5},{"trial_n":84,"n_dots":3.35,"target":"right","response":"right","rt":793,"correct":true,"confidence":3},{"trial_n":85,"n_dots":3.25,"target":"left","response":"left","rt":908,"correct":true,"confidence":3},{"trial_n":86,"n_dots":3.25,"target":"right","response":"left","rt":898,"correct":false,"confidence":3},{"trial_n":87,"n_dots":3.35,"target":"right","response":"left","rt":1285,"correct":false,"confidence":3},{"trial_n":88,"n_dots":3.45,"target":"right","response":"right","rt":953,"correct":true,"confidence":3},{"trial_n":89,"n_dots":3.45,"target":"left","response":"left","rt":559.00000000186,"correct":true,"confidence":5},{"trial_n":90,"n_dots":3.35,"target":"left","response":"left","rt":794,"correct":true,"confidence":4},{"trial_n":91,"n_dots":3.35,"target":"left","response":"left","rt":622,"correct":true,"confidence":5},{"trial_n":92,"n_dots":3.25,"target":"right","response":"right","rt":496.00000000186,"correct":true,"confidence":4},{"trial_n":93,"n_dots":3.25,"target":"left","response":"left","rt":728,"correct":true,"confidence":5},{"trial_n":94,"n_dots":3.15,"target":"left","response":"left","rt":527,"correct":true,"confidence":6},{"trial_n":95,"n_dots":3.15,"target":"right","response":"right","rt":692,"correct":true,"confidence":3},{"trial_n":96,"n_dots":3.05,"target":"left","response":"left","rt":905,"correct":true,"confidence":3},{"trial_n":97,"n_dots":3.05,"target":"right","response":"right","rt":548.00000000186,"correct":true,"confidence":6},{"trial_n":98,"n_dots":2.95,"target":"left","response":"left","rt":1040,"correct":true,"confidence":3},{"trial_n":99,"n_dots":2.95,"target":"right","response":"right","rt":467,"correct":true,"confidence":6},{"trial_n":100,"n_dots":2.85,"target":"left","response":"left","rt":517,"correct":true,"confidence":4},{"trial_n":101,"n_dots":2.85,"target":"left","response":"right","rt":443,"correct":false,"confidence":4},{"trial_n":102,"n_dots":2.95,"target":"right","response":"right","rt":416,"correct":true,"confidence":6},{"trial_n":103,"n_dots":2.95,"target":"left","response":"left","rt":439,"correct":true,"confidence":5},{"trial_n":104,"n_dots":2.85,"target":"left","response":"right","rt":711.00000000186,"correct":false,"confidence":5},{"trial_n":105,"n_dots":2.95,"target":"left","response":"right","rt":719,"correct":false,"confidence":4},{"trial_n":106,"n_dots":3.05,"target":"left","response":"right","rt":434,"correct":false,"confidence":6},{"trial_n":107,"n_dots":3.15,"target":"right","response":"right","rt":561,"correct":true,"confidence":6},{"trial_n":108,"n_dots":3.15,"target":"right","response":"left","rt":723,"correct":false,"confidence":4},{"trial_n":109,"n_dots":3.25,"target":"right","response":"right","rt":340,"correct":true,"confidence":6},{"trial_n":110,"n_dots":3.25,"target":"left","response":"left","rt":668,"correct":true,"confidence":5},{"trial_n":111,"n_dots":3.15,"target":"left","response":"left","rt":686,"correct":true,"confidence":2},{"trial_n":112,"n_dots":3.15,"target":"right","response":"right","rt":608,"correct":true,"confidence":5},{"trial_n":113,"n_dots":3.05,"target":"right","response":"right","rt":681.00000000186,"correct":true,"confidence":3},{"trial_n":114,"n_dots":3.05,"target":"left","response":"left","rt":305,"correct":true,"confidence":5},{"trial_n":115,"n_dots":2.95,"target":"left","response":"right","rt":736,"correct":false,"confidence":2},{"trial_n":116,"n_dots":3.05,"target":"left","response":"right","rt":552,"correct":false,"confidence":3},{"trial_n":117,"n_dots":3.15,"target":"right","response":"right","rt":1131.0000000019,"correct":true,"confidence":2},{"trial_n":118,"n_dots":3.15,"target":"right","response":"left","rt":742,"correct":false,"confidence":3},{"trial_n":119,"n_dots":3.25,"target":"right","response":"right","rt":713,"correct":true,"confidence":3},{"trial_n":120,"n_dots":3.25,"target":"left","response":"left","rt":1525.0000000019,"correct":true,"confidence":2},{"trial_n":121,"n_dots":3.15,"target":"left","response":"left","rt":781,"correct":true,"confidence":3},{"trial_n":122,"n_dots":3.15,"target":"left","response":"left","rt":652,"correct":true,"confidence":4},{"trial_n":123,"n_dots":3.05,"target":"left","response":"left","rt":2089,"correct":true,"confidence":5},{"trial_n":124,"n_dots":3.05,"target":"left","response":"left","rt":1241,"correct":true,"confidence":3},{"trial_n":125,"n_dots":2.95,"target":"left","response":"right","rt":689,"correct":false,"confidence":5},{"trial_n":126,"n_dots":3.05,"target":"left","response":"right","rt":765,"correct":false,"confidence":3},{"trial_n":127,"n_dots":3.15,"target":"right","response":"right","rt":742,"correct":true,"confidence":4},{"trial_n":128,"n_dots":3.15,"target":"right","response":"right","rt":679,"correct":true,"confidence":3},{"trial_n":129,"n_dots":3.05,"target":"right","response":"right","rt":491,"correct":true,"confidence":5},{"trial_n":130,"n_dots":3.05,"target":"left","response":"left","rt":737,"correct":true,"confidence":4},{"trial_n":131,"n_dots":2.95,"target":"right","response":"left","rt":825,"correct":false,"confidence":4},{"trial_n":132,"n_dots":3.05,"target":"right","response":"right","rt":731.99999999814,"correct":true,"confidence":5},{"trial_n":133,"n_dots":3.05,"target":"right","response":"left","rt":1719,"correct":false,"confidence":3},{"trial_n":134,"n_dots":3.15,"target":"right","response":"right","rt":559.99999999814,"correct":true,"confidence":2},{"trial_n":135,"n_dots":3.15,"target":"left","response":"left","rt":905,"correct":true,"confidence":6},{"trial_n":136,"n_dots":3.05,"target":"right","response":"left","rt":1044,"correct":false,"confidence":4},{"trial_n":137,"n_dots":3.15,"target":"left","response":"left","rt":1054,"correct":true,"confidence":3},{"trial_n":138,"n_dots":3.15,"target":"right","response":"right","rt":594,"correct":true,"confidence":5},{"trial_n":139,"n_dots":3.05,"target":"right","response":"left","rt":1242.9999999981,"correct":false,"confidence":2},{"trial_n":140,"n_dots":3.15,"target":"left","response":"left","rt":731,"correct":true,"confidence":4},{"trial_n":141,"n_dots":3.15,"target":"right","response":"right","rt":784,"correct":true,"confidence":4},{"trial_n":142,"n_dots":3.05,"target":"left","response":"left","rt":534,"correct":true,"confidence":3},{"trial_n":143,"n_dots":3.05,"target":"right","response":"right","rt":475,"correct":true,"confidence":5},{"trial_n":144,"n_dots":2.95,"target":"right","response":"left","rt":1368.9999999981,"correct":false,"confidence":4},{"trial_n":145,"n_dots":3.05,"target":"right","response":"right","rt":2433.9999999981,"correct":true,"confidence":3},{"trial_n":146,"n_dots":3.05,"target":"left","response":"left","rt":574,"correct":true,"confidence":4},{"trial_n":147,"n_dots":2.95,"target":"right","response":"right","rt":687,"correct":true,"confidence":5},{"trial_n":148,"n_dots":2.95,"target":"right","response":"right","rt":444,"correct":true,"confidence":3},{"trial_n":149,"n_dots":2.85,"target":"right","response":"right","rt":438,"correct":true,"confidence":4},{"trial_n":150,"n_dots":2.85,"target":"right","response":"left","rt":741,"correct":false,"confidence":3},{"trial_n":151,"n_dots":2.95,"target":"left","response":"left","rt":673,"correct":true,"confidence":5},{"trial_n":152,"n_dots":2.95,"target":"right","response":"right","rt":443,"correct":true,"confidence":5},{"trial_n":153,"n_dots":2.85,"target":"left","response":"right","rt":1441,"correct":false,"confidence":4},{"trial_n":154,"n_dots":2.95,"target":"left","response":"left","rt":765,"correct":true,"confidence":3},{"trial_n":155,"n_dots":2.95,"target":"right","response":"right","rt":481.00000000186,"correct":true,"confidence":3},{"trial_n":156,"n_dots":2.85,"target":"right","response":"right","rt":401,"correct":true,"confidence":6},{"trial_n":157,"n_dots":2.85,"target":"right","response":"right","rt":605,"correct":true,"confidence":5},{"trial_n":158,"n_dots":2.75,"target":"right","response":"right","rt":805,"correct":true,"confidence":4},{"trial_n":159,"n_dots":2.75,"target":"right","response":"left","rt":930.00000000186,"correct":false,"confidence":2},{"trial_n":160,"n_dots":2.85,"target":"left","response":"left","rt":690,"correct":true,"confidence":2},{"trial_n":161,"n_dots":2.85,"target":"right","response":"right","rt":637,"correct":true,"confidence":3},{"trial_n":162,"n_dots":2.75,"target":"left","response":"left","rt":527,"correct":true,"confidence":5},{"trial_n":163,"n_dots":2.75,"target":"right","response":"right","rt":601.00000000186,"correct":true,"confidence":4},{"trial_n":164,"n_dots":2.65,"target":"right","response":"right","rt":741,"correct":true,"confidence":4},{"trial_n":165,"n_dots":2.65,"target":"right","response":"left","rt":655,"correct":false,"confidence":4},{"trial_n":166,"n_dots":2.75,"target":"right","response":"right","rt":753,"correct":true,"confidence":3},{"trial_n":167,"n_dots":2.75,"target":"left","response":"left","rt":947.99999999814,"correct":true,"confidence":3},{"trial_n":168,"n_dots":2.65,"target":"left","response":"right","rt":631.00000000186,"correct":false,"confidence":4},{"trial_n":169,"n_dots":2.75,"target":"left","response":"left","rt":636.99999999814,"correct":true,"confidence":4},{"trial_n":170,"n_dots":2.75,"target":"right","response":"left","rt":743,"correct":false,"confidence":3},{"trial_n":171,"n_dots":2.85,"target":"left","response":"left","rt":458.99999999814,"correct":true,"confidence":3},{"trial_n":172,"n_dots":2.85,"target":"left","response":"left","rt":376,"correct":true,"confidence":5},{"trial_n":173,"n_dots":2.75,"target":"left","response":"left","rt":1035,"correct":true,"confidence":4},{"trial_n":174,"n_dots":2.75,"target":"right","response":"right","rt":431.99999999814,"correct":true,"confidence":4},{"trial_n":175,"n_dots":2.65,"target":"left","response":"left","rt":604,"correct":true,"confidence":5},{"trial_n":176,"n_dots":2.65,"target":"left","response":"left","rt":374,"correct":true,"confidence":4},{"trial_n":177,"n_dots":2.55,"target":"right","response":"right","rt":447,"correct":true,"confidence":4},{"trial_n":178,"n_dots":2.55,"target":"left","response":"left","rt":367,"correct":true,"confidence":5},{"trial_n":179,"n_dots":2.45,"target":"right","response":"right","rt":865,"correct":true,"confidence":4},{"trial_n":180,"n_dots":2.45,"target":"right","response":"left","rt":759,"correct":false,"confidence":3},{"trial_n":181,"n_dots":2.55,"target":"right","response":"right","rt":420,"correct":true,"confidence":3},{"trial_n":182,"n_dots":2.55,"target":"left","response":"left","rt":631,"correct":true,"confidence":5},{"trial_n":183,"n_dots":2.45,"target":"left","response":"left","rt":263,"correct":true,"confidence":5},{"trial_n":184,"n_dots":2.45,"target":"left","response":"left","rt":347.00000000186,"correct":true,"confidence":5},{"trial_n":185,"n_dots":2.35,"target":"left","response":"left","rt":381,"correct":true,"confidence":4},{"trial_n":186,"n_dots":2.35,"target":"left","response":"left","rt":421,"correct":true,"confidence":3},{"trial_n":187,"n_dots":2.25,"target":"right","response":"left","rt":496,"correct":false,"confidence":3},{"trial_n":188,"n_dots":2.35,"target":"left","response":"right","rt":1275,"correct":false,"confidence":3},{"trial_n":189,"n_dots":2.45,"target":"left","response":"left","rt":443,"correct":true,"confidence":3},{"trial_n":190,"n_dots":2.45,"target":"left","response":"right","rt":656.99999999814,"correct":false,"confidence":3},{"trial_n":191,"n_dots":2.55,"target":"right","response":"left","rt":308,"correct":false,"confidence":4},{"trial_n":192,"n_dots":2.65,"target":"left","response":"left","rt":652.99999999814,"correct":true,"confidence":3},{"trial_n":193,"n_dots":2.65,"target":"right","response":"left","rt":1000,"correct":false,"confidence":3},{"trial_n":194,"n_dots":2.75,"target":"right","response":"right","rt":1109,"correct":true,"confidence":3}]