[{"trial_n":1,"n_dots":4.25,"target":"left","response":"left","rt":1882.3999999762,"correct":true,"confidence":-1},{"trial_n":2,"n_dots":4.25,"target":"left","response":"left","rt":552.59999996424,"correct":true,"confidence":-1},{"trial_n":3,"n_dots":3.85,"target":"right","response":"right","rt":245.80000001192,"correct":true,"confidence":-1},{"trial_n":4,"n_dots":3.85,"target":"right","response":"right","rt":209.70000004768,"correct":true,"confidence":-1},{"trial_n":5,"n_dots":3.45,"target":"left","response":"left","rt":182.90000003576,"correct":true,"confidence":-1},{"trial_n":6,"n_dots":3.45,"target":"left","response":"right","rt":307.19999998808,"correct":false,"confidence":-1},{"trial_n":7,"n_dots":3.85,"target":"left","response":"left","rt":820.60000002384,"correct":true,"confidence":-1},{"trial_n":8,"n_dots":3.85,"target":"right","response":"right","rt":354.60000002384,"correct":true,"confidence":-1},{"trial_n":9,"n_dots":3.65,"target":"left","response":"left","rt":670,"correct":true,"confidence":-1},{"trial_n":10,"n_dots":3.65,"target":"left","response":"right","rt":372.39999997616,"correct":false,"confidence":-1},{"trial_n":11,"n_dots":3.85,"target":"left","response":"right","rt":623.10000002384,"correct":false,"confidence":-1},{"trial_n":12,"n_dots":4.05,"target":"left","response":"left","rt":227.40000003576,"correct":true,"confidence":-1},{"trial_n":13,"n_dots":4.05,"target":"right","response":"right","rt":768.39999997616,"correct":true,"confidence":-1},{"trial_n":14,"n_dots":3.95,"target":"left","response":"left","rt":481.19999998808,"correct":true,"confidence":-1},{"trial_n":15,"n_dots":3.95,"target":"left","response":"left","rt":275.40000003576,"correct":true,"confidence":-1},{"trial_n":16,"n_dots":3.85,"target":"left","response":"left","rt":812.80000001192,"correct":true,"confidence":-1},{"trial_n":17,"n_dots":3.85,"target":"right","response":"right","rt":229.60000002384,"correct":true,"confidence":-1},{"trial_n":18,"n_dots":3.75,"target":"right","response":"right","rt":6,"correct":true,"confidence":-1},{"trial_n":19,"n_dots":3.75,"target":"left","response":"left","rt":166.19999998808,"correct":true,"confidence":-1},{"trial_n":20,"n_dots":3.65,"target":"right","response":"right","rt":265.59999996424,"correct":true,"confidence":-1},{"trial_n":21,"n_dots":3.65,"target":"right","response":"left","rt":606.5,"correct":false,"confidence":-1},{"trial_n":22,"n_dots":3.75,"target":"left","response":"left","rt":390.79999995232,"correct":true,"confidence":-1},{"trial_n":23,"n_dots":3.75,"target":"left","response":"right","rt":176.29999995232,"correct":false,"confidence":-1},{"trial_n":24,"n_dots":3.85,"target":"right","response":"right","rt":307.19999998808,"correct":true,"confidence":-1},{"trial_n":25,"n_dots":3.85,"target":"left","response":"left","rt":754.40000003576,"correct":true,"confidence":-1},{"trial_n":26,"n_dots":3.75,"target":"left","response":"left","rt":360.80000001192,"correct":true,"confidence":-1},{"trial_n":27,"n_dots":3.75,"target":"left","response":"left","rt":459.30000001192,"correct":true,"confidence":3},{"trial_n":28,"n_dots":3.65,"target":"left","response":"left","rt":571.80000001192,"correct":true,"confidence":5},{"trial_n":29,"n_dots":3.65,"target":"left","response":"left","rt":682.90000003576,"correct":true,"confidence":6},{"trial_n":30,"n_dots":3.55,"target":"right","response":"right","rt":253.80000001192,"correct":true,"confidence":5},{"trial_n":31,"n_dots":3.55,"target":"left","response":"left","rt":373.5,"correct":true,"confidence":6},{"trial_n":32,"n_dots":3.45,"target":"left","response":"left","rt":864.30000001192,"correct":true,"confidence":6},{"trial_n":33,"n_dots":3.45,"target":"right","response":"right","rt":584.80000001192,"correct":true,"confidence":6},{"trial_n":34,"n_dots":3.35,"target":"left","response":"right","rt":895.29999995232,"correct":false,"confidence":3},{"trial_n":35,"n_dots":3.45,"target":"left","response":"left","rt":353.39999997616,"correct":true,"confidence":3},{"trial_n":36,"n_dots":3.45,"target":"left","response":"left","rt":437.60000002384,"correct":true,"confidence":6},{"trial_n":37,"n_dots":3.35,"target":"right","response":"right","rt":277.09999996424,"correct":true,"confidence":6},{"trial_n":38,"n_dots":3.35,"target":"right","response":"right","rt":224.89999997616,"correct":true,"confidence":6},{"trial_n":39,"n_dots":3.25,"target":"left","response":"left","rt":379.79999995232,"correct":true,"confidence":4},{"trial_n":40,"n_dots":3.25,"target":"left","response":"left","rt":442.39999997616,"correct":true,"confidence":4},{"trial_n":41,"n_dots":3.15,"target":"left","response":"left","rt":386.60000002384,"correct":true,"confidence":3},{"trial_n":42,"n_dots":3.15,"target":"right","response":"right","rt":223.90000003576,"correct":true,"confidence":6},{"trial_n":43,"n_dots":3.05,"target":"right","response":"left","rt":907.89999997616,"correct":false,"confidence":4},{"trial_n":44,"n_dots":3.15,"target":"left","response":"right","rt":585.30000001192,"correct":false,"confidence":4},{"trial_n":45,"n_dots":3.25,"target":"right","response":"right","rt":114.39999997616,"correct":true,"confidence":5},{"trial_n":46,"n_dots":3.25,"target":"left","response":"left","rt":507.29999995232,"correct":true,"confidence":6},{"trial_n":47,"n_dots":3.15,"target":"right","response":"right","rt":243,"correct":true,"confidence":4},{"trial_n":48,"n_dots":3.15,"target":"left","response":"left","rt":52.699999988079,"correct":true,"confidence":5},{"trial_n":49,"n_dots":3.05,"target":"left","response":"left","rt":480.09999996424,"correct":true,"confidence":4},{"trial_n":50,"n_dots":3.05,"target":"left","response":"left","rt":294.60000002384,"correct":true,"confidence":6},{"trial_n":51,"n_dots":2.95,"target":"right","response":"left","rt":354.30000001192,"correct":false,"confidence":3},{"trial_n":52,"n_dots":3.05,"target":"left","response":"right","rt":439.89999997616,"correct":false,"confidence":4},{"trial_n":53,"n_dots":3.15,"target":"right","response":"left","rt":417.30000001192,"correct":false,"confidence":3},{"trial_n":54,"n_dots":3.25,"target":"left","response":"left","rt":209.69999998808,"correct":true,"confidence":4},{"trial_n":55,"n_dots":3.25,"target":"right","response":"right","rt":613,"correct":true,"confidence":5},{"trial_n":56,"n_dots":3.15,"target":"right","response":"left","rt":221.5,"correct":false,"confidence":6},{"trial_n":57,"n_dots":3.25,"target":"left","response":"left","rt":324.80000001192,"correct":true,"confidence":5},{"trial_n":58,"n_dots":3.25,"target":"left","response":"left","rt":553.5,"correct":true,"confidence":4},{"trial_n":59,"n_dots":3.15,"target":"left","response":"left","rt":269.10000002384,"correct":true,"confidence":4},{"trial_n":60,"n_dots":3.15,"target":"left","response":"left","rt":464.40000003576,"correct":true,"confidence":4},{"trial_n":61,"n_dots":3.05,"target":"left","response":"left","rt":328.80000001192,"correct":true,"confidence":4},{"trial_n":62,"n_dots":3.05,"target":"right","response":"right","rt":401,"correct":true,"confidence":3},{"trial_n":63,"n_dots":2.95,"target":"left","response":"left","rt":152,"correct":true,"confidence":4},{"trial_n":64,"n_dots":2.95,"target":"left","response":"left","rt":361.89999997616,"correct":true,"confidence":5},{"trial_n":65,"n_dots":2.85,"target":"right","response":"right","rt":344.10000002384,"correct":true,"confidence":6},{"trial_n":66,"n_dots":2.85,"target":"right","response":"left","rt":685.90000003576,"correct":false,"confidence":4},{"trial_n":67,"n_dots":2.95,"target":"right","response":"right","rt":94.5,"correct":true,"confidence":5},{"trial_n":68,"n_dots":2.95,"target":"right","response":"right","rt":56.899999976158,"correct":true,"confidence":5},{"trial_n":69,"n_dots":2.85,"target":"right","response":"right","rt":376.5,"correct":true,"confidence":4},{"trial_n":70,"n_dots":2.85,"target":"left","response":"left","rt":1396.3999999762,"correct":true,"confidence":4},{"trial_n":71,"n_dots":2.75,"target":"right","response":"right","rt":376.69999998808,"correct":true,"confidence":5},{"trial_n":72,"n_dots":2.75,"target":"right","response":"right","rt":363.39999997616,"correct":true,"confidence":4},{"trial_n":73,"n_dots":2.65,"target":"right","response":"right","rt":357.10000002384,"correct":true,"confidence":3},{"trial_n":74,"n_dots":2.65,"target":"left","response":"left","rt":438.5,"correct":true,"confidence":4},{"trial_n":75,"n_dots":2.55,"target":"right","response":"left","rt":236.5,"correct":false,"confidence":4},{"trial_n":76,"n_dots":2.65,"target":"right","response":"right","rt":204.30000001192,"correct":true,"confidence":4},{"trial_n":77,"n_dots":2.65,"target":"right","response":"left","rt":1513.6000000238,"correct":false,"confidence":2},{"trial_n":78,"n_dots":2.75,"target":"right","response":"left","rt":262.10000002384,"correct":false,"confidence":3},{"trial_n":79,"n_dots":2.85,"target":"right","response":"left","rt":532.5,"correct":false,"confidence":5},{"trial_n":80,"n_dots":2.95,"target":"left","response":"right","rt":244.30000001192,"correct":false,"confidence":3},{"trial_n":81,"n_dots":3.05,"target":"right","response":"right","rt":152.40000003576,"correct":true,"confidence":3},{"trial_n":82,"n_dots":3.05,"target":"right","response":"right","rt":822.89999997616,"correct":true,"confidence":4},{"trial_n":83,"n_dots":2.95,"target":"left","response":"left","rt":58.800000011921,"correct":true,"confidence":5},{"trial_n":84,"n_dots":2.95,"target":"left","response":"left","rt":519.19999998808,"correct":true,"confidence":4},{"trial_n":85,"n_dots":2.85,"target":"right","response":"left","rt":350.19999998808,"correct":false,"confidence":5},{"trial_n":86,"n_dots":2.95,"target":"left","response":"left","rt":489.69999998808,"correct":true,"confidence":4},{"trial_n":87,"n_dots":2.95,"target":"right","response":"right","rt":590.79999995232,"correct":true,"confidence":4},{"trial_n":88,"n_dots":2.85,"target":"right","response":"right","rt":496.30000001192,"correct":true,"confidence":4},{"trial_n":89,"n_dots":2.85,"target":"right","response":"left","rt":448.89999997616,"correct":false,"confidence":3},{"trial_n":90,"n_dots":2.95,"target":"left","response":"right","rt":516.30000001192,"correct":false,"confidence":4},{"trial_n":91,"n_dots":3.05,"target":"right","response":"right","rt":182.19999998808,"correct":true,"confidence":5},{"trial_n":92,"n_dots":3.05,"target":"right","response":"right","rt":92.599999964237,"correct":true,"confidence":1},{"trial_n":93,"n_dots":2.95,"target":"left","response":"left","rt":242.19999998808,"correct":true,"confidence":4},{"trial_n":94,"n_dots":2.95,"target":"left","response":"right","rt":570.30000001192,"correct":false,"confidence":5},{"trial_n":95,"n_dots":3.05,"target":"left","response":"left","rt":265.89999997616,"correct":true,"confidence":5},{"trial_n":96,"n_dots":3.05,"target":"right","response":"right","rt":358.80000001192,"correct":true,"confidence":5},{"trial_n":97,"n_dots":2.95,"target":"right","response":"left","rt":746.20000004768,"correct":false,"confidence":3},{"trial_n":98,"n_dots":3.05,"target":"right","response":"left","rt":613,"correct":false,"confidence":4},{"trial_n":99,"n_dots":3.15,"target":"right","response":"left","rt":246.59999996424,"correct":false,"confidence":3},{"trial_n":100,"n_dots":3.25,"target":"right","response":"left","rt":360.89999997616,"correct":false,"confidence":5},{"trial_n":101,"n_dots":3.35,"target":"left","response":"left","rt":283.10000002384,"correct":true,"confidence":5},{"trial_n":102,"n_dots":3.35,"target":"left","response":"left","rt":193.5,"correct":true,"confidence":1},{"trial_n":103,"n_dots":3.25,"target":"left","response":"left","rt":483.20000004768,"correct":true,"confidence":5},{"trial_n":104,"n_dots":3.25,"target":"right","response":"right","rt":139,"correct":true,"confidence":6},{"trial_n":105,"n_dots":3.15,"target":"left","response":"left","rt":240.5,"correct":true,"confidence":6},{"trial_n":106,"n_dots":3.15,"target":"left","response":"left","rt":245.19999998808,"correct":true,"confidence":4},{"trial_n":107,"n_dots":3.05,"target":"right","response":"right","rt":230.30000001192,"correct":true,"confidence":5},{"trial_n":108,"n_dots":3.05,"target":"right","response":"right","rt":371.69999998808,"correct":true,"confidence":5},{"trial_n":109,"n_dots":2.95,"target":"left","response":"left","rt":204.30000001192,"correct":true,"confidence":5},{"trial_n":110,"n_dots":2.95,"target":"right","response":"right","rt":49.5,"correct":true,"confidence":4},{"trial_n":111,"n_dots":2.85,"target":"left","response":"left","rt":70.800000011921,"correct":true,"confidence":5},{"trial_n":112,"n_dots":2.85,"target":"left","response":"left","rt":279.80000001192,"correct":true,"confidence":5},{"trial_n":113,"n_dots":2.75,"target":"right","response":"left","rt":100,"correct":false,"confidence":3},{"trial_n":114,"n_dots":2.85,"target":"right","response":"right","rt":356.39999997616,"correct":true,"confidence":5},{"trial_n":115,"n_dots":2.85,"target":"right","response":"right","rt":239.69999998808,"correct":true,"confidence":5},{"trial_n":116,"n_dots":2.75,"target":"right","response":"left","rt":218.89999997616,"correct":false,"confidence":3},{"trial_n":117,"n_dots":2.85,"target":"left","response":"left","rt":293.40000003576,"correct":true,"confidence":3},{"trial_n":118,"n_dots":2.85,"target":"left","response":"left","rt":263.40000003576,"correct":true,"confidence":4},{"trial_n":119,"n_dots":2.75,"target":"left","response":"left","rt":233.5,"correct":true,"confidence":4},{"trial_n":120,"n_dots":2.75,"target":"right","response":"right","rt":1469.1000000238,"correct":true,"confidence":2},{"trial_n":121,"n_dots":2.65,"target":"left","response":"left","rt":266.19999998808,"correct":true,"confidence":4},{"trial_n":122,"n_dots":2.65,"target":"right","response":"right","rt":397.10000002384,"correct":true,"confidence":4},{"trial_n":123,"n_dots":2.55,"target":"left","response":"right","rt":588.5,"correct":false,"confidence":4},{"trial_n":124,"n_dots":2.65,"target":"right","response":"right","rt":276.39999997616,"correct":true,"confidence":5},{"trial_n":125,"n_dots":2.65,"target":"right","response":"right","rt":132.5,"correct":true,"confidence":5},{"trial_n":126,"n_dots":2.55,"target":"right","response":"left","rt":471.19999998808,"correct":false,"confidence":4},{"trial_n":127,"n_dots":2.65,"target":"right","response":"right","rt":330.5,"correct":true,"confidence":5},{"trial_n":128,"n_dots":2.65,"target":"right","response":"left","rt":56.900000035763,"correct":false,"confidence":5},{"trial_n":129,"n_dots":2.75,"target":"left","response":"left","rt":268.09999996424,"correct":true,"confidence":4},{"trial_n":130,"n_dots":2.75,"target":"right","response":"right","rt":7.6000000238419,"correct":true,"confidence":4},{"trial_n":131,"n_dots":2.65,"target":"right","response":"left","rt":93.400000035763,"correct":false,"confidence":4},{"trial_n":132,"n_dots":2.75,"target":"right","response":"right","rt":801.80000001192,"correct":true,"confidence":4},{"trial_n":133,"n_dots":2.75,"target":"left","response":"left","rt":269.80000001192,"correct":true,"confidence":3},{"trial_n":134,"n_dots":2.65,"target":"right","response":"right","rt":395.5,"correct":true,"confidence":4},{"trial_n":135,"n_dots":2.65,"target":"right","response":"right","rt":154.10000002384,"correct":true,"confidence":3},{"trial_n":136,"n_dots":2.55,"target":"left","response":"right","rt":203.19999998808,"correct":false,"confidence":4},{"trial_n":137,"n_dots":2.65,"target":"left","response":"left","rt":64.300000011921,"correct":true,"confidence":3},{"trial_n":138,"n_dots":2.65,"target":"left","response":"right","rt":49.900000035763,"correct":false,"confidence":3},{"trial_n":139,"n_dots":2.75,"target":"right","response":"right","rt":67.899999976158,"correct":true,"confidence":4},{"trial_n":140,"n_dots":2.75,"target":"left","response":"right","rt":321.39999997616,"correct":false,"confidence":1},{"trial_n":141,"n_dots":2.85,"target":"left","response":"left","rt":1233.6000000238,"correct":true,"confidence":4},{"trial_n":142,"n_dots":2.85,"target":"left","response":"right","rt":181.19999998808,"correct":false,"confidence":4},{"trial_n":143,"n_dots":2.95,"target":"right","response":"right","rt":369.69999998808,"correct":true,"confidence":3},{"trial_n":144,"n_dots":2.95,"target":"right","response":"left","rt":257.5,"correct":false,"confidence":5},{"trial_n":145,"n_dots":3.05,"target":"left","response":"right","rt":646.5,"correct":false,"confidence":2},{"trial_n":146,"n_dots":3.15,"target":"right","response":"right","rt":314.30000001192,"correct":true,"confidence":4},{"trial_n":147,"n_dots":3.15,"target":"right","response":"left","rt":303.5,"correct":false,"confidence":2},{"trial_n":148,"n_dots":3.25,"target":"right","response":"right","rt":194.40000003576,"correct":true,"confidence":5},{"trial_n":149,"n_dots":3.25,"target":"right","response":"left","rt":774,"correct":false,"confidence":3},{"trial_n":150,"n_dots":3.35,"target":"right","response":"left","rt":501,"correct":false,"confidence":3},{"trial_n":151,"n_dots":3.45,"target":"right","response":"right","rt":124.39999997616,"correct":true,"confidence":4},{"trial_n":152,"n_dots":3.45,"target":"left","response":"left","rt":238.19999998808,"correct":true,"confidence":3},{"trial_n":153,"n_dots":3.35,"target":"right","response":"right","rt":164.29999995232,"correct":true,"confidence":4},{"trial_n":154,"n_dots":3.35,"target":"left","response":"left","rt":243.19999998808,"correct":true,"confidence":3},{"trial_n":155,"n_dots":3.25,"target":"right","response":"right","rt":150.80000001192,"correct":true,"confidence":3},{"trial_n":156,"n_dots":3.25,"target":"left","response":"right","rt":281.5,"correct":false,"confidence":2},{"trial_n":157,"n_dots":3.35,"target":"left","response":"left","rt":267.19999998808,"correct":true,"confidence":5},{"trial_n":158,"n_dots":3.35,"target":"left","response":"left","rt":377,"correct":true,"confidence":3},{"trial_n":159,"n_dots":3.25,"target":"right","response":"right","rt":306.29999995232,"correct":true,"confidence":3},{"trial_n":160,"n_dots":3.25,"target":"right","response":"right","rt":839.19999998808,"correct":true,"confidence":4},{"trial_n":161,"n_dots":3.15,"target":"right","response":"right","rt":274.69999998808,"correct":true,"confidence":3},{"trial_n":162,"n_dots":3.15,"target":"right","response":"right","rt":255.5,"correct":true,"confidence":5},{"trial_n":163,"n_dots":3.05,"target":"left","response":"left","rt":296.80000001192,"correct":true,"confidence":4},{"trial_n":164,"n_dots":3.05,"target":"left","response":"left","rt":686.39999997616,"correct":true,"confidence":5},{"trial_n":165,"n_dots":2.95,"target":"left","response":"left","rt":250.89999997616,"correct":true,"confidence":5},{"trial_n":166,"n_dots":2.95,"target":"left","response":"left","rt":65.799999952316,"correct":true,"confidence":4},{"trial_n":167,"n_dots":2.85,"target":"left","response":"left","rt":268.5,"correct":true,"confidence":3},{"trial_n":168,"n_dots":2.85,"target":"right","response":"right","rt":221.59999996424,"correct":true,"confidence":6},{"trial_n":169,"n_dots":2.75,"target":"left","response":"left","rt":551.19999998808,"correct":true,"confidence":4},{"trial_n":170,"n_dots":2.75,"target":"right","response":"left","rt":303.29999995232,"correct":false,"confidence":4},{"trial_n":171,"n_dots":2.85,"target":"left","response":"left","rt":257.80000001192,"correct":true,"confidence":4},{"trial_n":172,"n_dots":2.85,"target":"right","response":"left","rt":308.60000002384,"correct":false,"confidence":2},{"trial_n":173,"n_dots":2.95,"target":"right","response":"left","rt":479.80000001192,"correct":false,"confidence":5},{"trial_n":174,"n_dots":3.05,"target":"left","response":"left","rt":236.40000003576,"correct":true,"confidence":4},{"trial_n":175,"n_dots":3.05,"target":"left","response":"right","rt":529.69999998808,"correct":false,"confidence":3},{"trial_n":176,"n_dots":3.15,"target":"right","response":"right","rt":378,"correct":true,"confidence":4},{"trial_n":177,"n_dots":3.15,"target":"left","response":"left","rt":222.30000001192,"correct":true,"confidence":5},{"trial_n":178,"n_dots":3.05,"target":"right","response":"left","rt":50.199999988079,"correct":false,"confidence":2},{"trial_n":179,"n_dots":3.15,"target":"left","response":"left","rt":907.19999998808,"correct":true,"confidence":2},{"trial_n":180,"n_dots":3.15,"target":"right","response":"right","rt":314,"correct":true,"confidence":4},{"trial_n":181,"n_dots":3.05,"target":"left","response":"left","rt":115,"correct":true,"confidence":5},{"trial_n":182,"n_dots":3.05,"target":"left","response":"left","rt":526.60000002384,"correct":true,"confidence":4},{"trial_n":183,"n_dots":2.95,"target":"left","response":"left","rt":91.900000035763,"correct":true,"confidence":6},{"trial_n":184,"n_dots":2.95,"target":"left","response":"left","rt":287.69999998808,"correct":true,"confidence":6},{"trial_n":185,"n_dots":2.85,"target":"right","response":"right","rt":421.90000003576,"correct":true,"confidence":3},{"trial_n":186,"n_dots":2.85,"target":"right","response":"left","rt":71.300000011921,"correct":false,"confidence":4},{"trial_n":187,"n_dots":2.95,"target":"right","response":"right","rt":297.59999996424,"correct":true,"confidence":3},{"trial_n":188,"n_dots":2.95,"target":"right","response":"right","rt":266.09999996424,"correct":true,"confidence":4},{"trial_n":189,"n_dots":2.85,"target":"left","response":"left","rt":333.5,"correct":true,"confidence":4},{"trial_n":190,"n_dots":2.85,"target":"left","response":"left","rt":60.399999976158,"correct":true,"confidence":5},{"trial_n":191,"n_dots":2.75,"target":"right","response":"right","rt":275.80000001192,"correct":true,"confidence":2},{"trial_n":192,"n_dots":2.75,"target":"right","response":"right","rt":265.30000001192,"correct":true,"confidence":5},{"trial_n":193,"n_dots":2.65,"target":"right","response":"right","rt":55.5,"correct":true,"confidence":5},{"trial_n":194,"n_dots":2.65,"target":"left","response":"left","rt":243.80000001192,"correct":true,"confidence":5}]