[{"trial_n":1,"n_dots":4.25,"target":"left","response":"left","rt":2399.6999999285,"correct":true,"confidence":-1},{"trial_n":2,"n_dots":4.25,"target":"left","response":"left","rt":553.89999997616,"correct":true,"confidence":-1},{"trial_n":3,"n_dots":3.85,"target":"left","response":"right","rt":858.70000004768,"correct":false,"confidence":-1},{"trial_n":4,"n_dots":4.25,"target":"left","response":"left","rt":394.39999997616,"correct":true,"confidence":-1},{"trial_n":5,"n_dots":4.25,"target":"right","response":"right","rt":84.899999976158,"correct":true,"confidence":-1},{"trial_n":6,"n_dots":3.85,"target":"left","response":"left","rt":598.29999995232,"correct":true,"confidence":-1},{"trial_n":7,"n_dots":3.85,"target":"left","response":"left","rt":308.69999992847,"correct":true,"confidence":-1},{"trial_n":8,"n_dots":3.65,"target":"left","response":"left","rt":269.70000004768,"correct":true,"confidence":-1},{"trial_n":9,"n_dots":3.65,"target":"right","response":"right","rt":634.70000004768,"correct":true,"confidence":-1},{"trial_n":10,"n_dots":3.45,"target":"right","response":"right","rt":183.90000009537,"correct":true,"confidence":-1},{"trial_n":11,"n_dots":3.45,"target":"right","response":"right","rt":48.5,"correct":true,"confidence":-1},{"trial_n":12,"n_dots":3.25,"target":"left","response":"right","rt":176.90000009537,"correct":false,"confidence":-1},{"trial_n":13,"n_dots":3.35,"target":"right","response":"right","rt":681.19999992847,"correct":true,"confidence":-1},{"trial_n":14,"n_dots":3.35,"target":"right","response":"right","rt":245.59999990463,"correct":true,"confidence":-1},{"trial_n":15,"n_dots":3.25,"target":"right","response":"right","rt":1196.6000000238,"correct":true,"confidence":-1},{"trial_n":16,"n_dots":3.25,"target":"right","response":"right","rt":145.5,"correct":true,"confidence":-1},{"trial_n":17,"n_dots":3.15,"target":"right","response":"right","rt":85,"correct":true,"confidence":-1},{"trial_n":18,"n_dots":3.15,"target":"right","response":"left","rt":219.39999997616,"correct":false,"confidence":-1},{"trial_n":19,"n_dots":3.25,"target":"left","response":"right","rt":99.5,"correct":false,"confidence":-1},{"trial_n":20,"n_dots":3.35,"target":"left","response":"left","rt":315.60000002384,"correct":true,"confidence":-1},{"trial_n":21,"n_dots":3.35,"target":"left","response":"left","rt":375.89999997616,"correct":true,"confidence":-1},{"trial_n":22,"n_dots":3.25,"target":"right","response":"right","rt":313,"correct":true,"confidence":-1},{"trial_n":23,"n_dots":3.25,"target":"right","response":"right","rt":289.10000002384,"correct":true,"confidence":-1},{"trial_n":24,"n_dots":3.15,"target":"right","response":"right","rt":561.10000002384,"correct":true,"confidence":-1},{"trial_n":25,"n_dots":3.15,"target":"left","response":"right","rt":259.90000009537,"correct":false,"confidence":-1},{"trial_n":26,"n_dots":3.25,"target":"left","response":"right","rt":200.69999992847,"correct":false,"confidence":-1},{"trial_n":27,"n_dots":3.35,"target":"right","response":"right","rt":192.39999997616,"correct":true,"confidence":3},{"trial_n":28,"n_dots":3.35,"target":"left","response":"left","rt":388.10000002384,"correct":true,"confidence":3},{"trial_n":29,"n_dots":3.25,"target":"right","response":"right","rt":164.90000009537,"correct":true,"confidence":4},{"trial_n":30,"n_dots":3.25,"target":"right","response":"right","rt":121.30000007153,"correct":true,"confidence":4},{"trial_n":31,"n_dots":3.15,"target":"right","response":"right","rt":111.10000002384,"correct":true,"confidence":5},{"trial_n":32,"n_dots":3.15,"target":"left","response":"left","rt":471.90000009537,"correct":true,"confidence":3},{"trial_n":33,"n_dots":3.05,"target":"right","response":"right","rt":79.799999952316,"correct":true,"confidence":6},{"trial_n":34,"n_dots":3.05,"target":"right","response":"right","rt":36.700000047684,"correct":true,"confidence":6},{"trial_n":35,"n_dots":2.95,"target":"right","response":"right","rt":66.600000023842,"correct":true,"confidence":3},{"trial_n":36,"n_dots":2.95,"target":"left","response":"left","rt":318.60000002384,"correct":true,"confidence":2},{"trial_n":37,"n_dots":2.85,"target":"right","response":"right","rt":60.399999976158,"correct":true,"confidence":5},{"trial_n":38,"n_dots":2.85,"target":"left","response":"left","rt":633.39999997616,"correct":true,"confidence":3},{"trial_n":39,"n_dots":2.75,"target":"right","response":"right","rt":211.70000004768,"correct":true,"confidence":5},{"trial_n":40,"n_dots":2.75,"target":"right","response":"right","rt":800.20000004768,"correct":true,"confidence":6},{"trial_n":41,"n_dots":2.65,"target":"right","response":"right","rt":22.899999976158,"correct":true,"confidence":6},{"trial_n":42,"n_dots":2.65,"target":"left","response":"right","rt":801.5,"correct":false,"confidence":3},{"trial_n":43,"n_dots":2.75,"target":"left","response":"right","rt":698.10000002384,"correct":false,"confidence":5},{"trial_n":44,"n_dots":2.85,"target":"left","response":"right","rt":635.29999995232,"correct":false,"confidence":3},{"trial_n":45,"n_dots":2.95,"target":"left","response":"right","rt":941.89999997616,"correct":false,"confidence":4},{"trial_n":46,"n_dots":3.05,"target":"left","response":"right","rt":2046.0999999046,"correct":false,"confidence":3},{"trial_n":47,"n_dots":3.15,"target":"right","response":"right","rt":629.59999990463,"correct":true,"confidence":6},{"trial_n":48,"n_dots":3.15,"target":"left","response":"left","rt":106.70000004768,"correct":true,"confidence":5},{"trial_n":49,"n_dots":3.05,"target":"right","response":"right","rt":238.29999995232,"correct":true,"confidence":4},{"trial_n":50,"n_dots":3.05,"target":"left","response":"right","rt":521.70000004768,"correct":false,"confidence":5},{"trial_n":51,"n_dots":3.15,"target":"left","response":"left","rt":206.20000004768,"correct":true,"confidence":3},{"trial_n":52,"n_dots":3.15,"target":"right","response":"right","rt":279,"correct":true,"confidence":3},{"trial_n":53,"n_dots":3.05,"target":"left","response":"left","rt":1441,"correct":true,"confidence":3},{"trial_n":54,"n_dots":3.05,"target":"right","response":"right","rt":587,"correct":true,"confidence":5},{"trial_n":55,"n_dots":2.95,"target":"left","response":"right","rt":502.89999997616,"correct":false,"confidence":5},{"trial_n":56,"n_dots":3.05,"target":"left","response":"right","rt":22.5,"correct":false,"confidence":5},{"trial_n":57,"n_dots":3.15,"target":"left","response":"left","rt":418,"correct":true,"confidence":4},{"trial_n":58,"n_dots":3.15,"target":"right","response":"right","rt":769.70000004768,"correct":true,"confidence":4},{"trial_n":59,"n_dots":3.05,"target":"left","response":"left","rt":262.5,"correct":true,"confidence":3},{"trial_n":60,"n_dots":3.05,"target":"left","response":"left","rt":86.699999928474,"correct":true,"confidence":5},{"trial_n":61,"n_dots":2.95,"target":"left","response":"left","rt":209.59999990463,"correct":true,"confidence":4},{"trial_n":62,"n_dots":2.95,"target":"right","response":"right","rt":685.90000009537,"correct":true,"confidence":4},{"trial_n":63,"n_dots":2.85,"target":"right","response":"right","rt":440.29999995232,"correct":true,"confidence":4},{"trial_n":64,"n_dots":2.85,"target":"right","response":"right","rt":32.100000023842,"correct":true,"confidence":6},{"trial_n":65,"n_dots":2.75,"target":"right","response":"right","rt":369.30000007153,"correct":true,"confidence":5},{"trial_n":66,"n_dots":2.75,"target":"left","response":"right","rt":803.29999995232,"correct":false,"confidence":5},{"trial_n":67,"n_dots":2.85,"target":"left","response":"left","rt":1181.6000000238,"correct":true,"confidence":3},{"trial_n":68,"n_dots":2.85,"target":"right","response":"right","rt":588.5,"correct":true,"confidence":1},{"trial_n":69,"n_dots":2.75,"target":"right","response":"right","rt":314.90000009537,"correct":true,"confidence":4},{"trial_n":70,"n_dots":2.75,"target":"right","response":"right","rt":1627.7999999523,"correct":true,"confidence":2},{"trial_n":71,"n_dots":2.65,"target":"right","response":"right","rt":442.90000009537,"correct":true,"confidence":3},{"trial_n":72,"n_dots":2.65,"target":"left","response":"left","rt":996.60000002384,"correct":true,"confidence":2},{"trial_n":73,"n_dots":2.55,"target":"right","response":"right","rt":342.89999997616,"correct":true,"confidence":5},{"trial_n":74,"n_dots":2.55,"target":"left","response":"right","rt":109.69999992847,"correct":false,"confidence":4},{"trial_n":75,"n_dots":2.65,"target":"right","response":"left","rt":600.60000002384,"correct":false,"confidence":2},{"trial_n":76,"n_dots":2.75,"target":"right","response":"right","rt":167.5,"correct":true,"confidence":3},{"trial_n":77,"n_dots":2.75,"target":"right","response":"left","rt":373.70000004768,"correct":false,"confidence":1},{"trial_n":78,"n_dots":2.85,"target":"left","response":"left","rt":284.29999995232,"correct":true,"confidence":1},{"trial_n":79,"n_dots":2.85,"target":"right","response":"right","rt":125.40000009537,"correct":true,"confidence":3},{"trial_n":80,"n_dots":2.75,"target":"left","response":"left","rt":115.79999995232,"correct":true,"confidence":3},{"trial_n":81,"n_dots":2.75,"target":"right","response":"right","rt":65.899999976158,"correct":true,"confidence":1},{"trial_n":82,"n_dots":2.65,"target":"right","response":"right","rt":409.29999995232,"correct":true,"confidence":4},{"trial_n":83,"n_dots":2.65,"target":"right","response":"left","rt":286.20000004768,"correct":false,"confidence":2},{"trial_n":84,"n_dots":2.75,"target":"left","response":"right","rt":712.10000002384,"correct":false,"confidence":4},{"trial_n":85,"n_dots":2.85,"target":"right","response":"right","rt":55.899999976158,"correct":true,"confidence":5},{"trial_n":86,"n_dots":2.85,"target":"right","response":"left","rt":695.20000004768,"correct":false,"confidence":3},{"trial_n":87,"n_dots":2.95,"target":"right","response":"right","rt":96.5,"correct":true,"confidence":1},{"trial_n":88,"n_dots":2.95,"target":"right","response":"right","rt":1125.2000000477,"correct":true,"confidence":3},{"trial_n":89,"n_dots":2.85,"target":"right","response":"left","rt":704.40000009537,"correct":false,"confidence":3},{"trial_n":90,"n_dots":2.95,"target":"left","response":"left","rt":1129.6999999285,"correct":true,"confidence":2},{"trial_n":91,"n_dots":2.95,"target":"left","response":"right","rt":655.60000002384,"correct":false,"confidence":1},{"trial_n":92,"n_dots":3.05,"target":"right","response":"right","rt":514,"correct":true,"confidence":4},{"trial_n":93,"n_dots":3.05,"target":"right","response":"right","rt":504.10000002384,"correct":true,"confidence":4},{"trial_n":94,"n_dots":2.95,"target":"right","response":"right","rt":52.300000071526,"correct":true,"confidence":3},{"trial_n":95,"n_dots":2.95,"target":"left","response":"left","rt":407.5,"correct":true,"confidence":3},{"trial_n":96,"n_dots":2.85,"target":"right","response":"right","rt":54,"correct":true,"confidence":5},{"trial_n":97,"n_dots":2.85,"target":"left","response":"left","rt":293.89999997616,"correct":true,"confidence":2},{"trial_n":98,"n_dots":2.75,"target":"right","response":"right","rt":558.70000004768,"correct":true,"confidence":4},{"trial_n":99,"n_dots":2.75,"target":"right","response":"right","rt":44.899999976158,"correct":true,"confidence":6},{"trial_n":100,"n_dots":2.65,"target":"left","response":"left","rt":203.59999990463,"correct":true,"confidence":4},{"trial_n":101,"n_dots":2.65,"target":"right","response":"right","rt":1081.6999999285,"correct":true,"confidence":3},{"trial_n":102,"n_dots":2.55,"target":"left","response":"left","rt":425.60000002384,"correct":true,"confidence":3},{"trial_n":103,"n_dots":2.55,"target":"left","response":"right","rt":585.19999992847,"correct":false,"confidence":2},{"trial_n":104,"n_dots":2.65,"target":"right","response":"left","rt":508.69999992847,"correct":false,"confidence":2},{"trial_n":105,"n_dots":2.75,"target":"right","response":"left","rt":172.19999992847,"correct":false,"confidence":3},{"trial_n":106,"n_dots":2.85,"target":"left","response":"left","rt":165,"correct":true,"confidence":5},{"trial_n":107,"n_dots":2.85,"target":"left","response":"left","rt":358.59999990463,"correct":true,"confidence":2},{"trial_n":108,"n_dots":2.75,"target":"right","response":"right","rt":848.5,"correct":true,"confidence":5},{"trial_n":109,"n_dots":2.75,"target":"right","response":"right","rt":122.5,"correct":true,"confidence":5},{"trial_n":110,"n_dots":2.65,"target":"left","response":"right","rt":117.80000007153,"correct":false,"confidence":4},{"trial_n":111,"n_dots":2.75,"target":"left","response":"right","rt":457,"correct":false,"confidence":4},{"trial_n":112,"n_dots":2.85,"target":"left","response":"right","rt":8.6999999284744,"correct":false,"confidence":3},{"trial_n":113,"n_dots":2.95,"target":"left","response":"left","rt":68.200000047684,"correct":true,"confidence":2},{"trial_n":114,"n_dots":2.95,"target":"left","response":"right","rt":552,"correct":false,"confidence":3},{"trial_n":115,"n_dots":3.05,"target":"right","response":"right","rt":411.10000002384,"correct":true,"confidence":2},{"trial_n":116,"n_dots":3.05,"target":"right","response":"right","rt":467.30000007153,"correct":true,"confidence":2},{"trial_n":117,"n_dots":2.95,"target":"right","response":"right","rt":339,"correct":true,"confidence":2},{"trial_n":118,"n_dots":2.95,"target":"left","response":"right","rt":412.09999990463,"correct":false,"confidence":2},{"trial_n":119,"n_dots":3.05,"target":"right","response":"right","rt":52.600000023842,"correct":true,"confidence":2},{"trial_n":120,"n_dots":3.05,"target":"left","response":"left","rt":278.89999997616,"correct":true,"confidence":1},{"trial_n":121,"n_dots":2.95,"target":"left","response":"left","rt":493.89999997616,"correct":true,"confidence":2},{"trial_n":122,"n_dots":2.95,"target":"right","response":"right","rt":203.70000004768,"correct":true,"confidence":2},{"trial_n":123,"n_dots":2.85,"target":"left","response":"left","rt":292.5,"correct":true,"confidence":2},{"trial_n":124,"n_dots":2.85,"target":"left","response":"left","rt":343,"correct":true,"confidence":2},{"trial_n":125,"n_dots":2.75,"target":"left","response":"left","rt":194.89999997616,"correct":true,"confidence":2},{"trial_n":126,"n_dots":2.75,"target":"left","response":"left","rt":13.299999952316,"correct":true,"confidence":3},{"trial_n":127,"n_dots":2.65,"target":"left","response":"right","rt":51.200000047684,"correct":false,"confidence":3},{"trial_n":128,"n_dots":2.75,"target":"right","response":"left","rt":2.5999999046326,"correct":false,"confidence":3},{"trial_n":129,"n_dots":2.85,"target":"left","response":"left","rt":305.70000004768,"correct":true,"confidence":1},{"trial_n":130,"n_dots":2.85,"target":"left","response":"left","rt":212.70000004768,"correct":true,"confidence":5},{"trial_n":131,"n_dots":2.75,"target":"right","response":"left","rt":827.70000004768,"correct":false,"confidence":3},{"trial_n":132,"n_dots":2.85,"target":"left","response":"left","rt":187,"correct":true,"confidence":3},{"trial_n":133,"n_dots":2.85,"target":"left","response":"left","rt":149.39999997616,"correct":true,"confidence":5},{"trial_n":134,"n_dots":2.75,"target":"left","response":"left","rt":117.60000002384,"correct":true,"confidence":3},{"trial_n":135,"n_dots":2.75,"target":"right","response":"right","rt":5.1000000238419,"correct":true,"confidence":2},{"trial_n":136,"n_dots":2.65,"target":"left","response":"left","rt":28.100000023842,"correct":true,"confidence":5},{"trial_n":137,"n_dots":2.65,"target":"right","response":"left","rt":397.70000004768,"correct":false,"confidence":3},{"trial_n":138,"n_dots":2.75,"target":"left","response":"left","rt":218.69999992847,"correct":true,"confidence":3},{"trial_n":139,"n_dots":2.75,"target":"left","response":"right","rt":223,"correct":false,"confidence":2},{"trial_n":140,"n_dots":2.85,"target":"right","response":"right","rt":244.5,"correct":true,"confidence":5},{"trial_n":141,"n_dots":2.85,"target":"left","response":"left","rt":190.39999997616,"correct":true,"confidence":4},{"trial_n":142,"n_dots":2.75,"target":"right","response":"right","rt":480.90000009537,"correct":true,"confidence":4},{"trial_n":143,"n_dots":2.75,"target":"right","response":"left","rt":672.39999997616,"correct":false,"confidence":3},{"trial_n":144,"n_dots":2.85,"target":"left","response":"right","rt":478.39999997616,"correct":false,"confidence":3},{"trial_n":145,"n_dots":2.95,"target":"right","response":"left","rt":24,"correct":false,"confidence":5},{"trial_n":146,"n_dots":3.05,"target":"right","response":"right","rt":531.20000004768,"correct":true,"confidence":5},{"trial_n":147,"n_dots":3.05,"target":"right","response":"left","rt":15.300000071526,"correct":false,"confidence":3},{"trial_n":148,"n_dots":3.15,"target":"right","response":"right","rt":3.2999999523163,"correct":true,"confidence":3},{"trial_n":149,"n_dots":3.15,"target":"right","response":"right","rt":587.29999995232,"correct":true,"confidence":2},{"trial_n":150,"n_dots":3.05,"target":"right","response":"left","rt":604.20000004768,"correct":false,"confidence":2},{"trial_n":151,"n_dots":3.15,"target":"left","response":"right","rt":452.89999997616,"correct":false,"confidence":2},{"trial_n":152,"n_dots":3.25,"target":"left","response":"left","rt":223.40000009537,"correct":true,"confidence":4},{"trial_n":153,"n_dots":3.25,"target":"left","response":"left","rt":84.399999976158,"correct":true,"confidence":4},{"trial_n":154,"n_dots":3.15,"target":"left","response":"left","rt":482.60000002384,"correct":true,"confidence":3},{"trial_n":155,"n_dots":3.15,"target":"left","response":"left","rt":631.20000004768,"correct":true,"confidence":3},{"trial_n":156,"n_dots":3.05,"target":"right","response":"right","rt":345.29999995232,"correct":true,"confidence":5},{"trial_n":157,"n_dots":3.05,"target":"left","response":"left","rt":626.89999997616,"correct":true,"confidence":5},{"trial_n":158,"n_dots":2.95,"target":"left","response":"left","rt":617.5,"correct":true,"confidence":5},{"trial_n":159,"n_dots":2.95,"target":"right","response":"right","rt":269.70000004768,"correct":true,"confidence":3},{"trial_n":160,"n_dots":2.85,"target":"left","response":"left","rt":186,"correct":true,"confidence":3},{"trial_n":161,"n_dots":2.85,"target":"left","response":"right","rt":616.10000002384,"correct":false,"confidence":3},{"trial_n":162,"n_dots":2.95,"target":"right","response":"left","rt":247,"correct":false,"confidence":1},{"trial_n":163,"n_dots":3.05,"target":"left","response":"left","rt":33.399999976158,"correct":true,"confidence":5},{"trial_n":164,"n_dots":3.05,"target":"left","response":"left","rt":135.89999997616,"correct":true,"confidence":4},{"trial_n":165,"n_dots":2.95,"target":"right","response":"right","rt":3.8999999761581,"correct":true,"confidence":6},{"trial_n":166,"n_dots":2.95,"target":"left","response":"left","rt":510.29999995232,"correct":true,"confidence":2},{"trial_n":167,"n_dots":2.85,"target":"right","response":"right","rt":18.600000023842,"correct":true,"confidence":1},{"trial_n":168,"n_dots":2.85,"target":"right","response":"right","rt":265.29999995232,"correct":true,"confidence":4},{"trial_n":169,"n_dots":2.75,"target":"left","response":"right","rt":371.60000002384,"correct":false,"confidence":3},{"trial_n":170,"n_dots":2.85,"target":"right","response":"right","rt":44,"correct":true,"confidence":1},{"trial_n":171,"n_dots":2.85,"target":"right","response":"left","rt":666.39999997616,"correct":false,"confidence":2},{"trial_n":172,"n_dots":2.95,"target":"left","response":"right","rt":149.20000004768,"correct":false,"confidence":1},{"trial_n":173,"n_dots":3.05,"target":"left","response":"left","rt":296.5,"correct":true,"confidence":2},{"trial_n":174,"n_dots":3.05,"target":"left","response":"left","rt":235.39999997616,"correct":true,"confidence":3},{"trial_n":175,"n_dots":2.95,"target":"left","response":"left","rt":765.5,"correct":true,"confidence":4},{"trial_n":176,"n_dots":2.95,"target":"right","response":"left","rt":195.70000004768,"correct":false,"confidence":2},{"trial_n":177,"n_dots":3.05,"target":"left","response":"right","rt":22.5,"correct":false,"confidence":1},{"trial_n":178,"n_dots":3.15,"target":"right","response":"left","rt":186.90000009537,"correct":false,"confidence":2},{"trial_n":179,"n_dots":3.25,"target":"left","response":"right","rt":109.90000009537,"correct":false,"confidence":1},{"trial_n":180,"n_dots":3.35,"target":"right","response":"right","rt":667.69999992847,"correct":true,"confidence":4},{"trial_n":181,"n_dots":3.35,"target":"left","response":"left","rt":566,"correct":true,"confidence":3},{"trial_n":182,"n_dots":3.25,"target":"right","response":"right","rt":126.29999995232,"correct":true,"confidence":4},{"trial_n":183,"n_dots":3.25,"target":"right","response":"right","rt":144.59999990463,"correct":true,"confidence":3},{"trial_n":184,"n_dots":3.15,"target":"left","response":"left","rt":47.200000047684,"correct":true,"confidence":5},{"trial_n":185,"n_dots":3.15,"target":"left","response":"right","rt":631,"correct":false,"confidence":3},{"trial_n":186,"n_dots":3.25,"target":"right","response":"right","rt":88.899999976158,"correct":true,"confidence":5},{"trial_n":187,"n_dots":3.25,"target":"left","response":"left","rt":122.60000002384,"correct":true,"confidence":3},{"trial_n":188,"n_dots":3.15,"target":"right","response":"left","rt":701.39999997616,"correct":false,"confidence":2},{"trial_n":189,"n_dots":3.25,"target":"left","response":"left","rt":94.299999952316,"correct":true,"confidence":3},{"trial_n":190,"n_dots":3.25,"target":"right","response":"right","rt":1017.8000000715,"correct":true,"confidence":1},{"trial_n":191,"n_dots":3.15,"target":"right","response":"left","rt":918.69999992847,"correct":false,"confidence":2},{"trial_n":192,"n_dots":3.25,"target":"right","response":"right","rt":48.100000023842,"correct":true,"confidence":2},{"trial_n":193,"n_dots":3.25,"target":"left","response":"left","rt":257.20000004768,"correct":true,"confidence":2},{"trial_n":194,"n_dots":3.15,"target":"left","response":"left","rt":201.30000007153,"correct":true,"confidence":4}]