[{"trial_n":1,"n_dots":4.25,"target":"left","response":"left","rt":1938.4000000954,"correct":true,"confidence":-1},{"trial_n":2,"n_dots":4.25,"target":"right","response":"right","rt":417.09999990463,"correct":true,"confidence":-1},{"trial_n":3,"n_dots":3.85,"target":"left","response":"left","rt":270.5,"correct":true,"confidence":-1},{"trial_n":4,"n_dots":3.85,"target":"right","response":"right","rt":166.29999995232,"correct":true,"confidence":-1},{"trial_n":5,"n_dots":3.45,"target":"right","response":"right","rt":137.89999985695,"correct":true,"confidence":-1},{"trial_n":6,"n_dots":3.45,"target":"right","response":"right","rt":190.10000014305,"correct":true,"confidence":-1},{"trial_n":7,"n_dots":3.05,"target":"right","response":"right","rt":261,"correct":true,"confidence":-1},{"trial_n":8,"n_dots":3.05,"target":"left","response":"left","rt":165.59999990463,"correct":true,"confidence":-1},{"trial_n":9,"n_dots":2.85,"target":"left","response":"right","rt":177.40000009537,"correct":false,"confidence":-1},{"trial_n":10,"n_dots":3.05,"target":"right","response":"right","rt":217.70000004768,"correct":true,"confidence":-1},{"trial_n":11,"n_dots":3.05,"target":"right","response":"right","rt":276.40000009537,"correct":true,"confidence":-1},{"trial_n":12,"n_dots":2.85,"target":"left","response":"right","rt":275.69999980927,"correct":false,"confidence":-1},{"trial_n":13,"n_dots":2.95,"target":"right","response":"right","rt":543.5,"correct":true,"confidence":-1},{"trial_n":14,"n_dots":2.95,"target":"right","response":"left","rt":344.09999990463,"correct":false,"confidence":-1},{"trial_n":15,"n_dots":3.05,"target":"left","response":"left","rt":137.79999995232,"correct":true,"confidence":-1},{"trial_n":16,"n_dots":3.05,"target":"right","response":"right","rt":102,"correct":true,"confidence":-1},{"trial_n":17,"n_dots":2.95,"target":"left","response":"left","rt":314.89999985695,"correct":true,"confidence":-1},{"trial_n":18,"n_dots":2.95,"target":"left","response":"right","rt":492.29999995232,"correct":false,"confidence":-1},{"trial_n":19,"n_dots":3.05,"target":"right","response":"right","rt":483.5,"correct":true,"confidence":-1},{"trial_n":20,"n_dots":3.05,"target":"left","response":"left","rt":298.60000014305,"correct":true,"confidence":-1},{"trial_n":21,"n_dots":2.95,"target":"right","response":"left","rt":1592.3999998569,"correct":false,"confidence":-1},{"trial_n":22,"n_dots":3.05,"target":"left","response":"right","rt":253.60000014305,"correct":false,"confidence":-1},{"trial_n":23,"n_dots":3.15,"target":"left","response":"right","rt":700.90000009537,"correct":false,"confidence":-1},{"trial_n":24,"n_dots":3.25,"target":"right","response":"left","rt":525.29999995232,"correct":false,"confidence":-1},{"trial_n":25,"n_dots":3.35,"target":"right","response":"right","rt":300.5,"correct":true,"confidence":-1},{"trial_n":26,"n_dots":3.35,"target":"right","response":"right","rt":288.40000009537,"correct":true,"confidence":-1},{"trial_n":27,"n_dots":3.25,"target":"left","response":"right","rt":767.79999995232,"correct":false,"confidence":5},{"trial_n":28,"n_dots":3.35,"target":"right","response":"right","rt":227,"correct":true,"confidence":5},{"trial_n":29,"n_dots":3.35,"target":"left","response":"left","rt":212.59999990463,"correct":true,"confidence":4},{"trial_n":30,"n_dots":3.25,"target":"right","response":"right","rt":386.89999985695,"correct":true,"confidence":4},{"trial_n":31,"n_dots":3.25,"target":"left","response":"left","rt":268.20000004768,"correct":true,"confidence":5},{"trial_n":32,"n_dots":3.15,"target":"right","response":"right","rt":221.09999990463,"correct":true,"confidence":1},{"trial_n":33,"n_dots":3.15,"target":"right","response":"right","rt":338.5,"correct":true,"confidence":4},{"trial_n":34,"n_dots":3.05,"target":"right","response":"right","rt":246.59999990463,"correct":true,"confidence":4},{"trial_n":35,"n_dots":3.05,"target":"right","response":"right","rt":267.79999995232,"correct":true,"confidence":4},{"trial_n":36,"n_dots":2.95,"target":"right","response":"right","rt":477.70000004768,"correct":true,"confidence":3},{"trial_n":37,"n_dots":2.95,"target":"left","response":"left","rt":2001.2999999523,"correct":true,"confidence":3},{"trial_n":38,"n_dots":2.85,"target":"right","response":"right","rt":1386.9000000954,"correct":true,"confidence":3},{"trial_n":39,"n_dots":2.85,"target":"left","response":"left","rt":879,"correct":true,"confidence":3},{"trial_n":40,"n_dots":2.75,"target":"left","response":"right","rt":574.09999990463,"correct":false,"confidence":3},{"trial_n":41,"n_dots":2.85,"target":"left","response":"left","rt":566.10000014305,"correct":true,"confidence":2},{"trial_n":42,"n_dots":2.85,"target":"left","response":"right","rt":833.59999990463,"correct":false,"confidence":3},{"trial_n":43,"n_dots":2.95,"target":"left","response":"left","rt":740.09999990463,"correct":true,"confidence":3},{"trial_n":44,"n_dots":2.95,"target":"left","response":"left","rt":793.90000009537,"correct":true,"confidence":3},{"trial_n":45,"n_dots":2.85,"target":"right","response":"right","rt":864.40000009537,"correct":true,"confidence":3},{"trial_n":46,"n_dots":2.85,"target":"left","response":"right","rt":714.59999990463,"correct":false,"confidence":3},{"trial_n":47,"n_dots":2.95,"target":"left","response":"left","rt":788.09999990463,"correct":true,"confidence":3},{"trial_n":48,"n_dots":2.95,"target":"left","response":"left","rt":695.5,"correct":true,"confidence":3},{"trial_n":49,"n_dots":2.85,"target":"right","response":"right","rt":805.09999990463,"correct":true,"confidence":3},{"trial_n":50,"n_dots":2.85,"target":"left","response":"left","rt":892.40000009537,"correct":true,"confidence":4},{"trial_n":51,"n_dots":2.75,"target":"right","response":"right","rt":552.70000004768,"correct":true,"confidence":3},{"trial_n":52,"n_dots":2.75,"target":"left","response":"left","rt":767.29999995232,"correct":true,"confidence":3},{"trial_n":53,"n_dots":2.65,"target":"left","response":"left","rt":631.70000004768,"correct":true,"confidence":1},{"trial_n":54,"n_dots":2.65,"target":"left","response":"right","rt":639.70000004768,"correct":false,"confidence":3},{"trial_n":55,"n_dots":2.75,"target":"left","response":"right","rt":701.70000004768,"correct":false,"confidence":3},{"trial_n":56,"n_dots":2.85,"target":"left","response":"left","rt":620,"correct":true,"confidence":4},{"trial_n":57,"n_dots":2.85,"target":"right","response":"right","rt":836.60000014305,"correct":true,"confidence":3},{"trial_n":58,"n_dots":2.75,"target":"right","response":"right","rt":548.70000004768,"correct":true,"confidence":3},{"trial_n":59,"n_dots":2.75,"target":"left","response":"left","rt":651.70000004768,"correct":true,"confidence":4},{"trial_n":60,"n_dots":2.65,"target":"right","response":"right","rt":349.20000004768,"correct":true,"confidence":4},{"trial_n":61,"n_dots":2.65,"target":"right","response":"left","rt":242.10000014305,"correct":false,"confidence":3},{"trial_n":62,"n_dots":2.75,"target":"right","response":"left","rt":546.79999995232,"correct":false,"confidence":3},{"trial_n":63,"n_dots":2.85,"target":"left","response":"left","rt":621.5,"correct":true,"confidence":3},{"trial_n":64,"n_dots":2.85,"target":"left","response":"right","rt":945.79999995232,"correct":false,"confidence":1},{"trial_n":65,"n_dots":2.95,"target":"right","response":"left","rt":680.59999990463,"correct":false,"confidence":1},{"trial_n":66,"n_dots":3.05,"target":"right","response":"right","rt":530.29999995232,"correct":true,"confidence":4},{"trial_n":67,"n_dots":3.05,"target":"left","response":"right","rt":779.89999985695,"correct":false,"confidence":4},{"trial_n":68,"n_dots":3.15,"target":"left","response":"left","rt":677.70000004768,"correct":true,"confidence":4},{"trial_n":69,"n_dots":3.15,"target":"left","response":"left","rt":483,"correct":true,"confidence":4},{"trial_n":70,"n_dots":3.05,"target":"left","response":"left","rt":456.60000014305,"correct":true,"confidence":4},{"trial_n":71,"n_dots":3.05,"target":"left","response":"left","rt":982.79999995232,"correct":true,"confidence":4},{"trial_n":72,"n_dots":2.95,"target":"left","response":"left","rt":445,"correct":true,"confidence":5},{"trial_n":73,"n_dots":2.95,"target":"right","response":"right","rt":325.40000009537,"correct":true,"confidence":5},{"trial_n":74,"n_dots":2.85,"target":"left","response":"right","rt":861.09999990463,"correct":false,"confidence":5},{"trial_n":75,"n_dots":2.95,"target":"left","response":"left","rt":1152,"correct":true,"confidence":4},{"trial_n":76,"n_dots":2.95,"target":"right","response":"right","rt":270.79999995232,"correct":true,"confidence":4},{"trial_n":77,"n_dots":2.85,"target":"right","response":"left","rt":350.79999995232,"correct":false,"confidence":5},{"trial_n":78,"n_dots":2.95,"target":"left","response":"left","rt":185.79999995232,"correct":true,"confidence":4},{"trial_n":79,"n_dots":2.95,"target":"left","response":"left","rt":335.40000009537,"correct":true,"confidence":5},{"trial_n":80,"n_dots":2.85,"target":"right","response":"left","rt":635.70000004768,"correct":false,"confidence":5},{"trial_n":81,"n_dots":2.95,"target":"right","response":"right","rt":493.5,"correct":true,"confidence":4},{"trial_n":82,"n_dots":2.95,"target":"left","response":"left","rt":537.19999980927,"correct":true,"confidence":5},{"trial_n":83,"n_dots":2.85,"target":"right","response":"right","rt":378,"correct":true,"confidence":5},{"trial_n":84,"n_dots":2.85,"target":"left","response":"left","rt":1142.2999999523,"correct":true,"confidence":6},{"trial_n":85,"n_dots":2.75,"target":"left","response":"left","rt":553,"correct":true,"confidence":5},{"trial_n":86,"n_dots":2.75,"target":"left","response":"left","rt":690.79999995232,"correct":true,"confidence":6},{"trial_n":87,"n_dots":2.65,"target":"right","response":"right","rt":731.20000004768,"correct":true,"confidence":5},{"trial_n":88,"n_dots":2.65,"target":"left","response":"right","rt":1002.3999998569,"correct":false,"confidence":5},{"trial_n":89,"n_dots":2.75,"target":"right","response":"right","rt":755.60000014305,"correct":true,"confidence":5},{"trial_n":90,"n_dots":2.75,"target":"left","response":"left","rt":429,"correct":true,"confidence":5},{"trial_n":91,"n_dots":2.65,"target":"left","response":"right","rt":825.80000019073,"correct":false,"confidence":5},{"trial_n":92,"n_dots":2.75,"target":"left","response":"left","rt":389.10000014305,"correct":true,"confidence":5},{"trial_n":93,"n_dots":2.75,"target":"left","response":"left","rt":899.20000004768,"correct":true,"confidence":5},{"trial_n":94,"n_dots":2.65,"target":"left","response":"left","rt":744.70000004768,"correct":true,"confidence":5},{"trial_n":95,"n_dots":2.65,"target":"right","response":"right","rt":896.89999985695,"correct":true,"confidence":5},{"trial_n":96,"n_dots":2.55,"target":"right","response":"right","rt":487.09999990463,"correct":true,"confidence":5},{"trial_n":97,"n_dots":2.55,"target":"left","response":"right","rt":768.69999980927,"correct":false,"confidence":5},{"trial_n":98,"n_dots":2.65,"target":"left","response":"right","rt":373.10000014305,"correct":false,"confidence":5},{"trial_n":99,"n_dots":2.75,"target":"left","response":"left","rt":359.39999985695,"correct":true,"confidence":5},{"trial_n":100,"n_dots":2.75,"target":"left","response":"left","rt":372.20000004768,"correct":true,"confidence":5},{"trial_n":101,"n_dots":2.65,"target":"right","response":"left","rt":824.29999995232,"correct":false,"confidence":5},{"trial_n":102,"n_dots":2.75,"target":"right","response":"right","rt":212.79999995232,"correct":true,"confidence":5},{"trial_n":103,"n_dots":2.75,"target":"left","response":"left","rt":453.5,"correct":true,"confidence":5},{"trial_n":104,"n_dots":2.65,"target":"left","response":"left","rt":1617.2999999523,"correct":true,"confidence":1},{"trial_n":105,"n_dots":2.65,"target":"left","response":"left","rt":540.69999980927,"correct":true,"confidence":1},{"trial_n":106,"n_dots":2.55,"target":"right","response":"left","rt":784.39999985695,"correct":false,"confidence":1},{"trial_n":107,"n_dots":2.65,"target":"right","response":"right","rt":248.70000004768,"correct":true,"confidence":5},{"trial_n":108,"n_dots":2.65,"target":"right","response":"right","rt":585.79999995232,"correct":true,"confidence":5},{"trial_n":109,"n_dots":2.55,"target":"right","response":"right","rt":389.70000004768,"correct":true,"confidence":5},{"trial_n":110,"n_dots":2.55,"target":"right","response":"left","rt":874.79999995232,"correct":false,"confidence":1},{"trial_n":111,"n_dots":2.65,"target":"left","response":"left","rt":670.40000009537,"correct":true,"confidence":5},{"trial_n":112,"n_dots":2.65,"target":"right","response":"right","rt":974.60000014305,"correct":true,"confidence":6},{"trial_n":113,"n_dots":2.55,"target":"right","response":"left","rt":470.29999995232,"correct":false,"confidence":1},{"trial_n":114,"n_dots":2.65,"target":"left","response":"left","rt":442.5,"correct":true,"confidence":4},{"trial_n":115,"n_dots":2.65,"target":"right","response":"left","rt":638.79999995232,"correct":false,"confidence":1},{"trial_n":116,"n_dots":2.75,"target":"right","response":"right","rt":1153.0999999046,"correct":true,"confidence":4},{"trial_n":117,"n_dots":2.75,"target":"left","response":"left","rt":1187.7999999523,"correct":true,"confidence":6},{"trial_n":118,"n_dots":2.65,"target":"right","response":"right","rt":402,"correct":true,"confidence":1},{"trial_n":119,"n_dots":2.65,"target":"left","response":"right","rt":995.20000004768,"correct":false,"confidence":5},{"trial_n":120,"n_dots":2.75,"target":"right","response":"right","rt":1223.8000001907,"correct":true,"confidence":4},{"trial_n":121,"n_dots":2.75,"target":"left","response":"left","rt":1511.3000001907,"correct":true,"confidence":5},{"trial_n":122,"n_dots":2.65,"target":"left","response":"left","rt":670.79999995232,"correct":true,"confidence":1},{"trial_n":123,"n_dots":2.65,"target":"left","response":"right","rt":90869.900000095,"correct":false,"confidence":1},{"trial_n":124,"n_dots":2.75,"target":"right","response":"right","rt":556.60000014305,"correct":true,"confidence":5},{"trial_n":125,"n_dots":2.75,"target":"right","response":"right","rt":912.89999985695,"correct":true,"confidence":5},{"trial_n":126,"n_dots":2.65,"target":"right","response":"right","rt":623.30000019073,"correct":true,"confidence":5},{"trial_n":127,"n_dots":2.65,"target":"left","response":"left","rt":659.80000019073,"correct":true,"confidence":4},{"trial_n":128,"n_dots":2.55,"target":"right","response":"right","rt":894.89999985695,"correct":true,"confidence":6},{"trial_n":129,"n_dots":2.55,"target":"right","response":"right","rt":575.39999985695,"correct":true,"confidence":5},{"trial_n":130,"n_dots":2.45,"target":"right","response":"left","rt":1376.7999999523,"correct":false,"confidence":3},{"trial_n":131,"n_dots":2.55,"target":"right","response":"right","rt":724.29999995232,"correct":true,"confidence":5},{"trial_n":132,"n_dots":2.55,"target":"left","response":"left","rt":904.59999990463,"correct":true,"confidence":5},{"trial_n":133,"n_dots":2.45,"target":"left","response":"left","rt":736.39999985695,"correct":true,"confidence":5},{"trial_n":134,"n_dots":2.45,"target":"left","response":"right","rt":672.5,"correct":false,"confidence":6},{"trial_n":135,"n_dots":2.55,"target":"right","response":"right","rt":541,"correct":true,"confidence":5},{"trial_n":136,"n_dots":2.55,"target":"right","response":"right","rt":711.79999995232,"correct":true,"confidence":5},{"trial_n":137,"n_dots":2.45,"target":"left","response":"left","rt":276.90000009537,"correct":true,"confidence":6},{"trial_n":138,"n_dots":2.45,"target":"left","response":"right","rt":326.79999995232,"correct":false,"confidence":5},{"trial_n":139,"n_dots":2.55,"target":"left","response":"right","rt":542.79999995232,"correct":false,"confidence":5},{"trial_n":140,"n_dots":2.65,"target":"right","response":"right","rt":300.59999990463,"correct":true,"confidence":5},{"trial_n":141,"n_dots":2.65,"target":"right","response":"right","rt":593.70000004768,"correct":true,"confidence":5},{"trial_n":142,"n_dots":2.55,"target":"left","response":"right","rt":243,"correct":false,"confidence":5},{"trial_n":143,"n_dots":2.65,"target":"left","response":"right","rt":977.90000009537,"correct":false,"confidence":5},{"trial_n":144,"n_dots":2.75,"target":"right","response":"right","rt":1229.1000001431,"correct":true,"confidence":5},{"trial_n":145,"n_dots":2.75,"target":"left","response":"left","rt":486.59999990463,"correct":true,"confidence":5},{"trial_n":146,"n_dots":2.65,"target":"left","response":"right","rt":386,"correct":false,"confidence":5},{"trial_n":147,"n_dots":2.75,"target":"right","response":"right","rt":295.80000019073,"correct":true,"confidence":5},{"trial_n":148,"n_dots":2.75,"target":"left","response":"left","rt":889.59999990463,"correct":true,"confidence":5},{"trial_n":149,"n_dots":2.65,"target":"left","response":"right","rt":655.09999990463,"correct":false,"confidence":5},{"trial_n":150,"n_dots":2.75,"target":"right","response":"right","rt":730.10000014305,"correct":true,"confidence":5},{"trial_n":151,"n_dots":2.75,"target":"right","response":"right","rt":493.79999995232,"correct":true,"confidence":5},{"trial_n":152,"n_dots":2.65,"target":"left","response":"right","rt":508.69999980927,"correct":false,"confidence":5},{"trial_n":153,"n_dots":2.75,"target":"right","response":"right","rt":6102.7999999523,"correct":true,"confidence":5},{"trial_n":154,"n_dots":2.75,"target":"right","response":"right","rt":296.09999990463,"correct":true,"confidence":5},{"trial_n":155,"n_dots":2.65,"target":"left","response":"left","rt":224.70000004768,"correct":true,"confidence":5},{"trial_n":156,"n_dots":2.65,"target":"left","response":"left","rt":638,"correct":true,"confidence":4},{"trial_n":157,"n_dots":2.55,"target":"right","response":"right","rt":790.29999995232,"correct":true,"confidence":5},{"trial_n":158,"n_dots":2.55,"target":"right","response":"right","rt":607.79999995232,"correct":true,"confidence":5},{"trial_n":159,"n_dots":2.45,"target":"right","response":"right","rt":140.89999985695,"correct":true,"confidence":5},{"trial_n":160,"n_dots":2.45,"target":"right","response":"right","rt":766.29999995232,"correct":true,"confidence":5},{"trial_n":161,"n_dots":2.35,"target":"left","response":"left","rt":306.40000009537,"correct":true,"confidence":5},{"trial_n":162,"n_dots":2.35,"target":"left","response":"left","rt":1007.2999999523,"correct":true,"confidence":5},{"trial_n":163,"n_dots":2.25,"target":"right","response":"right","rt":506.09999990463,"correct":true,"confidence":5},{"trial_n":164,"n_dots":2.25,"target":"right","response":"right","rt":415.79999995232,"correct":true,"confidence":5},{"trial_n":165,"n_dots":2.15,"target":"right","response":"right","rt":794.10000014305,"correct":true,"confidence":5},{"trial_n":166,"n_dots":2.15,"target":"right","response":"right","rt":263.90000009537,"correct":true,"confidence":5},{"trial_n":167,"n_dots":2.05,"target":"right","response":"left","rt":1421.5999999046,"correct":false,"confidence":1},{"trial_n":168,"n_dots":2.15,"target":"left","response":"right","rt":1024.3000001907,"correct":false,"confidence":3},{"trial_n":169,"n_dots":2.25,"target":"right","response":"right","rt":2228.2999999523,"correct":true,"confidence":4},{"trial_n":170,"n_dots":2.25,"target":"right","response":"left","rt":447.80000019073,"correct":false,"confidence":4},{"trial_n":171,"n_dots":2.35,"target":"right","response":"left","rt":598.40000009537,"correct":false,"confidence":5},{"trial_n":172,"n_dots":2.45,"target":"right","response":"left","rt":581.59999990463,"correct":false,"confidence":4},{"trial_n":173,"n_dots":2.55,"target":"left","response":"left","rt":372.29999995232,"correct":true,"confidence":4},{"trial_n":174,"n_dots":2.55,"target":"left","response":"left","rt":533.79999995232,"correct":true,"confidence":4},{"trial_n":175,"n_dots":2.45,"target":"right","response":"left","rt":530.59999990463,"correct":false,"confidence":4},{"trial_n":176,"n_dots":2.55,"target":"right","response":"left","rt":664.10000014305,"correct":false,"confidence":4},{"trial_n":177,"n_dots":2.65,"target":"left","response":"left","rt":332.30000019073,"correct":true,"confidence":4},{"trial_n":178,"n_dots":2.65,"target":"left","response":"left","rt":387.29999995232,"correct":true,"confidence":4},{"trial_n":179,"n_dots":2.55,"target":"right","response":"left","rt":203.29999995232,"correct":false,"confidence":4},{"trial_n":180,"n_dots":2.65,"target":"right","response":"right","rt":708.29999995232,"correct":true,"confidence":4},{"trial_n":181,"n_dots":2.65,"target":"right","response":"right","rt":326.20000004768,"correct":true,"confidence":4},{"trial_n":182,"n_dots":2.55,"target":"right","response":"right","rt":1502.2999999523,"correct":true,"confidence":4},{"trial_n":183,"n_dots":2.55,"target":"right","response":"right","rt":951,"correct":true,"confidence":4},{"trial_n":184,"n_dots":2.45,"target":"right","response":"right","rt":718.29999995232,"correct":true,"confidence":4},{"trial_n":185,"n_dots":2.45,"target":"right","response":"left","rt":1707.6000001431,"correct":false,"confidence":5},{"trial_n":186,"n_dots":2.55,"target":"left","response":"left","rt":22502.600000143,"correct":true,"confidence":1},{"trial_n":187,"n_dots":2.55,"target":"left","response":"left","rt":975,"correct":true,"confidence":1},{"trial_n":188,"n_dots":2.45,"target":"left","response":"right","rt":1063.5,"correct":false,"confidence":2},{"trial_n":189,"n_dots":2.55,"target":"left","response":"left","rt":455.70000004768,"correct":true,"confidence":2},{"trial_n":190,"n_dots":2.55,"target":"right","response":"left","rt":261.89999985695,"correct":false,"confidence":2},{"trial_n":191,"n_dots":2.65,"target":"left","response":"left","rt":445.10000014305,"correct":true,"confidence":3},{"trial_n":192,"n_dots":2.65,"target":"left","response":"left","rt":1193.7999999523,"correct":true,"confidence":2},{"trial_n":193,"n_dots":2.55,"target":"right","response":"right","rt":674.20000004768,"correct":true,"confidence":5},{"trial_n":194,"n_dots":2.55,"target":"left","response":"left","rt":2141.2999999523,"correct":true,"confidence":1}]