[{"trial_n":1,"n_dots":4.25,"target":"left","response":"left","rt":4134.900000006,"correct":true,"confidence":-1},{"trial_n":2,"n_dots":4.25,"target":"right","response":"right","rt":1312.3000000119,"correct":true,"confidence":-1},{"trial_n":3,"n_dots":3.85,"target":"right","response":"right","rt":674.09999999404,"correct":true,"confidence":-1},{"trial_n":4,"n_dots":3.85,"target":"right","response":"right","rt":1367.7000000179,"correct":true,"confidence":-1},{"trial_n":5,"n_dots":3.45,"target":"left","response":"left","rt":561.70000001788,"correct":true,"confidence":-1},{"trial_n":6,"n_dots":3.45,"target":"right","response":"right","rt":1152.7000000179,"correct":true,"confidence":-1},{"trial_n":7,"n_dots":3.05,"target":"left","response":"left","rt":979.70000001788,"correct":true,"confidence":-1},{"trial_n":8,"n_dots":3.05,"target":"right","response":"right","rt":628,"correct":true,"confidence":-1},{"trial_n":9,"n_dots":2.85,"target":"left","response":"left","rt":847.19999998808,"correct":true,"confidence":-1},{"trial_n":10,"n_dots":2.85,"target":"right","response":"left","rt":679.30000001192,"correct":false,"confidence":-1},{"trial_n":11,"n_dots":3.05,"target":"left","response":"left","rt":504.5,"correct":true,"confidence":-1},{"trial_n":12,"n_dots":3.05,"target":"left","response":"right","rt":447.79999998212,"correct":false,"confidence":-1},{"trial_n":13,"n_dots":3.15,"target":"right","response":"right","rt":668,"correct":true,"confidence":-1},{"trial_n":14,"n_dots":3.15,"target":"left","response":"left","rt":559.40000000596,"correct":true,"confidence":-1},{"trial_n":15,"n_dots":3.05,"target":"left","response":"right","rt":423.30000001192,"correct":false,"confidence":-1},{"trial_n":16,"n_dots":3.15,"target":"right","response":"left","rt":535.40000000596,"correct":false,"confidence":-1},{"trial_n":17,"n_dots":3.25,"target":"left","response":"left","rt":1007.3000000119,"correct":true,"confidence":-1},{"trial_n":18,"n_dots":3.25,"target":"left","response":"left","rt":584.60000002384,"correct":true,"confidence":-1},{"trial_n":19,"n_dots":3.15,"target":"right","response":"right","rt":387.70000001788,"correct":true,"confidence":-1},{"trial_n":20,"n_dots":3.15,"target":"left","response":"left","rt":575.40000000596,"correct":true,"confidence":-1},{"trial_n":21,"n_dots":3.05,"target":"right","response":"right","rt":199.30000001192,"correct":true,"confidence":-1},{"trial_n":22,"n_dots":3.05,"target":"left","response":"left","rt":328.5,"correct":true,"confidence":-1},{"trial_n":23,"n_dots":2.95,"target":"right","response":"left","rt":415.70000001788,"correct":false,"confidence":-1},{"trial_n":24,"n_dots":3.05,"target":"left","response":"left","rt":295.30000001192,"correct":true,"confidence":-1},{"trial_n":25,"n_dots":3.05,"target":"right","response":"right","rt":539.59999999404,"correct":true,"confidence":-1},{"trial_n":26,"n_dots":2.95,"target":"right","response":"right","rt":568.90000000596,"correct":true,"confidence":-1},{"trial_n":27,"n_dots":2.95,"target":"left","response":"right","rt":367.30000001192,"correct":false,"confidence":2},{"trial_n":28,"n_dots":3.05,"target":"right","response":"left","rt":641.60000002384,"correct":false,"confidence":2},{"trial_n":29,"n_dots":3.15,"target":"left","response":"left","rt":369,"correct":true,"confidence":4},{"trial_n":30,"n_dots":3.15,"target":"right","response":"right","rt":1339.2000000179,"correct":true,"confidence":1},{"trial_n":31,"n_dots":3.05,"target":"left","response":"left","rt":687.29999998212,"correct":true,"confidence":2},{"trial_n":32,"n_dots":3.05,"target":"left","response":"right","rt":1056.6000000238,"correct":false,"confidence":1},{"trial_n":33,"n_dots":3.15,"target":"left","response":"left","rt":1152.900000006,"correct":true,"confidence":2},{"trial_n":34,"n_dots":3.15,"target":"left","response":"left","rt":1593.599999994,"correct":true,"confidence":1},{"trial_n":35,"n_dots":3.05,"target":"left","response":"left","rt":537.70000001788,"correct":true,"confidence":3},{"trial_n":36,"n_dots":3.05,"target":"right","response":"right","rt":1391.6000000238,"correct":true,"confidence":1},{"trial_n":37,"n_dots":2.95,"target":"left","response":"left","rt":898.60000002384,"correct":true,"confidence":5},{"trial_n":38,"n_dots":2.95,"target":"left","response":"left","rt":434.79999998212,"correct":true,"confidence":4},{"trial_n":39,"n_dots":2.85,"target":"left","response":"left","rt":720.60000002384,"correct":true,"confidence":2},{"trial_n":40,"n_dots":2.85,"target":"left","response":"right","rt":1875.5,"correct":false,"confidence":1},{"trial_n":41,"n_dots":2.95,"target":"left","response":"right","rt":1080,"correct":false,"confidence":1},{"trial_n":42,"n_dots":3.05,"target":"left","response":"left","rt":839.70000001788,"correct":true,"confidence":2},{"trial_n":43,"n_dots":3.05,"target":"left","response":"left","rt":691.40000000596,"correct":true,"confidence":4},{"trial_n":44,"n_dots":2.95,"target":"left","response":"right","rt":1299.8000000119,"correct":false,"confidence":1},{"trial_n":45,"n_dots":3.05,"target":"left","response":"left","rt":831.30000001192,"correct":true,"confidence":2},{"trial_n":46,"n_dots":3.05,"target":"right","response":"left","rt":1063.2000000179,"correct":false,"confidence":1},{"trial_n":47,"n_dots":3.15,"target":"right","response":"left","rt":635.20000001788,"correct":false,"confidence":2},{"trial_n":48,"n_dots":3.25,"target":"right","response":"left","rt":619.39999997616,"correct":false,"confidence":3},{"trial_n":49,"n_dots":3.35,"target":"left","response":"left","rt":577.59999999404,"correct":true,"confidence":2},{"trial_n":50,"n_dots":3.35,"target":"left","response":"left","rt":656.5,"correct":true,"confidence":1},{"trial_n":51,"n_dots":3.25,"target":"right","response":"right","rt":1839.3000000119,"correct":true,"confidence":1},{"trial_n":52,"n_dots":3.25,"target":"right","response":"left","rt":1447.8000000119,"correct":false,"confidence":1},{"trial_n":53,"n_dots":3.35,"target":"left","response":"left","rt":499.30000001192,"correct":true,"confidence":3},{"trial_n":54,"n_dots":3.35,"target":"left","response":"left","rt":591.60000002384,"correct":true,"confidence":1},{"trial_n":55,"n_dots":3.25,"target":"right","response":"left","rt":687.30000001192,"correct":false,"confidence":1},{"trial_n":56,"n_dots":3.35,"target":"left","response":"right","rt":739.80000001192,"correct":false,"confidence":1},{"trial_n":57,"n_dots":3.45,"target":"right","response":"left","rt":1529.7000000179,"correct":false,"confidence":1},{"trial_n":58,"n_dots":3.55,"target":"left","response":"left","rt":439.30000001192,"correct":true,"confidence":1},{"trial_n":59,"n_dots":3.55,"target":"right","response":"left","rt":513.69999998808,"correct":false,"confidence":2},{"trial_n":60,"n_dots":3.65,"target":"left","response":"left","rt":399.20000001788,"correct":true,"confidence":1},{"trial_n":61,"n_dots":3.65,"target":"left","response":"left","rt":527.30000001192,"correct":true,"confidence":2},{"trial_n":62,"n_dots":3.55,"target":"right","response":"right","rt":852,"correct":true,"confidence":1},{"trial_n":63,"n_dots":3.55,"target":"left","response":"left","rt":391.40000000596,"correct":true,"confidence":3},{"trial_n":64,"n_dots":3.45,"target":"left","response":"left","rt":479.5,"correct":true,"confidence":2},{"trial_n":65,"n_dots":3.45,"target":"right","response":"left","rt":415.19999998808,"correct":false,"confidence":2},{"trial_n":66,"n_dots":3.55,"target":"right","response":"right","rt":1201.7000000179,"correct":true,"confidence":1},{"trial_n":67,"n_dots":3.55,"target":"left","response":"left","rt":455.60000002384,"correct":true,"confidence":1},{"trial_n":68,"n_dots":3.45,"target":"right","response":"left","rt":495.5,"correct":false,"confidence":2},{"trial_n":69,"n_dots":3.55,"target":"right","response":"left","rt":1143.3000000119,"correct":false,"confidence":1},{"trial_n":70,"n_dots":3.65,"target":"right","response":"left","rt":521.20000001788,"correct":false,"confidence":2},{"trial_n":71,"n_dots":3.75,"target":"left","response":"left","rt":433.59999999404,"correct":true,"confidence":2},{"trial_n":72,"n_dots":3.75,"target":"right","response":"right","rt":487.30000001192,"correct":true,"confidence":1},{"trial_n":73,"n_dots":3.65,"target":"right","response":"left","rt":327.30000001192,"correct":false,"confidence":2},{"trial_n":74,"n_dots":3.75,"target":"right","response":"left","rt":351.19999998808,"correct":false,"confidence":1},{"trial_n":75,"n_dots":3.85,"target":"right","response":"left","rt":711.30000001192,"correct":false,"confidence":1},{"trial_n":76,"n_dots":3.95,"target":"left","response":"left","rt":1007.7000000179,"correct":true,"confidence":2},{"trial_n":77,"n_dots":3.95,"target":"left","response":"left","rt":327.30000001192,"correct":true,"confidence":3},{"trial_n":78,"n_dots":3.85,"target":"left","response":"left","rt":1287.3000000119,"correct":true,"confidence":2},{"trial_n":79,"n_dots":3.85,"target":"right","response":"left","rt":545.70000001788,"correct":false,"confidence":1},{"trial_n":80,"n_dots":3.95,"target":"left","response":"left","rt":639.30000001192,"correct":true,"confidence":2},{"trial_n":81,"n_dots":3.95,"target":"left","response":"left","rt":823.30000001192,"correct":true,"confidence":2},{"trial_n":82,"n_dots":3.85,"target":"left","response":"left","rt":499.30000001192,"correct":true,"confidence":1},{"trial_n":83,"n_dots":3.85,"target":"left","response":"left","rt":659.90000000596,"correct":true,"confidence":1},{"trial_n":84,"n_dots":3.75,"target":"left","response":"left","rt":442,"correct":true,"confidence":1},{"trial_n":85,"n_dots":3.75,"target":"left","response":"left","rt":559.30000001192,"correct":true,"confidence":1},{"trial_n":86,"n_dots":3.65,"target":"right","response":"right","rt":851.40000000596,"correct":true,"confidence":1},{"trial_n":87,"n_dots":3.65,"target":"right","response":"left","rt":402.90000000596,"correct":false,"confidence":1},{"trial_n":88,"n_dots":3.75,"target":"right","response":"left","rt":583.30000001192,"correct":false,"confidence":1},{"trial_n":89,"n_dots":3.85,"target":"right","response":"left","rt":1817.7000000179,"correct":false,"confidence":2},{"trial_n":90,"n_dots":3.95,"target":"right","response":"right","rt":595.80000001192,"correct":true,"confidence":2},{"trial_n":91,"n_dots":3.95,"target":"left","response":"left","rt":489.70000001788,"correct":true,"confidence":1},{"trial_n":92,"n_dots":3.85,"target":"left","response":"left","rt":335.70000001788,"correct":true,"confidence":3},{"trial_n":93,"n_dots":3.85,"target":"left","response":"right","rt":3111.7000000179,"correct":false,"confidence":1},{"trial_n":94,"n_dots":3.95,"target":"left","response":"left","rt":575.19999998808,"correct":true,"confidence":3},{"trial_n":95,"n_dots":3.95,"target":"right","response":"right","rt":481.60000002384,"correct":true,"confidence":3},{"trial_n":96,"n_dots":3.85,"target":"right","response":"right","rt":535.30000001192,"correct":true,"confidence":2},{"trial_n":97,"n_dots":3.85,"target":"left","response":"left","rt":348,"correct":true,"confidence":3},{"trial_n":98,"n_dots":3.75,"target":"right","response":"right","rt":1434.1000000238,"correct":true,"confidence":1},{"trial_n":99,"n_dots":3.75,"target":"right","response":"right","rt":399.30000001192,"correct":true,"confidence":1},{"trial_n":100,"n_dots":3.65,"target":"left","response":"left","rt":439.30000001192,"correct":true,"confidence":2},{"trial_n":101,"n_dots":3.65,"target":"right","response":"right","rt":359.5,"correct":true,"confidence":2},{"trial_n":102,"n_dots":3.55,"target":"right","response":"right","rt":327.70000001788,"correct":true,"confidence":1},{"trial_n":103,"n_dots":3.55,"target":"left","response":"left","rt":439.30000001192,"correct":true,"confidence":2},{"trial_n":104,"n_dots":3.45,"target":"left","response":"left","rt":359.19999998808,"correct":true,"confidence":3},{"trial_n":105,"n_dots":3.45,"target":"right","response":"right","rt":407.30000001192,"correct":true,"confidence":3},{"trial_n":106,"n_dots":3.35,"target":"left","response":"left","rt":439.19999998808,"correct":true,"confidence":2},{"trial_n":107,"n_dots":3.35,"target":"right","response":"left","rt":498.40000000596,"correct":false,"confidence":1},{"trial_n":108,"n_dots":3.45,"target":"right","response":"right","rt":335.30000001192,"correct":true,"confidence":1},{"trial_n":109,"n_dots":3.45,"target":"left","response":"left","rt":303.30000001192,"correct":true,"confidence":4},{"trial_n":110,"n_dots":3.35,"target":"right","response":"right","rt":1391.400000006,"correct":true,"confidence":1},{"trial_n":111,"n_dots":3.35,"target":"left","response":"left","rt":351.30000001192,"correct":true,"confidence":1},{"trial_n":112,"n_dots":3.25,"target":"right","response":"right","rt":755.90000000596,"correct":true,"confidence":1},{"trial_n":113,"n_dots":3.25,"target":"right","response":"left","rt":1111.2999999821,"correct":false,"confidence":2},{"trial_n":114,"n_dots":3.35,"target":"left","response":"left","rt":1847.3000000119,"correct":true,"confidence":1},{"trial_n":115,"n_dots":3.35,"target":"left","response":"left","rt":1903.1999999881,"correct":true,"confidence":2},{"trial_n":116,"n_dots":3.25,"target":"right","response":"right","rt":1112.2000000179,"correct":true,"confidence":1},{"trial_n":117,"n_dots":3.25,"target":"right","response":"left","rt":1615.3000000119,"correct":false,"confidence":2},{"trial_n":118,"n_dots":3.35,"target":"left","response":"left","rt":1523.8000000119,"correct":true,"confidence":3},{"trial_n":119,"n_dots":3.35,"target":"left","response":"left","rt":1233.7000000179,"correct":true,"confidence":2},{"trial_n":120,"n_dots":3.25,"target":"right","response":"right","rt":2849,"correct":true,"confidence":1},{"trial_n":121,"n_dots":3.25,"target":"right","response":"right","rt":1507.8000000119,"correct":true,"confidence":2},{"trial_n":122,"n_dots":3.15,"target":"right","response":"left","rt":2384.5,"correct":false,"confidence":2},{"trial_n":123,"n_dots":3.25,"target":"left","response":"left","rt":1247.400000006,"correct":true,"confidence":3},{"trial_n":124,"n_dots":3.25,"target":"left","response":"left","rt":1127.3000000119,"correct":true,"confidence":3},{"trial_n":125,"n_dots":3.15,"target":"right","response":"right","rt":1113.5,"correct":true,"confidence":3},{"trial_n":126,"n_dots":3.15,"target":"left","response":"left","rt":1080,"correct":true,"confidence":2},{"trial_n":127,"n_dots":3.05,"target":"right","response":"left","rt":1256.900000006,"correct":false,"confidence":1},{"trial_n":128,"n_dots":3.15,"target":"right","response":"right","rt":2007.3000000119,"correct":true,"confidence":1},{"trial_n":129,"n_dots":3.15,"target":"left","response":"left","rt":1259.8000000119,"correct":true,"confidence":1},{"trial_n":130,"n_dots":3.05,"target":"right","response":"right","rt":1207.7000000179,"correct":true,"confidence":1},{"trial_n":131,"n_dots":3.05,"target":"left","response":"left","rt":697.70000001788,"correct":true,"confidence":1},{"trial_n":132,"n_dots":2.95,"target":"right","response":"right","rt":1425.7000000179,"correct":true,"confidence":1},{"trial_n":133,"n_dots":2.95,"target":"left","response":"left","rt":1066.6000000238,"correct":true,"confidence":2},{"trial_n":134,"n_dots":2.85,"target":"right","response":"right","rt":807.70000001788,"correct":true,"confidence":2},{"trial_n":135,"n_dots":2.85,"target":"left","response":"right","rt":977.70000001788,"correct":false,"confidence":1},{"trial_n":136,"n_dots":2.95,"target":"left","response":"left","rt":794.70000001788,"correct":true,"confidence":1},{"trial_n":137,"n_dots":2.95,"target":"left","response":"left","rt":1567.1999999881,"correct":true,"confidence":3},{"trial_n":138,"n_dots":2.85,"target":"right","response":"right","rt":881.70000001788,"correct":true,"confidence":2},{"trial_n":139,"n_dots":2.85,"target":"right","response":"right","rt":359.30000001192,"correct":true,"confidence":2},{"trial_n":140,"n_dots":2.75,"target":"right","response":"left","rt":1104.6000000238,"correct":false,"confidence":2},{"trial_n":141,"n_dots":2.85,"target":"left","response":"left","rt":1019.8000000119,"correct":true,"confidence":2},{"trial_n":142,"n_dots":2.85,"target":"left","response":"left","rt":1057.5,"correct":true,"confidence":2},{"trial_n":143,"n_dots":2.75,"target":"right","response":"right","rt":1945.7000000179,"correct":true,"confidence":2},{"trial_n":144,"n_dots":2.75,"target":"left","response":"left","rt":1195.400000006,"correct":true,"confidence":1},{"trial_n":145,"n_dots":2.65,"target":"right","response":"right","rt":1215.400000006,"correct":true,"confidence":2},{"trial_n":146,"n_dots":2.65,"target":"left","response":"left","rt":1148.3000000119,"correct":true,"confidence":1},{"trial_n":147,"n_dots":2.55,"target":"right","response":"right","rt":1033.7000000179,"correct":true,"confidence":2},{"trial_n":148,"n_dots":2.55,"target":"right","response":"left","rt":1103.400000006,"correct":false,"confidence":1},{"trial_n":149,"n_dots":2.65,"target":"right","response":"right","rt":431.19999998808,"correct":true,"confidence":1},{"trial_n":150,"n_dots":2.65,"target":"left","response":"left","rt":767.19999998808,"correct":true,"confidence":2},{"trial_n":151,"n_dots":2.55,"target":"right","response":"left","rt":2795,"correct":false,"confidence":1},{"trial_n":152,"n_dots":2.65,"target":"right","response":"left","rt":2639.3000000119,"correct":false,"confidence":1},{"trial_n":153,"n_dots":2.75,"target":"left","response":"left","rt":639.59999999404,"correct":true,"confidence":1},{"trial_n":154,"n_dots":2.75,"target":"left","response":"right","rt":1113.3000000119,"correct":false,"confidence":1},{"trial_n":155,"n_dots":2.85,"target":"right","response":"left","rt":1583.400000006,"correct":false,"confidence":1},{"trial_n":156,"n_dots":2.95,"target":"right","response":"right","rt":515.59999999404,"correct":true,"confidence":2},{"trial_n":157,"n_dots":2.95,"target":"right","response":"right","rt":554.90000000596,"correct":true,"confidence":2},{"trial_n":158,"n_dots":2.85,"target":"right","response":"left","rt":707.40000000596,"correct":false,"confidence":1},{"trial_n":159,"n_dots":2.95,"target":"left","response":"left","rt":562.90000000596,"correct":true,"confidence":2},{"trial_n":160,"n_dots":2.95,"target":"right","response":"right","rt":895.5,"correct":true,"confidence":1},{"trial_n":161,"n_dots":2.85,"target":"left","response":"right","rt":1031.7000000179,"correct":false,"confidence":1},{"trial_n":162,"n_dots":2.95,"target":"right","response":"left","rt":911.19999998808,"correct":false,"confidence":1},{"trial_n":163,"n_dots":3.05,"target":"left","response":"left","rt":681.70000001788,"correct":true,"confidence":2},{"trial_n":164,"n_dots":3.05,"target":"right","response":"left","rt":1521.1000000238,"correct":false,"confidence":1},{"trial_n":165,"n_dots":3.15,"target":"left","response":"left","rt":1378.1000000238,"correct":true,"confidence":1},{"trial_n":166,"n_dots":3.15,"target":"left","response":"left","rt":2007.2999999821,"correct":true,"confidence":1},{"trial_n":167,"n_dots":3.05,"target":"right","response":"left","rt":1723.900000006,"correct":false,"confidence":1},{"trial_n":168,"n_dots":3.15,"target":"right","response":"right","rt":551.40000000596,"correct":true,"confidence":1},{"trial_n":169,"n_dots":3.15,"target":"right","response":"left","rt":2011,"correct":false,"confidence":2},{"trial_n":170,"n_dots":3.25,"target":"left","response":"left","rt":1713.7000000179,"correct":true,"confidence":1},{"trial_n":171,"n_dots":3.25,"target":"right","response":"right","rt":1839.3000000119,"correct":true,"confidence":1},{"trial_n":172,"n_dots":3.15,"target":"right","response":"left","rt":1895.7000000179,"correct":false,"confidence":1},{"trial_n":173,"n_dots":3.25,"target":"left","response":"left","rt":583.40000000596,"correct":true,"confidence":2},{"trial_n":174,"n_dots":3.25,"target":"left","response":"right","rt":1895.400000006,"correct":false,"confidence":1},{"trial_n":175,"n_dots":3.35,"target":"right","response":"left","rt":19915.100000024,"correct":false,"confidence":1},{"trial_n":176,"n_dots":3.45,"target":"right","response":"left","rt":775.40000000596,"correct":false,"confidence":2},{"trial_n":177,"n_dots":3.55,"target":"left","response":"left","rt":1583.3000000119,"correct":true,"confidence":2},{"trial_n":178,"n_dots":3.55,"target":"right","response":"right","rt":559.30000001192,"correct":true,"confidence":1},{"trial_n":179,"n_dots":3.45,"target":"right","response":"left","rt":2343.3000000119,"correct":false,"confidence":1},{"trial_n":180,"n_dots":3.55,"target":"right","response":"right","rt":319.30000001192,"correct":true,"confidence":2},{"trial_n":181,"n_dots":3.55,"target":"left","response":"left","rt":855.70000001788,"correct":true,"confidence":3},{"trial_n":182,"n_dots":3.45,"target":"right","response":"right","rt":497.20000001788,"correct":true,"confidence":3},{"trial_n":183,"n_dots":3.45,"target":"right","response":"right","rt":935.59999999404,"correct":true,"confidence":2},{"trial_n":184,"n_dots":3.35,"target":"left","response":"left","rt":937.90000000596,"correct":true,"confidence":2},{"trial_n":185,"n_dots":3.35,"target":"right","response":"right","rt":330.40000000596,"correct":true,"confidence":2},{"trial_n":186,"n_dots":3.25,"target":"left","response":"left","rt":1169.7000000179,"correct":true,"confidence":2},{"trial_n":187,"n_dots":3.25,"target":"left","response":"left","rt":2720.400000006,"correct":true,"confidence":2},{"trial_n":188,"n_dots":3.15,"target":"right","response":"right","rt":1143.599999994,"correct":true,"confidence":2},{"trial_n":189,"n_dots":3.15,"target":"left","response":"left","rt":1106.6000000238,"correct":true,"confidence":2},{"trial_n":190,"n_dots":3.05,"target":"right","response":"left","rt":3483.1000000238,"correct":false,"confidence":2},{"trial_n":191,"n_dots":3.15,"target":"right","response":"right","rt":1163.7000000179,"correct":true,"confidence":1},{"trial_n":192,"n_dots":3.15,"target":"right","response":"left","rt":567.59999999404,"correct":false,"confidence":1},{"trial_n":193,"n_dots":3.25,"target":"left","response":"left","rt":487.19999998808,"correct":true,"confidence":1},{"trial_n":194,"n_dots":3.25,"target":"left","response":"left","rt":1186.6000000238,"correct":true,"confidence":2}]