[{"trial_n":1,"n_dots":4.25,"target":"right","response":"right","rt":15370.899999976,"correct":true,"confidence":-1},{"trial_n":2,"n_dots":4.25,"target":"left","response":"left","rt":1359.5,"correct":true,"confidence":-1},{"trial_n":3,"n_dots":3.85,"target":"right","response":"right","rt":674.09999996424,"correct":true,"confidence":-1},{"trial_n":4,"n_dots":3.85,"target":"right","response":"right","rt":760.69999998808,"correct":true,"confidence":-1},{"trial_n":5,"n_dots":3.45,"target":"right","response":"right","rt":2862.1000000238,"correct":true,"confidence":-1},{"trial_n":6,"n_dots":3.45,"target":"left","response":"left","rt":1962,"correct":true,"confidence":-1},{"trial_n":7,"n_dots":3.05,"target":"right","response":"right","rt":1631.6000000238,"correct":true,"confidence":-1},{"trial_n":8,"n_dots":3.05,"target":"right","response":"left","rt":1570,"correct":false,"confidence":-1},{"trial_n":9,"n_dots":3.25,"target":"right","response":"right","rt":1482.6999999881,"correct":true,"confidence":-1},{"trial_n":10,"n_dots":3.25,"target":"left","response":"left","rt":853.70000004768,"correct":true,"confidence":-1},{"trial_n":11,"n_dots":3.05,"target":"left","response":"left","rt":789.30000001192,"correct":true,"confidence":-1},{"trial_n":12,"n_dots":3.05,"target":"right","response":"right","rt":595,"correct":true,"confidence":-1},{"trial_n":13,"n_dots":2.95,"target":"right","response":"left","rt":754.89999997616,"correct":false,"confidence":-1},{"trial_n":14,"n_dots":3.05,"target":"left","response":"left","rt":319.59999996424,"correct":true,"confidence":-1},{"trial_n":15,"n_dots":3.05,"target":"left","response":"left","rt":422.10000002384,"correct":true,"confidence":-1},{"trial_n":16,"n_dots":2.95,"target":"left","response":"left","rt":420.5,"correct":true,"confidence":-1},{"trial_n":17,"n_dots":2.95,"target":"right","response":"right","rt":507.89999997616,"correct":true,"confidence":-1},{"trial_n":18,"n_dots":2.85,"target":"right","response":"left","rt":442.59999996424,"correct":false,"confidence":-1},{"trial_n":19,"n_dots":2.95,"target":"right","response":"left","rt":447,"correct":false,"confidence":-1},{"trial_n":20,"n_dots":3.05,"target":"right","response":"right","rt":463.80000001192,"correct":true,"confidence":-1},{"trial_n":21,"n_dots":3.05,"target":"left","response":"left","rt":388.59999996424,"correct":true,"confidence":-1},{"trial_n":22,"n_dots":2.95,"target":"left","response":"right","rt":722.60000002384,"correct":false,"confidence":-1},{"trial_n":23,"n_dots":3.05,"target":"right","response":"right","rt":376.5,"correct":true,"confidence":-1},{"trial_n":24,"n_dots":3.05,"target":"left","response":"left","rt":633.69999998808,"correct":true,"confidence":-1},{"trial_n":25,"n_dots":2.95,"target":"right","response":"right","rt":732.5,"correct":true,"confidence":-1},{"trial_n":26,"n_dots":2.95,"target":"right","response":"left","rt":498.89999997616,"correct":false,"confidence":-1},{"trial_n":27,"n_dots":3.05,"target":"right","response":"right","rt":853.20000004768,"correct":true,"confidence":3},{"trial_n":28,"n_dots":3.05,"target":"right","response":"right","rt":1281.6999999881,"correct":true,"confidence":3},{"trial_n":29,"n_dots":2.95,"target":"left","response":"left","rt":2665,"correct":true,"confidence":4},{"trial_n":30,"n_dots":2.95,"target":"right","response":"right","rt":1427.5,"correct":true,"confidence":3},{"trial_n":31,"n_dots":2.85,"target":"right","response":"right","rt":1197.6999999881,"correct":true,"confidence":4},{"trial_n":32,"n_dots":2.85,"target":"right","response":"left","rt":2550.8999999762,"correct":false,"confidence":3},{"trial_n":33,"n_dots":2.95,"target":"left","response":"left","rt":1392,"correct":true,"confidence":2},{"trial_n":34,"n_dots":2.95,"target":"left","response":"right","rt":1825.8999999762,"correct":false,"confidence":3},{"trial_n":35,"n_dots":3.05,"target":"left","response":"left","rt":3320.0999999642,"correct":true,"confidence":2},{"trial_n":36,"n_dots":3.05,"target":"right","response":"right","rt":1468.2999999523,"correct":true,"confidence":4},{"trial_n":37,"n_dots":2.95,"target":"right","response":"right","rt":1015.0999999642,"correct":true,"confidence":3},{"trial_n":38,"n_dots":2.95,"target":"left","response":"left","rt":890.79999995232,"correct":true,"confidence":2},{"trial_n":39,"n_dots":2.85,"target":"left","response":"right","rt":991.19999998808,"correct":false,"confidence":2},{"trial_n":40,"n_dots":2.95,"target":"right","response":"right","rt":859.30000001192,"correct":true,"confidence":3},{"trial_n":41,"n_dots":2.95,"target":"right","response":"left","rt":1165.5,"correct":false,"confidence":2},{"trial_n":42,"n_dots":3.05,"target":"left","response":"right","rt":759.80000001192,"correct":false,"confidence":4},{"trial_n":43,"n_dots":3.15,"target":"left","response":"left","rt":1517,"correct":true,"confidence":4},{"trial_n":44,"n_dots":3.15,"target":"left","response":"left","rt":2404.7999999523,"correct":true,"confidence":3},{"trial_n":45,"n_dots":3.05,"target":"right","response":"right","rt":1623.1999999881,"correct":true,"confidence":4},{"trial_n":46,"n_dots":3.05,"target":"left","response":"left","rt":1417.6999999881,"correct":true,"confidence":3},{"trial_n":47,"n_dots":2.95,"target":"left","response":"right","rt":2439.3000000119,"correct":false,"confidence":2},{"trial_n":48,"n_dots":3.05,"target":"right","response":"right","rt":908.80000001192,"correct":true,"confidence":3},{"trial_n":49,"n_dots":3.05,"target":"left","response":"left","rt":1558.8000000119,"correct":true,"confidence":3},{"trial_n":50,"n_dots":2.95,"target":"right","response":"right","rt":678.79999995232,"correct":true,"confidence":4},{"trial_n":51,"n_dots":2.95,"target":"right","response":"left","rt":976.5,"correct":false,"confidence":3},{"trial_n":52,"n_dots":3.05,"target":"left","response":"left","rt":1200.0999999642,"correct":true,"confidence":2},{"trial_n":53,"n_dots":3.05,"target":"right","response":"right","rt":1907.2000000477,"correct":true,"confidence":2},{"trial_n":54,"n_dots":2.95,"target":"right","response":"right","rt":2911.8000000119,"correct":true,"confidence":1},{"trial_n":55,"n_dots":2.95,"target":"left","response":"left","rt":3600.5,"correct":true,"confidence":1},{"trial_n":56,"n_dots":2.85,"target":"left","response":"right","rt":878.60000002384,"correct":false,"confidence":4},{"trial_n":57,"n_dots":2.95,"target":"right","response":"right","rt":861.90000003576,"correct":true,"confidence":3},{"trial_n":58,"n_dots":2.95,"target":"left","response":"right","rt":707.30000001192,"correct":false,"confidence":3},{"trial_n":59,"n_dots":3.05,"target":"left","response":"left","rt":920.89999997616,"correct":true,"confidence":2},{"trial_n":60,"n_dots":3.05,"target":"left","response":"right","rt":1285.8000000119,"correct":false,"confidence":2},{"trial_n":61,"n_dots":3.15,"target":"right","response":"right","rt":1241.3000000119,"correct":true,"confidence":4},{"trial_n":62,"n_dots":3.15,"target":"right","response":"right","rt":2056.2000000477,"correct":true,"confidence":2},{"trial_n":63,"n_dots":3.05,"target":"left","response":"left","rt":1330.7999999523,"correct":true,"confidence":1},{"trial_n":64,"n_dots":3.05,"target":"right","response":"right","rt":1072.3999999762,"correct":true,"confidence":3},{"trial_n":65,"n_dots":2.95,"target":"left","response":"left","rt":741.09999996424,"correct":true,"confidence":2},{"trial_n":66,"n_dots":2.95,"target":"right","response":"right","rt":670.69999998808,"correct":true,"confidence":3},{"trial_n":67,"n_dots":2.85,"target":"left","response":"left","rt":1776.5,"correct":true,"confidence":1},{"trial_n":68,"n_dots":2.85,"target":"left","response":"left","rt":1047.8999999762,"correct":true,"confidence":4},{"trial_n":69,"n_dots":2.75,"target":"right","response":"right","rt":735.30000001192,"correct":true,"confidence":2},{"trial_n":70,"n_dots":2.75,"target":"right","response":"left","rt":670.5,"correct":false,"confidence":1},{"trial_n":71,"n_dots":2.85,"target":"left","response":"right","rt":657.39999997616,"correct":false,"confidence":2},{"trial_n":72,"n_dots":2.95,"target":"right","response":"right","rt":898.09999996424,"correct":true,"confidence":3},{"trial_n":73,"n_dots":2.95,"target":"left","response":"right","rt":1726.4000000358,"correct":false,"confidence":2},{"trial_n":74,"n_dots":3.05,"target":"right","response":"right","rt":1298.5,"correct":true,"confidence":2},{"trial_n":75,"n_dots":3.05,"target":"right","response":"left","rt":874.80000001192,"correct":false,"confidence":2},{"trial_n":76,"n_dots":3.15,"target":"right","response":"left","rt":1005.8000000119,"correct":false,"confidence":2},{"trial_n":77,"n_dots":3.25,"target":"left","response":"right","rt":1135.6999999881,"correct":false,"confidence":2},{"trial_n":78,"n_dots":3.35,"target":"right","response":"right","rt":1638.3000000119,"correct":true,"confidence":2},{"trial_n":79,"n_dots":3.35,"target":"left","response":"left","rt":1701.8000000119,"correct":true,"confidence":3},{"trial_n":80,"n_dots":3.25,"target":"left","response":"left","rt":826.69999998808,"correct":true,"confidence":2},{"trial_n":81,"n_dots":3.25,"target":"left","response":"right","rt":1009.7000000477,"correct":false,"confidence":3},{"trial_n":82,"n_dots":3.35,"target":"right","response":"right","rt":983.40000003576,"correct":true,"confidence":3},{"trial_n":83,"n_dots":3.35,"target":"left","response":"left","rt":827.89999997616,"correct":true,"confidence":2},{"trial_n":84,"n_dots":3.25,"target":"left","response":"left","rt":1066,"correct":true,"confidence":2},{"trial_n":85,"n_dots":3.25,"target":"right","response":"right","rt":779.5,"correct":true,"confidence":3},{"trial_n":86,"n_dots":3.15,"target":"left","response":"right","rt":915.5,"correct":false,"confidence":3},{"trial_n":87,"n_dots":3.25,"target":"left","response":"left","rt":899.09999996424,"correct":true,"confidence":1},{"trial_n":88,"n_dots":3.25,"target":"left","response":"left","rt":1007.3999999762,"correct":true,"confidence":1},{"trial_n":89,"n_dots":3.15,"target":"left","response":"right","rt":906.30000001192,"correct":false,"confidence":3},{"trial_n":90,"n_dots":3.25,"target":"left","response":"left","rt":731.39999997616,"correct":true,"confidence":4},{"trial_n":91,"n_dots":3.25,"target":"right","response":"right","rt":1036.6999999881,"correct":true,"confidence":3},{"trial_n":92,"n_dots":3.15,"target":"right","response":"right","rt":872.5,"correct":true,"confidence":3},{"trial_n":93,"n_dots":3.15,"target":"left","response":"right","rt":2154.5,"correct":false,"confidence":3},{"trial_n":94,"n_dots":3.25,"target":"right","response":"right","rt":981.59999996424,"correct":true,"confidence":1},{"trial_n":95,"n_dots":3.25,"target":"left","response":"right","rt":1929.3000000119,"correct":false,"confidence":2},{"trial_n":96,"n_dots":3.35,"target":"left","response":"left","rt":1075.1000000238,"correct":true,"confidence":1},{"trial_n":97,"n_dots":3.35,"target":"right","response":"right","rt":1567.5,"correct":true,"confidence":4},{"trial_n":98,"n_dots":3.25,"target":"right","response":"right","rt":2368.8999999762,"correct":true,"confidence":2},{"trial_n":99,"n_dots":3.25,"target":"left","response":"left","rt":919.09999996424,"correct":true,"confidence":3},{"trial_n":100,"n_dots":3.15,"target":"left","response":"right","rt":1720.8999999762,"correct":false,"confidence":3},{"trial_n":101,"n_dots":3.25,"target":"right","response":"right","rt":1238.2999999523,"correct":true,"confidence":2},{"trial_n":102,"n_dots":3.25,"target":"left","response":"right","rt":1781.5,"correct":false,"confidence":2},{"trial_n":103,"n_dots":3.35,"target":"left","response":"left","rt":1462.3000000119,"correct":true,"confidence":1},{"trial_n":104,"n_dots":3.35,"target":"right","response":"right","rt":1659,"correct":true,"confidence":1},{"trial_n":105,"n_dots":3.25,"target":"right","response":"left","rt":1061.4000000358,"correct":false,"confidence":2},{"trial_n":106,"n_dots":3.35,"target":"right","response":"right","rt":1587.3999999762,"correct":true,"confidence":4},{"trial_n":107,"n_dots":3.35,"target":"right","response":"right","rt":1010.5,"correct":true,"confidence":2},{"trial_n":108,"n_dots":3.25,"target":"left","response":"left","rt":1735.5,"correct":true,"confidence":3},{"trial_n":109,"n_dots":3.25,"target":"left","response":"left","rt":937.60000002384,"correct":true,"confidence":2},{"trial_n":110,"n_dots":3.15,"target":"right","response":"right","rt":960.30000001192,"correct":true,"confidence":2},{"trial_n":111,"n_dots":3.15,"target":"right","response":"right","rt":886.30000001192,"correct":true,"confidence":2},{"trial_n":112,"n_dots":3.05,"target":"right","response":"right","rt":1659.8999999762,"correct":true,"confidence":1},{"trial_n":113,"n_dots":3.05,"target":"right","response":"left","rt":692.59999996424,"correct":false,"confidence":1},{"trial_n":114,"n_dots":3.15,"target":"left","response":"left","rt":1140.5,"correct":true,"confidence":2},{"trial_n":115,"n_dots":3.15,"target":"left","response":"left","rt":1111.5,"correct":true,"confidence":3},{"trial_n":116,"n_dots":3.05,"target":"left","response":"right","rt":1402.6000000238,"correct":false,"confidence":1},{"trial_n":117,"n_dots":3.15,"target":"left","response":"left","rt":949.80000001192,"correct":true,"confidence":2},{"trial_n":118,"n_dots":3.15,"target":"left","response":"left","rt":1050.6999999881,"correct":true,"confidence":2},{"trial_n":119,"n_dots":3.05,"target":"right","response":"right","rt":1117.1999999881,"correct":true,"confidence":2},{"trial_n":120,"n_dots":3.05,"target":"right","response":"right","rt":969.69999998808,"correct":true,"confidence":2},{"trial_n":121,"n_dots":2.95,"target":"left","response":"right","rt":2895.8999999762,"correct":false,"confidence":3},{"trial_n":122,"n_dots":3.05,"target":"right","response":"left","rt":1458.3000000119,"correct":false,"confidence":2},{"trial_n":123,"n_dots":3.15,"target":"right","response":"right","rt":879.5,"correct":true,"confidence":2},{"trial_n":124,"n_dots":3.15,"target":"right","response":"right","rt":1534.9000000358,"correct":true,"confidence":2},{"trial_n":125,"n_dots":3.05,"target":"right","response":"left","rt":1137.5,"correct":false,"confidence":2},{"trial_n":126,"n_dots":3.15,"target":"right","response":"right","rt":1101.5,"correct":true,"confidence":2},{"trial_n":127,"n_dots":3.15,"target":"left","response":"left","rt":1347.6999999881,"correct":true,"confidence":2},{"trial_n":128,"n_dots":3.05,"target":"left","response":"right","rt":1185.3000000119,"correct":false,"confidence":2},{"trial_n":129,"n_dots":3.15,"target":"left","response":"left","rt":1024.1999999881,"correct":true,"confidence":1},{"trial_n":130,"n_dots":3.15,"target":"right","response":"right","rt":1125.6999999881,"correct":true,"confidence":1},{"trial_n":131,"n_dots":3.05,"target":"left","response":"left","rt":1298.1999999881,"correct":true,"confidence":2},{"trial_n":132,"n_dots":3.05,"target":"right","response":"right","rt":1008.8999999762,"correct":true,"confidence":1},{"trial_n":133,"n_dots":2.95,"target":"left","response":"right","rt":1155,"correct":false,"confidence":3},{"trial_n":134,"n_dots":3.05,"target":"right","response":"right","rt":1084,"correct":true,"confidence":1},{"trial_n":135,"n_dots":3.05,"target":"right","response":"left","rt":1087.7000000477,"correct":false,"confidence":1},{"trial_n":136,"n_dots":3.15,"target":"left","response":"right","rt":1042,"correct":false,"confidence":3},{"trial_n":137,"n_dots":3.25,"target":"left","response":"left","rt":1461.3000000119,"correct":true,"confidence":1},{"trial_n":138,"n_dots":3.25,"target":"right","response":"right","rt":1469.7000000477,"correct":true,"confidence":1},{"trial_n":139,"n_dots":3.15,"target":"right","response":"right","rt":1369.6000000238,"correct":true,"confidence":1},{"trial_n":140,"n_dots":3.15,"target":"right","response":"right","rt":1094.6999999881,"correct":true,"confidence":3},{"trial_n":141,"n_dots":3.05,"target":"right","response":"right","rt":1237.8999999762,"correct":true,"confidence":4},{"trial_n":142,"n_dots":3.05,"target":"right","response":"right","rt":1140.3999999762,"correct":true,"confidence":4},{"trial_n":143,"n_dots":2.95,"target":"right","response":"right","rt":1858.8999999762,"correct":true,"confidence":1},{"trial_n":144,"n_dots":2.95,"target":"right","response":"right","rt":1553.8000000119,"correct":true,"confidence":1},{"trial_n":145,"n_dots":2.85,"target":"left","response":"left","rt":1134.3999999762,"correct":true,"confidence":2},{"trial_n":146,"n_dots":2.85,"target":"left","response":"left","rt":1120.5,"correct":true,"confidence":2},{"trial_n":147,"n_dots":2.75,"target":"right","response":"left","rt":1264.5,"correct":false,"confidence":2},{"trial_n":148,"n_dots":2.85,"target":"right","response":"right","rt":931.10000002384,"correct":true,"confidence":3},{"trial_n":149,"n_dots":2.85,"target":"left","response":"left","rt":1015,"correct":true,"confidence":2},{"trial_n":150,"n_dots":2.75,"target":"left","response":"right","rt":1403,"correct":false,"confidence":3},{"trial_n":151,"n_dots":2.85,"target":"right","response":"right","rt":1103.5,"correct":true,"confidence":3},{"trial_n":152,"n_dots":2.85,"target":"left","response":"left","rt":1095.3999999762,"correct":true,"confidence":4},{"trial_n":153,"n_dots":2.75,"target":"right","response":"right","rt":996.09999996424,"correct":true,"confidence":4},{"trial_n":154,"n_dots":2.75,"target":"left","response":"left","rt":1355.5999999642,"correct":true,"confidence":3},{"trial_n":155,"n_dots":2.65,"target":"right","response":"right","rt":1314.1999999881,"correct":true,"confidence":2},{"trial_n":156,"n_dots":2.65,"target":"left","response":"left","rt":1416.2000000477,"correct":true,"confidence":2},{"trial_n":157,"n_dots":2.55,"target":"left","response":"right","rt":1243.3000000119,"correct":false,"confidence":1},{"trial_n":158,"n_dots":2.65,"target":"left","response":"left","rt":1519.8000000119,"correct":true,"confidence":3},{"trial_n":159,"n_dots":2.65,"target":"left","response":"right","rt":1065.6999999881,"correct":false,"confidence":3},{"trial_n":160,"n_dots":2.75,"target":"left","response":"left","rt":1007.1999999881,"correct":true,"confidence":3},{"trial_n":161,"n_dots":2.75,"target":"left","response":"right","rt":1152.1999999881,"correct":false,"confidence":3},{"trial_n":162,"n_dots":2.85,"target":"left","response":"left","rt":1138.3000000119,"correct":true,"confidence":2},{"trial_n":163,"n_dots":2.85,"target":"left","response":"left","rt":1117.2000000477,"correct":true,"confidence":3},{"trial_n":164,"n_dots":2.75,"target":"left","response":"left","rt":1640.6999999881,"correct":true,"confidence":4},{"trial_n":165,"n_dots":2.75,"target":"right","response":"right","rt":1817.1000000238,"correct":true,"confidence":4},{"trial_n":166,"n_dots":2.65,"target":"left","response":"left","rt":1194.0999999642,"correct":true,"confidence":4},{"trial_n":167,"n_dots":2.65,"target":"right","response":"right","rt":2057.2000000477,"correct":true,"confidence":3},{"trial_n":168,"n_dots":2.55,"target":"right","response":"left","rt":1055.8000000119,"correct":false,"confidence":3},{"trial_n":169,"n_dots":2.65,"target":"left","response":"right","rt":1228,"correct":false,"confidence":3},{"trial_n":170,"n_dots":2.75,"target":"left","response":"right","rt":1063.1999999881,"correct":false,"confidence":3},{"trial_n":171,"n_dots":2.85,"target":"right","response":"right","rt":1257.5,"correct":true,"confidence":3},{"trial_n":172,"n_dots":2.85,"target":"left","response":"left","rt":1138.0999999642,"correct":true,"confidence":4},{"trial_n":173,"n_dots":2.75,"target":"left","response":"left","rt":1794.8000000119,"correct":true,"confidence":3},{"trial_n":174,"n_dots":2.75,"target":"left","response":"right","rt":1504.6999999881,"correct":false,"confidence":3},{"trial_n":175,"n_dots":2.85,"target":"right","response":"right","rt":704.69999998808,"correct":true,"confidence":4},{"trial_n":176,"n_dots":2.85,"target":"left","response":"left","rt":1751.6999999881,"correct":true,"confidence":4},{"trial_n":177,"n_dots":2.75,"target":"right","response":"right","rt":1160.0999999642,"correct":true,"confidence":1},{"trial_n":178,"n_dots":2.75,"target":"right","response":"right","rt":996.10000002384,"correct":true,"confidence":1},{"trial_n":179,"n_dots":2.65,"target":"right","response":"left","rt":1055.8000000119,"correct":false,"confidence":2},{"trial_n":180,"n_dots":2.75,"target":"right","response":"right","rt":790.19999998808,"correct":true,"confidence":2},{"trial_n":181,"n_dots":2.75,"target":"left","response":"left","rt":1083.1999999881,"correct":true,"confidence":2},{"trial_n":182,"n_dots":2.65,"target":"right","response":"right","rt":1079.6999999881,"correct":true,"confidence":2},{"trial_n":183,"n_dots":2.65,"target":"left","response":"left","rt":1152.8999999762,"correct":true,"confidence":2},{"trial_n":184,"n_dots":2.55,"target":"left","response":"left","rt":1519.6999999881,"correct":true,"confidence":2},{"trial_n":185,"n_dots":2.55,"target":"right","response":"right","rt":952.80000001192,"correct":true,"confidence":3},{"trial_n":186,"n_dots":2.45,"target":"right","response":"left","rt":1130.6000000238,"correct":false,"confidence":2},{"trial_n":187,"n_dots":2.55,"target":"left","response":"right","rt":1546.2999999523,"correct":false,"confidence":2},{"trial_n":188,"n_dots":2.65,"target":"right","response":"right","rt":761.80000001192,"correct":true,"confidence":2},{"trial_n":189,"n_dots":2.65,"target":"right","response":"left","rt":864.5,"correct":false,"confidence":3},{"trial_n":190,"n_dots":2.75,"target":"left","response":"right","rt":923.79999995232,"correct":false,"confidence":2},{"trial_n":191,"n_dots":2.85,"target":"left","response":"left","rt":970.39999997616,"correct":true,"confidence":2},{"trial_n":192,"n_dots":2.85,"target":"left","response":"left","rt":1263.4000000358,"correct":true,"confidence":2},{"trial_n":193,"n_dots":2.75,"target":"left","response":"left","rt":1084.4000000358,"correct":true,"confidence":2},{"trial_n":194,"n_dots":2.75,"target":"right","response":"right","rt":983.19999998808,"correct":true,"confidence":3}]