[{"trial_n":1,"n_dots":4.25,"target":"left","response":"left","rt":3364.3999999762,"correct":true,"confidence":-1},{"trial_n":2,"n_dots":4.25,"target":"right","response":"right","rt":1987.5,"correct":true,"confidence":-1},{"trial_n":3,"n_dots":3.85,"target":"left","response":"right","rt":820.60000002384,"correct":false,"confidence":-1},{"trial_n":4,"n_dots":4.25,"target":"left","response":"right","rt":347.60000002384,"correct":false,"confidence":-1},{"trial_n":5,"n_dots":4.65,"target":"left","response":"left","rt":264.29999995232,"correct":true,"confidence":-1},{"trial_n":6,"n_dots":4.65,"target":"right","response":"right","rt":461.80000001192,"correct":true,"confidence":-1},{"trial_n":7,"n_dots":4.25,"target":"left","response":"left","rt":1012.0999999642,"correct":true,"confidence":-1},{"trial_n":8,"n_dots":4.25,"target":"right","response":"right","rt":470.59999996424,"correct":true,"confidence":-1},{"trial_n":9,"n_dots":4.05,"target":"right","response":"right","rt":323.5,"correct":true,"confidence":-1},{"trial_n":10,"n_dots":4.05,"target":"right","response":"right","rt":262,"correct":true,"confidence":-1},{"trial_n":11,"n_dots":3.85,"target":"right","response":"right","rt":114.80000001192,"correct":true,"confidence":-1},{"trial_n":12,"n_dots":3.85,"target":"left","response":"left","rt":315,"correct":true,"confidence":-1},{"trial_n":13,"n_dots":3.75,"target":"left","response":"left","rt":285.69999998808,"correct":true,"confidence":-1},{"trial_n":14,"n_dots":3.75,"target":"right","response":"right","rt":306.30000001192,"correct":true,"confidence":-1},{"trial_n":15,"n_dots":3.65,"target":"left","response":"right","rt":230.70000004768,"correct":false,"confidence":-1},{"trial_n":16,"n_dots":3.75,"target":"left","response":"left","rt":72.699999988079,"correct":true,"confidence":-1},{"trial_n":17,"n_dots":3.75,"target":"left","response":"left","rt":209.19999998808,"correct":true,"confidence":-1},{"trial_n":18,"n_dots":3.65,"target":"right","response":"right","rt":278.40000003576,"correct":true,"confidence":-1},{"trial_n":19,"n_dots":3.65,"target":"left","response":"left","rt":106.30000001192,"correct":true,"confidence":-1},{"trial_n":20,"n_dots":3.55,"target":"right","response":"left","rt":206.59999996424,"correct":false,"confidence":-1},{"trial_n":21,"n_dots":3.65,"target":"left","response":"left","rt":708.60000002384,"correct":true,"confidence":-1},{"trial_n":22,"n_dots":3.65,"target":"right","response":"right","rt":242,"correct":true,"confidence":-1},{"trial_n":23,"n_dots":3.55,"target":"left","response":"right","rt":300.30000001192,"correct":false,"confidence":-1},{"trial_n":24,"n_dots":3.65,"target":"right","response":"right","rt":336.19999998808,"correct":true,"confidence":-1},{"trial_n":25,"n_dots":3.65,"target":"left","response":"left","rt":223.69999998808,"correct":true,"confidence":-1},{"trial_n":26,"n_dots":3.55,"target":"left","response":"left","rt":316.20000004768,"correct":true,"confidence":-1},{"trial_n":27,"n_dots":3.55,"target":"right","response":"right","rt":707,"correct":true,"confidence":3},{"trial_n":28,"n_dots":3.45,"target":"right","response":"right","rt":754.89999997616,"correct":true,"confidence":3},{"trial_n":29,"n_dots":3.45,"target":"right","response":"left","rt":1074.1999999881,"correct":false,"confidence":3},{"trial_n":30,"n_dots":3.55,"target":"left","response":"left","rt":572.5,"correct":true,"confidence":6},{"trial_n":31,"n_dots":3.55,"target":"right","response":"right","rt":637.69999998808,"correct":true,"confidence":4},{"trial_n":32,"n_dots":3.45,"target":"left","response":"left","rt":555.39999997616,"correct":true,"confidence":5},{"trial_n":33,"n_dots":3.45,"target":"left","response":"right","rt":874.89999997616,"correct":false,"confidence":3},{"trial_n":34,"n_dots":3.55,"target":"left","response":"left","rt":557.59999996424,"correct":true,"confidence":5},{"trial_n":35,"n_dots":3.55,"target":"left","response":"left","rt":421,"correct":true,"confidence":4},{"trial_n":36,"n_dots":3.45,"target":"right","response":"right","rt":618.5,"correct":true,"confidence":3},{"trial_n":37,"n_dots":3.45,"target":"left","response":"left","rt":508.80000001192,"correct":true,"confidence":4},{"trial_n":38,"n_dots":3.35,"target":"left","response":"left","rt":530.30000001192,"correct":true,"confidence":3},{"trial_n":39,"n_dots":3.35,"target":"left","response":"left","rt":831.5,"correct":true,"confidence":3},{"trial_n":40,"n_dots":3.25,"target":"left","response":"left","rt":704.30000001192,"correct":true,"confidence":4},{"trial_n":41,"n_dots":3.25,"target":"right","response":"right","rt":882.80000001192,"correct":true,"confidence":3},{"trial_n":42,"n_dots":3.15,"target":"left","response":"left","rt":456.39999997616,"correct":true,"confidence":4},{"trial_n":43,"n_dots":3.15,"target":"left","response":"left","rt":608.39999997616,"correct":true,"confidence":3},{"trial_n":44,"n_dots":3.05,"target":"right","response":"left","rt":590.30000001192,"correct":false,"confidence":2},{"trial_n":45,"n_dots":3.15,"target":"right","response":"left","rt":858.90000003576,"correct":false,"confidence":4},{"trial_n":46,"n_dots":3.25,"target":"left","response":"left","rt":871.10000002384,"correct":true,"confidence":3},{"trial_n":47,"n_dots":3.25,"target":"left","response":"right","rt":2077.8999999762,"correct":false,"confidence":2},{"trial_n":48,"n_dots":3.35,"target":"right","response":"right","rt":807.90000003576,"correct":true,"confidence":4},{"trial_n":49,"n_dots":3.35,"target":"left","response":"left","rt":1087.5,"correct":true,"confidence":4},{"trial_n":50,"n_dots":3.25,"target":"right","response":"right","rt":583.30000001192,"correct":true,"confidence":3},{"trial_n":51,"n_dots":3.25,"target":"left","response":"left","rt":1395,"correct":true,"confidence":3},{"trial_n":52,"n_dots":3.15,"target":"left","response":"left","rt":803.59999996424,"correct":true,"confidence":4},{"trial_n":53,"n_dots":3.15,"target":"right","response":"right","rt":832.10000002384,"correct":true,"confidence":2},{"trial_n":54,"n_dots":3.05,"target":"right","response":"right","rt":2240.5999999642,"correct":true,"confidence":6},{"trial_n":55,"n_dots":3.05,"target":"right","response":"right","rt":2314.6999999881,"correct":true,"confidence":6},{"trial_n":56,"n_dots":2.95,"target":"right","response":"left","rt":709.39999997616,"correct":false,"confidence":3},{"trial_n":57,"n_dots":3.05,"target":"left","response":"left","rt":635.39999997616,"correct":true,"confidence":5},{"trial_n":58,"n_dots":3.05,"target":"left","response":"left","rt":684.19999998808,"correct":true,"confidence":4},{"trial_n":59,"n_dots":2.95,"target":"left","response":"right","rt":1907.6000000238,"correct":false,"confidence":3},{"trial_n":60,"n_dots":3.05,"target":"right","response":"right","rt":1004.5,"correct":true,"confidence":3},{"trial_n":61,"n_dots":3.05,"target":"left","response":"left","rt":865.90000003576,"correct":true,"confidence":4},{"trial_n":62,"n_dots":2.95,"target":"right","response":"left","rt":808.19999998808,"correct":false,"confidence":3},{"trial_n":63,"n_dots":3.05,"target":"left","response":"right","rt":723.59999996424,"correct":false,"confidence":4},{"trial_n":64,"n_dots":3.15,"target":"left","response":"left","rt":2350.1999999881,"correct":true,"confidence":3},{"trial_n":65,"n_dots":3.15,"target":"left","response":"left","rt":1173,"correct":true,"confidence":4},{"trial_n":66,"n_dots":3.05,"target":"right","response":"right","rt":634.5,"correct":true,"confidence":3},{"trial_n":67,"n_dots":3.05,"target":"left","response":"right","rt":744.40000003576,"correct":false,"confidence":4},{"trial_n":68,"n_dots":3.15,"target":"left","response":"left","rt":486.5,"correct":true,"confidence":4},{"trial_n":69,"n_dots":3.15,"target":"left","response":"left","rt":321.5,"correct":true,"confidence":3},{"trial_n":70,"n_dots":3.05,"target":"right","response":"left","rt":358.39999997616,"correct":false,"confidence":4},{"trial_n":71,"n_dots":3.15,"target":"right","response":"left","rt":114.30000001192,"correct":false,"confidence":3},{"trial_n":72,"n_dots":3.25,"target":"right","response":"right","rt":573.39999997616,"correct":true,"confidence":6},{"trial_n":73,"n_dots":3.25,"target":"right","response":"right","rt":714,"correct":true,"confidence":4},{"trial_n":74,"n_dots":3.15,"target":"left","response":"right","rt":1109.2000000477,"correct":false,"confidence":4},{"trial_n":75,"n_dots":3.25,"target":"left","response":"left","rt":617.19999998808,"correct":true,"confidence":3},{"trial_n":76,"n_dots":3.25,"target":"left","response":"left","rt":250.90000003576,"correct":true,"confidence":5},{"trial_n":77,"n_dots":3.15,"target":"right","response":"right","rt":755.09999996424,"correct":true,"confidence":3},{"trial_n":78,"n_dots":3.15,"target":"left","response":"left","rt":725.19999998808,"correct":true,"confidence":5},{"trial_n":79,"n_dots":3.05,"target":"left","response":"left","rt":1149,"correct":true,"confidence":5},{"trial_n":80,"n_dots":3.05,"target":"left","response":"right","rt":1270.1999999881,"correct":false,"confidence":4},{"trial_n":81,"n_dots":3.15,"target":"right","response":"left","rt":1382.5,"correct":false,"confidence":5},{"trial_n":82,"n_dots":3.25,"target":"right","response":"left","rt":1019.6999999881,"correct":false,"confidence":3},{"trial_n":83,"n_dots":3.35,"target":"left","response":"left","rt":708.5,"correct":true,"confidence":4},{"trial_n":84,"n_dots":3.35,"target":"right","response":"right","rt":746.40000003576,"correct":true,"confidence":4},{"trial_n":85,"n_dots":3.25,"target":"right","response":"left","rt":736.70000004768,"correct":false,"confidence":3},{"trial_n":86,"n_dots":3.35,"target":"right","response":"left","rt":844.69999998808,"correct":false,"confidence":4},{"trial_n":87,"n_dots":3.45,"target":"right","response":"right","rt":686.10000002384,"correct":true,"confidence":3},{"trial_n":88,"n_dots":3.45,"target":"left","response":"left","rt":292,"correct":true,"confidence":3},{"trial_n":89,"n_dots":3.35,"target":"left","response":"left","rt":2596,"correct":true,"confidence":3},{"trial_n":90,"n_dots":3.35,"target":"left","response":"left","rt":499.10000002384,"correct":true,"confidence":4},{"trial_n":91,"n_dots":3.25,"target":"left","response":"left","rt":937.5,"correct":true,"confidence":3},{"trial_n":92,"n_dots":3.25,"target":"right","response":"right","rt":880.10000002384,"correct":true,"confidence":3},{"trial_n":93,"n_dots":3.15,"target":"right","response":"right","rt":757.40000003576,"correct":true,"confidence":2},{"trial_n":94,"n_dots":3.15,"target":"left","response":"left","rt":759.09999996424,"correct":true,"confidence":4},{"trial_n":95,"n_dots":3.05,"target":"right","response":"right","rt":734.39999997616,"correct":true,"confidence":5},{"trial_n":96,"n_dots":3.05,"target":"right","response":"right","rt":653.69999998808,"correct":true,"confidence":6},{"trial_n":97,"n_dots":2.95,"target":"right","response":"right","rt":574.30000001192,"correct":true,"confidence":6},{"trial_n":98,"n_dots":2.95,"target":"left","response":"right","rt":1042,"correct":false,"confidence":3},{"trial_n":99,"n_dots":3.05,"target":"right","response":"left","rt":664.69999998808,"correct":false,"confidence":3},{"trial_n":100,"n_dots":3.15,"target":"right","response":"left","rt":1270.6999999881,"correct":false,"confidence":4},{"trial_n":101,"n_dots":3.25,"target":"right","response":"right","rt":378.30000001192,"correct":true,"confidence":6},{"trial_n":102,"n_dots":3.25,"target":"right","response":"right","rt":500.5,"correct":true,"confidence":4},{"trial_n":103,"n_dots":3.15,"target":"right","response":"right","rt":762.80000001192,"correct":true,"confidence":4},{"trial_n":104,"n_dots":3.15,"target":"left","response":"left","rt":381.30000001192,"correct":true,"confidence":4},{"trial_n":105,"n_dots":3.05,"target":"left","response":"left","rt":1111.5,"correct":true,"confidence":3},{"trial_n":106,"n_dots":3.05,"target":"right","response":"right","rt":2630.8000000119,"correct":true,"confidence":4},{"trial_n":107,"n_dots":2.95,"target":"left","response":"right","rt":974.80000001192,"correct":false,"confidence":4},{"trial_n":108,"n_dots":3.05,"target":"right","response":"left","rt":822.80000001192,"correct":false,"confidence":3},{"trial_n":109,"n_dots":3.15,"target":"left","response":"right","rt":671.89999997616,"correct":false,"confidence":5},{"trial_n":110,"n_dots":3.25,"target":"right","response":"right","rt":485.69999998808,"correct":true,"confidence":4},{"trial_n":111,"n_dots":3.25,"target":"right","response":"right","rt":471.19999998808,"correct":true,"confidence":4},{"trial_n":112,"n_dots":3.15,"target":"right","response":"right","rt":341.40000003576,"correct":true,"confidence":4},{"trial_n":113,"n_dots":3.15,"target":"left","response":"right","rt":439.80000001192,"correct":false,"confidence":4},{"trial_n":114,"n_dots":3.25,"target":"left","response":"left","rt":590.30000001192,"correct":true,"confidence":3},{"trial_n":115,"n_dots":3.25,"target":"left","response":"left","rt":542.5,"correct":true,"confidence":1},{"trial_n":116,"n_dots":3.15,"target":"right","response":"right","rt":569.80000001192,"correct":true,"confidence":4},{"trial_n":117,"n_dots":3.15,"target":"right","response":"right","rt":744.89999997616,"correct":true,"confidence":4},{"trial_n":118,"n_dots":3.05,"target":"right","response":"right","rt":1599,"correct":true,"confidence":5},{"trial_n":119,"n_dots":3.05,"target":"left","response":"left","rt":655.30000001192,"correct":true,"confidence":3},{"trial_n":120,"n_dots":2.95,"target":"right","response":"right","rt":505.89999997616,"correct":true,"confidence":4},{"trial_n":121,"n_dots":2.95,"target":"right","response":"left","rt":808.80000001192,"correct":false,"confidence":3},{"trial_n":122,"n_dots":3.05,"target":"right","response":"right","rt":341.59999996424,"correct":true,"confidence":5},{"trial_n":123,"n_dots":3.05,"target":"right","response":"left","rt":1228,"correct":false,"confidence":4},{"trial_n":124,"n_dots":3.15,"target":"left","response":"left","rt":732,"correct":true,"confidence":5},{"trial_n":125,"n_dots":3.15,"target":"left","response":"left","rt":784.69999998808,"correct":true,"confidence":3},{"trial_n":126,"n_dots":3.05,"target":"right","response":"left","rt":1094.6999999881,"correct":false,"confidence":3},{"trial_n":127,"n_dots":3.15,"target":"right","response":"left","rt":644.69999998808,"correct":false,"confidence":3},{"trial_n":128,"n_dots":3.25,"target":"right","response":"right","rt":759.60000002384,"correct":true,"confidence":4},{"trial_n":129,"n_dots":3.25,"target":"left","response":"left","rt":490.39999997616,"correct":true,"confidence":5},{"trial_n":130,"n_dots":3.15,"target":"left","response":"left","rt":1008.8000000119,"correct":true,"confidence":4},{"trial_n":131,"n_dots":3.15,"target":"right","response":"right","rt":1286.8999999762,"correct":true,"confidence":4},{"trial_n":132,"n_dots":3.05,"target":"left","response":"left","rt":401,"correct":true,"confidence":5},{"trial_n":133,"n_dots":3.05,"target":"left","response":"left","rt":582.5,"correct":true,"confidence":4},{"trial_n":134,"n_dots":2.95,"target":"right","response":"right","rt":1340.3000000119,"correct":true,"confidence":3},{"trial_n":135,"n_dots":2.95,"target":"left","response":"left","rt":604.80000001192,"correct":true,"confidence":3},{"trial_n":136,"n_dots":2.85,"target":"left","response":"left","rt":480.29999995232,"correct":true,"confidence":4},{"trial_n":137,"n_dots":2.85,"target":"right","response":"right","rt":1024.6000000238,"correct":true,"confidence":4},{"trial_n":138,"n_dots":2.75,"target":"left","response":"left","rt":447.09999996424,"correct":true,"confidence":3},{"trial_n":139,"n_dots":2.75,"target":"left","response":"left","rt":700.60000002384,"correct":true,"confidence":4},{"trial_n":140,"n_dots":2.65,"target":"right","response":"left","rt":604.19999998808,"correct":false,"confidence":3},{"trial_n":141,"n_dots":2.75,"target":"left","response":"right","rt":1064.1999999881,"correct":false,"confidence":4},{"trial_n":142,"n_dots":2.85,"target":"right","response":"left","rt":786.89999997616,"correct":false,"confidence":4},{"trial_n":143,"n_dots":2.95,"target":"right","response":"right","rt":684.09999996424,"correct":true,"confidence":6},{"trial_n":144,"n_dots":2.95,"target":"right","response":"right","rt":706.19999998808,"correct":true,"confidence":4},{"trial_n":145,"n_dots":2.85,"target":"left","response":"left","rt":1128.6999999881,"correct":true,"confidence":5},{"trial_n":146,"n_dots":2.85,"target":"right","response":"right","rt":494.19999998808,"correct":true,"confidence":3},{"trial_n":147,"n_dots":2.75,"target":"right","response":"right","rt":853.5,"correct":true,"confidence":4},{"trial_n":148,"n_dots":2.75,"target":"right","response":"right","rt":642.69999998808,"correct":true,"confidence":4},{"trial_n":149,"n_dots":2.65,"target":"right","response":"right","rt":982.80000001192,"correct":true,"confidence":3},{"trial_n":150,"n_dots":2.65,"target":"right","response":"left","rt":656.30000001192,"correct":false,"confidence":4},{"trial_n":151,"n_dots":2.75,"target":"left","response":"left","rt":462.80000001192,"correct":true,"confidence":4},{"trial_n":152,"n_dots":2.75,"target":"left","response":"right","rt":705.39999997616,"correct":false,"confidence":4},{"trial_n":153,"n_dots":2.85,"target":"right","response":"left","rt":727.59999996424,"correct":false,"confidence":5},{"trial_n":154,"n_dots":2.95,"target":"left","response":"left","rt":819.09999996424,"correct":true,"confidence":3},{"trial_n":155,"n_dots":2.95,"target":"left","response":"left","rt":625.19999998808,"correct":true,"confidence":4},{"trial_n":156,"n_dots":2.85,"target":"left","response":"left","rt":715.19999998808,"correct":true,"confidence":4},{"trial_n":157,"n_dots":2.85,"target":"right","response":"right","rt":699.70000004768,"correct":true,"confidence":4},{"trial_n":158,"n_dots":2.75,"target":"left","response":"left","rt":818.59999996424,"correct":true,"confidence":4},{"trial_n":159,"n_dots":2.75,"target":"right","response":"left","rt":531.29999995232,"correct":false,"confidence":4},{"trial_n":160,"n_dots":2.85,"target":"left","response":"left","rt":280,"correct":true,"confidence":5},{"trial_n":161,"n_dots":2.85,"target":"right","response":"right","rt":899.5,"correct":true,"confidence":4},{"trial_n":162,"n_dots":2.75,"target":"left","response":"left","rt":702.40000003576,"correct":true,"confidence":6},{"trial_n":163,"n_dots":2.75,"target":"left","response":"left","rt":873.40000003576,"correct":true,"confidence":6},{"trial_n":164,"n_dots":2.65,"target":"right","response":"left","rt":673.30000001192,"correct":false,"confidence":6},{"trial_n":165,"n_dots":2.75,"target":"left","response":"right","rt":1026.4000000358,"correct":false,"confidence":4},{"trial_n":166,"n_dots":2.85,"target":"left","response":"left","rt":420.69999998808,"correct":true,"confidence":6},{"trial_n":167,"n_dots":2.85,"target":"right","response":"right","rt":681.10000002384,"correct":true,"confidence":5},{"trial_n":168,"n_dots":2.75,"target":"right","response":"left","rt":924.30000001192,"correct":false,"confidence":3},{"trial_n":169,"n_dots":2.85,"target":"right","response":"right","rt":777.60000002384,"correct":true,"confidence":5},{"trial_n":170,"n_dots":2.85,"target":"right","response":"left","rt":761.89999997616,"correct":false,"confidence":4},{"trial_n":171,"n_dots":2.95,"target":"left","response":"left","rt":600.59999996424,"correct":true,"confidence":4},{"trial_n":172,"n_dots":2.95,"target":"right","response":"right","rt":1313.3999999762,"correct":true,"confidence":6},{"trial_n":173,"n_dots":2.85,"target":"left","response":"left","rt":522.20000004768,"correct":true,"confidence":6},{"trial_n":174,"n_dots":2.85,"target":"right","response":"right","rt":860.39999997616,"correct":true,"confidence":5},{"trial_n":175,"n_dots":2.75,"target":"left","response":"left","rt":494.89999997616,"correct":true,"confidence":4},{"trial_n":176,"n_dots":2.75,"target":"left","response":"left","rt":421.20000004768,"correct":true,"confidence":4},{"trial_n":177,"n_dots":2.65,"target":"left","response":"left","rt":188.30000001192,"correct":true,"confidence":4},{"trial_n":178,"n_dots":2.65,"target":"right","response":"left","rt":219.30000001192,"correct":false,"confidence":1},{"trial_n":179,"n_dots":2.75,"target":"right","response":"left","rt":296,"correct":false,"confidence":5},{"trial_n":180,"n_dots":2.85,"target":"left","response":"left","rt":452,"correct":true,"confidence":5},{"trial_n":181,"n_dots":2.85,"target":"left","response":"left","rt":872.40000003576,"correct":true,"confidence":5},{"trial_n":182,"n_dots":2.75,"target":"right","response":"left","rt":2630.5,"correct":false,"confidence":4},{"trial_n":183,"n_dots":2.85,"target":"right","response":"right","rt":822.19999998808,"correct":true,"confidence":5},{"trial_n":184,"n_dots":2.85,"target":"right","response":"left","rt":586.09999996424,"correct":false,"confidence":4},{"trial_n":185,"n_dots":2.95,"target":"right","response":"right","rt":467.5,"correct":true,"confidence":6},{"trial_n":186,"n_dots":2.95,"target":"left","response":"left","rt":639.40000003576,"correct":true,"confidence":6},{"trial_n":187,"n_dots":2.85,"target":"left","response":"left","rt":464.10000002384,"correct":true,"confidence":6},{"trial_n":188,"n_dots":2.85,"target":"right","response":"left","rt":694.80000001192,"correct":false,"confidence":5},{"trial_n":189,"n_dots":2.95,"target":"left","response":"left","rt":976.09999996424,"correct":true,"confidence":3},{"trial_n":190,"n_dots":2.95,"target":"right","response":"right","rt":843.80000001192,"correct":true,"confidence":4},{"trial_n":191,"n_dots":2.85,"target":"right","response":"right","rt":1083.3999999762,"correct":true,"confidence":4},{"trial_n":192,"n_dots":2.85,"target":"right","response":"right","rt":484.80000001192,"correct":true,"confidence":5},{"trial_n":193,"n_dots":2.75,"target":"left","response":"left","rt":717.19999998808,"correct":true,"confidence":4},{"trial_n":194,"n_dots":2.75,"target":"left","response":"right","rt":520.70000004768,"correct":false,"confidence":5}]