[{"trial_n":1,"n_dots":4.25,"target":"right","response":"right","rt":3598.9,"correct":true,"confidence":-1},{"trial_n":2,"n_dots":4.25,"target":"right","response":"right","rt":388.20000000001,"correct":true,"confidence":-1},{"trial_n":3,"n_dots":3.85,"target":"left","response":"left","rt":401.20000000001,"correct":true,"confidence":-1},{"trial_n":4,"n_dots":3.85,"target":"left","response":"left","rt":341.70000000001,"correct":true,"confidence":-1},{"trial_n":5,"n_dots":3.45,"target":"left","response":"right","rt":573.40000000002,"correct":false,"confidence":-1},{"trial_n":6,"n_dots":3.85,"target":"left","response":"left","rt":412.89999999997,"correct":true,"confidence":-1},{"trial_n":7,"n_dots":3.85,"target":"right","response":"right","rt":478.59999999998,"correct":true,"confidence":-1},{"trial_n":8,"n_dots":3.65,"target":"left","response":"left","rt":509.40000000002,"correct":true,"confidence":-1},{"trial_n":9,"n_dots":3.65,"target":"left","response":"left","rt":329.20000000001,"correct":true,"confidence":-1},{"trial_n":10,"n_dots":3.45,"target":"right","response":"right","rt":593.30000000005,"correct":true,"confidence":-1},{"trial_n":11,"n_dots":3.45,"target":"left","response":"left","rt":217.29999999999,"correct":true,"confidence":-1},{"trial_n":12,"n_dots":3.25,"target":"right","response":"right","rt":319.5,"correct":true,"confidence":-1},{"trial_n":13,"n_dots":3.25,"target":"right","response":"right","rt":450.5,"correct":true,"confidence":-1},{"trial_n":14,"n_dots":3.15,"target":"right","response":"left","rt":378,"correct":false,"confidence":-1},{"trial_n":15,"n_dots":3.25,"target":"right","response":"right","rt":302.70000000001,"correct":true,"confidence":-1},{"trial_n":16,"n_dots":3.25,"target":"right","response":"left","rt":402.80000000005,"correct":false,"confidence":-1},{"trial_n":17,"n_dots":3.35,"target":"right","response":"right","rt":252.90000000002,"correct":true,"confidence":-1},{"trial_n":18,"n_dots":3.35,"target":"left","response":"left","rt":382.69999999995,"correct":true,"confidence":-1},{"trial_n":19,"n_dots":3.25,"target":"left","response":"left","rt":248,"correct":true,"confidence":-1},{"trial_n":20,"n_dots":3.25,"target":"right","response":"left","rt":266.69999999995,"correct":false,"confidence":-1},{"trial_n":21,"n_dots":3.35,"target":"right","response":"right","rt":608.40000000002,"correct":true,"confidence":-1},{"trial_n":22,"n_dots":3.35,"target":"right","response":"left","rt":620.59999999998,"correct":false,"confidence":-1},{"trial_n":23,"n_dots":3.45,"target":"right","response":"right","rt":367.80000000005,"correct":true,"confidence":-1},{"trial_n":24,"n_dots":3.45,"target":"right","response":"left","rt":352.5,"correct":false,"confidence":-1},{"trial_n":25,"n_dots":3.55,"target":"right","response":"right","rt":333.5,"correct":true,"confidence":-1},{"trial_n":26,"n_dots":3.55,"target":"left","response":"right","rt":2763.8,"correct":false,"confidence":-1},{"trial_n":27,"n_dots":3.65,"target":"right","response":"right","rt":246.80000000005,"correct":true,"confidence":5},{"trial_n":28,"n_dots":3.65,"target":"right","response":"left","rt":943.59999999998,"correct":false,"confidence":4},{"trial_n":29,"n_dots":3.75,"target":"right","response":"right","rt":650,"correct":true,"confidence":6},{"trial_n":30,"n_dots":3.75,"target":"left","response":"left","rt":346.59999999998,"correct":true,"confidence":6},{"trial_n":31,"n_dots":3.65,"target":"right","response":"right","rt":265.40000000002,"correct":true,"confidence":5},{"trial_n":32,"n_dots":3.65,"target":"left","response":"left","rt":1917.7,"correct":true,"confidence":5},{"trial_n":33,"n_dots":3.55,"target":"left","response":"left","rt":1420.1,"correct":true,"confidence":5},{"trial_n":34,"n_dots":3.55,"target":"left","response":"left","rt":1527.4,"correct":true,"confidence":4},{"trial_n":35,"n_dots":3.45,"target":"right","response":"right","rt":1335.2000000001,"correct":true,"confidence":4},{"trial_n":36,"n_dots":3.45,"target":"left","response":"left","rt":746.59999999998,"correct":true,"confidence":6},{"trial_n":37,"n_dots":3.35,"target":"right","response":"right","rt":788.09999999998,"correct":true,"confidence":5},{"trial_n":38,"n_dots":3.35,"target":"left","response":"left","rt":570.89999999991,"correct":true,"confidence":6},{"trial_n":39,"n_dots":3.25,"target":"right","response":"right","rt":607,"correct":true,"confidence":3},{"trial_n":40,"n_dots":3.25,"target":"right","response":"left","rt":418.09999999998,"correct":false,"confidence":1},{"trial_n":41,"n_dots":3.35,"target":"left","response":"left","rt":712.5,"correct":true,"confidence":5},{"trial_n":42,"n_dots":3.35,"target":"right","response":"right","rt":916.80000000005,"correct":true,"confidence":4},{"trial_n":43,"n_dots":3.25,"target":"left","response":"left","rt":1079.6,"correct":true,"confidence":5},{"trial_n":44,"n_dots":3.25,"target":"left","response":"left","rt":390.70000000007,"correct":true,"confidence":6},{"trial_n":45,"n_dots":3.15,"target":"left","response":"left","rt":478.59999999998,"correct":true,"confidence":4},{"trial_n":46,"n_dots":3.15,"target":"right","response":"right","rt":834.30000000005,"correct":true,"confidence":3},{"trial_n":47,"n_dots":3.05,"target":"left","response":"left","rt":744.59999999998,"correct":true,"confidence":4},{"trial_n":48,"n_dots":3.05,"target":"right","response":"left","rt":963.5,"correct":false,"confidence":4},{"trial_n":49,"n_dots":3.15,"target":"left","response":"left","rt":1135.1,"correct":true,"confidence":5},{"trial_n":50,"n_dots":3.15,"target":"right","response":"right","rt":1178.1,"correct":true,"confidence":5},{"trial_n":51,"n_dots":3.05,"target":"left","response":"left","rt":990.20000000007,"correct":true,"confidence":5},{"trial_n":52,"n_dots":3.05,"target":"right","response":"left","rt":739.09999999998,"correct":false,"confidence":4},{"trial_n":53,"n_dots":3.15,"target":"left","response":"left","rt":536.70000000007,"correct":true,"confidence":5},{"trial_n":54,"n_dots":3.15,"target":"right","response":"right","rt":562.90000000002,"correct":true,"confidence":4},{"trial_n":55,"n_dots":3.05,"target":"left","response":"left","rt":812.5,"correct":true,"confidence":6},{"trial_n":56,"n_dots":3.05,"target":"left","response":"right","rt":1106.2999999999,"correct":false,"confidence":3},{"trial_n":57,"n_dots":3.15,"target":"left","response":"left","rt":1230.5,"correct":true,"confidence":2},{"trial_n":58,"n_dots":3.15,"target":"left","response":"left","rt":585.59999999998,"correct":true,"confidence":6},{"trial_n":59,"n_dots":3.05,"target":"right","response":"right","rt":1081,"correct":true,"confidence":5},{"trial_n":60,"n_dots":3.05,"target":"left","response":"right","rt":1073.7000000001,"correct":false,"confidence":2},{"trial_n":61,"n_dots":3.15,"target":"left","response":"left","rt":319.30000000005,"correct":true,"confidence":6},{"trial_n":62,"n_dots":3.15,"target":"right","response":"right","rt":557.19999999995,"correct":true,"confidence":4},{"trial_n":63,"n_dots":3.05,"target":"right","response":"left","rt":850,"correct":false,"confidence":3},{"trial_n":64,"n_dots":3.15,"target":"right","response":"right","rt":832.09999999998,"correct":true,"confidence":5},{"trial_n":65,"n_dots":3.15,"target":"right","response":"right","rt":931.09999999998,"correct":true,"confidence":5},{"trial_n":66,"n_dots":3.05,"target":"left","response":"left","rt":462.19999999995,"correct":true,"confidence":5},{"trial_n":67,"n_dots":3.05,"target":"right","response":"right","rt":450.80000000005,"correct":true,"confidence":5},{"trial_n":68,"n_dots":2.95,"target":"left","response":"right","rt":1506.2999999999,"correct":false,"confidence":4},{"trial_n":69,"n_dots":3.05,"target":"left","response":"left","rt":144.79999999993,"correct":true,"confidence":6},{"trial_n":70,"n_dots":3.05,"target":"left","response":"left","rt":1389.1,"correct":true,"confidence":2},{"trial_n":71,"n_dots":2.95,"target":"right","response":"right","rt":22.29999999993,"correct":true,"confidence":6},{"trial_n":72,"n_dots":2.95,"target":"right","response":"right","rt":257.09999999998,"correct":true,"confidence":5},{"trial_n":73,"n_dots":2.85,"target":"right","response":"right","rt":602.10000000009,"correct":true,"confidence":5},{"trial_n":74,"n_dots":2.85,"target":"right","response":"right","rt":369.29999999993,"correct":true,"confidence":5},{"trial_n":75,"n_dots":2.75,"target":"left","response":"left","rt":1011.5,"correct":true,"confidence":5},{"trial_n":76,"n_dots":2.75,"target":"left","response":"right","rt":1902.5,"correct":false,"confidence":2},{"trial_n":77,"n_dots":2.85,"target":"left","response":"left","rt":281,"correct":true,"confidence":5},{"trial_n":78,"n_dots":2.85,"target":"right","response":"right","rt":286.60000000009,"correct":true,"confidence":5},{"trial_n":79,"n_dots":2.75,"target":"right","response":"right","rt":100.40000000002,"correct":true,"confidence":6},{"trial_n":80,"n_dots":2.75,"target":"right","response":"right","rt":242.39999999991,"correct":true,"confidence":6},{"trial_n":81,"n_dots":2.65,"target":"right","response":"right","rt":339.69999999995,"correct":true,"confidence":6},{"trial_n":82,"n_dots":2.65,"target":"right","response":"left","rt":259.60000000009,"correct":false,"confidence":4},{"trial_n":83,"n_dots":2.75,"target":"left","response":"right","rt":771.69999999995,"correct":false,"confidence":3},{"trial_n":84,"n_dots":2.85,"target":"right","response":"right","rt":163.90000000002,"correct":true,"confidence":6},{"trial_n":85,"n_dots":2.85,"target":"left","response":"left","rt":512.09999999998,"correct":true,"confidence":3},{"trial_n":86,"n_dots":2.75,"target":"left","response":"right","rt":343.79999999993,"correct":false,"confidence":6},{"trial_n":87,"n_dots":2.85,"target":"right","response":"right","rt":190,"correct":true,"confidence":5},{"trial_n":88,"n_dots":2.85,"target":"right","response":"right","rt":608.59999999998,"correct":true,"confidence":5},{"trial_n":89,"n_dots":2.75,"target":"left","response":"right","rt":290.59999999998,"correct":false,"confidence":3},{"trial_n":90,"n_dots":2.85,"target":"left","response":"left","rt":1116.4,"correct":true,"confidence":4},{"trial_n":91,"n_dots":2.85,"target":"right","response":"right","rt":2827.1,"correct":true,"confidence":5},{"trial_n":92,"n_dots":2.75,"target":"right","response":"left","rt":776.70000000007,"correct":false,"confidence":3},{"trial_n":93,"n_dots":2.85,"target":"left","response":"left","rt":706.90000000002,"correct":true,"confidence":4},{"trial_n":94,"n_dots":2.85,"target":"left","response":"right","rt":738.79999999993,"correct":false,"confidence":3},{"trial_n":95,"n_dots":2.95,"target":"right","response":"right","rt":651.29999999993,"correct":true,"confidence":5},{"trial_n":96,"n_dots":2.95,"target":"right","response":"right","rt":441.30000000005,"correct":true,"confidence":6},{"trial_n":97,"n_dots":2.85,"target":"right","response":"right","rt":543,"correct":true,"confidence":5},{"trial_n":98,"n_dots":2.85,"target":"left","response":"left","rt":457.70000000007,"correct":true,"confidence":6},{"trial_n":99,"n_dots":2.75,"target":"left","response":"left","rt":426.60000000009,"correct":true,"confidence":5},{"trial_n":100,"n_dots":2.75,"target":"right","response":"left","rt":427.89999999991,"correct":false,"confidence":6},{"trial_n":101,"n_dots":2.85,"target":"right","response":"right","rt":531.5,"correct":true,"confidence":5},{"trial_n":102,"n_dots":2.85,"target":"left","response":"left","rt":685.89999999991,"correct":true,"confidence":2},{"trial_n":103,"n_dots":2.75,"target":"right","response":"right","rt":91.800000000047,"correct":true,"confidence":5},{"trial_n":104,"n_dots":2.75,"target":"right","response":"right","rt":174.19999999995,"correct":true,"confidence":5},{"trial_n":105,"n_dots":2.65,"target":"left","response":"left","rt":452.69999999995,"correct":true,"confidence":5},{"trial_n":106,"n_dots":2.65,"target":"left","response":"left","rt":530.19999999995,"correct":true,"confidence":5},{"trial_n":107,"n_dots":2.55,"target":"right","response":"right","rt":721.5,"correct":true,"confidence":6},{"trial_n":108,"n_dots":2.55,"target":"left","response":"left","rt":397.40000000002,"correct":true,"confidence":4},{"trial_n":109,"n_dots":2.45,"target":"right","response":"right","rt":464.59999999998,"correct":true,"confidence":4},{"trial_n":110,"n_dots":2.45,"target":"right","response":"right","rt":527.69999999995,"correct":true,"confidence":5},{"trial_n":111,"n_dots":2.35,"target":"left","response":"left","rt":327.70000000007,"correct":true,"confidence":6},{"trial_n":112,"n_dots":2.35,"target":"left","response":"left","rt":718.50000000006,"correct":true,"confidence":3},{"trial_n":113,"n_dots":2.25,"target":"left","response":"right","rt":665.69999999995,"correct":false,"confidence":5},{"trial_n":114,"n_dots":2.35,"target":"right","response":"right","rt":516.59999999986,"correct":true,"confidence":5},{"trial_n":115,"n_dots":2.35,"target":"left","response":"left","rt":258.29999999981,"correct":true,"confidence":5},{"trial_n":116,"n_dots":2.25,"target":"left","response":"right","rt":894.89999999991,"correct":false,"confidence":4},{"trial_n":117,"n_dots":2.35,"target":"right","response":"left","rt":1697,"correct":false,"confidence":2},{"trial_n":118,"n_dots":2.45,"target":"left","response":"right","rt":361.5,"correct":false,"confidence":6},{"trial_n":119,"n_dots":2.55,"target":"left","response":"left","rt":538.19999999995,"correct":true,"confidence":4},{"trial_n":120,"n_dots":2.55,"target":"right","response":"right","rt":315.79999999981,"correct":true,"confidence":5},{"trial_n":121,"n_dots":2.45,"target":"right","response":"right","rt":272.40000000014,"correct":true,"confidence":4},{"trial_n":122,"n_dots":2.45,"target":"right","response":"right","rt":643.30000000005,"correct":true,"confidence":5},{"trial_n":123,"n_dots":2.35,"target":"left","response":"left","rt":254.19999999995,"correct":true,"confidence":6},{"trial_n":124,"n_dots":2.35,"target":"left","response":"right","rt":1040.7000000002,"correct":false,"confidence":2},{"trial_n":125,"n_dots":2.45,"target":"right","response":"right","rt":322.89999999991,"correct":true,"confidence":6},{"trial_n":126,"n_dots":2.45,"target":"right","response":"left","rt":549.19999999995,"correct":false,"confidence":3},{"trial_n":127,"n_dots":2.55,"target":"left","response":"left","rt":714.30000000005,"correct":true,"confidence":5},{"trial_n":128,"n_dots":2.55,"target":"right","response":"right","rt":144.69999999995,"correct":true,"confidence":6},{"trial_n":129,"n_dots":2.45,"target":"left","response":"left","rt":506.19999999995,"correct":true,"confidence":4},{"trial_n":130,"n_dots":2.45,"target":"right","response":"right","rt":23.100000000093,"correct":true,"confidence":6},{"trial_n":131,"n_dots":2.35,"target":"left","response":"left","rt":106.19999999995,"correct":true,"confidence":5},{"trial_n":132,"n_dots":2.35,"target":"right","response":"right","rt":669.90000000014,"correct":true,"confidence":2},{"trial_n":133,"n_dots":2.25,"target":"left","response":"right","rt":587.79999999981,"correct":false,"confidence":4},{"trial_n":134,"n_dots":2.35,"target":"right","response":"right","rt":498.29999999981,"correct":true,"confidence":6},{"trial_n":135,"n_dots":2.35,"target":"left","response":"left","rt":519.19999999995,"correct":true,"confidence":4},{"trial_n":136,"n_dots":2.25,"target":"right","response":"right","rt":508.10000000009,"correct":true,"confidence":4},{"trial_n":137,"n_dots":2.25,"target":"right","response":"left","rt":642.69999999995,"correct":false,"confidence":4},{"trial_n":138,"n_dots":2.35,"target":"left","response":"right","rt":514,"correct":false,"confidence":4},{"trial_n":139,"n_dots":2.45,"target":"right","response":"right","rt":4.6999999999534,"correct":true,"confidence":4},{"trial_n":140,"n_dots":2.45,"target":"right","response":"right","rt":657.19999999995,"correct":true,"confidence":4},{"trial_n":141,"n_dots":2.35,"target":"left","response":"left","rt":559.60000000009,"correct":true,"confidence":5},{"trial_n":142,"n_dots":2.35,"target":"left","response":"right","rt":552.39999999991,"correct":false,"confidence":4},{"trial_n":143,"n_dots":2.45,"target":"right","response":"right","rt":475.89999999991,"correct":true,"confidence":5},{"trial_n":144,"n_dots":2.45,"target":"left","response":"left","rt":488.60000000009,"correct":true,"confidence":4},{"trial_n":145,"n_dots":2.35,"target":"right","response":"right","rt":319.10000000009,"correct":true,"confidence":5},{"trial_n":146,"n_dots":2.35,"target":"left","response":"right","rt":111.19999999995,"correct":false,"confidence":5},{"trial_n":147,"n_dots":2.45,"target":"left","response":"left","rt":339.5,"correct":true,"confidence":5},{"trial_n":148,"n_dots":2.45,"target":"left","response":"left","rt":449.59999999986,"correct":true,"confidence":5},{"trial_n":149,"n_dots":2.35,"target":"left","response":"right","rt":290.80000000005,"correct":false,"confidence":5},{"trial_n":150,"n_dots":2.45,"target":"left","response":"left","rt":237.70000000019,"correct":true,"confidence":5},{"trial_n":151,"n_dots":2.45,"target":"left","response":"right","rt":44.700000000186,"correct":false,"confidence":6},{"trial_n":152,"n_dots":2.55,"target":"left","response":"left","rt":284.30000000005,"correct":true,"confidence":5},{"trial_n":153,"n_dots":2.55,"target":"right","response":"left","rt":656.39999999991,"correct":false,"confidence":4},{"trial_n":154,"n_dots":2.65,"target":"left","response":"right","rt":353.79999999981,"correct":false,"confidence":5},{"trial_n":155,"n_dots":2.75,"target":"right","response":"right","rt":562.19999999995,"correct":true,"confidence":5},{"trial_n":156,"n_dots":2.75,"target":"right","response":"left","rt":495.19999999995,"correct":false,"confidence":4},{"trial_n":157,"n_dots":2.85,"target":"left","response":"left","rt":629.19999999995,"correct":true,"confidence":4},{"trial_n":158,"n_dots":2.85,"target":"left","response":"right","rt":1450.3,"correct":false,"confidence":5},{"trial_n":159,"n_dots":2.95,"target":"left","response":"right","rt":413.40000000014,"correct":false,"confidence":5},{"trial_n":160,"n_dots":3.05,"target":"right","response":"right","rt":403.70000000019,"correct":true,"confidence":5},{"trial_n":161,"n_dots":3.05,"target":"right","response":"left","rt":641.69999999995,"correct":false,"confidence":4},{"trial_n":162,"n_dots":3.15,"target":"left","response":"left","rt":637.10000000009,"correct":true,"confidence":5},{"trial_n":163,"n_dots":3.15,"target":"left","response":"left","rt":312.69999999995,"correct":true,"confidence":5},{"trial_n":164,"n_dots":3.05,"target":"left","response":"right","rt":473.09999999986,"correct":false,"confidence":4},{"trial_n":165,"n_dots":3.15,"target":"left","response":"right","rt":428.90000000014,"correct":false,"confidence":5},{"trial_n":166,"n_dots":3.25,"target":"left","response":"left","rt":280.10000000009,"correct":true,"confidence":4},{"trial_n":167,"n_dots":3.25,"target":"right","response":"left","rt":768.80000000005,"correct":false,"confidence":2},{"trial_n":168,"n_dots":3.35,"target":"right","response":"right","rt":339.40000000014,"correct":true,"confidence":5},{"trial_n":169,"n_dots":3.35,"target":"right","response":"right","rt":458.89999999991,"correct":true,"confidence":5},{"trial_n":170,"n_dots":3.25,"target":"right","response":"right","rt":246.60000000009,"correct":true,"confidence":5},{"trial_n":171,"n_dots":3.25,"target":"right","response":"right","rt":267.89999999991,"correct":true,"confidence":6},{"trial_n":172,"n_dots":3.15,"target":"right","response":"right","rt":425.80000000005,"correct":true,"confidence":5},{"trial_n":173,"n_dots":3.15,"target":"left","response":"right","rt":2703.0999999999,"correct":false,"confidence":2},{"trial_n":174,"n_dots":3.25,"target":"right","response":"right","rt":393.19999999995,"correct":true,"confidence":5},{"trial_n":175,"n_dots":3.25,"target":"left","response":"left","rt":648.29999999981,"correct":true,"confidence":6},{"trial_n":176,"n_dots":3.15,"target":"left","response":"right","rt":1319.2999999998,"correct":false,"confidence":1},{"trial_n":177,"n_dots":3.25,"target":"right","response":"left","rt":1436.5,"correct":false,"confidence":4},{"trial_n":178,"n_dots":3.35,"target":"left","response":"left","rt":603.79999999981,"correct":true,"confidence":5},{"trial_n":179,"n_dots":3.35,"target":"left","response":"left","rt":554,"correct":true,"confidence":5},{"trial_n":180,"n_dots":3.25,"target":"right","response":"right","rt":338.79999999981,"correct":true,"confidence":5},{"trial_n":181,"n_dots":3.25,"target":"right","response":"right","rt":310.89999999991,"correct":true,"confidence":6},{"trial_n":182,"n_dots":3.15,"target":"left","response":"left","rt":353.5,"correct":true,"confidence":4},{"trial_n":183,"n_dots":3.15,"target":"right","response":"right","rt":98.5,"correct":true,"confidence":6},{"trial_n":184,"n_dots":3.05,"target":"left","response":"left","rt":340.69999999995,"correct":true,"confidence":5},{"trial_n":185,"n_dots":3.05,"target":"left","response":"right","rt":1089.5,"correct":false,"confidence":2},{"trial_n":186,"n_dots":3.15,"target":"right","response":"right","rt":455,"correct":true,"confidence":5},{"trial_n":187,"n_dots":3.15,"target":"left","response":"left","rt":781,"correct":true,"confidence":4},{"trial_n":188,"n_dots":3.05,"target":"left","response":"right","rt":661.59999999986,"correct":false,"confidence":5},{"trial_n":189,"n_dots":3.15,"target":"left","response":"left","rt":397.89999999991,"correct":true,"confidence":6},{"trial_n":190,"n_dots":3.15,"target":"right","response":"right","rt":650.89999999991,"correct":true,"confidence":3},{"trial_n":191,"n_dots":3.05,"target":"right","response":"right","rt":83.300000000047,"correct":true,"confidence":5},{"trial_n":192,"n_dots":3.05,"target":"left","response":"left","rt":119.19999999995,"correct":true,"confidence":6},{"trial_n":193,"n_dots":2.95,"target":"right","response":"right","rt":493.59999999986,"correct":true,"confidence":6},{"trial_n":194,"n_dots":2.95,"target":"left","response":"right","rt":492.69999999995,"correct":false,"confidence":4}]