[{"trial_n":1,"n_dots":4.25,"target":"right","response":"left","rt":2557.6999999881,"correct":false,"confidence":-1},{"trial_n":2,"n_dots":4.25,"target":"left","response":"left","rt":316.39999997616,"correct":true,"confidence":-1},{"trial_n":3,"n_dots":4.25,"target":"right","response":"right","rt":257.19999998808,"correct":true,"confidence":-1},{"trial_n":4,"n_dots":3.85,"target":"right","response":"left","rt":281.60000002384,"correct":false,"confidence":-1},{"trial_n":5,"n_dots":4.25,"target":"left","response":"left","rt":347.19999998808,"correct":true,"confidence":-1},{"trial_n":6,"n_dots":4.25,"target":"left","response":"left","rt":314,"correct":true,"confidence":-1},{"trial_n":7,"n_dots":3.85,"target":"left","response":"right","rt":303.39999997616,"correct":false,"confidence":-1},{"trial_n":8,"n_dots":4.05,"target":"left","response":"left","rt":494.5,"correct":true,"confidence":-1},{"trial_n":9,"n_dots":4.05,"target":"right","response":"right","rt":341.60000002384,"correct":true,"confidence":-1},{"trial_n":10,"n_dots":3.85,"target":"left","response":"left","rt":298.30000001192,"correct":true,"confidence":-1},{"trial_n":11,"n_dots":3.85,"target":"left","response":"left","rt":258.30000001192,"correct":true,"confidence":-1},{"trial_n":12,"n_dots":3.65,"target":"left","response":"left","rt":250.80000001192,"correct":true,"confidence":-1},{"trial_n":13,"n_dots":3.65,"target":"right","response":"right","rt":57.099999964237,"correct":true,"confidence":-1},{"trial_n":14,"n_dots":3.55,"target":"left","response":"left","rt":552.09999996424,"correct":true,"confidence":-1},{"trial_n":15,"n_dots":3.55,"target":"left","response":"right","rt":242.40000003576,"correct":false,"confidence":-1},{"trial_n":16,"n_dots":3.65,"target":"right","response":"right","rt":42.5,"correct":true,"confidence":-1},{"trial_n":17,"n_dots":3.65,"target":"left","response":"left","rt":299.5,"correct":true,"confidence":-1},{"trial_n":18,"n_dots":3.55,"target":"right","response":"left","rt":332.20000004768,"correct":false,"confidence":-1},{"trial_n":19,"n_dots":3.65,"target":"left","response":"left","rt":233.30000001192,"correct":true,"confidence":-1},{"trial_n":20,"n_dots":3.65,"target":"right","response":"left","rt":354.80000001192,"correct":false,"confidence":-1},{"trial_n":21,"n_dots":3.75,"target":"left","response":"right","rt":302.39999997616,"correct":false,"confidence":-1},{"trial_n":22,"n_dots":3.85,"target":"right","response":"right","rt":414,"correct":true,"confidence":-1},{"trial_n":23,"n_dots":3.85,"target":"right","response":"left","rt":326.19999998808,"correct":false,"confidence":-1},{"trial_n":24,"n_dots":3.95,"target":"right","response":"right","rt":430.10000002384,"correct":true,"confidence":-1},{"trial_n":25,"n_dots":3.95,"target":"left","response":"left","rt":246.80000001192,"correct":true,"confidence":-1},{"trial_n":26,"n_dots":3.85,"target":"left","response":"right","rt":272.60000002384,"correct":false,"confidence":-1},{"trial_n":27,"n_dots":3.95,"target":"right","response":"right","rt":319.69999998808,"correct":true,"confidence":6},{"trial_n":28,"n_dots":3.95,"target":"right","response":"right","rt":191.59999996424,"correct":true,"confidence":6},{"trial_n":29,"n_dots":3.85,"target":"right","response":"left","rt":464.10000002384,"correct":false,"confidence":6},{"trial_n":30,"n_dots":3.95,"target":"left","response":"left","rt":261.89999997616,"correct":true,"confidence":6},{"trial_n":31,"n_dots":3.95,"target":"left","response":"left","rt":264.69999998808,"correct":true,"confidence":6},{"trial_n":32,"n_dots":3.85,"target":"right","response":"right","rt":378.09999996424,"correct":true,"confidence":1},{"trial_n":33,"n_dots":3.85,"target":"left","response":"left","rt":271.20000004768,"correct":true,"confidence":5},{"trial_n":34,"n_dots":3.75,"target":"left","response":"left","rt":271.40000003576,"correct":true,"confidence":6},{"trial_n":35,"n_dots":3.75,"target":"right","response":"right","rt":465.69999998808,"correct":true,"confidence":4},{"trial_n":36,"n_dots":3.65,"target":"right","response":"left","rt":593.5,"correct":false,"confidence":3},{"trial_n":37,"n_dots":3.75,"target":"right","response":"right","rt":483.59999996424,"correct":true,"confidence":5},{"trial_n":38,"n_dots":3.75,"target":"left","response":"left","rt":121.09999996424,"correct":true,"confidence":6},{"trial_n":39,"n_dots":3.65,"target":"right","response":"right","rt":62.800000011921,"correct":true,"confidence":5},{"trial_n":40,"n_dots":3.65,"target":"right","response":"left","rt":496.80000001192,"correct":false,"confidence":4},{"trial_n":41,"n_dots":3.75,"target":"right","response":"right","rt":265,"correct":true,"confidence":6},{"trial_n":42,"n_dots":3.75,"target":"right","response":"right","rt":249.60000002384,"correct":true,"confidence":6},{"trial_n":43,"n_dots":3.65,"target":"left","response":"right","rt":273.89999997616,"correct":false,"confidence":4},{"trial_n":44,"n_dots":3.75,"target":"left","response":"left","rt":326.5,"correct":true,"confidence":6},{"trial_n":45,"n_dots":3.75,"target":"right","response":"right","rt":1195.3999999762,"correct":true,"confidence":6},{"trial_n":46,"n_dots":3.65,"target":"left","response":"left","rt":184.10000002384,"correct":true,"confidence":5},{"trial_n":47,"n_dots":3.65,"target":"right","response":"right","rt":1631.2000000477,"correct":true,"confidence":1},{"trial_n":48,"n_dots":3.55,"target":"left","response":"left","rt":327,"correct":true,"confidence":4},{"trial_n":49,"n_dots":3.55,"target":"left","response":"left","rt":328.89999997616,"correct":true,"confidence":3},{"trial_n":50,"n_dots":3.45,"target":"left","response":"left","rt":383.10000002384,"correct":true,"confidence":6},{"trial_n":51,"n_dots":3.45,"target":"right","response":"left","rt":408.89999997616,"correct":false,"confidence":6},{"trial_n":52,"n_dots":3.55,"target":"right","response":"right","rt":460.19999998808,"correct":true,"confidence":6},{"trial_n":53,"n_dots":3.55,"target":"right","response":"right","rt":362.59999996424,"correct":true,"confidence":6},{"trial_n":54,"n_dots":3.45,"target":"left","response":"left","rt":181.69999998808,"correct":true,"confidence":6},{"trial_n":55,"n_dots":3.45,"target":"left","response":"left","rt":286.89999997616,"correct":true,"confidence":5},{"trial_n":56,"n_dots":3.35,"target":"left","response":"right","rt":802.09999996424,"correct":false,"confidence":2},{"trial_n":57,"n_dots":3.45,"target":"left","response":"left","rt":293.80000001192,"correct":true,"confidence":6},{"trial_n":58,"n_dots":3.45,"target":"right","response":"right","rt":851.19999998808,"correct":true,"confidence":4},{"trial_n":59,"n_dots":3.35,"target":"right","response":"right","rt":361.69999998808,"correct":true,"confidence":1},{"trial_n":60,"n_dots":3.35,"target":"right","response":"left","rt":291.5,"correct":false,"confidence":6},{"trial_n":61,"n_dots":3.45,"target":"left","response":"left","rt":554.10000002384,"correct":true,"confidence":6},{"trial_n":62,"n_dots":3.45,"target":"left","response":"left","rt":590.39999997616,"correct":true,"confidence":4},{"trial_n":63,"n_dots":3.35,"target":"right","response":"right","rt":522,"correct":true,"confidence":4},{"trial_n":64,"n_dots":3.35,"target":"right","response":"right","rt":323.89999997616,"correct":true,"confidence":6},{"trial_n":65,"n_dots":3.25,"target":"right","response":"right","rt":419.89999997616,"correct":true,"confidence":3},{"trial_n":66,"n_dots":3.25,"target":"right","response":"right","rt":456,"correct":true,"confidence":3},{"trial_n":67,"n_dots":3.15,"target":"left","response":"left","rt":471.30000001192,"correct":true,"confidence":5},{"trial_n":68,"n_dots":3.15,"target":"left","response":"left","rt":1476.3999999762,"correct":true,"confidence":4},{"trial_n":69,"n_dots":3.05,"target":"left","response":"left","rt":384.70000004768,"correct":true,"confidence":1},{"trial_n":70,"n_dots":3.05,"target":"right","response":"left","rt":1162.5,"correct":false,"confidence":4},{"trial_n":71,"n_dots":3.15,"target":"left","response":"left","rt":333.40000003576,"correct":true,"confidence":3},{"trial_n":72,"n_dots":3.15,"target":"left","response":"right","rt":453.60000002384,"correct":false,"confidence":3},{"trial_n":73,"n_dots":3.25,"target":"right","response":"right","rt":283.39999997616,"correct":true,"confidence":6},{"trial_n":74,"n_dots":3.25,"target":"left","response":"left","rt":225.69999998808,"correct":true,"confidence":6},{"trial_n":75,"n_dots":3.15,"target":"left","response":"left","rt":296.69999998808,"correct":true,"confidence":6},{"trial_n":76,"n_dots":3.15,"target":"right","response":"left","rt":298.10000002384,"correct":false,"confidence":6},{"trial_n":77,"n_dots":3.25,"target":"right","response":"left","rt":225.59999996424,"correct":false,"confidence":6},{"trial_n":78,"n_dots":3.35,"target":"left","response":"left","rt":456.89999997616,"correct":true,"confidence":6},{"trial_n":79,"n_dots":3.35,"target":"left","response":"left","rt":414.19999998808,"correct":true,"confidence":6},{"trial_n":80,"n_dots":3.25,"target":"right","response":"right","rt":742.69999998808,"correct":true,"confidence":4},{"trial_n":81,"n_dots":3.25,"target":"right","response":"left","rt":418.79999995232,"correct":false,"confidence":4},{"trial_n":82,"n_dots":3.35,"target":"right","response":"left","rt":179.69999998808,"correct":false,"confidence":4},{"trial_n":83,"n_dots":3.45,"target":"left","response":"right","rt":100.20000004768,"correct":false,"confidence":4},{"trial_n":84,"n_dots":3.55,"target":"left","response":"left","rt":392,"correct":true,"confidence":4},{"trial_n":85,"n_dots":3.55,"target":"right","response":"left","rt":264.30000001192,"correct":false,"confidence":4},{"trial_n":86,"n_dots":3.65,"target":"left","response":"left","rt":388,"correct":true,"confidence":4},{"trial_n":87,"n_dots":3.65,"target":"right","response":"right","rt":70,"correct":true,"confidence":4},{"trial_n":88,"n_dots":3.55,"target":"right","response":"right","rt":80.600000023842,"correct":true,"confidence":4},{"trial_n":89,"n_dots":3.55,"target":"left","response":"left","rt":16.199999988079,"correct":true,"confidence":4},{"trial_n":90,"n_dots":3.45,"target":"left","response":"left","rt":305.5,"correct":true,"confidence":4},{"trial_n":91,"n_dots":3.45,"target":"right","response":"right","rt":462.10000002384,"correct":true,"confidence":3},{"trial_n":92,"n_dots":3.35,"target":"left","response":"left","rt":57.800000011921,"correct":true,"confidence":6},{"trial_n":93,"n_dots":3.35,"target":"right","response":"right","rt":415.40000003576,"correct":true,"confidence":6},{"trial_n":94,"n_dots":3.25,"target":"left","response":"left","rt":341.59999996424,"correct":true,"confidence":6},{"trial_n":95,"n_dots":3.25,"target":"left","response":"left","rt":558.5,"correct":true,"confidence":3},{"trial_n":96,"n_dots":3.15,"target":"right","response":"right","rt":374.30000001192,"correct":true,"confidence":3},{"trial_n":97,"n_dots":3.15,"target":"left","response":"left","rt":228.10000002384,"correct":true,"confidence":6},{"trial_n":98,"n_dots":3.05,"target":"left","response":"left","rt":203.19999998808,"correct":true,"confidence":6},{"trial_n":99,"n_dots":3.05,"target":"right","response":"left","rt":87.900000035763,"correct":false,"confidence":6},{"trial_n":100,"n_dots":3.15,"target":"right","response":"right","rt":497.59999996424,"correct":true,"confidence":6},{"trial_n":101,"n_dots":3.15,"target":"left","response":"right","rt":35625.300000012,"correct":false,"confidence":3},{"trial_n":102,"n_dots":3.25,"target":"right","response":"right","rt":818.19999998808,"correct":true,"confidence":4},{"trial_n":103,"n_dots":3.25,"target":"left","response":"left","rt":517.59999996424,"correct":true,"confidence":4},{"trial_n":104,"n_dots":3.15,"target":"left","response":"right","rt":660.90000003576,"correct":false,"confidence":6},{"trial_n":105,"n_dots":3.25,"target":"right","response":"right","rt":317.69999998808,"correct":true,"confidence":4},{"trial_n":106,"n_dots":3.25,"target":"left","response":"left","rt":64.300000011921,"correct":true,"confidence":4},{"trial_n":107,"n_dots":3.15,"target":"right","response":"right","rt":140.60000002384,"correct":true,"confidence":4},{"trial_n":108,"n_dots":3.15,"target":"left","response":"left","rt":358.60000002384,"correct":true,"confidence":6},{"trial_n":109,"n_dots":3.05,"target":"right","response":"right","rt":2.1999999880791,"correct":true,"confidence":4},{"trial_n":110,"n_dots":3.05,"target":"right","response":"left","rt":289.90000003576,"correct":false,"confidence":4},{"trial_n":111,"n_dots":3.15,"target":"left","response":"left","rt":329.19999998808,"correct":true,"confidence":4},{"trial_n":112,"n_dots":3.15,"target":"left","response":"left","rt":308.29999995232,"correct":true,"confidence":4},{"trial_n":113,"n_dots":3.05,"target":"right","response":"right","rt":244,"correct":true,"confidence":1},{"trial_n":114,"n_dots":3.05,"target":"right","response":"left","rt":464.19999998808,"correct":false,"confidence":4},{"trial_n":115,"n_dots":3.15,"target":"right","response":"right","rt":794.5,"correct":true,"confidence":4},{"trial_n":116,"n_dots":3.15,"target":"right","response":"left","rt":257.90000003576,"correct":false,"confidence":6},{"trial_n":117,"n_dots":3.25,"target":"right","response":"right","rt":252,"correct":true,"confidence":4},{"trial_n":118,"n_dots":3.25,"target":"right","response":"right","rt":636.69999998808,"correct":true,"confidence":6},{"trial_n":119,"n_dots":3.15,"target":"left","response":"left","rt":427,"correct":true,"confidence":4},{"trial_n":120,"n_dots":3.15,"target":"left","response":"left","rt":459.69999998808,"correct":true,"confidence":4},{"trial_n":121,"n_dots":3.05,"target":"right","response":"right","rt":862.30000001192,"correct":true,"confidence":5},{"trial_n":122,"n_dots":3.05,"target":"right","response":"right","rt":561.69999998808,"correct":true,"confidence":6},{"trial_n":123,"n_dots":2.95,"target":"left","response":"right","rt":952.30000001192,"correct":false,"confidence":4},{"trial_n":124,"n_dots":3.05,"target":"left","response":"left","rt":804.30000001192,"correct":true,"confidence":4},{"trial_n":125,"n_dots":3.05,"target":"right","response":"right","rt":292,"correct":true,"confidence":6},{"trial_n":126,"n_dots":2.95,"target":"right","response":"left","rt":339.89999997616,"correct":false,"confidence":4},{"trial_n":127,"n_dots":3.05,"target":"right","response":"right","rt":1046.3000000119,"correct":true,"confidence":3},{"trial_n":128,"n_dots":3.05,"target":"left","response":"left","rt":1336.6000000238,"correct":true,"confidence":6},{"trial_n":129,"n_dots":2.95,"target":"left","response":"left","rt":236.10000002384,"correct":true,"confidence":6},{"trial_n":130,"n_dots":2.95,"target":"right","response":"right","rt":228.79999995232,"correct":true,"confidence":6},{"trial_n":131,"n_dots":2.85,"target":"left","response":"left","rt":264,"correct":true,"confidence":4},{"trial_n":132,"n_dots":2.85,"target":"left","response":"left","rt":288.5,"correct":true,"confidence":6},{"trial_n":133,"n_dots":2.75,"target":"right","response":"left","rt":584.69999998808,"correct":false,"confidence":4},{"trial_n":134,"n_dots":2.85,"target":"right","response":"right","rt":12.399999976158,"correct":true,"confidence":4},{"trial_n":135,"n_dots":2.85,"target":"right","response":"right","rt":49.800000011921,"correct":true,"confidence":6},{"trial_n":136,"n_dots":2.75,"target":"left","response":"left","rt":257.19999998808,"correct":true,"confidence":6},{"trial_n":137,"n_dots":2.75,"target":"right","response":"left","rt":349.5,"correct":false,"confidence":4},{"trial_n":138,"n_dots":2.85,"target":"right","response":"right","rt":339.10000002384,"correct":true,"confidence":4},{"trial_n":139,"n_dots":2.85,"target":"right","response":"right","rt":248.69999998808,"correct":true,"confidence":6},{"trial_n":140,"n_dots":2.75,"target":"right","response":"right","rt":143.09999996424,"correct":true,"confidence":4},{"trial_n":141,"n_dots":2.75,"target":"right","response":"left","rt":146.39999997616,"correct":false,"confidence":6},{"trial_n":142,"n_dots":2.85,"target":"left","response":"left","rt":256.10000002384,"correct":true,"confidence":4},{"trial_n":143,"n_dots":2.85,"target":"right","response":"right","rt":53.100000023842,"correct":true,"confidence":5},{"trial_n":144,"n_dots":2.75,"target":"left","response":"left","rt":751,"correct":true,"confidence":6},{"trial_n":145,"n_dots":2.75,"target":"right","response":"right","rt":199.19999998808,"correct":true,"confidence":6},{"trial_n":146,"n_dots":2.65,"target":"left","response":"left","rt":23,"correct":true,"confidence":4},{"trial_n":147,"n_dots":2.65,"target":"left","response":"left","rt":260.89999997616,"correct":true,"confidence":6},{"trial_n":148,"n_dots":2.55,"target":"right","response":"left","rt":346.89999997616,"correct":false,"confidence":6},{"trial_n":149,"n_dots":2.65,"target":"left","response":"left","rt":218.30000001192,"correct":true,"confidence":6},{"trial_n":150,"n_dots":2.65,"target":"right","response":"left","rt":294.5,"correct":false,"confidence":5},{"trial_n":151,"n_dots":2.75,"target":"left","response":"right","rt":401.60000002384,"correct":false,"confidence":5},{"trial_n":152,"n_dots":2.85,"target":"right","response":"left","rt":263.39999997616,"correct":false,"confidence":5},{"trial_n":153,"n_dots":2.95,"target":"right","response":"left","rt":222.60000002384,"correct":false,"confidence":5},{"trial_n":154,"n_dots":3.05,"target":"right","response":"left","rt":228.40000003576,"correct":false,"confidence":5},{"trial_n":155,"n_dots":3.15,"target":"left","response":"left","rt":450.89999997616,"correct":true,"confidence":5},{"trial_n":156,"n_dots":3.15,"target":"right","response":"left","rt":601.80000001192,"correct":false,"confidence":5},{"trial_n":157,"n_dots":3.25,"target":"right","response":"right","rt":304.70000004768,"correct":true,"confidence":6},{"trial_n":158,"n_dots":3.25,"target":"right","response":"right","rt":896.30000001192,"correct":true,"confidence":6},{"trial_n":159,"n_dots":3.15,"target":"right","response":"right","rt":321.60000002384,"correct":true,"confidence":6},{"trial_n":160,"n_dots":3.15,"target":"right","response":"right","rt":274.10000002384,"correct":true,"confidence":6},{"trial_n":161,"n_dots":3.05,"target":"left","response":"left","rt":468.19999998808,"correct":true,"confidence":6},{"trial_n":162,"n_dots":3.05,"target":"left","response":"right","rt":235.69999998808,"correct":false,"confidence":5},{"trial_n":163,"n_dots":3.15,"target":"left","response":"left","rt":505.30000001192,"correct":true,"confidence":1},{"trial_n":164,"n_dots":3.15,"target":"left","response":"left","rt":417.79999995232,"correct":true,"confidence":4},{"trial_n":165,"n_dots":3.05,"target":"right","response":"right","rt":257.69999998808,"correct":true,"confidence":2},{"trial_n":166,"n_dots":3.05,"target":"left","response":"right","rt":632,"correct":false,"confidence":4},{"trial_n":167,"n_dots":3.15,"target":"right","response":"left","rt":116.10000002384,"correct":false,"confidence":6},{"trial_n":168,"n_dots":3.25,"target":"left","response":"left","rt":63.600000023842,"correct":true,"confidence":6},{"trial_n":169,"n_dots":3.25,"target":"right","response":"left","rt":305.60000002384,"correct":false,"confidence":4},{"trial_n":170,"n_dots":3.35,"target":"left","response":"left","rt":568.89999997616,"correct":true,"confidence":4},{"trial_n":171,"n_dots":3.35,"target":"right","response":"right","rt":10.5,"correct":true,"confidence":6},{"trial_n":172,"n_dots":3.25,"target":"left","response":"left","rt":63.299999952316,"correct":true,"confidence":6},{"trial_n":173,"n_dots":3.25,"target":"left","response":"right","rt":286.80000001192,"correct":false,"confidence":6},{"trial_n":174,"n_dots":3.35,"target":"left","response":"left","rt":27.699999988079,"correct":true,"confidence":5},{"trial_n":175,"n_dots":3.35,"target":"right","response":"left","rt":1322.9000000358,"correct":false,"confidence":5},{"trial_n":176,"n_dots":3.45,"target":"right","response":"right","rt":385.80000001192,"correct":true,"confidence":6},{"trial_n":177,"n_dots":3.45,"target":"right","response":"right","rt":356.30000001192,"correct":true,"confidence":6},{"trial_n":178,"n_dots":3.35,"target":"left","response":"left","rt":1502.3999999762,"correct":true,"confidence":5},{"trial_n":179,"n_dots":3.35,"target":"left","response":"left","rt":282.09999996424,"correct":true,"confidence":4},{"trial_n":180,"n_dots":3.25,"target":"left","response":"left","rt":309.10000002384,"correct":true,"confidence":4},{"trial_n":181,"n_dots":3.25,"target":"right","response":"right","rt":285.89999997616,"correct":true,"confidence":6},{"trial_n":182,"n_dots":3.15,"target":"right","response":"left","rt":249.10000002384,"correct":false,"confidence":6},{"trial_n":183,"n_dots":3.25,"target":"left","response":"left","rt":146.89999997616,"correct":true,"confidence":4},{"trial_n":184,"n_dots":3.25,"target":"right","response":"right","rt":184.70000004768,"correct":true,"confidence":6},{"trial_n":185,"n_dots":3.15,"target":"left","response":"left","rt":171.69999998808,"correct":true,"confidence":6},{"trial_n":186,"n_dots":3.15,"target":"left","response":"right","rt":744.60000002384,"correct":false,"confidence":6},{"trial_n":187,"n_dots":3.25,"target":"left","response":"left","rt":245.69999998808,"correct":true,"confidence":4},{"trial_n":188,"n_dots":3.25,"target":"left","response":"left","rt":283.60000002384,"correct":true,"confidence":4},{"trial_n":189,"n_dots":3.15,"target":"left","response":"left","rt":270.80000001192,"correct":true,"confidence":6},{"trial_n":190,"n_dots":3.15,"target":"left","response":"left","rt":395.59999996424,"correct":true,"confidence":4},{"trial_n":191,"n_dots":3.05,"target":"left","response":"right","rt":138.19999998808,"correct":false,"confidence":6},{"trial_n":192,"n_dots":3.15,"target":"left","response":"left","rt":72.600000023842,"correct":true,"confidence":6},{"trial_n":193,"n_dots":3.15,"target":"right","response":"right","rt":37.5,"correct":true,"confidence":4},{"trial_n":194,"n_dots":3.05,"target":"left","response":"left","rt":32.099999964237,"correct":true,"confidence":5}]