[{"trial_n":1,"n_dots":4.25,"target":"right","response":"left","rt":6833.200000003,"correct":false,"confidence":-1},{"trial_n":2,"n_dots":4.25,"target":"right","response":"right","rt":2659.700000003,"correct":true,"confidence":-1},{"trial_n":3,"n_dots":4.25,"target":"left","response":"left","rt":685.29999999702,"correct":true,"confidence":-1},{"trial_n":4,"n_dots":3.85,"target":"right","response":"right","rt":652.60000000149,"correct":true,"confidence":-1},{"trial_n":5,"n_dots":3.85,"target":"left","response":"left","rt":465.39999999851,"correct":true,"confidence":-1},{"trial_n":6,"n_dots":3.45,"target":"left","response":"left","rt":624.5,"correct":true,"confidence":-1},{"trial_n":7,"n_dots":3.45,"target":"right","response":"right","rt":604.89999999851,"correct":true,"confidence":-1},{"trial_n":8,"n_dots":3.25,"target":"right","response":"right","rt":900.5,"correct":true,"confidence":-1},{"trial_n":9,"n_dots":3.25,"target":"left","response":"left","rt":610.19999999553,"correct":true,"confidence":-1},{"trial_n":10,"n_dots":3.05,"target":"left","response":"left","rt":746.89999999851,"correct":true,"confidence":-1},{"trial_n":11,"n_dots":3.05,"target":"right","response":"right","rt":725.29999999702,"correct":true,"confidence":-1},{"trial_n":12,"n_dots":2.85,"target":"right","response":"right","rt":517.5,"correct":true,"confidence":-1},{"trial_n":13,"n_dots":2.85,"target":"right","response":"right","rt":593.5,"correct":true,"confidence":-1},{"trial_n":14,"n_dots":2.75,"target":"left","response":"left","rt":721,"correct":true,"confidence":-1},{"trial_n":15,"n_dots":2.75,"target":"right","response":"left","rt":757.80000000447,"correct":false,"confidence":-1},{"trial_n":16,"n_dots":2.85,"target":"right","response":"left","rt":683,"correct":false,"confidence":-1},{"trial_n":17,"n_dots":2.95,"target":"left","response":"right","rt":580.39999999851,"correct":false,"confidence":-1},{"trial_n":18,"n_dots":3.05,"target":"right","response":"left","rt":716.70000000298,"correct":false,"confidence":-1},{"trial_n":19,"n_dots":3.15,"target":"left","response":"left","rt":794.5,"correct":true,"confidence":-1},{"trial_n":20,"n_dots":3.15,"target":"right","response":"left","rt":1258.099999994,"correct":false,"confidence":-1},{"trial_n":21,"n_dots":3.25,"target":"right","response":"right","rt":488,"correct":true,"confidence":-1},{"trial_n":22,"n_dots":3.25,"target":"left","response":"left","rt":538.39999999851,"correct":true,"confidence":-1},{"trial_n":23,"n_dots":3.15,"target":"left","response":"left","rt":690.70000000298,"correct":true,"confidence":-1},{"trial_n":24,"n_dots":3.15,"target":"right","response":"right","rt":687.30000000447,"correct":true,"confidence":-1},{"trial_n":25,"n_dots":3.05,"target":"left","response":"left","rt":485.89999999851,"correct":true,"confidence":-1},{"trial_n":26,"n_dots":3.05,"target":"left","response":"left","rt":574.39999999851,"correct":true,"confidence":-1},{"trial_n":27,"n_dots":2.95,"target":"right","response":"left","rt":2189.900000006,"correct":false,"confidence":2},{"trial_n":28,"n_dots":3.05,"target":"right","response":"right","rt":792.5,"correct":true,"confidence":3},{"trial_n":29,"n_dots":3.05,"target":"right","response":"left","rt":701.89999999851,"correct":false,"confidence":4},{"trial_n":30,"n_dots":3.15,"target":"left","response":"left","rt":677.60000000149,"correct":true,"confidence":6},{"trial_n":31,"n_dots":3.15,"target":"left","response":"left","rt":563.29999999702,"correct":true,"confidence":6},{"trial_n":32,"n_dots":3.05,"target":"left","response":"left","rt":583.79999999702,"correct":true,"confidence":5},{"trial_n":33,"n_dots":3.05,"target":"right","response":"left","rt":628.89999999851,"correct":false,"confidence":3},{"trial_n":34,"n_dots":3.15,"target":"left","response":"left","rt":615.89999999851,"correct":true,"confidence":3},{"trial_n":35,"n_dots":3.15,"target":"right","response":"right","rt":652.70000000298,"correct":true,"confidence":4},{"trial_n":36,"n_dots":3.05,"target":"left","response":"right","rt":1015.5,"correct":false,"confidence":2},{"trial_n":37,"n_dots":3.15,"target":"left","response":"left","rt":618.30000000447,"correct":true,"confidence":5},{"trial_n":38,"n_dots":3.15,"target":"left","response":"left","rt":755.60000000149,"correct":true,"confidence":3},{"trial_n":39,"n_dots":3.05,"target":"right","response":"left","rt":1422.200000003,"correct":false,"confidence":3},{"trial_n":40,"n_dots":3.15,"target":"right","response":"right","rt":709.5,"correct":true,"confidence":5},{"trial_n":41,"n_dots":3.15,"target":"right","response":"left","rt":736.39999999851,"correct":false,"confidence":3},{"trial_n":42,"n_dots":3.25,"target":"right","response":"right","rt":602.10000000149,"correct":true,"confidence":5},{"trial_n":43,"n_dots":3.25,"target":"left","response":"left","rt":687.10000000149,"correct":true,"confidence":6},{"trial_n":44,"n_dots":3.15,"target":"left","response":"right","rt":599.19999999553,"correct":false,"confidence":4},{"trial_n":45,"n_dots":3.25,"target":"right","response":"right","rt":725.29999999702,"correct":true,"confidence":6},{"trial_n":46,"n_dots":3.25,"target":"right","response":"right","rt":1001.6999999955,"correct":true,"confidence":3},{"trial_n":47,"n_dots":3.15,"target":"left","response":"left","rt":682.60000000149,"correct":true,"confidence":6},{"trial_n":48,"n_dots":3.15,"target":"right","response":"right","rt":7501,"correct":true,"confidence":2},{"trial_n":49,"n_dots":3.05,"target":"right","response":"right","rt":718,"correct":true,"confidence":4},{"trial_n":50,"n_dots":3.05,"target":"right","response":"right","rt":484.60000000149,"correct":true,"confidence":6},{"trial_n":51,"n_dots":2.95,"target":"left","response":"left","rt":649.40000000596,"correct":true,"confidence":2},{"trial_n":52,"n_dots":2.95,"target":"right","response":"right","rt":565.39999999851,"correct":true,"confidence":5},{"trial_n":53,"n_dots":2.85,"target":"right","response":"left","rt":1411.799999997,"correct":false,"confidence":3},{"trial_n":54,"n_dots":2.95,"target":"right","response":"left","rt":676,"correct":false,"confidence":5},{"trial_n":55,"n_dots":3.05,"target":"left","response":"left","rt":2681.599999994,"correct":true,"confidence":2},{"trial_n":56,"n_dots":3.05,"target":"right","response":"right","rt":769.29999999702,"correct":true,"confidence":4},{"trial_n":57,"n_dots":2.95,"target":"right","response":"right","rt":1324,"correct":true,"confidence":5},{"trial_n":58,"n_dots":2.95,"target":"right","response":"left","rt":1421.700000003,"correct":false,"confidence":2},{"trial_n":59,"n_dots":3.05,"target":"left","response":"left","rt":737,"correct":true,"confidence":5},{"trial_n":60,"n_dots":3.05,"target":"right","response":"right","rt":467.89999999851,"correct":true,"confidence":5},{"trial_n":61,"n_dots":2.95,"target":"right","response":"right","rt":697,"correct":true,"confidence":4},{"trial_n":62,"n_dots":2.95,"target":"left","response":"right","rt":488.5,"correct":false,"confidence":4},{"trial_n":63,"n_dots":3.05,"target":"left","response":"left","rt":593.70000000298,"correct":true,"confidence":3},{"trial_n":64,"n_dots":3.05,"target":"left","response":"right","rt":394,"correct":false,"confidence":6},{"trial_n":65,"n_dots":3.15,"target":"left","response":"left","rt":654.69999999553,"correct":true,"confidence":5},{"trial_n":66,"n_dots":3.15,"target":"right","response":"right","rt":424.5,"correct":true,"confidence":6},{"trial_n":67,"n_dots":3.05,"target":"right","response":"left","rt":1538,"correct":false,"confidence":3},{"trial_n":68,"n_dots":3.15,"target":"left","response":"left","rt":853.29999999702,"correct":true,"confidence":4},{"trial_n":69,"n_dots":3.15,"target":"left","response":"left","rt":992.30000000447,"correct":true,"confidence":6},{"trial_n":70,"n_dots":3.05,"target":"left","response":"left","rt":1031,"correct":true,"confidence":6},{"trial_n":71,"n_dots":3.05,"target":"right","response":"right","rt":649.59999999404,"correct":true,"confidence":4},{"trial_n":72,"n_dots":2.95,"target":"right","response":"right","rt":673.89999999851,"correct":true,"confidence":4},{"trial_n":73,"n_dots":2.95,"target":"right","response":"right","rt":1462.599999994,"correct":true,"confidence":4},{"trial_n":74,"n_dots":2.85,"target":"right","response":"left","rt":803.89999999851,"correct":false,"confidence":4},{"trial_n":75,"n_dots":2.95,"target":"right","response":"right","rt":783.80000000447,"correct":true,"confidence":4},{"trial_n":76,"n_dots":2.95,"target":"left","response":"left","rt":742.89999999851,"correct":true,"confidence":6},{"trial_n":77,"n_dots":2.85,"target":"left","response":"left","rt":1156.8000000045,"correct":true,"confidence":6},{"trial_n":78,"n_dots":2.85,"target":"right","response":"right","rt":1780,"correct":true,"confidence":4},{"trial_n":79,"n_dots":2.75,"target":"left","response":"left","rt":814.79999999702,"correct":true,"confidence":4},{"trial_n":80,"n_dots":2.75,"target":"left","response":"left","rt":433.19999999553,"correct":true,"confidence":6},{"trial_n":81,"n_dots":2.65,"target":"right","response":"right","rt":415,"correct":true,"confidence":4},{"trial_n":82,"n_dots":2.65,"target":"right","response":"left","rt":515.60000000149,"correct":false,"confidence":4},{"trial_n":83,"n_dots":2.75,"target":"left","response":"left","rt":436.39999999851,"correct":true,"confidence":6},{"trial_n":84,"n_dots":2.75,"target":"left","response":"left","rt":650,"correct":true,"confidence":4},{"trial_n":85,"n_dots":2.65,"target":"left","response":"left","rt":925.29999999702,"correct":true,"confidence":4},{"trial_n":86,"n_dots":2.65,"target":"left","response":"left","rt":586.90000000596,"correct":true,"confidence":5},{"trial_n":87,"n_dots":2.55,"target":"right","response":"left","rt":804.5,"correct":false,"confidence":5},{"trial_n":88,"n_dots":2.65,"target":"left","response":"left","rt":625.69999999553,"correct":true,"confidence":5},{"trial_n":89,"n_dots":2.65,"target":"left","response":"left","rt":1011.799999997,"correct":true,"confidence":6},{"trial_n":90,"n_dots":2.55,"target":"left","response":"left","rt":664.89999999851,"correct":true,"confidence":6},{"trial_n":91,"n_dots":2.55,"target":"right","response":"right","rt":4752.299999997,"correct":true,"confidence":5},{"trial_n":92,"n_dots":2.45,"target":"right","response":"left","rt":504.19999999553,"correct":false,"confidence":3},{"trial_n":93,"n_dots":2.55,"target":"right","response":"left","rt":3596.6000000015,"correct":false,"confidence":4},{"trial_n":94,"n_dots":2.65,"target":"left","response":"left","rt":556.29999999702,"correct":true,"confidence":4},{"trial_n":95,"n_dots":2.65,"target":"left","response":"left","rt":833,"correct":true,"confidence":3},{"trial_n":96,"n_dots":2.55,"target":"left","response":"left","rt":743.39999999851,"correct":true,"confidence":3},{"trial_n":97,"n_dots":2.55,"target":"right","response":"right","rt":449.5,"correct":true,"confidence":5},{"trial_n":98,"n_dots":2.45,"target":"left","response":"left","rt":539,"correct":true,"confidence":5},{"trial_n":99,"n_dots":2.45,"target":"right","response":"right","rt":487.20000000298,"correct":true,"confidence":5},{"trial_n":100,"n_dots":2.35,"target":"left","response":"left","rt":677.09999999404,"correct":true,"confidence":5},{"trial_n":101,"n_dots":2.35,"target":"left","response":"right","rt":945.20000000298,"correct":false,"confidence":4},{"trial_n":102,"n_dots":2.45,"target":"right","response":"left","rt":512.59999999404,"correct":false,"confidence":5},{"trial_n":103,"n_dots":2.55,"target":"right","response":"left","rt":793.10000000149,"correct":false,"confidence":1},{"trial_n":104,"n_dots":2.65,"target":"right","response":"left","rt":727.39999999851,"correct":false,"confidence":3},{"trial_n":105,"n_dots":2.75,"target":"left","response":"left","rt":620.60000000149,"correct":true,"confidence":6},{"trial_n":106,"n_dots":2.75,"target":"left","response":"left","rt":542.60000000149,"correct":true,"confidence":6},{"trial_n":107,"n_dots":2.65,"target":"right","response":"right","rt":1499.900000006,"correct":true,"confidence":4},{"trial_n":108,"n_dots":2.65,"target":"right","response":"right","rt":485.89999999851,"correct":true,"confidence":6},{"trial_n":109,"n_dots":2.55,"target":"left","response":"left","rt":539.89999999851,"correct":true,"confidence":6},{"trial_n":110,"n_dots":2.55,"target":"left","response":"left","rt":581,"correct":true,"confidence":5},{"trial_n":111,"n_dots":2.45,"target":"right","response":"right","rt":1150.299999997,"correct":true,"confidence":5},{"trial_n":112,"n_dots":2.45,"target":"right","response":"left","rt":526.20000000298,"correct":false,"confidence":6},{"trial_n":113,"n_dots":2.55,"target":"left","response":"left","rt":535.60000000149,"correct":true,"confidence":6},{"trial_n":114,"n_dots":2.55,"target":"left","response":"right","rt":601.89999999851,"correct":false,"confidence":6},{"trial_n":115,"n_dots":2.65,"target":"right","response":"left","rt":646.89999999851,"correct":false,"confidence":5},{"trial_n":116,"n_dots":2.75,"target":"right","response":"right","rt":285.79999999702,"correct":true,"confidence":6},{"trial_n":117,"n_dots":2.75,"target":"right","response":"right","rt":664.29999999702,"correct":true,"confidence":6},{"trial_n":118,"n_dots":2.65,"target":"right","response":"left","rt":742.60000000149,"correct":false,"confidence":5},{"trial_n":119,"n_dots":2.75,"target":"right","response":"left","rt":342,"correct":false,"confidence":6},{"trial_n":120,"n_dots":2.85,"target":"left","response":"left","rt":569.10000000149,"correct":true,"confidence":6},{"trial_n":121,"n_dots":2.85,"target":"right","response":"right","rt":553,"correct":true,"confidence":5},{"trial_n":122,"n_dots":2.75,"target":"right","response":"right","rt":407.60000000149,"correct":true,"confidence":5},{"trial_n":123,"n_dots":2.75,"target":"right","response":"left","rt":425.09999999404,"correct":false,"confidence":6},{"trial_n":124,"n_dots":2.85,"target":"right","response":"left","rt":553.60000000149,"correct":false,"confidence":5},{"trial_n":125,"n_dots":2.95,"target":"left","response":"left","rt":392.29999999702,"correct":true,"confidence":6},{"trial_n":126,"n_dots":2.95,"target":"left","response":"left","rt":376.5,"correct":true,"confidence":2},{"trial_n":127,"n_dots":2.85,"target":"right","response":"right","rt":621.29999999702,"correct":true,"confidence":5},{"trial_n":128,"n_dots":2.85,"target":"left","response":"left","rt":436,"correct":true,"confidence":4},{"trial_n":129,"n_dots":2.75,"target":"left","response":"right","rt":1645.900000006,"correct":false,"confidence":3},{"trial_n":130,"n_dots":2.85,"target":"left","response":"left","rt":571.10000000149,"correct":true,"confidence":2},{"trial_n":131,"n_dots":2.85,"target":"left","response":"left","rt":398.60000000149,"correct":true,"confidence":2},{"trial_n":132,"n_dots":2.75,"target":"left","response":"right","rt":357.39999999851,"correct":false,"confidence":3},{"trial_n":133,"n_dots":2.85,"target":"right","response":"left","rt":776.30000000447,"correct":false,"confidence":3},{"trial_n":134,"n_dots":2.95,"target":"left","response":"right","rt":770.89999999851,"correct":false,"confidence":4},{"trial_n":135,"n_dots":3.05,"target":"left","response":"left","rt":1341.8000000045,"correct":true,"confidence":6},{"trial_n":136,"n_dots":3.05,"target":"left","response":"left","rt":1371.3000000045,"correct":true,"confidence":5},{"trial_n":137,"n_dots":2.95,"target":"left","response":"left","rt":420.59999999404,"correct":true,"confidence":5},{"trial_n":138,"n_dots":2.95,"target":"right","response":"left","rt":702.29999999702,"correct":false,"confidence":4},{"trial_n":139,"n_dots":3.05,"target":"right","response":"right","rt":547.89999999851,"correct":true,"confidence":5},{"trial_n":140,"n_dots":3.05,"target":"left","response":"left","rt":638,"correct":true,"confidence":3},{"trial_n":141,"n_dots":2.95,"target":"left","response":"left","rt":755,"correct":true,"confidence":4},{"trial_n":142,"n_dots":2.95,"target":"right","response":"left","rt":616.80000000447,"correct":false,"confidence":4},{"trial_n":143,"n_dots":3.05,"target":"right","response":"right","rt":594.79999999702,"correct":true,"confidence":4},{"trial_n":144,"n_dots":3.05,"target":"left","response":"left","rt":663.39999999851,"correct":true,"confidence":4},{"trial_n":145,"n_dots":2.95,"target":"right","response":"left","rt":587.10000000149,"correct":false,"confidence":3},{"trial_n":146,"n_dots":3.05,"target":"left","response":"left","rt":412.5,"correct":true,"confidence":4},{"trial_n":147,"n_dots":3.05,"target":"left","response":"left","rt":397.5,"correct":true,"confidence":5},{"trial_n":148,"n_dots":2.95,"target":"right","response":"right","rt":960.79999999702,"correct":true,"confidence":2},{"trial_n":149,"n_dots":2.95,"target":"left","response":"left","rt":495.89999999851,"correct":true,"confidence":4},{"trial_n":150,"n_dots":2.85,"target":"left","response":"left","rt":665.30000000447,"correct":true,"confidence":4},{"trial_n":151,"n_dots":2.85,"target":"left","response":"left","rt":482.10000000149,"correct":true,"confidence":5},{"trial_n":152,"n_dots":2.75,"target":"right","response":"right","rt":326.5,"correct":true,"confidence":1},{"trial_n":153,"n_dots":2.75,"target":"right","response":"right","rt":312.89999999851,"correct":true,"confidence":4},{"trial_n":154,"n_dots":2.65,"target":"left","response":"left","rt":366.70000000298,"correct":true,"confidence":5},{"trial_n":155,"n_dots":2.65,"target":"left","response":"right","rt":423.69999999553,"correct":false,"confidence":4},{"trial_n":156,"n_dots":2.75,"target":"right","response":"right","rt":787.69999999553,"correct":true,"confidence":4},{"trial_n":157,"n_dots":2.75,"target":"left","response":"left","rt":413.30000000447,"correct":true,"confidence":5},{"trial_n":158,"n_dots":2.65,"target":"right","response":"right","rt":428.79999999702,"correct":true,"confidence":4},{"trial_n":159,"n_dots":2.65,"target":"right","response":"left","rt":1036.8999999985,"correct":false,"confidence":4},{"trial_n":160,"n_dots":2.75,"target":"right","response":"right","rt":152,"correct":true,"confidence":5},{"trial_n":161,"n_dots":2.75,"target":"right","response":"left","rt":641.5,"correct":false,"confidence":4},{"trial_n":162,"n_dots":2.85,"target":"left","response":"left","rt":1378,"correct":true,"confidence":6},{"trial_n":163,"n_dots":2.85,"target":"left","response":"left","rt":474.19999999553,"correct":true,"confidence":6},{"trial_n":164,"n_dots":2.75,"target":"right","response":"left","rt":875.20000000298,"correct":false,"confidence":4},{"trial_n":165,"n_dots":2.85,"target":"left","response":"left","rt":543.80000000447,"correct":true,"confidence":5},{"trial_n":166,"n_dots":2.85,"target":"right","response":"right","rt":462.5,"correct":true,"confidence":4},{"trial_n":167,"n_dots":2.75,"target":"left","response":"left","rt":472.5,"correct":true,"confidence":5},{"trial_n":168,"n_dots":2.75,"target":"left","response":"left","rt":1563,"correct":true,"confidence":2},{"trial_n":169,"n_dots":2.65,"target":"left","response":"right","rt":966.40000000596,"correct":false,"confidence":5},{"trial_n":170,"n_dots":2.75,"target":"right","response":"right","rt":662.69999999553,"correct":true,"confidence":5},{"trial_n":171,"n_dots":2.75,"target":"right","response":"left","rt":946.60000000149,"correct":false,"confidence":3},{"trial_n":172,"n_dots":2.85,"target":"left","response":"left","rt":1563.6000000015,"correct":true,"confidence":4},{"trial_n":173,"n_dots":2.85,"target":"right","response":"left","rt":1106,"correct":false,"confidence":6},{"trial_n":174,"n_dots":2.95,"target":"left","response":"left","rt":764.80000000447,"correct":true,"confidence":2},{"trial_n":175,"n_dots":2.95,"target":"left","response":"left","rt":414.09999999404,"correct":true,"confidence":6},{"trial_n":176,"n_dots":2.85,"target":"right","response":"right","rt":358.30000000447,"correct":true,"confidence":6},{"trial_n":177,"n_dots":2.85,"target":"left","response":"left","rt":402.60000000149,"correct":true,"confidence":6},{"trial_n":178,"n_dots":2.75,"target":"right","response":"right","rt":450.60000000149,"correct":true,"confidence":5},{"trial_n":179,"n_dots":2.75,"target":"left","response":"left","rt":413.09999999404,"correct":true,"confidence":5},{"trial_n":180,"n_dots":2.65,"target":"right","response":"left","rt":129.20000000298,"correct":false,"confidence":6},{"trial_n":181,"n_dots":2.75,"target":"right","response":"right","rt":728.60000000149,"correct":true,"confidence":5},{"trial_n":182,"n_dots":2.75,"target":"right","response":"left","rt":618.40000000596,"correct":false,"confidence":5},{"trial_n":183,"n_dots":2.85,"target":"left","response":"left","rt":358.29999999702,"correct":true,"confidence":6},{"trial_n":184,"n_dots":2.85,"target":"left","response":"left","rt":416.80000000447,"correct":true,"confidence":6},{"trial_n":185,"n_dots":2.75,"target":"left","response":"right","rt":554.5,"correct":false,"confidence":3},{"trial_n":186,"n_dots":2.85,"target":"right","response":"right","rt":435.10000000149,"correct":true,"confidence":1},{"trial_n":187,"n_dots":2.85,"target":"left","response":"left","rt":373.29999999702,"correct":true,"confidence":5},{"trial_n":188,"n_dots":2.75,"target":"left","response":"left","rt":389.39999999851,"correct":true,"confidence":6},{"trial_n":189,"n_dots":2.75,"target":"left","response":"left","rt":498.5,"correct":true,"confidence":6},{"trial_n":190,"n_dots":2.65,"target":"right","response":"left","rt":1263.799999997,"correct":false,"confidence":3},{"trial_n":191,"n_dots":2.75,"target":"left","response":"left","rt":812.89999999851,"correct":true,"confidence":4},{"trial_n":192,"n_dots":2.75,"target":"right","response":"right","rt":981.79999999702,"correct":true,"confidence":3},{"trial_n":193,"n_dots":2.65,"target":"left","response":"left","rt":406.59999999404,"correct":true,"confidence":6},{"trial_n":194,"n_dots":2.65,"target":"right","response":"right","rt":542.10000000149,"correct":true,"confidence":4}]