[{"trial_n":1,"n_dots":4.25,"target":"right","response":"left","rt":13552.099999905,"correct":false,"confidence":-1},{"trial_n":2,"n_dots":4.25,"target":"right","response":"right","rt":2537.7000002861,"correct":true,"confidence":-1},{"trial_n":3,"n_dots":4.25,"target":"right","response":"right","rt":693.30000019073,"correct":true,"confidence":-1},{"trial_n":4,"n_dots":3.85,"target":"right","response":"left","rt":2023.9000000954,"correct":false,"confidence":-1},{"trial_n":5,"n_dots":4.25,"target":"left","response":"left","rt":404.19999980927,"correct":true,"confidence":-1},{"trial_n":6,"n_dots":4.25,"target":"left","response":"left","rt":503.09999990463,"correct":true,"confidence":-1},{"trial_n":7,"n_dots":3.85,"target":"left","response":"right","rt":1182.5999999046,"correct":false,"confidence":-1},{"trial_n":8,"n_dots":4.05,"target":"left","response":"right","rt":279.59999990463,"correct":false,"confidence":-1},{"trial_n":9,"n_dots":4.25,"target":"left","response":"left","rt":2143.8999996185,"correct":true,"confidence":-1},{"trial_n":10,"n_dots":4.25,"target":"left","response":"right","rt":992.80000019073,"correct":false,"confidence":-1},{"trial_n":11,"n_dots":4.45,"target":"right","response":"right","rt":1308.3999996185,"correct":true,"confidence":-1},{"trial_n":12,"n_dots":4.45,"target":"right","response":"right","rt":416.80000019073,"correct":true,"confidence":-1},{"trial_n":13,"n_dots":4.35,"target":"right","response":"left","rt":1067,"correct":false,"confidence":-1},{"trial_n":14,"n_dots":4.45,"target":"right","response":"right","rt":360.10000038147,"correct":true,"confidence":-1},{"trial_n":15,"n_dots":4.45,"target":"left","response":"left","rt":5393,"correct":true,"confidence":-1},{"trial_n":16,"n_dots":4.35,"target":"right","response":"left","rt":420.19999980927,"correct":false,"confidence":-1},{"trial_n":17,"n_dots":4.45,"target":"right","response":"right","rt":2294,"correct":true,"confidence":-1},{"trial_n":18,"n_dots":4.45,"target":"left","response":"right","rt":693.19999980927,"correct":false,"confidence":-1},{"trial_n":19,"n_dots":4.55,"target":"left","response":"left","rt":541.59999990463,"correct":true,"confidence":-1},{"trial_n":20,"n_dots":4.55,"target":"left","response":"left","rt":629.59999990463,"correct":true,"confidence":-1},{"trial_n":21,"n_dots":4.45,"target":"right","response":"right","rt":1169.3000001907,"correct":true,"confidence":-1},{"trial_n":22,"n_dots":4.45,"target":"left","response":"left","rt":1628.2999997139,"correct":true,"confidence":-1},{"trial_n":23,"n_dots":4.35,"target":"left","response":"left","rt":420.60000038147,"correct":true,"confidence":-1},{"trial_n":24,"n_dots":4.35,"target":"left","response":"left","rt":824.59999990463,"correct":true,"confidence":-1},{"trial_n":25,"n_dots":4.25,"target":"left","response":"left","rt":437.5,"correct":true,"confidence":-1},{"trial_n":26,"n_dots":4.25,"target":"right","response":"right","rt":982.89999961853,"correct":true,"confidence":-1},{"trial_n":27,"n_dots":4.15,"target":"right","response":"right","rt":1152.7999997139,"correct":true,"confidence":4},{"trial_n":28,"n_dots":4.15,"target":"left","response":"left","rt":2154.3000001907,"correct":true,"confidence":4},{"trial_n":29,"n_dots":4.05,"target":"left","response":"left","rt":470.40000009537,"correct":true,"confidence":3},{"trial_n":30,"n_dots":4.05,"target":"right","response":"right","rt":1309,"correct":true,"confidence":4},{"trial_n":31,"n_dots":3.95,"target":"right","response":"left","rt":1488,"correct":false,"confidence":3},{"trial_n":32,"n_dots":4.05,"target":"right","response":"left","rt":661.40000009537,"correct":false,"confidence":4},{"trial_n":33,"n_dots":4.15,"target":"left","response":"left","rt":252.30000019073,"correct":true,"confidence":5},{"trial_n":34,"n_dots":4.15,"target":"right","response":"left","rt":847,"correct":false,"confidence":4},{"trial_n":35,"n_dots":4.25,"target":"right","response":"right","rt":3698.4000000954,"correct":true,"confidence":4},{"trial_n":36,"n_dots":4.25,"target":"left","response":"right","rt":1487.5,"correct":false,"confidence":4},{"trial_n":37,"n_dots":4.35,"target":"right","response":"right","rt":1138.1000003815,"correct":true,"confidence":4},{"trial_n":38,"n_dots":4.35,"target":"left","response":"left","rt":894.7000002861,"correct":true,"confidence":4},{"trial_n":39,"n_dots":4.25,"target":"right","response":"left","rt":501.2000002861,"correct":false,"confidence":5},{"trial_n":40,"n_dots":4.35,"target":"left","response":"left","rt":2281.8999996185,"correct":true,"confidence":4},{"trial_n":41,"n_dots":4.35,"target":"left","response":"right","rt":903.5,"correct":false,"confidence":4},{"trial_n":42,"n_dots":4.45,"target":"left","response":"left","rt":930.40000009537,"correct":true,"confidence":4},{"trial_n":43,"n_dots":4.45,"target":"left","response":"left","rt":773.5,"correct":true,"confidence":4},{"trial_n":44,"n_dots":4.35,"target":"right","response":"left","rt":958.5,"correct":false,"confidence":4},{"trial_n":45,"n_dots":4.45,"target":"left","response":"right","rt":882.09999990463,"correct":false,"confidence":3},{"trial_n":46,"n_dots":4.55,"target":"left","response":"left","rt":358.30000019073,"correct":true,"confidence":4},{"trial_n":47,"n_dots":4.55,"target":"right","response":"right","rt":590.5,"correct":true,"confidence":5},{"trial_n":48,"n_dots":4.45,"target":"left","response":"left","rt":729.80000019073,"correct":true,"confidence":4},{"trial_n":49,"n_dots":4.45,"target":"right","response":"left","rt":985.2000002861,"correct":false,"confidence":4},{"trial_n":50,"n_dots":4.55,"target":"left","response":"right","rt":3524.6000003815,"correct":false,"confidence":4},{"trial_n":51,"n_dots":4.65,"target":"left","response":"left","rt":839.39999961853,"correct":true,"confidence":4},{"trial_n":52,"n_dots":4.65,"target":"right","response":"left","rt":1230.6999998093,"correct":false,"confidence":4},{"trial_n":53,"n_dots":4.75,"target":"left","response":"left","rt":856,"correct":true,"confidence":4},{"trial_n":54,"n_dots":4.75,"target":"left","response":"left","rt":922.39999961853,"correct":true,"confidence":5},{"trial_n":55,"n_dots":4.65,"target":"right","response":"right","rt":372.30000019073,"correct":true,"confidence":4},{"trial_n":56,"n_dots":4.65,"target":"right","response":"right","rt":622.5,"correct":true,"confidence":4},{"trial_n":57,"n_dots":4.55,"target":"left","response":"left","rt":662.90000009537,"correct":true,"confidence":4},{"trial_n":58,"n_dots":4.55,"target":"left","response":"left","rt":882.09999990463,"correct":true,"confidence":3},{"trial_n":59,"n_dots":4.45,"target":"right","response":"right","rt":448.59999990463,"correct":true,"confidence":4},{"trial_n":60,"n_dots":4.45,"target":"right","response":"right","rt":1063.6999998093,"correct":true,"confidence":3},{"trial_n":61,"n_dots":4.35,"target":"left","response":"right","rt":885.09999990463,"correct":false,"confidence":4},{"trial_n":62,"n_dots":4.45,"target":"left","response":"left","rt":753.19999980927,"correct":true,"confidence":4},{"trial_n":63,"n_dots":4.45,"target":"left","response":"left","rt":666.30000019073,"correct":true,"confidence":5},{"trial_n":64,"n_dots":4.35,"target":"right","response":"left","rt":2164.3000001907,"correct":false,"confidence":4},{"trial_n":65,"n_dots":4.45,"target":"left","response":"left","rt":726.80000019073,"correct":true,"confidence":4},{"trial_n":66,"n_dots":4.45,"target":"right","response":"right","rt":370.90000009537,"correct":true,"confidence":4},{"trial_n":67,"n_dots":4.35,"target":"left","response":"left","rt":368.19999980927,"correct":true,"confidence":4},{"trial_n":68,"n_dots":4.35,"target":"left","response":"left","rt":646.19999980927,"correct":true,"confidence":4},{"trial_n":69,"n_dots":4.25,"target":"left","response":"left","rt":509.80000019073,"correct":true,"confidence":5},{"trial_n":70,"n_dots":4.25,"target":"right","response":"left","rt":827.59999990463,"correct":false,"confidence":5},{"trial_n":71,"n_dots":4.35,"target":"right","response":"right","rt":836.39999961853,"correct":true,"confidence":4},{"trial_n":72,"n_dots":4.35,"target":"left","response":"left","rt":380.10000038147,"correct":true,"confidence":4},{"trial_n":73,"n_dots":4.25,"target":"right","response":"right","rt":483.7999997139,"correct":true,"confidence":5},{"trial_n":74,"n_dots":4.25,"target":"right","response":"left","rt":818.5,"correct":false,"confidence":4},{"trial_n":75,"n_dots":4.35,"target":"right","response":"right","rt":457,"correct":true,"confidence":5},{"trial_n":76,"n_dots":4.35,"target":"right","response":"right","rt":239.59999990463,"correct":true,"confidence":4},{"trial_n":77,"n_dots":4.25,"target":"left","response":"left","rt":366.30000019073,"correct":true,"confidence":4},{"trial_n":78,"n_dots":4.25,"target":"left","response":"left","rt":276,"correct":true,"confidence":4},{"trial_n":79,"n_dots":4.15,"target":"left","response":"left","rt":1059.8000001907,"correct":true,"confidence":3},{"trial_n":80,"n_dots":4.15,"target":"left","response":"left","rt":852.5,"correct":true,"confidence":4},{"trial_n":81,"n_dots":4.05,"target":"right","response":"left","rt":345.80000019073,"correct":false,"confidence":4},{"trial_n":82,"n_dots":4.15,"target":"left","response":"left","rt":574.40000009537,"correct":true,"confidence":4},{"trial_n":83,"n_dots":4.15,"target":"left","response":"right","rt":436.80000019073,"correct":false,"confidence":5},{"trial_n":84,"n_dots":4.25,"target":"right","response":"right","rt":537.30000019073,"correct":true,"confidence":4},{"trial_n":85,"n_dots":4.25,"target":"left","response":"left","rt":1183,"correct":true,"confidence":4},{"trial_n":86,"n_dots":4.15,"target":"right","response":"right","rt":283.2000002861,"correct":true,"confidence":4},{"trial_n":87,"n_dots":4.15,"target":"left","response":"right","rt":583.40000009537,"correct":false,"confidence":4},{"trial_n":88,"n_dots":4.25,"target":"left","response":"left","rt":862.5,"correct":true,"confidence":5},{"trial_n":89,"n_dots":4.25,"target":"right","response":"right","rt":360.2999997139,"correct":true,"confidence":6},{"trial_n":90,"n_dots":4.15,"target":"left","response":"left","rt":680.69999980927,"correct":true,"confidence":4},{"trial_n":91,"n_dots":4.15,"target":"right","response":"right","rt":223.40000009537,"correct":true,"confidence":5},{"trial_n":92,"n_dots":4.05,"target":"left","response":"left","rt":900.5,"correct":true,"confidence":4},{"trial_n":93,"n_dots":4.05,"target":"left","response":"left","rt":397.19999980927,"correct":true,"confidence":4},{"trial_n":94,"n_dots":3.95,"target":"right","response":"right","rt":196.59999990463,"correct":true,"confidence":4},{"trial_n":95,"n_dots":3.95,"target":"left","response":"left","rt":395.7999997139,"correct":true,"confidence":6},{"trial_n":96,"n_dots":3.85,"target":"right","response":"left","rt":353.7999997139,"correct":false,"confidence":4},{"trial_n":97,"n_dots":3.95,"target":"left","response":"left","rt":1312.8999996185,"correct":true,"confidence":4},{"trial_n":98,"n_dots":3.95,"target":"right","response":"right","rt":784.30000019073,"correct":true,"confidence":4},{"trial_n":99,"n_dots":3.85,"target":"left","response":"left","rt":1647.6999998093,"correct":true,"confidence":4},{"trial_n":100,"n_dots":3.85,"target":"right","response":"left","rt":492.09999990463,"correct":false,"confidence":5},{"trial_n":101,"n_dots":3.95,"target":"right","response":"right","rt":993.10000038147,"correct":true,"confidence":4},{"trial_n":102,"n_dots":3.95,"target":"right","response":"right","rt":498.39999961853,"correct":true,"confidence":4},{"trial_n":103,"n_dots":3.85,"target":"right","response":"left","rt":1593.5,"correct":false,"confidence":4},{"trial_n":104,"n_dots":3.95,"target":"right","response":"right","rt":255.2999997139,"correct":true,"confidence":4},{"trial_n":105,"n_dots":3.95,"target":"right","response":"right","rt":316,"correct":true,"confidence":4},{"trial_n":106,"n_dots":3.85,"target":"left","response":"right","rt":822.59999990463,"correct":false,"confidence":4},{"trial_n":107,"n_dots":3.95,"target":"right","response":"right","rt":364.5,"correct":true,"confidence":5},{"trial_n":108,"n_dots":3.95,"target":"right","response":"left","rt":487.5,"correct":false,"confidence":4},{"trial_n":109,"n_dots":4.05,"target":"right","response":"left","rt":1650.5,"correct":false,"confidence":3},{"trial_n":110,"n_dots":4.15,"target":"left","response":"left","rt":291.7999997139,"correct":true,"confidence":4},{"trial_n":111,"n_dots":4.15,"target":"left","response":"right","rt":678.7999997139,"correct":false,"confidence":5},{"trial_n":112,"n_dots":4.25,"target":"left","response":"left","rt":136.5,"correct":true,"confidence":4},{"trial_n":113,"n_dots":4.25,"target":"left","response":"left","rt":251.09999990463,"correct":true,"confidence":4},{"trial_n":114,"n_dots":4.15,"target":"right","response":"right","rt":4489,"correct":true,"confidence":5},{"trial_n":115,"n_dots":4.15,"target":"right","response":"right","rt":158.5,"correct":true,"confidence":5},{"trial_n":116,"n_dots":4.05,"target":"right","response":"left","rt":449.7999997139,"correct":false,"confidence":4},{"trial_n":117,"n_dots":4.15,"target":"right","response":"right","rt":569.59999990463,"correct":true,"confidence":5},{"trial_n":118,"n_dots":4.15,"target":"right","response":"right","rt":261.40000009537,"correct":true,"confidence":5},{"trial_n":119,"n_dots":4.05,"target":"left","response":"left","rt":413.09999990463,"correct":true,"confidence":4},{"trial_n":120,"n_dots":4.05,"target":"right","response":"left","rt":787.5,"correct":false,"confidence":4},{"trial_n":121,"n_dots":4.15,"target":"right","response":"right","rt":186.5,"correct":true,"confidence":4},{"trial_n":122,"n_dots":4.15,"target":"left","response":"right","rt":1117.5,"correct":false,"confidence":4},{"trial_n":123,"n_dots":4.25,"target":"left","response":"left","rt":234.90000009537,"correct":true,"confidence":5},{"trial_n":124,"n_dots":4.25,"target":"left","response":"right","rt":1206,"correct":false,"confidence":4},{"trial_n":125,"n_dots":4.35,"target":"right","response":"right","rt":1269.7999997139,"correct":true,"confidence":4},{"trial_n":126,"n_dots":4.35,"target":"right","response":"left","rt":594.5,"correct":false,"confidence":5},{"trial_n":127,"n_dots":4.45,"target":"left","response":"left","rt":697.5,"correct":true,"confidence":4},{"trial_n":128,"n_dots":4.45,"target":"left","response":"left","rt":631.40000009537,"correct":true,"confidence":4},{"trial_n":129,"n_dots":4.35,"target":"right","response":"right","rt":365.69999980927,"correct":true,"confidence":4},{"trial_n":130,"n_dots":4.35,"target":"left","response":"left","rt":1121,"correct":true,"confidence":4},{"trial_n":131,"n_dots":4.25,"target":"left","response":"left","rt":437.5,"correct":true,"confidence":5},{"trial_n":132,"n_dots":4.25,"target":"right","response":"right","rt":551.7000002861,"correct":true,"confidence":6},{"trial_n":133,"n_dots":4.15,"target":"right","response":"right","rt":271.7000002861,"correct":true,"confidence":4},{"trial_n":134,"n_dots":4.15,"target":"right","response":"right","rt":611.40000009537,"correct":true,"confidence":5},{"trial_n":135,"n_dots":4.05,"target":"left","response":"left","rt":8483.6000003815,"correct":true,"confidence":5},{"trial_n":136,"n_dots":4.05,"target":"right","response":"right","rt":182,"correct":true,"confidence":5},{"trial_n":137,"n_dots":3.95,"target":"left","response":"left","rt":3069.7999997139,"correct":true,"confidence":4},{"trial_n":138,"n_dots":3.95,"target":"right","response":"left","rt":1017.3000001907,"correct":false,"confidence":5},{"trial_n":139,"n_dots":4.05,"target":"right","response":"left","rt":593.7999997139,"correct":false,"confidence":4},{"trial_n":140,"n_dots":4.15,"target":"left","response":"left","rt":690.69999980927,"correct":true,"confidence":4},{"trial_n":141,"n_dots":4.15,"target":"left","response":"left","rt":676.80000019073,"correct":true,"confidence":4},{"trial_n":142,"n_dots":4.05,"target":"right","response":"right","rt":227.2999997139,"correct":true,"confidence":5},{"trial_n":143,"n_dots":4.05,"target":"right","response":"right","rt":6225.3000001907,"correct":true,"confidence":4},{"trial_n":144,"n_dots":3.95,"target":"left","response":"left","rt":521.5,"correct":true,"confidence":4},{"trial_n":145,"n_dots":3.95,"target":"right","response":"right","rt":3755.4000000954,"correct":true,"confidence":4},{"trial_n":146,"n_dots":3.85,"target":"left","response":"left","rt":2670.1000003815,"correct":true,"confidence":4},{"trial_n":147,"n_dots":3.85,"target":"right","response":"right","rt":949.59999990463,"correct":true,"confidence":5},{"trial_n":148,"n_dots":3.75,"target":"right","response":"left","rt":1840.6999998093,"correct":false,"confidence":4},{"trial_n":149,"n_dots":3.85,"target":"left","response":"left","rt":323.59999990463,"correct":true,"confidence":5},{"trial_n":150,"n_dots":3.85,"target":"left","response":"left","rt":434.59999990463,"correct":true,"confidence":4},{"trial_n":151,"n_dots":3.75,"target":"left","response":"right","rt":2266.5999999046,"correct":false,"confidence":4},{"trial_n":152,"n_dots":3.85,"target":"left","response":"left","rt":419.90000009537,"correct":true,"confidence":4},{"trial_n":153,"n_dots":3.85,"target":"left","response":"left","rt":1779.4000000954,"correct":true,"confidence":4},{"trial_n":154,"n_dots":3.75,"target":"right","response":"right","rt":1391.4000000954,"correct":true,"confidence":4},{"trial_n":155,"n_dots":3.75,"target":"right","response":"left","rt":171.40000009537,"correct":false,"confidence":5},{"trial_n":156,"n_dots":3.85,"target":"left","response":"left","rt":501.7000002861,"correct":true,"confidence":5},{"trial_n":157,"n_dots":3.85,"target":"left","response":"left","rt":216.2999997139,"correct":true,"confidence":5},{"trial_n":158,"n_dots":3.75,"target":"left","response":"left","rt":374.09999990463,"correct":true,"confidence":5},{"trial_n":159,"n_dots":3.75,"target":"right","response":"right","rt":558.80000019073,"correct":true,"confidence":5},{"trial_n":160,"n_dots":3.65,"target":"left","response":"right","rt":954.90000009537,"correct":false,"confidence":5},{"trial_n":161,"n_dots":3.75,"target":"right","response":"left","rt":1068.5999999046,"correct":false,"confidence":4},{"trial_n":162,"n_dots":3.85,"target":"right","response":"right","rt":427.2000002861,"correct":true,"confidence":6},{"trial_n":163,"n_dots":3.85,"target":"left","response":"left","rt":360.59999990463,"correct":true,"confidence":4},{"trial_n":164,"n_dots":3.75,"target":"right","response":"right","rt":1104,"correct":true,"confidence":5},{"trial_n":165,"n_dots":3.75,"target":"right","response":"right","rt":910.7999997139,"correct":true,"confidence":4},{"trial_n":166,"n_dots":3.65,"target":"left","response":"left","rt":849.80000019073,"correct":true,"confidence":4},{"trial_n":167,"n_dots":3.65,"target":"right","response":"right","rt":452,"correct":true,"confidence":4},{"trial_n":168,"n_dots":3.55,"target":"right","response":"left","rt":993.5,"correct":false,"confidence":4},{"trial_n":169,"n_dots":3.65,"target":"left","response":"right","rt":458.69999980927,"correct":false,"confidence":5},{"trial_n":170,"n_dots":3.75,"target":"right","response":"right","rt":573.2999997139,"correct":true,"confidence":4},{"trial_n":171,"n_dots":3.75,"target":"right","response":"right","rt":686.5,"correct":true,"confidence":4},{"trial_n":172,"n_dots":3.65,"target":"right","response":"right","rt":645.5,"correct":true,"confidence":4},{"trial_n":173,"n_dots":3.65,"target":"left","response":"left","rt":409.59999990463,"correct":true,"confidence":4},{"trial_n":174,"n_dots":3.55,"target":"left","response":"right","rt":625.80000019073,"correct":false,"confidence":5},{"trial_n":175,"n_dots":3.65,"target":"left","response":"left","rt":411.60000038147,"correct":true,"confidence":5},{"trial_n":176,"n_dots":3.65,"target":"right","response":"right","rt":926.59999990463,"correct":true,"confidence":4},{"trial_n":177,"n_dots":3.55,"target":"right","response":"right","rt":723.5,"correct":true,"confidence":3},{"trial_n":178,"n_dots":3.55,"target":"right","response":"left","rt":1271.2000002861,"correct":false,"confidence":3},{"trial_n":179,"n_dots":3.65,"target":"right","response":"right","rt":601.5,"correct":true,"confidence":4},{"trial_n":180,"n_dots":3.65,"target":"left","response":"left","rt":446.40000009537,"correct":true,"confidence":4},{"trial_n":181,"n_dots":3.55,"target":"left","response":"left","rt":1049.5999999046,"correct":true,"confidence":4},{"trial_n":182,"n_dots":3.55,"target":"left","response":"left","rt":695.40000009537,"correct":true,"confidence":4},{"trial_n":183,"n_dots":3.45,"target":"left","response":"right","rt":1297.0999999046,"correct":false,"confidence":4},{"trial_n":184,"n_dots":3.55,"target":"left","response":"left","rt":518.7000002861,"correct":true,"confidence":4},{"trial_n":185,"n_dots":3.55,"target":"right","response":"left","rt":603.19999980927,"correct":false,"confidence":4},{"trial_n":186,"n_dots":3.65,"target":"left","response":"left","rt":345,"correct":true,"confidence":4},{"trial_n":187,"n_dots":3.65,"target":"right","response":"right","rt":515.2999997139,"correct":true,"confidence":5},{"trial_n":188,"n_dots":3.55,"target":"right","response":"left","rt":353,"correct":false,"confidence":4},{"trial_n":189,"n_dots":3.65,"target":"right","response":"right","rt":1110.1999998093,"correct":true,"confidence":5},{"trial_n":190,"n_dots":3.65,"target":"right","response":"right","rt":936.30000019073,"correct":true,"confidence":4},{"trial_n":191,"n_dots":3.55,"target":"right","response":"right","rt":263.5,"correct":true,"confidence":4},{"trial_n":192,"n_dots":3.55,"target":"left","response":"left","rt":359.09999990463,"correct":true,"confidence":4},{"trial_n":193,"n_dots":3.45,"target":"right","response":"left","rt":1564.5999999046,"correct":false,"confidence":4},{"trial_n":194,"n_dots":3.55,"target":"left","response":"left","rt":2708.1999998093,"correct":true,"confidence":4}]