[{"trial_n":1,"n_dots":4.25,"target":"left","response":"left","rt":6807.099999994,"correct":true,"confidence":-1},{"trial_n":2,"n_dots":4.25,"target":"left","response":"right","rt":3315.099999994,"correct":false,"confidence":-1},{"trial_n":3,"n_dots":4.65,"target":"right","response":"right","rt":1081.3999999985,"correct":true,"confidence":-1},{"trial_n":4,"n_dots":4.65,"target":"left","response":"left","rt":1602.700000003,"correct":true,"confidence":-1},{"trial_n":5,"n_dots":4.25,"target":"left","response":"left","rt":1380.8000000045,"correct":true,"confidence":-1},{"trial_n":6,"n_dots":4.25,"target":"left","response":"left","rt":761.10000000149,"correct":true,"confidence":-1},{"trial_n":7,"n_dots":3.85,"target":"left","response":"left","rt":716.10000000149,"correct":true,"confidence":-1},{"trial_n":8,"n_dots":3.85,"target":"left","response":"left","rt":1100.5,"correct":true,"confidence":-1},{"trial_n":9,"n_dots":3.65,"target":"right","response":"right","rt":1504,"correct":true,"confidence":-1},{"trial_n":10,"n_dots":3.65,"target":"right","response":"right","rt":834.39999999851,"correct":true,"confidence":-1},{"trial_n":11,"n_dots":3.45,"target":"left","response":"left","rt":1197.6999999955,"correct":true,"confidence":-1},{"trial_n":12,"n_dots":3.45,"target":"left","response":"left","rt":662.90000000596,"correct":true,"confidence":-1},{"trial_n":13,"n_dots":3.35,"target":"right","response":"left","rt":1538.3999999985,"correct":false,"confidence":-1},{"trial_n":14,"n_dots":3.45,"target":"right","response":"right","rt":1032,"correct":true,"confidence":-1},{"trial_n":15,"n_dots":3.45,"target":"left","response":"left","rt":1309.799999997,"correct":true,"confidence":-1},{"trial_n":16,"n_dots":3.35,"target":"left","response":"left","rt":679,"correct":true,"confidence":-1},{"trial_n":17,"n_dots":3.35,"target":"left","response":"left","rt":667.69999999553,"correct":true,"confidence":-1},{"trial_n":18,"n_dots":3.25,"target":"left","response":"right","rt":1063.5,"correct":false,"confidence":-1},{"trial_n":19,"n_dots":3.35,"target":"right","response":"right","rt":625.39999999851,"correct":true,"confidence":-1},{"trial_n":20,"n_dots":3.35,"target":"left","response":"left","rt":899.89999999851,"correct":true,"confidence":-1},{"trial_n":21,"n_dots":3.25,"target":"right","response":"left","rt":822.39999999851,"correct":false,"confidence":-1},{"trial_n":22,"n_dots":3.35,"target":"left","response":"left","rt":1036.200000003,"correct":true,"confidence":-1},{"trial_n":23,"n_dots":3.35,"target":"left","response":"left","rt":2351.8999999985,"correct":true,"confidence":-1},{"trial_n":24,"n_dots":3.25,"target":"right","response":"right","rt":1290.3999999985,"correct":true,"confidence":-1},{"trial_n":25,"n_dots":3.25,"target":"left","response":"left","rt":971.10000000149,"correct":true,"confidence":-1},{"trial_n":26,"n_dots":3.15,"target":"right","response":"right","rt":1356.1999999955,"correct":true,"confidence":-1},{"trial_n":27,"n_dots":3.15,"target":"left","response":"right","rt":951.69999999553,"correct":false,"confidence":3},{"trial_n":28,"n_dots":3.25,"target":"right","response":"right","rt":1338.1000000015,"correct":true,"confidence":6},{"trial_n":29,"n_dots":3.25,"target":"left","response":"right","rt":1167.599999994,"correct":false,"confidence":6},{"trial_n":30,"n_dots":3.35,"target":"left","response":"left","rt":846.70000000298,"correct":true,"confidence":6},{"trial_n":31,"n_dots":3.35,"target":"left","response":"left","rt":1180.799999997,"correct":true,"confidence":4},{"trial_n":32,"n_dots":3.25,"target":"right","response":"right","rt":942.5,"correct":true,"confidence":6},{"trial_n":33,"n_dots":3.25,"target":"right","response":"right","rt":1110.700000003,"correct":true,"confidence":6},{"trial_n":34,"n_dots":3.15,"target":"left","response":"left","rt":1103.6999999955,"correct":true,"confidence":2},{"trial_n":35,"n_dots":3.15,"target":"left","response":"left","rt":992.20000000298,"correct":true,"confidence":6},{"trial_n":36,"n_dots":3.05,"target":"left","response":"right","rt":718.5,"correct":false,"confidence":6},{"trial_n":37,"n_dots":3.15,"target":"right","response":"right","rt":1013.8999999985,"correct":true,"confidence":6},{"trial_n":38,"n_dots":3.15,"target":"right","response":"right","rt":1141.700000003,"correct":true,"confidence":4},{"trial_n":39,"n_dots":3.05,"target":"left","response":"right","rt":1878.8000000045,"correct":false,"confidence":6},{"trial_n":40,"n_dots":3.15,"target":"left","response":"left","rt":16453.199999996,"correct":true,"confidence":2},{"trial_n":41,"n_dots":3.15,"target":"right","response":"right","rt":1636.6000000015,"correct":true,"confidence":6},{"trial_n":42,"n_dots":3.05,"target":"left","response":"right","rt":2708,"correct":false,"confidence":3},{"trial_n":43,"n_dots":3.15,"target":"right","response":"right","rt":1513,"correct":true,"confidence":6},{"trial_n":44,"n_dots":3.15,"target":"right","response":"right","rt":993.10000000149,"correct":true,"confidence":6},{"trial_n":45,"n_dots":3.05,"target":"left","response":"right","rt":918.5,"correct":false,"confidence":6},{"trial_n":46,"n_dots":3.15,"target":"left","response":"left","rt":889,"correct":true,"confidence":6},{"trial_n":47,"n_dots":3.15,"target":"left","response":"left","rt":897.89999999851,"correct":true,"confidence":6},{"trial_n":48,"n_dots":3.05,"target":"right","response":"right","rt":5587.200000003,"correct":true,"confidence":1},{"trial_n":49,"n_dots":3.05,"target":"right","response":"right","rt":870.70000000298,"correct":true,"confidence":6},{"trial_n":50,"n_dots":2.95,"target":"right","response":"right","rt":20334.900000006,"correct":true,"confidence":6},{"trial_n":51,"n_dots":2.95,"target":"left","response":"right","rt":1204.700000003,"correct":false,"confidence":6},{"trial_n":52,"n_dots":3.05,"target":"right","response":"left","rt":1191.700000003,"correct":false,"confidence":6},{"trial_n":53,"n_dots":3.15,"target":"left","response":"right","rt":7171.200000003,"correct":false,"confidence":1},{"trial_n":54,"n_dots":3.25,"target":"right","response":"right","rt":829.10000000149,"correct":true,"confidence":6},{"trial_n":55,"n_dots":3.25,"target":"right","response":"right","rt":670.79999999702,"correct":true,"confidence":6},{"trial_n":56,"n_dots":3.15,"target":"left","response":"left","rt":630.39999999851,"correct":true,"confidence":6},{"trial_n":57,"n_dots":3.15,"target":"right","response":"right","rt":1097.099999994,"correct":true,"confidence":1},{"trial_n":58,"n_dots":3.05,"target":"right","response":"right","rt":87521.200000003,"correct":true,"confidence":6},{"trial_n":59,"n_dots":3.05,"target":"right","response":"right","rt":1217.299999997,"correct":true,"confidence":6},{"trial_n":60,"n_dots":2.95,"target":"right","response":"right","rt":1081.099999994,"correct":true,"confidence":6},{"trial_n":61,"n_dots":2.95,"target":"right","response":"right","rt":2584.200000003,"correct":true,"confidence":6},{"trial_n":62,"n_dots":2.85,"target":"right","response":"right","rt":2525.700000003,"correct":true,"confidence":6},{"trial_n":63,"n_dots":2.85,"target":"left","response":"left","rt":2202.3999999985,"correct":true,"confidence":6},{"trial_n":64,"n_dots":2.75,"target":"left","response":"right","rt":1880.799999997,"correct":false,"confidence":6},{"trial_n":65,"n_dots":2.85,"target":"left","response":"right","rt":708.89999999851,"correct":false,"confidence":6},{"trial_n":66,"n_dots":2.95,"target":"right","response":"left","rt":872.10000000149,"correct":false,"confidence":6},{"trial_n":67,"n_dots":3.05,"target":"right","response":"left","rt":2789.1000000015,"correct":false,"confidence":5},{"trial_n":68,"n_dots":3.15,"target":"right","response":"right","rt":2875.200000003,"correct":true,"confidence":4},{"trial_n":69,"n_dots":3.15,"target":"right","response":"left","rt":969.5,"correct":false,"confidence":6},{"trial_n":70,"n_dots":3.25,"target":"right","response":"left","rt":1756.8000000045,"correct":false,"confidence":6},{"trial_n":71,"n_dots":3.35,"target":"left","response":"left","rt":1666,"correct":true,"confidence":6},{"trial_n":72,"n_dots":3.35,"target":"right","response":"left","rt":2333.200000003,"correct":false,"confidence":6},{"trial_n":73,"n_dots":3.45,"target":"left","response":"right","rt":969.29999999702,"correct":false,"confidence":6},{"trial_n":74,"n_dots":3.55,"target":"left","response":"left","rt":966.19999999553,"correct":true,"confidence":6},{"trial_n":75,"n_dots":3.55,"target":"left","response":"right","rt":2457.799999997,"correct":false,"confidence":1},{"trial_n":76,"n_dots":3.65,"target":"left","response":"left","rt":3162.8999999985,"correct":true,"confidence":6},{"trial_n":77,"n_dots":3.65,"target":"left","response":"left","rt":1818.8000000045,"correct":true,"confidence":6},{"trial_n":78,"n_dots":3.55,"target":"left","response":"left","rt":4074.8999999985,"correct":true,"confidence":2},{"trial_n":79,"n_dots":3.55,"target":"right","response":"right","rt":900.70000000298,"correct":true,"confidence":6},{"trial_n":80,"n_dots":3.45,"target":"left","response":"right","rt":2436.599999994,"correct":false,"confidence":6},{"trial_n":81,"n_dots":3.55,"target":"left","response":"left","rt":1380.299999997,"correct":true,"confidence":6},{"trial_n":82,"n_dots":3.55,"target":"right","response":"right","rt":776.29999999702,"correct":true,"confidence":6},{"trial_n":83,"n_dots":3.45,"target":"right","response":"right","rt":2871.599999994,"correct":true,"confidence":6},{"trial_n":84,"n_dots":3.45,"target":"left","response":"left","rt":1467.5,"correct":true,"confidence":3},{"trial_n":85,"n_dots":3.35,"target":"left","response":"right","rt":3726.6000000015,"correct":false,"confidence":6},{"trial_n":86,"n_dots":3.45,"target":"right","response":"left","rt":9930.6999999955,"correct":false,"confidence":1},{"trial_n":87,"n_dots":3.55,"target":"left","response":"left","rt":1588.799999997,"correct":true,"confidence":6},{"trial_n":88,"n_dots":3.55,"target":"left","response":"left","rt":7799.3999999985,"correct":true,"confidence":6},{"trial_n":89,"n_dots":3.45,"target":"right","response":"right","rt":2120.6999999955,"correct":true,"confidence":2},{"trial_n":90,"n_dots":3.45,"target":"left","response":"right","rt":34548,"correct":false,"confidence":1},{"trial_n":91,"n_dots":3.55,"target":"left","response":"right","rt":3029.5,"correct":false,"confidence":6},{"trial_n":92,"n_dots":3.65,"target":"right","response":"left","rt":4698.3999999985,"correct":false,"confidence":6},{"trial_n":93,"n_dots":3.75,"target":"left","response":"right","rt":3498,"correct":false,"confidence":6},{"trial_n":94,"n_dots":3.85,"target":"left","response":"right","rt":1693.799999997,"correct":false,"confidence":4},{"trial_n":95,"n_dots":3.95,"target":"left","response":"left","rt":2778,"correct":true,"confidence":6},{"trial_n":96,"n_dots":3.95,"target":"left","response":"left","rt":2089.299999997,"correct":true,"confidence":6},{"trial_n":97,"n_dots":3.85,"target":"left","response":"right","rt":3264.8000000045,"correct":false,"confidence":6},{"trial_n":98,"n_dots":3.95,"target":"right","response":"right","rt":30301,"correct":true,"confidence":2},{"trial_n":99,"n_dots":3.95,"target":"right","response":"left","rt":1666.799999997,"correct":false,"confidence":6},{"trial_n":100,"n_dots":4.05,"target":"left","response":"left","rt":2072.3000000045,"correct":true,"confidence":6},{"trial_n":101,"n_dots":4.05,"target":"right","response":"right","rt":1264,"correct":true,"confidence":6},{"trial_n":102,"n_dots":3.95,"target":"left","response":"left","rt":2222.799999997,"correct":true,"confidence":6},{"trial_n":103,"n_dots":3.95,"target":"right","response":"right","rt":1151.599999994,"correct":true,"confidence":6},{"trial_n":104,"n_dots":3.85,"target":"right","response":"right","rt":1078.3999999985,"correct":true,"confidence":5},{"trial_n":105,"n_dots":3.85,"target":"right","response":"right","rt":953.5,"correct":true,"confidence":6},{"trial_n":106,"n_dots":3.75,"target":"left","response":"left","rt":1546.8999999985,"correct":true,"confidence":6},{"trial_n":107,"n_dots":3.75,"target":"right","response":"right","rt":1582.8999999985,"correct":true,"confidence":6},{"trial_n":108,"n_dots":3.65,"target":"right","response":"left","rt":1255,"correct":false,"confidence":6},{"trial_n":109,"n_dots":3.75,"target":"right","response":"right","rt":1148.8999999985,"correct":true,"confidence":6},{"trial_n":110,"n_dots":3.75,"target":"right","response":"left","rt":1210.299999997,"correct":false,"confidence":6},{"trial_n":111,"n_dots":3.85,"target":"left","response":"right","rt":4201.3999999985,"correct":false,"confidence":2},{"trial_n":112,"n_dots":3.95,"target":"right","response":"right","rt":1495.3999999985,"correct":true,"confidence":6},{"trial_n":113,"n_dots":3.95,"target":"right","response":"left","rt":1417.099999994,"correct":false,"confidence":1},{"trial_n":114,"n_dots":4.05,"target":"left","response":"left","rt":932.19999999553,"correct":true,"confidence":6},{"trial_n":115,"n_dots":4.05,"target":"left","response":"left","rt":1355.200000003,"correct":true,"confidence":6},{"trial_n":116,"n_dots":3.95,"target":"right","response":"right","rt":1245.1000000015,"correct":true,"confidence":6},{"trial_n":117,"n_dots":3.95,"target":"left","response":"left","rt":1540.200000003,"correct":true,"confidence":6},{"trial_n":118,"n_dots":3.85,"target":"right","response":"left","rt":1482.5,"correct":false,"confidence":6},{"trial_n":119,"n_dots":3.95,"target":"right","response":"right","rt":1573.1000000015,"correct":true,"confidence":6},{"trial_n":120,"n_dots":3.95,"target":"right","response":"right","rt":975.5,"correct":true,"confidence":6},{"trial_n":121,"n_dots":3.85,"target":"right","response":"left","rt":1532.299999997,"correct":false,"confidence":6},{"trial_n":122,"n_dots":3.95,"target":"right","response":"right","rt":1025.8999999985,"correct":true,"confidence":6},{"trial_n":123,"n_dots":3.95,"target":"right","response":"right","rt":923.19999999553,"correct":true,"confidence":6},{"trial_n":124,"n_dots":3.85,"target":"right","response":"left","rt":2104,"correct":false,"confidence":6},{"trial_n":125,"n_dots":3.95,"target":"right","response":"left","rt":2024.799999997,"correct":false,"confidence":6},{"trial_n":126,"n_dots":4.05,"target":"left","response":"left","rt":1243.3000000045,"correct":true,"confidence":6},{"trial_n":127,"n_dots":4.05,"target":"right","response":"left","rt":1600.8999999985,"correct":false,"confidence":6},{"trial_n":128,"n_dots":4.15,"target":"right","response":"right","rt":1033.099999994,"correct":true,"confidence":6},{"trial_n":129,"n_dots":4.15,"target":"right","response":"right","rt":1035.8999999985,"correct":true,"confidence":6},{"trial_n":130,"n_dots":4.05,"target":"right","response":"right","rt":724.70000000298,"correct":true,"confidence":6},{"trial_n":131,"n_dots":4.05,"target":"right","response":"left","rt":2548.200000003,"correct":false,"confidence":6},{"trial_n":132,"n_dots":4.15,"target":"right","response":"right","rt":713.19999999553,"correct":true,"confidence":6},{"trial_n":133,"n_dots":4.15,"target":"left","response":"right","rt":724.69999999553,"correct":false,"confidence":6},{"trial_n":134,"n_dots":4.25,"target":"left","response":"right","rt":3788.099999994,"correct":false,"confidence":6},{"trial_n":135,"n_dots":4.35,"target":"right","response":"right","rt":1554,"correct":true,"confidence":6},{"trial_n":136,"n_dots":4.35,"target":"right","response":"right","rt":748.19999999553,"correct":true,"confidence":6},{"trial_n":137,"n_dots":4.25,"target":"left","response":"left","rt":659.29999999702,"correct":true,"confidence":1},{"trial_n":138,"n_dots":4.25,"target":"left","response":"left","rt":642.60000000149,"correct":true,"confidence":6},{"trial_n":139,"n_dots":4.15,"target":"left","response":"right","rt":1526.1999999955,"correct":false,"confidence":6},{"trial_n":140,"n_dots":4.25,"target":"right","response":"right","rt":1807.1000000015,"correct":true,"confidence":6},{"trial_n":141,"n_dots":4.25,"target":"left","response":"left","rt":1200.6000000015,"correct":true,"confidence":6},{"trial_n":142,"n_dots":4.15,"target":"left","response":"left","rt":1039.200000003,"correct":true,"confidence":6},{"trial_n":143,"n_dots":4.15,"target":"left","response":"left","rt":1387.5,"correct":true,"confidence":6},{"trial_n":144,"n_dots":4.05,"target":"right","response":"right","rt":626.19999999553,"correct":true,"confidence":6},{"trial_n":145,"n_dots":4.05,"target":"left","response":"left","rt":1635.6000000015,"correct":true,"confidence":6},{"trial_n":146,"n_dots":3.95,"target":"left","response":"right","rt":612.89999999851,"correct":false,"confidence":6},{"trial_n":147,"n_dots":4.05,"target":"right","response":"right","rt":1021,"correct":true,"confidence":6},{"trial_n":148,"n_dots":4.05,"target":"right","response":"right","rt":1601.8999999985,"correct":true,"confidence":6},{"trial_n":149,"n_dots":3.95,"target":"right","response":"left","rt":1096.3999999985,"correct":false,"confidence":6},{"trial_n":150,"n_dots":4.05,"target":"left","response":"left","rt":3555.3999999985,"correct":true,"confidence":2},{"trial_n":151,"n_dots":4.05,"target":"left","response":"left","rt":2306.3999999985,"correct":true,"confidence":6},{"trial_n":152,"n_dots":3.95,"target":"left","response":"left","rt":2737,"correct":true,"confidence":6},{"trial_n":153,"n_dots":3.95,"target":"right","response":"right","rt":1213.3999999985,"correct":true,"confidence":1},{"trial_n":154,"n_dots":3.85,"target":"left","response":"right","rt":440.69999999553,"correct":false,"confidence":6},{"trial_n":155,"n_dots":3.95,"target":"left","response":"left","rt":1268.900000006,"correct":true,"confidence":2},{"trial_n":156,"n_dots":3.95,"target":"right","response":"right","rt":1238.5,"correct":true,"confidence":6},{"trial_n":157,"n_dots":3.85,"target":"right","response":"right","rt":1136.6000000015,"correct":true,"confidence":6},{"trial_n":158,"n_dots":3.85,"target":"left","response":"left","rt":1564.700000003,"correct":true,"confidence":6},{"trial_n":159,"n_dots":3.75,"target":"left","response":"left","rt":1101.599999994,"correct":true,"confidence":6},{"trial_n":160,"n_dots":3.75,"target":"right","response":"right","rt":2253.3999999985,"correct":true,"confidence":6},{"trial_n":161,"n_dots":3.65,"target":"right","response":"right","rt":1133.200000003,"correct":true,"confidence":6},{"trial_n":162,"n_dots":3.65,"target":"right","response":"right","rt":810.40000000596,"correct":true,"confidence":6},{"trial_n":163,"n_dots":3.55,"target":"left","response":"left","rt":1020.6000000015,"correct":true,"confidence":6},{"trial_n":164,"n_dots":3.55,"target":"right","response":"right","rt":675.30000000447,"correct":true,"confidence":6},{"trial_n":165,"n_dots":3.45,"target":"left","response":"right","rt":1201.3999999985,"correct":false,"confidence":6},{"trial_n":166,"n_dots":3.55,"target":"left","response":"left","rt":3814.8999999985,"correct":true,"confidence":1},{"trial_n":167,"n_dots":3.55,"target":"right","response":"right","rt":6827,"correct":true,"confidence":6},{"trial_n":168,"n_dots":3.45,"target":"right","response":"right","rt":879.70000000298,"correct":true,"confidence":6},{"trial_n":169,"n_dots":3.45,"target":"left","response":"left","rt":1382.3999999985,"correct":true,"confidence":6},{"trial_n":170,"n_dots":3.35,"target":"left","response":"left","rt":1231.5,"correct":true,"confidence":6},{"trial_n":171,"n_dots":3.35,"target":"right","response":"right","rt":826.39999999851,"correct":true,"confidence":6},{"trial_n":172,"n_dots":3.25,"target":"left","response":"left","rt":1543.400000006,"correct":true,"confidence":6},{"trial_n":173,"n_dots":3.25,"target":"right","response":"right","rt":1358.1000000015,"correct":true,"confidence":6},{"trial_n":174,"n_dots":3.15,"target":"left","response":"left","rt":1823.200000003,"correct":true,"confidence":3},{"trial_n":175,"n_dots":3.15,"target":"left","response":"right","rt":3210.1999999955,"correct":false,"confidence":6},{"trial_n":176,"n_dots":3.25,"target":"right","response":"right","rt":5439.8999999985,"correct":true,"confidence":6},{"trial_n":177,"n_dots":3.25,"target":"left","response":"right","rt":859.79999999702,"correct":false,"confidence":6},{"trial_n":178,"n_dots":3.35,"target":"left","response":"right","rt":1273.8999999985,"correct":false,"confidence":6},{"trial_n":179,"n_dots":3.45,"target":"right","response":"left","rt":2065.799999997,"correct":false,"confidence":6},{"trial_n":180,"n_dots":3.55,"target":"left","response":"right","rt":1660.8999999985,"correct":false,"confidence":6},{"trial_n":181,"n_dots":3.65,"target":"left","response":"left","rt":1257.1999999955,"correct":true,"confidence":6},{"trial_n":182,"n_dots":3.65,"target":"right","response":"right","rt":806.60000000149,"correct":true,"confidence":6},{"trial_n":183,"n_dots":3.55,"target":"right","response":"right","rt":802.5,"correct":true,"confidence":6},{"trial_n":184,"n_dots":3.55,"target":"left","response":"left","rt":3049.200000003,"correct":true,"confidence":6},{"trial_n":185,"n_dots":3.45,"target":"left","response":"right","rt":1471.400000006,"correct":false,"confidence":6},{"trial_n":186,"n_dots":3.55,"target":"right","response":"right","rt":1175.6000000015,"correct":true,"confidence":6},{"trial_n":187,"n_dots":3.55,"target":"right","response":"right","rt":1047.8000000045,"correct":true,"confidence":6},{"trial_n":188,"n_dots":3.45,"target":"right","response":"right","rt":1538.700000003,"correct":true,"confidence":6},{"trial_n":189,"n_dots":3.45,"target":"left","response":"right","rt":771.20000000298,"correct":false,"confidence":6},{"trial_n":190,"n_dots":3.55,"target":"left","response":"left","rt":1116.3000000045,"correct":true,"confidence":6},{"trial_n":191,"n_dots":3.55,"target":"right","response":"right","rt":969.79999999702,"correct":true,"confidence":6},{"trial_n":192,"n_dots":3.45,"target":"right","response":"right","rt":1430,"correct":true,"confidence":6},{"trial_n":193,"n_dots":3.45,"target":"right","response":"right","rt":1193.5,"correct":true,"confidence":6},{"trial_n":194,"n_dots":3.35,"target":"right","response":"right","rt":783.20000000298,"correct":true,"confidence":6}]