[{"trial_n":1,"n_dots":4.25,"target":"left","response":"left","rt":4316.9000000954,"correct":true,"confidence":-1},{"trial_n":2,"n_dots":4.25,"target":"left","response":"left","rt":804,"correct":true,"confidence":-1},{"trial_n":3,"n_dots":3.85,"target":"right","response":"right","rt":394.5,"correct":true,"confidence":-1},{"trial_n":4,"n_dots":3.85,"target":"right","response":"right","rt":501.69999980927,"correct":true,"confidence":-1},{"trial_n":5,"n_dots":3.45,"target":"right","response":"right","rt":347.60000038147,"correct":true,"confidence":-1},{"trial_n":6,"n_dots":3.45,"target":"left","response":"left","rt":415.69999980927,"correct":true,"confidence":-1},{"trial_n":7,"n_dots":3.05,"target":"right","response":"right","rt":668.7999997139,"correct":true,"confidence":-1},{"trial_n":8,"n_dots":3.05,"target":"left","response":"left","rt":592,"correct":true,"confidence":-1},{"trial_n":9,"n_dots":2.85,"target":"right","response":"right","rt":835.2000002861,"correct":true,"confidence":-1},{"trial_n":10,"n_dots":2.85,"target":"right","response":"right","rt":610.5,"correct":true,"confidence":-1},{"trial_n":11,"n_dots":2.65,"target":"left","response":"left","rt":869.7000002861,"correct":true,"confidence":-1},{"trial_n":12,"n_dots":2.65,"target":"left","response":"right","rt":447.80000019073,"correct":false,"confidence":-1},{"trial_n":13,"n_dots":2.75,"target":"left","response":"left","rt":398.2999997139,"correct":true,"confidence":-1},{"trial_n":14,"n_dots":2.75,"target":"left","response":"right","rt":696.80000019073,"correct":false,"confidence":-1},{"trial_n":15,"n_dots":2.85,"target":"right","response":"right","rt":460.90000009537,"correct":true,"confidence":-1},{"trial_n":16,"n_dots":2.85,"target":"left","response":"left","rt":747.5,"correct":true,"confidence":-1},{"trial_n":17,"n_dots":2.75,"target":"right","response":"right","rt":483.5,"correct":true,"confidence":-1},{"trial_n":18,"n_dots":2.75,"target":"left","response":"right","rt":957.59999990463,"correct":false,"confidence":-1},{"trial_n":19,"n_dots":2.85,"target":"right","response":"left","rt":735.60000038147,"correct":false,"confidence":-1},{"trial_n":20,"n_dots":2.95,"target":"right","response":"right","rt":324.2999997139,"correct":true,"confidence":-1},{"trial_n":21,"n_dots":2.95,"target":"left","response":"left","rt":635.59999990463,"correct":true,"confidence":-1},{"trial_n":22,"n_dots":2.85,"target":"right","response":"left","rt":431.90000009537,"correct":false,"confidence":-1},{"trial_n":23,"n_dots":2.95,"target":"right","response":"right","rt":415.59999990463,"correct":true,"confidence":-1},{"trial_n":24,"n_dots":2.95,"target":"left","response":"right","rt":798,"correct":false,"confidence":-1},{"trial_n":25,"n_dots":3.05,"target":"right","response":"right","rt":366,"correct":true,"confidence":-1},{"trial_n":26,"n_dots":3.05,"target":"left","response":"left","rt":310.30000019073,"correct":true,"confidence":-1},{"trial_n":27,"n_dots":2.95,"target":"left","response":"left","rt":406,"correct":true,"confidence":6},{"trial_n":28,"n_dots":2.95,"target":"right","response":"right","rt":810.7999997139,"correct":true,"confidence":6},{"trial_n":29,"n_dots":2.85,"target":"right","response":"right","rt":1816.5,"correct":true,"confidence":6},{"trial_n":30,"n_dots":2.85,"target":"right","response":"right","rt":1225.8000001907,"correct":true,"confidence":6},{"trial_n":31,"n_dots":2.75,"target":"right","response":"right","rt":769.30000019073,"correct":true,"confidence":6},{"trial_n":32,"n_dots":2.75,"target":"left","response":"left","rt":523.60000038147,"correct":true,"confidence":6},{"trial_n":33,"n_dots":2.65,"target":"left","response":"left","rt":612.7000002861,"correct":true,"confidence":6},{"trial_n":34,"n_dots":2.65,"target":"right","response":"left","rt":543,"correct":false,"confidence":6},{"trial_n":35,"n_dots":2.75,"target":"right","response":"right","rt":346.89999961853,"correct":true,"confidence":6},{"trial_n":36,"n_dots":2.75,"target":"left","response":"right","rt":659.19999980927,"correct":false,"confidence":6},{"trial_n":37,"n_dots":2.85,"target":"left","response":"left","rt":480.90000009537,"correct":true,"confidence":6},{"trial_n":38,"n_dots":2.85,"target":"left","response":"right","rt":375.69999980927,"correct":false,"confidence":6},{"trial_n":39,"n_dots":2.95,"target":"left","response":"left","rt":296.39999961853,"correct":true,"confidence":6},{"trial_n":40,"n_dots":2.95,"target":"right","response":"right","rt":364.09999990463,"correct":true,"confidence":6},{"trial_n":41,"n_dots":2.85,"target":"left","response":"left","rt":440.5,"correct":true,"confidence":6},{"trial_n":42,"n_dots":2.85,"target":"left","response":"left","rt":617.80000019073,"correct":true,"confidence":6},{"trial_n":43,"n_dots":2.75,"target":"left","response":"left","rt":581.40000009537,"correct":true,"confidence":6},{"trial_n":44,"n_dots":2.75,"target":"left","response":"left","rt":453.40000009537,"correct":true,"confidence":6},{"trial_n":45,"n_dots":2.65,"target":"right","response":"left","rt":614.90000009537,"correct":false,"confidence":6},{"trial_n":46,"n_dots":2.75,"target":"right","response":"right","rt":871.59999990463,"correct":true,"confidence":6},{"trial_n":47,"n_dots":2.75,"target":"right","response":"left","rt":312.40000009537,"correct":false,"confidence":6},{"trial_n":48,"n_dots":2.85,"target":"right","response":"right","rt":1231.8000001907,"correct":true,"confidence":6},{"trial_n":49,"n_dots":2.85,"target":"left","response":"right","rt":773.59999990463,"correct":false,"confidence":6},{"trial_n":50,"n_dots":2.95,"target":"left","response":"left","rt":869.19999980927,"correct":true,"confidence":6},{"trial_n":51,"n_dots":2.95,"target":"right","response":"left","rt":684.19999980927,"correct":false,"confidence":6},{"trial_n":52,"n_dots":3.05,"target":"right","response":"left","rt":762.2000002861,"correct":false,"confidence":6},{"trial_n":53,"n_dots":3.15,"target":"right","response":"right","rt":459.30000019073,"correct":true,"confidence":6},{"trial_n":54,"n_dots":3.15,"target":"right","response":"left","rt":680.40000009537,"correct":false,"confidence":6},{"trial_n":55,"n_dots":3.25,"target":"left","response":"left","rt":413.7999997139,"correct":true,"confidence":6},{"trial_n":56,"n_dots":3.25,"target":"right","response":"right","rt":362.40000009537,"correct":true,"confidence":6},{"trial_n":57,"n_dots":3.15,"target":"left","response":"left","rt":654.7000002861,"correct":true,"confidence":6},{"trial_n":58,"n_dots":3.15,"target":"left","response":"left","rt":357.90000009537,"correct":true,"confidence":6},{"trial_n":59,"n_dots":3.05,"target":"right","response":"right","rt":467.59999990463,"correct":true,"confidence":6},{"trial_n":60,"n_dots":3.05,"target":"right","response":"right","rt":744.5,"correct":true,"confidence":6},{"trial_n":61,"n_dots":2.95,"target":"left","response":"left","rt":499.80000019073,"correct":true,"confidence":6},{"trial_n":62,"n_dots":2.95,"target":"right","response":"left","rt":334,"correct":false,"confidence":6},{"trial_n":63,"n_dots":3.05,"target":"right","response":"right","rt":362.90000009537,"correct":true,"confidence":6},{"trial_n":64,"n_dots":3.05,"target":"right","response":"right","rt":129.90000009537,"correct":true,"confidence":6},{"trial_n":65,"n_dots":2.95,"target":"left","response":"right","rt":801,"correct":false,"confidence":6},{"trial_n":66,"n_dots":3.05,"target":"left","response":"left","rt":2001.9000000954,"correct":true,"confidence":6},{"trial_n":67,"n_dots":3.05,"target":"left","response":"left","rt":698.59999990463,"correct":true,"confidence":6},{"trial_n":68,"n_dots":2.95,"target":"left","response":"left","rt":415.09999990463,"correct":true,"confidence":6},{"trial_n":69,"n_dots":2.95,"target":"right","response":"right","rt":312.90000009537,"correct":true,"confidence":6},{"trial_n":70,"n_dots":2.85,"target":"left","response":"left","rt":390,"correct":true,"confidence":6},{"trial_n":71,"n_dots":2.85,"target":"right","response":"right","rt":534.69999980927,"correct":true,"confidence":6},{"trial_n":72,"n_dots":2.75,"target":"right","response":"right","rt":783,"correct":true,"confidence":6},{"trial_n":73,"n_dots":2.75,"target":"right","response":"right","rt":671.19999980927,"correct":true,"confidence":6},{"trial_n":74,"n_dots":2.65,"target":"right","response":"right","rt":959.89999961853,"correct":true,"confidence":6},{"trial_n":75,"n_dots":2.65,"target":"left","response":"left","rt":352.39999961853,"correct":true,"confidence":6},{"trial_n":76,"n_dots":2.55,"target":"right","response":"right","rt":491.90000009537,"correct":true,"confidence":6},{"trial_n":77,"n_dots":2.55,"target":"left","response":"left","rt":674.90000009537,"correct":true,"confidence":6},{"trial_n":78,"n_dots":2.45,"target":"left","response":"left","rt":390.40000009537,"correct":true,"confidence":6},{"trial_n":79,"n_dots":2.45,"target":"right","response":"right","rt":316.7000002861,"correct":true,"confidence":6},{"trial_n":80,"n_dots":2.35,"target":"left","response":"left","rt":515.30000019073,"correct":true,"confidence":6},{"trial_n":81,"n_dots":2.35,"target":"left","response":"right","rt":310.90000009537,"correct":false,"confidence":6},{"trial_n":82,"n_dots":2.45,"target":"right","response":"left","rt":1030.8999996185,"correct":false,"confidence":6},{"trial_n":83,"n_dots":2.55,"target":"left","response":"left","rt":550.80000019073,"correct":true,"confidence":6},{"trial_n":84,"n_dots":2.55,"target":"left","response":"left","rt":708.60000038147,"correct":true,"confidence":6},{"trial_n":85,"n_dots":2.45,"target":"left","response":"right","rt":625.69999980927,"correct":false,"confidence":6},{"trial_n":86,"n_dots":2.55,"target":"right","response":"right","rt":606.2999997139,"correct":true,"confidence":6},{"trial_n":87,"n_dots":2.55,"target":"right","response":"right","rt":1718.5,"correct":true,"confidence":6},{"trial_n":88,"n_dots":2.45,"target":"right","response":"right","rt":610,"correct":true,"confidence":6},{"trial_n":89,"n_dots":2.45,"target":"right","response":"left","rt":626.80000019073,"correct":false,"confidence":6},{"trial_n":90,"n_dots":2.55,"target":"left","response":"left","rt":1007.6000003815,"correct":true,"confidence":6},{"trial_n":91,"n_dots":2.55,"target":"left","response":"right","rt":262.69999980927,"correct":false,"confidence":6},{"trial_n":92,"n_dots":2.65,"target":"right","response":"right","rt":625.10000038147,"correct":true,"confidence":6},{"trial_n":93,"n_dots":2.65,"target":"left","response":"left","rt":354.7000002861,"correct":true,"confidence":6},{"trial_n":94,"n_dots":2.55,"target":"left","response":"left","rt":520.80000019073,"correct":true,"confidence":6},{"trial_n":95,"n_dots":2.55,"target":"right","response":"right","rt":483.10000038147,"correct":true,"confidence":6},{"trial_n":96,"n_dots":2.45,"target":"right","response":"right","rt":662.7999997139,"correct":true,"confidence":6},{"trial_n":97,"n_dots":2.45,"target":"right","response":"right","rt":430.2000002861,"correct":true,"confidence":6},{"trial_n":98,"n_dots":2.35,"target":"left","response":"right","rt":706.40000009537,"correct":false,"confidence":6},{"trial_n":99,"n_dots":2.45,"target":"right","response":"left","rt":809.2000002861,"correct":false,"confidence":6},{"trial_n":100,"n_dots":2.55,"target":"right","response":"right","rt":402,"correct":true,"confidence":6},{"trial_n":101,"n_dots":2.55,"target":"left","response":"right","rt":419.19999980927,"correct":false,"confidence":6},{"trial_n":102,"n_dots":2.65,"target":"right","response":"left","rt":675.80000019073,"correct":false,"confidence":6},{"trial_n":103,"n_dots":2.75,"target":"right","response":"left","rt":406,"correct":false,"confidence":6},{"trial_n":104,"n_dots":2.85,"target":"left","response":"left","rt":470.5,"correct":true,"confidence":6},{"trial_n":105,"n_dots":2.85,"target":"right","response":"right","rt":387.2999997139,"correct":true,"confidence":6},{"trial_n":106,"n_dots":2.75,"target":"right","response":"right","rt":386,"correct":true,"confidence":6},{"trial_n":107,"n_dots":2.75,"target":"right","response":"left","rt":630.69999980927,"correct":false,"confidence":6},{"trial_n":108,"n_dots":2.85,"target":"right","response":"right","rt":307.30000019073,"correct":true,"confidence":6},{"trial_n":109,"n_dots":2.85,"target":"left","response":"left","rt":407.60000038147,"correct":true,"confidence":6},{"trial_n":110,"n_dots":2.75,"target":"left","response":"left","rt":387.5,"correct":true,"confidence":6},{"trial_n":111,"n_dots":2.75,"target":"left","response":"left","rt":378.40000009537,"correct":true,"confidence":6},{"trial_n":112,"n_dots":2.65,"target":"right","response":"right","rt":378.69999980927,"correct":true,"confidence":6},{"trial_n":113,"n_dots":2.65,"target":"left","response":"left","rt":445.39999961853,"correct":true,"confidence":6},{"trial_n":114,"n_dots":2.55,"target":"left","response":"left","rt":596.69999980927,"correct":true,"confidence":6},{"trial_n":115,"n_dots":2.55,"target":"left","response":"right","rt":493.2999997139,"correct":false,"confidence":6},{"trial_n":116,"n_dots":2.65,"target":"right","response":"left","rt":516.69999980927,"correct":false,"confidence":6},{"trial_n":117,"n_dots":2.75,"target":"right","response":"right","rt":351,"correct":true,"confidence":6},{"trial_n":118,"n_dots":2.75,"target":"right","response":"right","rt":367.19999980927,"correct":true,"confidence":6},{"trial_n":119,"n_dots":2.65,"target":"right","response":"right","rt":447.89999961853,"correct":true,"confidence":6},{"trial_n":120,"n_dots":2.65,"target":"left","response":"right","rt":553.59999990463,"correct":false,"confidence":6},{"trial_n":121,"n_dots":2.75,"target":"left","response":"right","rt":879.40000009537,"correct":false,"confidence":6},{"trial_n":122,"n_dots":2.85,"target":"left","response":"left","rt":397.59999990463,"correct":true,"confidence":6},{"trial_n":123,"n_dots":2.85,"target":"left","response":"left","rt":1096,"correct":true,"confidence":6},{"trial_n":124,"n_dots":2.75,"target":"left","response":"right","rt":765.80000019073,"correct":false,"confidence":6},{"trial_n":125,"n_dots":2.85,"target":"right","response":"right","rt":368.5,"correct":true,"confidence":6},{"trial_n":126,"n_dots":2.85,"target":"right","response":"right","rt":448.10000038147,"correct":true,"confidence":6},{"trial_n":127,"n_dots":2.75,"target":"left","response":"left","rt":186.60000038147,"correct":true,"confidence":6},{"trial_n":128,"n_dots":2.75,"target":"left","response":"left","rt":260.59999990463,"correct":true,"confidence":6},{"trial_n":129,"n_dots":2.65,"target":"right","response":"right","rt":593.69999980927,"correct":true,"confidence":6},{"trial_n":130,"n_dots":2.65,"target":"left","response":"left","rt":699.89999961853,"correct":true,"confidence":6},{"trial_n":131,"n_dots":2.55,"target":"right","response":"right","rt":400.80000019073,"correct":true,"confidence":6},{"trial_n":132,"n_dots":2.55,"target":"left","response":"left","rt":408.59999990463,"correct":true,"confidence":6},{"trial_n":133,"n_dots":2.45,"target":"right","response":"right","rt":346.30000019073,"correct":true,"confidence":6},{"trial_n":134,"n_dots":2.45,"target":"left","response":"right","rt":817.90000009537,"correct":false,"confidence":6},{"trial_n":135,"n_dots":2.55,"target":"right","response":"right","rt":465.30000019073,"correct":true,"confidence":6},{"trial_n":136,"n_dots":2.55,"target":"right","response":"right","rt":558.19999980927,"correct":true,"confidence":6},{"trial_n":137,"n_dots":2.45,"target":"right","response":"right","rt":701.59999990463,"correct":true,"confidence":6},{"trial_n":138,"n_dots":2.45,"target":"right","response":"right","rt":1277.7000002861,"correct":true,"confidence":6},{"trial_n":139,"n_dots":2.35,"target":"right","response":"left","rt":419.7000002861,"correct":false,"confidence":5},{"trial_n":140,"n_dots":2.45,"target":"right","response":"right","rt":388.80000019073,"correct":true,"confidence":6},{"trial_n":141,"n_dots":2.45,"target":"right","response":"right","rt":306.19999980927,"correct":true,"confidence":6},{"trial_n":142,"n_dots":2.35,"target":"left","response":"right","rt":374,"correct":false,"confidence":6},{"trial_n":143,"n_dots":2.45,"target":"right","response":"right","rt":402.59999990463,"correct":true,"confidence":6},{"trial_n":144,"n_dots":2.45,"target":"right","response":"right","rt":578.59999990463,"correct":true,"confidence":6},{"trial_n":145,"n_dots":2.35,"target":"left","response":"right","rt":534.19999980927,"correct":false,"confidence":6},{"trial_n":146,"n_dots":2.45,"target":"right","response":"left","rt":1053.9000000954,"correct":false,"confidence":6},{"trial_n":147,"n_dots":2.55,"target":"left","response":"right","rt":357.2000002861,"correct":false,"confidence":6},{"trial_n":148,"n_dots":2.65,"target":"left","response":"right","rt":662.69999980927,"correct":false,"confidence":6},{"trial_n":149,"n_dots":2.75,"target":"left","response":"right","rt":436,"correct":false,"confidence":1},{"trial_n":150,"n_dots":2.85,"target":"left","response":"left","rt":401.7000002861,"correct":true,"confidence":6},{"trial_n":151,"n_dots":2.85,"target":"right","response":"right","rt":613,"correct":true,"confidence":6},{"trial_n":152,"n_dots":2.75,"target":"left","response":"left","rt":803,"correct":true,"confidence":6},{"trial_n":153,"n_dots":2.75,"target":"right","response":"right","rt":781.80000019073,"correct":true,"confidence":6},{"trial_n":154,"n_dots":2.65,"target":"right","response":"right","rt":959.80000019073,"correct":true,"confidence":6},{"trial_n":155,"n_dots":2.65,"target":"right","response":"right","rt":499.7999997139,"correct":true,"confidence":6},{"trial_n":156,"n_dots":2.55,"target":"left","response":"left","rt":393.7999997139,"correct":true,"confidence":6},{"trial_n":157,"n_dots":2.55,"target":"right","response":"left","rt":671.2000002861,"correct":false,"confidence":6},{"trial_n":158,"n_dots":2.65,"target":"right","response":"left","rt":551.89999961853,"correct":false,"confidence":6},{"trial_n":159,"n_dots":2.75,"target":"left","response":"left","rt":313.40000009537,"correct":true,"confidence":6},{"trial_n":160,"n_dots":2.75,"target":"left","response":"right","rt":964.30000019073,"correct":false,"confidence":6},{"trial_n":161,"n_dots":2.85,"target":"right","response":"right","rt":790,"correct":true,"confidence":6},{"trial_n":162,"n_dots":2.85,"target":"left","response":"left","rt":588.7999997139,"correct":true,"confidence":6},{"trial_n":163,"n_dots":2.75,"target":"left","response":"left","rt":407.5,"correct":true,"confidence":6},{"trial_n":164,"n_dots":2.75,"target":"right","response":"right","rt":434.40000009537,"correct":true,"confidence":6},{"trial_n":165,"n_dots":2.65,"target":"right","response":"right","rt":281.90000009537,"correct":true,"confidence":6},{"trial_n":166,"n_dots":2.65,"target":"left","response":"left","rt":335.09999990463,"correct":true,"confidence":6},{"trial_n":167,"n_dots":2.55,"target":"left","response":"right","rt":409,"correct":false,"confidence":6},{"trial_n":168,"n_dots":2.65,"target":"left","response":"right","rt":560.19999980927,"correct":false,"confidence":6},{"trial_n":169,"n_dots":2.75,"target":"left","response":"right","rt":438.19999980927,"correct":false,"confidence":6},{"trial_n":170,"n_dots":2.85,"target":"left","response":"left","rt":439.19999980927,"correct":true,"confidence":6},{"trial_n":171,"n_dots":2.85,"target":"right","response":"right","rt":94.900000095367,"correct":true,"confidence":6},{"trial_n":172,"n_dots":2.75,"target":"right","response":"right","rt":479.19999980927,"correct":true,"confidence":6},{"trial_n":173,"n_dots":2.75,"target":"left","response":"left","rt":305.19999980927,"correct":true,"confidence":6},{"trial_n":174,"n_dots":2.65,"target":"left","response":"left","rt":616.69999980927,"correct":true,"confidence":6},{"trial_n":175,"n_dots":2.65,"target":"left","response":"left","rt":383.5,"correct":true,"confidence":6},{"trial_n":176,"n_dots":2.55,"target":"right","response":"right","rt":1034,"correct":true,"confidence":6},{"trial_n":177,"n_dots":2.55,"target":"right","response":"left","rt":368.5,"correct":false,"confidence":6},{"trial_n":178,"n_dots":2.65,"target":"right","response":"right","rt":371.59999990463,"correct":true,"confidence":6},{"trial_n":179,"n_dots":2.65,"target":"right","response":"left","rt":310.09999990463,"correct":false,"confidence":6},{"trial_n":180,"n_dots":2.75,"target":"left","response":"left","rt":425,"correct":true,"confidence":6},{"trial_n":181,"n_dots":2.75,"target":"right","response":"right","rt":309.5,"correct":true,"confidence":6},{"trial_n":182,"n_dots":2.65,"target":"right","response":"right","rt":476.59999990463,"correct":true,"confidence":6},{"trial_n":183,"n_dots":2.65,"target":"left","response":"left","rt":309.09999990463,"correct":true,"confidence":6},{"trial_n":184,"n_dots":2.55,"target":"left","response":"right","rt":497.2999997139,"correct":false,"confidence":6},{"trial_n":185,"n_dots":2.65,"target":"right","response":"right","rt":431.40000009537,"correct":true,"confidence":6},{"trial_n":186,"n_dots":2.65,"target":"left","response":"left","rt":615.2000002861,"correct":true,"confidence":6},{"trial_n":187,"n_dots":2.55,"target":"left","response":"left","rt":300.5,"correct":true,"confidence":6},{"trial_n":188,"n_dots":2.55,"target":"right","response":"right","rt":320.90000009537,"correct":true,"confidence":6},{"trial_n":189,"n_dots":2.45,"target":"left","response":"right","rt":426.2999997139,"correct":false,"confidence":6},{"trial_n":190,"n_dots":2.55,"target":"left","response":"left","rt":359.7000002861,"correct":true,"confidence":6},{"trial_n":191,"n_dots":2.55,"target":"left","response":"left","rt":420.30000019073,"correct":true,"confidence":6},{"trial_n":192,"n_dots":2.45,"target":"left","response":"right","rt":169.59999990463,"correct":false,"confidence":6},{"trial_n":193,"n_dots":2.55,"target":"left","response":"left","rt":324.80000019073,"correct":true,"confidence":6},{"trial_n":194,"n_dots":2.55,"target":"left","response":"right","rt":1613.5,"correct":false,"confidence":6}]