[{"trial_n":1,"n_dots":4.25,"target":"left","response":"left","rt":6096.7000000002,"correct":true,"confidence":-1},{"trial_n":2,"n_dots":4.25,"target":"left","response":"right","rt":827.90000000037,"correct":false,"confidence":-1},{"trial_n":3,"n_dots":4.65,"target":"right","response":"right","rt":751.79999999981,"correct":true,"confidence":-1},{"trial_n":4,"n_dots":4.65,"target":"left","response":"left","rt":756.20000000019,"correct":true,"confidence":-1},{"trial_n":5,"n_dots":4.25,"target":"left","response":"left","rt":1296.9000000004,"correct":true,"confidence":-1},{"trial_n":6,"n_dots":4.25,"target":"left","response":"right","rt":779.09999999963,"correct":false,"confidence":-1},{"trial_n":7,"n_dots":4.65,"target":"left","response":"left","rt":425.79999999981,"correct":true,"confidence":-1},{"trial_n":8,"n_dots":4.65,"target":"right","response":"right","rt":567.79999999981,"correct":true,"confidence":-1},{"trial_n":9,"n_dots":4.45,"target":"right","response":"right","rt":510.29999999981,"correct":true,"confidence":-1},{"trial_n":10,"n_dots":4.45,"target":"left","response":"left","rt":746.20000000019,"correct":true,"confidence":-1},{"trial_n":11,"n_dots":4.25,"target":"left","response":"left","rt":566.5,"correct":true,"confidence":-1},{"trial_n":12,"n_dots":4.25,"target":"right","response":"right","rt":522.10000000056,"correct":true,"confidence":-1},{"trial_n":13,"n_dots":4.15,"target":"left","response":"left","rt":666.5,"correct":true,"confidence":-1},{"trial_n":14,"n_dots":4.15,"target":"left","response":"right","rt":878.90000000037,"correct":false,"confidence":-1},{"trial_n":15,"n_dots":4.25,"target":"left","response":"left","rt":347.90000000037,"correct":true,"confidence":-1},{"trial_n":16,"n_dots":4.25,"target":"right","response":"right","rt":409.10000000056,"correct":true,"confidence":-1},{"trial_n":17,"n_dots":4.15,"target":"right","response":"right","rt":497.20000000019,"correct":true,"confidence":-1},{"trial_n":18,"n_dots":4.15,"target":"right","response":"right","rt":370,"correct":true,"confidence":-1},{"trial_n":19,"n_dots":4.05,"target":"right","response":"left","rt":704.89999999944,"correct":false,"confidence":-1},{"trial_n":20,"n_dots":4.15,"target":"left","response":"right","rt":649.90000000037,"correct":false,"confidence":-1},{"trial_n":21,"n_dots":4.25,"target":"left","response":"left","rt":546,"correct":true,"confidence":-1},{"trial_n":22,"n_dots":4.25,"target":"right","response":"right","rt":687.89999999944,"correct":true,"confidence":-1},{"trial_n":23,"n_dots":4.15,"target":"left","response":"left","rt":531.20000000019,"correct":true,"confidence":-1},{"trial_n":24,"n_dots":4.15,"target":"left","response":"left","rt":603.20000000019,"correct":true,"confidence":-1},{"trial_n":25,"n_dots":4.05,"target":"left","response":"left","rt":823.79999999981,"correct":true,"confidence":-1},{"trial_n":26,"n_dots":4.05,"target":"left","response":"left","rt":286.60000000056,"correct":true,"confidence":-1},{"trial_n":27,"n_dots":3.95,"target":"right","response":"right","rt":740.70000000019,"correct":true,"confidence":4},{"trial_n":28,"n_dots":3.95,"target":"left","response":"left","rt":459.90000000037,"correct":true,"confidence":6},{"trial_n":29,"n_dots":3.85,"target":"right","response":"left","rt":612.29999999981,"correct":false,"confidence":4},{"trial_n":30,"n_dots":3.95,"target":"left","response":"left","rt":676.5,"correct":true,"confidence":4},{"trial_n":31,"n_dots":3.95,"target":"right","response":"right","rt":555.20000000019,"correct":true,"confidence":6},{"trial_n":32,"n_dots":3.85,"target":"left","response":"left","rt":540.30000000075,"correct":true,"confidence":6},{"trial_n":33,"n_dots":3.85,"target":"right","response":"right","rt":395.09999999963,"correct":true,"confidence":6},{"trial_n":34,"n_dots":3.75,"target":"right","response":"right","rt":825,"correct":true,"confidence":4},{"trial_n":35,"n_dots":3.75,"target":"right","response":"right","rt":659.29999999981,"correct":true,"confidence":5},{"trial_n":36,"n_dots":3.65,"target":"left","response":"left","rt":642.39999999944,"correct":true,"confidence":4},{"trial_n":37,"n_dots":3.65,"target":"left","response":"left","rt":452.09999999963,"correct":true,"confidence":4},{"trial_n":38,"n_dots":3.55,"target":"right","response":"right","rt":526.09999999963,"correct":true,"confidence":5},{"trial_n":39,"n_dots":3.55,"target":"right","response":"left","rt":555.89999999944,"correct":false,"confidence":4},{"trial_n":40,"n_dots":3.65,"target":"left","response":"left","rt":323.29999999981,"correct":true,"confidence":5},{"trial_n":41,"n_dots":3.65,"target":"right","response":"right","rt":429.39999999944,"correct":true,"confidence":4},{"trial_n":42,"n_dots":3.55,"target":"right","response":"right","rt":615.09999999963,"correct":true,"confidence":3},{"trial_n":43,"n_dots":3.55,"target":"right","response":"left","rt":473.5,"correct":false,"confidence":3},{"trial_n":44,"n_dots":3.65,"target":"right","response":"left","rt":460.29999999981,"correct":false,"confidence":3},{"trial_n":45,"n_dots":3.75,"target":"left","response":"left","rt":565.70000000019,"correct":true,"confidence":4},{"trial_n":46,"n_dots":3.75,"target":"right","response":"right","rt":315.5,"correct":true,"confidence":5},{"trial_n":47,"n_dots":3.65,"target":"right","response":"right","rt":380.40000000037,"correct":true,"confidence":4},{"trial_n":48,"n_dots":3.65,"target":"left","response":"left","rt":358.09999999963,"correct":true,"confidence":4},{"trial_n":49,"n_dots":3.55,"target":"left","response":"left","rt":361.70000000019,"correct":true,"confidence":5},{"trial_n":50,"n_dots":3.55,"target":"left","response":"left","rt":224.29999999981,"correct":true,"confidence":4},{"trial_n":51,"n_dots":3.45,"target":"left","response":"left","rt":306,"correct":true,"confidence":3},{"trial_n":52,"n_dots":3.45,"target":"right","response":"right","rt":1403.0999999996,"correct":true,"confidence":3},{"trial_n":53,"n_dots":3.35,"target":"right","response":"right","rt":299,"correct":true,"confidence":5},{"trial_n":54,"n_dots":3.35,"target":"right","response":"left","rt":461.09999999963,"correct":false,"confidence":3},{"trial_n":55,"n_dots":3.45,"target":"left","response":"left","rt":435.79999999981,"correct":true,"confidence":3},{"trial_n":56,"n_dots":3.45,"target":"right","response":"right","rt":504.29999999981,"correct":true,"confidence":5},{"trial_n":57,"n_dots":3.35,"target":"left","response":"left","rt":612.20000000019,"correct":true,"confidence":3},{"trial_n":58,"n_dots":3.35,"target":"right","response":"right","rt":1131.8000000007,"correct":true,"confidence":4},{"trial_n":59,"n_dots":3.25,"target":"right","response":"right","rt":287.20000000019,"correct":true,"confidence":4},{"trial_n":60,"n_dots":3.25,"target":"right","response":"left","rt":398.09999999963,"correct":false,"confidence":4},{"trial_n":61,"n_dots":3.35,"target":"left","response":"left","rt":427.59999999963,"correct":true,"confidence":4},{"trial_n":62,"n_dots":3.35,"target":"left","response":"left","rt":345.20000000019,"correct":true,"confidence":4},{"trial_n":63,"n_dots":3.25,"target":"right","response":"right","rt":387.09999999963,"correct":true,"confidence":3},{"trial_n":64,"n_dots":3.25,"target":"left","response":"left","rt":328.10000000056,"correct":true,"confidence":3},{"trial_n":65,"n_dots":3.15,"target":"right","response":"right","rt":414,"correct":true,"confidence":2},{"trial_n":66,"n_dots":3.15,"target":"left","response":"left","rt":419.89999999944,"correct":true,"confidence":3},{"trial_n":67,"n_dots":3.05,"target":"left","response":"left","rt":263.30000000075,"correct":true,"confidence":4},{"trial_n":68,"n_dots":3.05,"target":"right","response":"left","rt":334.09999999963,"correct":false,"confidence":4},{"trial_n":69,"n_dots":3.15,"target":"left","response":"left","rt":565.90000000037,"correct":true,"confidence":3},{"trial_n":70,"n_dots":3.15,"target":"left","response":"right","rt":811.10000000056,"correct":false,"confidence":3},{"trial_n":71,"n_dots":3.25,"target":"left","response":"left","rt":313.5,"correct":true,"confidence":3},{"trial_n":72,"n_dots":3.25,"target":"right","response":"left","rt":324.40000000037,"correct":false,"confidence":2},{"trial_n":73,"n_dots":3.35,"target":"right","response":"right","rt":83,"correct":true,"confidence":3},{"trial_n":74,"n_dots":3.35,"target":"left","response":"left","rt":177.09999999963,"correct":true,"confidence":4},{"trial_n":75,"n_dots":3.25,"target":"left","response":"left","rt":59.799999999814,"correct":true,"confidence":4},{"trial_n":76,"n_dots":3.25,"target":"right","response":"right","rt":125.39999999944,"correct":true,"confidence":4},{"trial_n":77,"n_dots":3.15,"target":"left","response":"left","rt":1504,"correct":true,"confidence":5},{"trial_n":78,"n_dots":3.15,"target":"right","response":"left","rt":30.5,"correct":false,"confidence":4},{"trial_n":79,"n_dots":3.25,"target":"left","response":"left","rt":513.70000000019,"correct":true,"confidence":5},{"trial_n":80,"n_dots":3.25,"target":"left","response":"left","rt":268.20000000019,"correct":true,"confidence":5},{"trial_n":81,"n_dots":3.15,"target":"right","response":"right","rt":165.89999999944,"correct":true,"confidence":3},{"trial_n":82,"n_dots":3.15,"target":"right","response":"left","rt":265.90000000037,"correct":false,"confidence":5},{"trial_n":83,"n_dots":3.25,"target":"left","response":"right","rt":262.5,"correct":false,"confidence":2},{"trial_n":84,"n_dots":3.35,"target":"left","response":"left","rt":114.09999999963,"correct":true,"confidence":3},{"trial_n":85,"n_dots":3.35,"target":"right","response":"right","rt":131.29999999981,"correct":true,"confidence":3},{"trial_n":86,"n_dots":3.25,"target":"right","response":"left","rt":133.90000000037,"correct":false,"confidence":3},{"trial_n":87,"n_dots":3.35,"target":"left","response":"left","rt":421,"correct":true,"confidence":4},{"trial_n":88,"n_dots":3.35,"target":"left","response":"left","rt":437,"correct":true,"confidence":4},{"trial_n":89,"n_dots":3.25,"target":"right","response":"right","rt":499.20000000019,"correct":true,"confidence":4},{"trial_n":90,"n_dots":3.25,"target":"left","response":"right","rt":664.19999999925,"correct":false,"confidence":3},{"trial_n":91,"n_dots":3.35,"target":"right","response":"left","rt":503.90000000037,"correct":false,"confidence":4},{"trial_n":92,"n_dots":3.45,"target":"left","response":"left","rt":349,"correct":true,"confidence":4},{"trial_n":93,"n_dots":3.45,"target":"right","response":"right","rt":857.79999999981,"correct":true,"confidence":2},{"trial_n":94,"n_dots":3.35,"target":"right","response":"left","rt":291.20000000019,"correct":false,"confidence":3},{"trial_n":95,"n_dots":3.45,"target":"left","response":"left","rt":260.09999999963,"correct":true,"confidence":3},{"trial_n":96,"n_dots":3.45,"target":"right","response":"right","rt":528,"correct":true,"confidence":4},{"trial_n":97,"n_dots":3.35,"target":"left","response":"left","rt":342.79999999981,"correct":true,"confidence":3},{"trial_n":98,"n_dots":3.35,"target":"left","response":"left","rt":553.20000000019,"correct":true,"confidence":3},{"trial_n":99,"n_dots":3.25,"target":"right","response":"left","rt":1298.7000000002,"correct":false,"confidence":3},{"trial_n":100,"n_dots":3.35,"target":"left","response":"left","rt":479,"correct":true,"confidence":3},{"trial_n":101,"n_dots":3.35,"target":"left","response":"left","rt":521.09999999963,"correct":true,"confidence":3},{"trial_n":102,"n_dots":3.25,"target":"right","response":"right","rt":519.90000000037,"correct":true,"confidence":3},{"trial_n":103,"n_dots":3.25,"target":"right","response":"right","rt":635.10000000056,"correct":true,"confidence":3},{"trial_n":104,"n_dots":3.15,"target":"right","response":"left","rt":301,"correct":false,"confidence":3},{"trial_n":105,"n_dots":3.25,"target":"left","response":"left","rt":330.69999999925,"correct":true,"confidence":3},{"trial_n":106,"n_dots":3.25,"target":"left","response":"left","rt":264,"correct":true,"confidence":3},{"trial_n":107,"n_dots":3.15,"target":"right","response":"right","rt":229.20000000019,"correct":true,"confidence":4},{"trial_n":108,"n_dots":3.15,"target":"right","response":"right","rt":240,"correct":true,"confidence":4},{"trial_n":109,"n_dots":3.05,"target":"right","response":"right","rt":377.20000000019,"correct":true,"confidence":3},{"trial_n":110,"n_dots":3.05,"target":"left","response":"left","rt":66.100000000559,"correct":true,"confidence":4},{"trial_n":111,"n_dots":2.95,"target":"right","response":"right","rt":768.70000000019,"correct":true,"confidence":3},{"trial_n":112,"n_dots":2.95,"target":"left","response":"left","rt":318.79999999981,"correct":true,"confidence":3},{"trial_n":113,"n_dots":2.85,"target":"right","response":"right","rt":517.20000000019,"correct":true,"confidence":3},{"trial_n":114,"n_dots":2.85,"target":"left","response":"left","rt":302.90000000037,"correct":true,"confidence":3},{"trial_n":115,"n_dots":2.75,"target":"right","response":"right","rt":1167,"correct":true,"confidence":3},{"trial_n":116,"n_dots":2.75,"target":"right","response":"left","rt":412.60000000056,"correct":false,"confidence":3},{"trial_n":117,"n_dots":2.85,"target":"right","response":"right","rt":1043.1000000006,"correct":true,"confidence":4},{"trial_n":118,"n_dots":2.85,"target":"left","response":"right","rt":775,"correct":false,"confidence":3},{"trial_n":119,"n_dots":2.95,"target":"right","response":"left","rt":1184.2999999998,"correct":false,"confidence":2},{"trial_n":120,"n_dots":3.05,"target":"right","response":"right","rt":389.30000000075,"correct":true,"confidence":4},{"trial_n":121,"n_dots":3.05,"target":"right","response":"left","rt":317,"correct":false,"confidence":3},{"trial_n":122,"n_dots":3.15,"target":"left","response":"left","rt":462.10000000056,"correct":true,"confidence":3},{"trial_n":123,"n_dots":3.15,"target":"right","response":"right","rt":359.09999999963,"correct":true,"confidence":3},{"trial_n":124,"n_dots":3.05,"target":"left","response":"right","rt":592,"correct":false,"confidence":3},{"trial_n":125,"n_dots":3.15,"target":"right","response":"right","rt":397.30000000075,"correct":true,"confidence":3},{"trial_n":126,"n_dots":3.15,"target":"left","response":"left","rt":378,"correct":true,"confidence":3},{"trial_n":127,"n_dots":3.05,"target":"left","response":"left","rt":398.29999999981,"correct":true,"confidence":3},{"trial_n":128,"n_dots":3.05,"target":"right","response":"right","rt":347.5,"correct":true,"confidence":3},{"trial_n":129,"n_dots":2.95,"target":"left","response":"left","rt":494.19999999925,"correct":true,"confidence":3},{"trial_n":130,"n_dots":2.95,"target":"right","response":"right","rt":341.79999999981,"correct":true,"confidence":4},{"trial_n":131,"n_dots":2.85,"target":"left","response":"right","rt":1948.1999999993,"correct":false,"confidence":2},{"trial_n":132,"n_dots":2.95,"target":"left","response":"right","rt":451.20000000019,"correct":false,"confidence":3},{"trial_n":133,"n_dots":3.05,"target":"left","response":"left","rt":318.10000000056,"correct":true,"confidence":4},{"trial_n":134,"n_dots":3.05,"target":"right","response":"left","rt":553,"correct":false,"confidence":4},{"trial_n":135,"n_dots":3.15,"target":"right","response":"left","rt":543.5,"correct":false,"confidence":3},{"trial_n":136,"n_dots":3.25,"target":"right","response":"right","rt":516.09999999963,"correct":true,"confidence":4},{"trial_n":137,"n_dots":3.25,"target":"left","response":"right","rt":547.20000000019,"correct":false,"confidence":4},{"trial_n":138,"n_dots":3.35,"target":"left","response":"left","rt":300.09999999963,"correct":true,"confidence":3},{"trial_n":139,"n_dots":3.35,"target":"right","response":"left","rt":1648.1000000006,"correct":false,"confidence":2},{"trial_n":140,"n_dots":3.45,"target":"right","response":"right","rt":788.40000000037,"correct":true,"confidence":3},{"trial_n":141,"n_dots":3.45,"target":"right","response":"left","rt":636.79999999981,"correct":false,"confidence":2},{"trial_n":142,"n_dots":3.55,"target":"left","response":"left","rt":278.09999999963,"correct":true,"confidence":3},{"trial_n":143,"n_dots":3.55,"target":"left","response":"left","rt":342.19999999925,"correct":true,"confidence":3},{"trial_n":144,"n_dots":3.45,"target":"right","response":"left","rt":322.79999999981,"correct":false,"confidence":3},{"trial_n":145,"n_dots":3.55,"target":"right","response":"right","rt":266.20000000019,"correct":true,"confidence":4},{"trial_n":146,"n_dots":3.55,"target":"right","response":"right","rt":291.89999999944,"correct":true,"confidence":4},{"trial_n":147,"n_dots":3.45,"target":"right","response":"right","rt":247.20000000019,"correct":true,"confidence":3},{"trial_n":148,"n_dots":3.45,"target":"right","response":"right","rt":494,"correct":true,"confidence":4},{"trial_n":149,"n_dots":3.35,"target":"left","response":"left","rt":1422.1000000006,"correct":true,"confidence":3},{"trial_n":150,"n_dots":3.35,"target":"right","response":"left","rt":470,"correct":false,"confidence":3},{"trial_n":151,"n_dots":3.45,"target":"left","response":"left","rt":554.10000000056,"correct":true,"confidence":2},{"trial_n":152,"n_dots":3.45,"target":"left","response":"left","rt":376.89999999944,"correct":true,"confidence":3},{"trial_n":153,"n_dots":3.35,"target":"right","response":"right","rt":739.29999999981,"correct":true,"confidence":3},{"trial_n":154,"n_dots":3.35,"target":"right","response":"left","rt":486,"correct":false,"confidence":3},{"trial_n":155,"n_dots":3.45,"target":"right","response":"right","rt":281.20000000019,"correct":true,"confidence":4},{"trial_n":156,"n_dots":3.45,"target":"right","response":"right","rt":277.59999999963,"correct":true,"confidence":5},{"trial_n":157,"n_dots":3.35,"target":"right","response":"right","rt":381.40000000037,"correct":true,"confidence":6},{"trial_n":158,"n_dots":3.35,"target":"left","response":"left","rt":341.10000000056,"correct":true,"confidence":4},{"trial_n":159,"n_dots":3.25,"target":"right","response":"left","rt":2096.7999999998,"correct":false,"confidence":1},{"trial_n":160,"n_dots":3.35,"target":"left","response":"left","rt":301.90000000037,"correct":true,"confidence":3},{"trial_n":161,"n_dots":3.35,"target":"left","response":"left","rt":232,"correct":true,"confidence":3},{"trial_n":162,"n_dots":3.25,"target":"left","response":"left","rt":342.40000000037,"correct":true,"confidence":3},{"trial_n":163,"n_dots":3.25,"target":"right","response":"left","rt":538.90000000037,"correct":false,"confidence":3},{"trial_n":164,"n_dots":3.35,"target":"right","response":"left","rt":231.29999999981,"correct":false,"confidence":3},{"trial_n":165,"n_dots":3.45,"target":"left","response":"left","rt":544.5,"correct":true,"confidence":3},{"trial_n":166,"n_dots":3.45,"target":"right","response":"right","rt":365.90000000037,"correct":true,"confidence":3},{"trial_n":167,"n_dots":3.35,"target":"left","response":"right","rt":550.39999999944,"correct":false,"confidence":3},{"trial_n":168,"n_dots":3.45,"target":"right","response":"left","rt":449.40000000037,"correct":false,"confidence":4},{"trial_n":169,"n_dots":3.55,"target":"left","response":"left","rt":248.10000000056,"correct":true,"confidence":4},{"trial_n":170,"n_dots":3.55,"target":"left","response":"left","rt":484.90000000037,"correct":true,"confidence":3},{"trial_n":171,"n_dots":3.45,"target":"left","response":"left","rt":273.10000000056,"correct":true,"confidence":4},{"trial_n":172,"n_dots":3.45,"target":"left","response":"left","rt":535.80000000075,"correct":true,"confidence":4},{"trial_n":173,"n_dots":3.35,"target":"left","response":"left","rt":352.20000000019,"correct":true,"confidence":3},{"trial_n":174,"n_dots":3.35,"target":"left","response":"left","rt":439.29999999981,"correct":true,"confidence":4},{"trial_n":175,"n_dots":3.25,"target":"left","response":"left","rt":576.20000000019,"correct":true,"confidence":4},{"trial_n":176,"n_dots":3.25,"target":"left","response":"left","rt":208.60000000056,"correct":true,"confidence":4},{"trial_n":177,"n_dots":3.15,"target":"left","response":"left","rt":255.20000000019,"correct":true,"confidence":4},{"trial_n":178,"n_dots":3.15,"target":"right","response":"right","rt":944.89999999944,"correct":true,"confidence":3},{"trial_n":179,"n_dots":3.05,"target":"left","response":"left","rt":691.20000000019,"correct":true,"confidence":4},{"trial_n":180,"n_dots":3.05,"target":"left","response":"left","rt":496.10000000056,"correct":true,"confidence":4},{"trial_n":181,"n_dots":2.95,"target":"left","response":"left","rt":1347.2999999998,"correct":true,"confidence":2},{"trial_n":182,"n_dots":2.95,"target":"right","response":"right","rt":539.70000000019,"correct":true,"confidence":3},{"trial_n":183,"n_dots":2.85,"target":"right","response":"right","rt":457,"correct":true,"confidence":3},{"trial_n":184,"n_dots":2.85,"target":"right","response":"left","rt":554.79999999981,"correct":false,"confidence":3},{"trial_n":185,"n_dots":2.95,"target":"left","response":"right","rt":154.09999999963,"correct":false,"confidence":3},{"trial_n":186,"n_dots":3.05,"target":"right","response":"left","rt":636,"correct":false,"confidence":3},{"trial_n":187,"n_dots":3.15,"target":"right","response":"left","rt":388.5,"correct":false,"confidence":3},{"trial_n":188,"n_dots":3.25,"target":"right","response":"right","rt":282.59999999963,"correct":true,"confidence":3},{"trial_n":189,"n_dots":3.25,"target":"left","response":"left","rt":200,"correct":true,"confidence":3},{"trial_n":190,"n_dots":3.15,"target":"left","response":"right","rt":296.89999999944,"correct":false,"confidence":1},{"trial_n":191,"n_dots":3.25,"target":"right","response":"left","rt":394.29999999981,"correct":false,"confidence":3},{"trial_n":192,"n_dots":3.35,"target":"right","response":"right","rt":808.40000000037,"correct":true,"confidence":3},{"trial_n":193,"n_dots":3.35,"target":"left","response":"right","rt":508.29999999981,"correct":false,"confidence":3},{"trial_n":194,"n_dots":3.45,"target":"right","response":"right","rt":306.60000000056,"correct":true,"confidence":3}]