[{"trial_n":1,"n_dots":4.25,"target":"right","response":"right","rt":3808.6000000238,"correct":true,"confidence":-1},{"trial_n":2,"n_dots":4.25,"target":"left","response":"left","rt":1238.5999999642,"correct":true,"confidence":-1},{"trial_n":3,"n_dots":3.85,"target":"right","response":"right","rt":692.5,"correct":true,"confidence":-1},{"trial_n":4,"n_dots":3.85,"target":"right","response":"right","rt":604.40000003576,"correct":true,"confidence":-1},{"trial_n":5,"n_dots":3.45,"target":"right","response":"left","rt":359,"correct":false,"confidence":-1},{"trial_n":6,"n_dots":3.85,"target":"left","response":"right","rt":157.90000003576,"correct":false,"confidence":-1},{"trial_n":7,"n_dots":4.25,"target":"left","response":"left","rt":426.69999998808,"correct":true,"confidence":-1},{"trial_n":8,"n_dots":4.25,"target":"right","response":"right","rt":647.89999997616,"correct":true,"confidence":-1},{"trial_n":9,"n_dots":4.05,"target":"right","response":"left","rt":706.09999996424,"correct":false,"confidence":-1},{"trial_n":10,"n_dots":4.25,"target":"right","response":"right","rt":23.099999964237,"correct":true,"confidence":-1},{"trial_n":11,"n_dots":4.25,"target":"right","response":"right","rt":1788.8999999762,"correct":true,"confidence":-1},{"trial_n":12,"n_dots":4.05,"target":"left","response":"left","rt":21.199999988079,"correct":true,"confidence":-1},{"trial_n":13,"n_dots":4.05,"target":"right","response":"right","rt":531.60000002384,"correct":true,"confidence":-1},{"trial_n":14,"n_dots":3.95,"target":"left","response":"left","rt":710.29999995232,"correct":true,"confidence":-1},{"trial_n":15,"n_dots":3.95,"target":"left","response":"left","rt":215.5,"correct":true,"confidence":-1},{"trial_n":16,"n_dots":3.85,"target":"left","response":"right","rt":487.89999997616,"correct":false,"confidence":-1},{"trial_n":17,"n_dots":3.95,"target":"right","response":"right","rt":43.600000023842,"correct":true,"confidence":-1},{"trial_n":18,"n_dots":3.95,"target":"left","response":"left","rt":410.79999995232,"correct":true,"confidence":-1},{"trial_n":19,"n_dots":3.85,"target":"left","response":"left","rt":345.30000001192,"correct":true,"confidence":-1},{"trial_n":20,"n_dots":3.85,"target":"right","response":"left","rt":519.19999998808,"correct":false,"confidence":-1},{"trial_n":21,"n_dots":3.95,"target":"left","response":"left","rt":522,"correct":true,"confidence":-1},{"trial_n":22,"n_dots":3.95,"target":"left","response":"left","rt":520.29999995232,"correct":true,"confidence":-1},{"trial_n":23,"n_dots":3.85,"target":"right","response":"right","rt":372.5,"correct":true,"confidence":-1},{"trial_n":24,"n_dots":3.85,"target":"right","response":"left","rt":611.19999998808,"correct":false,"confidence":-1},{"trial_n":25,"n_dots":3.95,"target":"left","response":"left","rt":393.80000001192,"correct":true,"confidence":-1},{"trial_n":26,"n_dots":3.95,"target":"right","response":"right","rt":38,"correct":true,"confidence":-1},{"trial_n":27,"n_dots":3.85,"target":"right","response":"left","rt":468.59999996424,"correct":false,"confidence":3},{"trial_n":28,"n_dots":3.95,"target":"left","response":"left","rt":65.600000023842,"correct":true,"confidence":5},{"trial_n":29,"n_dots":3.95,"target":"right","response":"left","rt":602.80000001192,"correct":false,"confidence":5},{"trial_n":30,"n_dots":4.05,"target":"right","response":"right","rt":550,"correct":true,"confidence":3},{"trial_n":31,"n_dots":4.05,"target":"right","response":"right","rt":1637.5,"correct":true,"confidence":2},{"trial_n":32,"n_dots":3.95,"target":"right","response":"left","rt":439,"correct":false,"confidence":3},{"trial_n":33,"n_dots":4.05,"target":"left","response":"left","rt":425.80000001192,"correct":true,"confidence":4},{"trial_n":34,"n_dots":4.05,"target":"left","response":"left","rt":426.5,"correct":true,"confidence":3},{"trial_n":35,"n_dots":3.95,"target":"left","response":"left","rt":340.89999997616,"correct":true,"confidence":5},{"trial_n":36,"n_dots":3.95,"target":"left","response":"left","rt":594.69999998808,"correct":true,"confidence":4},{"trial_n":37,"n_dots":3.85,"target":"left","response":"left","rt":287.40000003576,"correct":true,"confidence":5},{"trial_n":38,"n_dots":3.85,"target":"right","response":"left","rt":545,"correct":false,"confidence":5},{"trial_n":39,"n_dots":3.95,"target":"left","response":"left","rt":877.90000003576,"correct":true,"confidence":4},{"trial_n":40,"n_dots":3.95,"target":"right","response":"right","rt":572.70000004768,"correct":true,"confidence":4},{"trial_n":41,"n_dots":3.85,"target":"right","response":"right","rt":524.90000003576,"correct":true,"confidence":5},{"trial_n":42,"n_dots":3.85,"target":"left","response":"left","rt":1866.7999999523,"correct":true,"confidence":3},{"trial_n":43,"n_dots":3.75,"target":"left","response":"left","rt":534,"correct":true,"confidence":5},{"trial_n":44,"n_dots":3.75,"target":"left","response":"left","rt":457.30000001192,"correct":true,"confidence":5},{"trial_n":45,"n_dots":3.65,"target":"right","response":"right","rt":390.19999998808,"correct":true,"confidence":5},{"trial_n":46,"n_dots":3.65,"target":"right","response":"left","rt":346.09999996424,"correct":false,"confidence":5},{"trial_n":47,"n_dots":3.75,"target":"left","response":"left","rt":393.20000004768,"correct":true,"confidence":6},{"trial_n":48,"n_dots":3.75,"target":"left","response":"left","rt":358.80000001192,"correct":true,"confidence":5},{"trial_n":49,"n_dots":3.65,"target":"left","response":"left","rt":588.39999997616,"correct":true,"confidence":3},{"trial_n":50,"n_dots":3.65,"target":"left","response":"right","rt":1543.0999999642,"correct":false,"confidence":2},{"trial_n":51,"n_dots":3.75,"target":"right","response":"right","rt":551.5,"correct":true,"confidence":3},{"trial_n":52,"n_dots":3.75,"target":"right","response":"right","rt":894.40000003576,"correct":true,"confidence":3},{"trial_n":53,"n_dots":3.65,"target":"right","response":"right","rt":780.10000002384,"correct":true,"confidence":3},{"trial_n":54,"n_dots":3.65,"target":"right","response":"right","rt":1030.8000000119,"correct":true,"confidence":3},{"trial_n":55,"n_dots":3.55,"target":"left","response":"left","rt":211.30000001192,"correct":true,"confidence":3},{"trial_n":56,"n_dots":3.55,"target":"left","response":"left","rt":1666.1999999881,"correct":true,"confidence":4},{"trial_n":57,"n_dots":3.45,"target":"right","response":"right","rt":515.80000001192,"correct":true,"confidence":4},{"trial_n":58,"n_dots":3.45,"target":"left","response":"left","rt":415.5,"correct":true,"confidence":4},{"trial_n":59,"n_dots":3.35,"target":"left","response":"right","rt":439.19999998808,"correct":false,"confidence":4},{"trial_n":60,"n_dots":3.45,"target":"right","response":"right","rt":540.10000002384,"correct":true,"confidence":6},{"trial_n":61,"n_dots":3.45,"target":"right","response":"right","rt":354.09999996424,"correct":true,"confidence":6},{"trial_n":62,"n_dots":3.35,"target":"left","response":"left","rt":376.69999998808,"correct":true,"confidence":4},{"trial_n":63,"n_dots":3.35,"target":"left","response":"left","rt":275.59999996424,"correct":true,"confidence":5},{"trial_n":64,"n_dots":3.25,"target":"right","response":"left","rt":307.5,"correct":false,"confidence":3},{"trial_n":65,"n_dots":3.35,"target":"left","response":"left","rt":498.90000003576,"correct":true,"confidence":4},{"trial_n":66,"n_dots":3.35,"target":"right","response":"right","rt":457.30000001192,"correct":true,"confidence":5},{"trial_n":67,"n_dots":3.25,"target":"left","response":"right","rt":380.5,"correct":false,"confidence":3},{"trial_n":68,"n_dots":3.35,"target":"left","response":"left","rt":1808.8999999762,"correct":true,"confidence":4},{"trial_n":69,"n_dots":3.35,"target":"left","response":"left","rt":377.5,"correct":true,"confidence":4},{"trial_n":70,"n_dots":3.25,"target":"left","response":"left","rt":419.89999997616,"correct":true,"confidence":5},{"trial_n":71,"n_dots":3.25,"target":"right","response":"left","rt":425.80000001192,"correct":false,"confidence":4},{"trial_n":72,"n_dots":3.35,"target":"left","response":"left","rt":336.30000001192,"correct":true,"confidence":5},{"trial_n":73,"n_dots":3.35,"target":"left","response":"left","rt":507.89999997616,"correct":true,"confidence":5},{"trial_n":74,"n_dots":3.25,"target":"right","response":"right","rt":416.39999997616,"correct":true,"confidence":5},{"trial_n":75,"n_dots":3.25,"target":"left","response":"left","rt":352.69999998808,"correct":true,"confidence":4},{"trial_n":76,"n_dots":3.15,"target":"right","response":"right","rt":352.39999997616,"correct":true,"confidence":5},{"trial_n":77,"n_dots":3.15,"target":"left","response":"left","rt":280.19999998808,"correct":true,"confidence":6},{"trial_n":78,"n_dots":3.05,"target":"right","response":"right","rt":584.5,"correct":true,"confidence":3},{"trial_n":79,"n_dots":3.05,"target":"left","response":"right","rt":1293.0999999642,"correct":false,"confidence":4},{"trial_n":80,"n_dots":3.15,"target":"right","response":"right","rt":497,"correct":true,"confidence":4},{"trial_n":81,"n_dots":3.15,"target":"right","response":"right","rt":505.30000001192,"correct":true,"confidence":4},{"trial_n":82,"n_dots":3.05,"target":"left","response":"left","rt":530.19999998808,"correct":true,"confidence":5},{"trial_n":83,"n_dots":3.05,"target":"left","response":"right","rt":477.59999996424,"correct":false,"confidence":4},{"trial_n":84,"n_dots":3.15,"target":"left","response":"left","rt":447.89999997616,"correct":true,"confidence":3},{"trial_n":85,"n_dots":3.15,"target":"left","response":"right","rt":621,"correct":false,"confidence":4},{"trial_n":86,"n_dots":3.25,"target":"left","response":"right","rt":883.10000002384,"correct":false,"confidence":2},{"trial_n":87,"n_dots":3.35,"target":"right","response":"right","rt":449.80000001192,"correct":true,"confidence":3},{"trial_n":88,"n_dots":3.35,"target":"left","response":"right","rt":627.70000004768,"correct":false,"confidence":3},{"trial_n":89,"n_dots":3.45,"target":"left","response":"right","rt":594.30000001192,"correct":false,"confidence":4},{"trial_n":90,"n_dots":3.55,"target":"right","response":"right","rt":572.90000003576,"correct":true,"confidence":4},{"trial_n":91,"n_dots":3.55,"target":"left","response":"left","rt":449,"correct":true,"confidence":4},{"trial_n":92,"n_dots":3.45,"target":"left","response":"left","rt":382.69999998808,"correct":true,"confidence":4},{"trial_n":93,"n_dots":3.45,"target":"left","response":"left","rt":349.39999997616,"correct":true,"confidence":4},{"trial_n":94,"n_dots":3.35,"target":"left","response":"left","rt":663.10000002384,"correct":true,"confidence":5},{"trial_n":95,"n_dots":3.35,"target":"left","response":"left","rt":530.80000001192,"correct":true,"confidence":4},{"trial_n":96,"n_dots":3.25,"target":"right","response":"right","rt":305.69999998808,"correct":true,"confidence":3},{"trial_n":97,"n_dots":3.25,"target":"left","response":"left","rt":430.89999997616,"correct":true,"confidence":3},{"trial_n":98,"n_dots":3.15,"target":"right","response":"right","rt":625.70000004768,"correct":true,"confidence":3},{"trial_n":99,"n_dots":3.15,"target":"right","response":"right","rt":397.80000001192,"correct":true,"confidence":3},{"trial_n":100,"n_dots":3.05,"target":"left","response":"left","rt":386.80000001192,"correct":true,"confidence":4},{"trial_n":101,"n_dots":3.05,"target":"right","response":"right","rt":568,"correct":true,"confidence":2},{"trial_n":102,"n_dots":2.95,"target":"left","response":"left","rt":381.30000001192,"correct":true,"confidence":4},{"trial_n":103,"n_dots":2.95,"target":"right","response":"right","rt":508.30000001192,"correct":true,"confidence":4},{"trial_n":104,"n_dots":2.85,"target":"left","response":"left","rt":512.19999998808,"correct":true,"confidence":2},{"trial_n":105,"n_dots":2.85,"target":"right","response":"right","rt":1212.4000000358,"correct":true,"confidence":1},{"trial_n":106,"n_dots":2.75,"target":"left","response":"left","rt":491,"correct":true,"confidence":3},{"trial_n":107,"n_dots":2.75,"target":"left","response":"left","rt":374.30000001192,"correct":true,"confidence":4},{"trial_n":108,"n_dots":2.65,"target":"right","response":"left","rt":1035,"correct":false,"confidence":4},{"trial_n":109,"n_dots":2.75,"target":"right","response":"right","rt":945.69999998808,"correct":true,"confidence":2},{"trial_n":110,"n_dots":2.75,"target":"right","response":"right","rt":995.80000001192,"correct":true,"confidence":2},{"trial_n":111,"n_dots":2.65,"target":"right","response":"right","rt":770.30000001192,"correct":true,"confidence":2},{"trial_n":112,"n_dots":2.65,"target":"left","response":"right","rt":565.59999996424,"correct":false,"confidence":1},{"trial_n":113,"n_dots":2.75,"target":"right","response":"right","rt":2303.6999999881,"correct":true,"confidence":2},{"trial_n":114,"n_dots":2.75,"target":"left","response":"left","rt":416.10000002384,"correct":true,"confidence":3},{"trial_n":115,"n_dots":2.65,"target":"left","response":"left","rt":1009.1999999881,"correct":true,"confidence":2},{"trial_n":116,"n_dots":2.65,"target":"right","response":"left","rt":312.89999997616,"correct":false,"confidence":3},{"trial_n":117,"n_dots":2.75,"target":"right","response":"right","rt":565.60000002384,"correct":true,"confidence":3},{"trial_n":118,"n_dots":2.75,"target":"right","response":"left","rt":427.30000001192,"correct":false,"confidence":3},{"trial_n":119,"n_dots":2.85,"target":"left","response":"left","rt":319.30000001192,"correct":true,"confidence":3},{"trial_n":120,"n_dots":2.85,"target":"right","response":"right","rt":361.30000001192,"correct":true,"confidence":3},{"trial_n":121,"n_dots":2.75,"target":"right","response":"left","rt":454.59999996424,"correct":false,"confidence":3},{"trial_n":122,"n_dots":2.85,"target":"right","response":"left","rt":377,"correct":false,"confidence":2},{"trial_n":123,"n_dots":2.95,"target":"right","response":"right","rt":790.60000002384,"correct":true,"confidence":2},{"trial_n":124,"n_dots":2.95,"target":"right","response":"left","rt":309.09999996424,"correct":false,"confidence":3},{"trial_n":125,"n_dots":3.05,"target":"left","response":"left","rt":577.80000001192,"correct":true,"confidence":2},{"trial_n":126,"n_dots":3.05,"target":"left","response":"left","rt":471.40000003576,"correct":true,"confidence":2},{"trial_n":127,"n_dots":2.95,"target":"right","response":"right","rt":686.10000002384,"correct":true,"confidence":3},{"trial_n":128,"n_dots":2.95,"target":"right","response":"left","rt":484.39999997616,"correct":false,"confidence":3},{"trial_n":129,"n_dots":3.05,"target":"right","response":"right","rt":601.30000001192,"correct":true,"confidence":3},{"trial_n":130,"n_dots":3.05,"target":"right","response":"left","rt":450.89999997616,"correct":false,"confidence":3},{"trial_n":131,"n_dots":3.15,"target":"left","response":"left","rt":625.59999996424,"correct":true,"confidence":3},{"trial_n":132,"n_dots":3.15,"target":"right","response":"right","rt":335.29999995232,"correct":true,"confidence":3},{"trial_n":133,"n_dots":3.05,"target":"right","response":"left","rt":438.30000001192,"correct":false,"confidence":2},{"trial_n":134,"n_dots":3.15,"target":"left","response":"left","rt":365.19999998808,"correct":true,"confidence":4},{"trial_n":135,"n_dots":3.15,"target":"right","response":"left","rt":390.80000001192,"correct":false,"confidence":3},{"trial_n":136,"n_dots":3.25,"target":"right","response":"right","rt":742,"correct":true,"confidence":2},{"trial_n":137,"n_dots":3.25,"target":"left","response":"left","rt":497.10000002384,"correct":true,"confidence":3},{"trial_n":138,"n_dots":3.15,"target":"right","response":"left","rt":717,"correct":false,"confidence":2},{"trial_n":139,"n_dots":3.25,"target":"right","response":"right","rt":474.30000001192,"correct":true,"confidence":3},{"trial_n":140,"n_dots":3.25,"target":"right","response":"right","rt":637.5,"correct":true,"confidence":3},{"trial_n":141,"n_dots":3.15,"target":"left","response":"left","rt":410.70000004768,"correct":true,"confidence":2},{"trial_n":142,"n_dots":3.15,"target":"left","response":"left","rt":454.5,"correct":true,"confidence":3},{"trial_n":143,"n_dots":3.05,"target":"right","response":"left","rt":756.80000001192,"correct":false,"confidence":3},{"trial_n":144,"n_dots":3.15,"target":"left","response":"left","rt":382.69999998808,"correct":true,"confidence":2},{"trial_n":145,"n_dots":3.15,"target":"right","response":"right","rt":296,"correct":true,"confidence":2},{"trial_n":146,"n_dots":3.05,"target":"left","response":"left","rt":586.90000003576,"correct":true,"confidence":2},{"trial_n":147,"n_dots":3.05,"target":"right","response":"right","rt":1310.6999999881,"correct":true,"confidence":1},{"trial_n":148,"n_dots":2.95,"target":"left","response":"left","rt":519.20000004768,"correct":true,"confidence":1},{"trial_n":149,"n_dots":2.95,"target":"left","response":"left","rt":1554.9000000358,"correct":true,"confidence":1},{"trial_n":150,"n_dots":2.85,"target":"right","response":"right","rt":1708.3999999762,"correct":true,"confidence":1},{"trial_n":151,"n_dots":2.85,"target":"left","response":"left","rt":674.30000001192,"correct":true,"confidence":3},{"trial_n":152,"n_dots":2.75,"target":"left","response":"left","rt":597.59999996424,"correct":true,"confidence":2},{"trial_n":153,"n_dots":2.75,"target":"left","response":"left","rt":478.19999998808,"correct":true,"confidence":2},{"trial_n":154,"n_dots":2.65,"target":"right","response":"right","rt":6198.6000000238,"correct":true,"confidence":1},{"trial_n":155,"n_dots":2.65,"target":"right","response":"right","rt":278.10000002384,"correct":true,"confidence":3},{"trial_n":156,"n_dots":2.55,"target":"left","response":"left","rt":338.39999997616,"correct":true,"confidence":2},{"trial_n":157,"n_dots":2.55,"target":"left","response":"left","rt":226.19999998808,"correct":true,"confidence":3},{"trial_n":158,"n_dots":2.45,"target":"right","response":"right","rt":882.79999995232,"correct":true,"confidence":2},{"trial_n":159,"n_dots":2.45,"target":"right","response":"right","rt":945.5,"correct":true,"confidence":2},{"trial_n":160,"n_dots":2.35,"target":"left","response":"left","rt":246.09999996424,"correct":true,"confidence":3},{"trial_n":161,"n_dots":2.35,"target":"left","response":"left","rt":537.10000002384,"correct":true,"confidence":2},{"trial_n":162,"n_dots":2.25,"target":"right","response":"left","rt":424.90000003576,"correct":false,"confidence":3},{"trial_n":163,"n_dots":2.35,"target":"left","response":"left","rt":1310.1000000238,"correct":true,"confidence":3},{"trial_n":164,"n_dots":2.35,"target":"right","response":"right","rt":930.10000002384,"correct":true,"confidence":2},{"trial_n":165,"n_dots":2.25,"target":"left","response":"left","rt":386.69999998808,"correct":true,"confidence":3},{"trial_n":166,"n_dots":2.25,"target":"right","response":"right","rt":564.30000001192,"correct":true,"confidence":2},{"trial_n":167,"n_dots":2.15,"target":"left","response":"left","rt":506,"correct":true,"confidence":4},{"trial_n":168,"n_dots":2.15,"target":"left","response":"left","rt":587.19999998808,"correct":true,"confidence":2},{"trial_n":169,"n_dots":2.05,"target":"right","response":"left","rt":416.30000001192,"correct":false,"confidence":3},{"trial_n":170,"n_dots":2.15,"target":"right","response":"right","rt":928.79999995232,"correct":true,"confidence":1},{"trial_n":171,"n_dots":2.15,"target":"left","response":"right","rt":644.39999997616,"correct":false,"confidence":1},{"trial_n":172,"n_dots":2.25,"target":"right","response":"right","rt":1008,"correct":true,"confidence":2},{"trial_n":173,"n_dots":2.25,"target":"right","response":"right","rt":1077.9000000358,"correct":true,"confidence":1},{"trial_n":174,"n_dots":2.15,"target":"right","response":"left","rt":1800.9000000358,"correct":false,"confidence":1},{"trial_n":175,"n_dots":2.25,"target":"right","response":"left","rt":2763.5999999642,"correct":false,"confidence":1},{"trial_n":176,"n_dots":2.35,"target":"right","response":"right","rt":1480.5,"correct":true,"confidence":1},{"trial_n":177,"n_dots":2.35,"target":"right","response":"left","rt":627.19999998808,"correct":false,"confidence":2},{"trial_n":178,"n_dots":2.45,"target":"left","response":"left","rt":486,"correct":true,"confidence":1},{"trial_n":179,"n_dots":2.45,"target":"left","response":"left","rt":305.5,"correct":true,"confidence":3},{"trial_n":180,"n_dots":2.35,"target":"right","response":"left","rt":693.30000001192,"correct":false,"confidence":2},{"trial_n":181,"n_dots":2.45,"target":"right","response":"right","rt":1125.6000000238,"correct":true,"confidence":2},{"trial_n":182,"n_dots":2.45,"target":"left","response":"left","rt":357.60000002384,"correct":true,"confidence":3},{"trial_n":183,"n_dots":2.35,"target":"right","response":"right","rt":1090.8000000119,"correct":true,"confidence":3},{"trial_n":184,"n_dots":2.35,"target":"left","response":"left","rt":948.40000003576,"correct":true,"confidence":2},{"trial_n":185,"n_dots":2.25,"target":"left","response":"right","rt":884.70000004768,"correct":false,"confidence":1},{"trial_n":186,"n_dots":2.35,"target":"right","response":"left","rt":977.89999997616,"correct":false,"confidence":1},{"trial_n":187,"n_dots":2.45,"target":"left","response":"right","rt":523.30000001192,"correct":false,"confidence":1},{"trial_n":188,"n_dots":2.55,"target":"right","response":"left","rt":1127,"correct":false,"confidence":1},{"trial_n":189,"n_dots":2.65,"target":"right","response":"right","rt":655.20000004768,"correct":true,"confidence":2},{"trial_n":190,"n_dots":2.65,"target":"left","response":"left","rt":763.10000002384,"correct":true,"confidence":4},{"trial_n":191,"n_dots":2.55,"target":"left","response":"right","rt":376.89999997616,"correct":false,"confidence":1},{"trial_n":192,"n_dots":2.65,"target":"left","response":"left","rt":279.60000002384,"correct":true,"confidence":2},{"trial_n":193,"n_dots":2.65,"target":"left","response":"right","rt":849.90000003576,"correct":false,"confidence":2},{"trial_n":194,"n_dots":2.75,"target":"right","response":"right","rt":318.5,"correct":true,"confidence":3}]