[{"trial_n":1,"n_dots":4.25,"target":"left","response":"right","rt":5271.5,"correct":false,"confidence":-1},{"trial_n":2,"n_dots":4.25,"target":"left","response":"left","rt":209.10000002384,"correct":true,"confidence":-1},{"trial_n":3,"n_dots":4.25,"target":"right","response":"right","rt":1,"correct":true,"confidence":-1},{"trial_n":4,"n_dots":3.85,"target":"left","response":"left","rt":64.300000071526,"correct":true,"confidence":-1},{"trial_n":5,"n_dots":3.85,"target":"right","response":"left","rt":3204,"correct":false,"confidence":-1},{"trial_n":6,"n_dots":4.25,"target":"right","response":"right","rt":2532.2000000477,"correct":true,"confidence":-1},{"trial_n":7,"n_dots":4.25,"target":"right","response":"right","rt":222,"correct":true,"confidence":-1},{"trial_n":8,"n_dots":4.05,"target":"left","response":"left","rt":1701.3000000715,"correct":true,"confidence":-1},{"trial_n":9,"n_dots":4.05,"target":"right","response":"right","rt":794.19999992847,"correct":true,"confidence":-1},{"trial_n":10,"n_dots":3.85,"target":"right","response":"left","rt":295.10000002384,"correct":false,"confidence":-1},{"trial_n":11,"n_dots":4.05,"target":"right","response":"right","rt":317.29999995232,"correct":true,"confidence":-1},{"trial_n":12,"n_dots":4.05,"target":"left","response":"left","rt":251.5,"correct":true,"confidence":-1},{"trial_n":13,"n_dots":3.95,"target":"right","response":"left","rt":327.89999997616,"correct":false,"confidence":-1},{"trial_n":14,"n_dots":4.05,"target":"right","response":"left","rt":297.09999990463,"correct":false,"confidence":-1},{"trial_n":15,"n_dots":4.15,"target":"left","response":"left","rt":62.300000071526,"correct":true,"confidence":-1},{"trial_n":16,"n_dots":4.15,"target":"right","response":"right","rt":-0.5,"correct":true,"confidence":-1},{"trial_n":17,"n_dots":4.05,"target":"right","response":"right","rt":868,"correct":true,"confidence":-1},{"trial_n":18,"n_dots":4.05,"target":"right","response":"right","rt":329.70000004768,"correct":true,"confidence":-1},{"trial_n":19,"n_dots":3.95,"target":"left","response":"left","rt":133.70000004768,"correct":true,"confidence":-1},{"trial_n":20,"n_dots":3.95,"target":"right","response":"right","rt":330.70000004768,"correct":true,"confidence":-1},{"trial_n":21,"n_dots":3.85,"target":"left","response":"left","rt":98.299999952316,"correct":true,"confidence":-1},{"trial_n":22,"n_dots":3.85,"target":"right","response":"right","rt":239.30000007153,"correct":true,"confidence":-1},{"trial_n":23,"n_dots":3.75,"target":"left","response":"left","rt":97.199999928474,"correct":true,"confidence":-1},{"trial_n":24,"n_dots":3.75,"target":"right","response":"left","rt":175.59999990463,"correct":false,"confidence":-1},{"trial_n":25,"n_dots":3.85,"target":"right","response":"left","rt":143.89999997616,"correct":false,"confidence":-1},{"trial_n":26,"n_dots":3.95,"target":"right","response":"right","rt":11.799999952316,"correct":true,"confidence":-1},{"trial_n":27,"n_dots":3.95,"target":"right","response":"right","rt":430.29999995232,"correct":true,"confidence":6},{"trial_n":28,"n_dots":3.85,"target":"left","response":"right","rt":438.39999997616,"correct":false,"confidence":4},{"trial_n":29,"n_dots":3.95,"target":"right","response":"right","rt":385.10000002384,"correct":true,"confidence":4},{"trial_n":30,"n_dots":3.95,"target":"right","response":"right","rt":409.70000004768,"correct":true,"confidence":3},{"trial_n":31,"n_dots":3.85,"target":"left","response":"right","rt":97.299999952316,"correct":false,"confidence":2},{"trial_n":32,"n_dots":3.95,"target":"right","response":"right","rt":224.89999997616,"correct":true,"confidence":3},{"trial_n":33,"n_dots":3.95,"target":"right","response":"right","rt":1662.5,"correct":true,"confidence":4},{"trial_n":34,"n_dots":3.85,"target":"left","response":"left","rt":-25.899999976158,"correct":true,"confidence":4},{"trial_n":35,"n_dots":3.85,"target":"left","response":"right","rt":1883,"correct":false,"confidence":1},{"trial_n":36,"n_dots":3.95,"target":"left","response":"left","rt":1.1000000238419,"correct":true,"confidence":6},{"trial_n":37,"n_dots":3.95,"target":"right","response":"right","rt":6.1999999284744,"correct":true,"confidence":6},{"trial_n":38,"n_dots":3.85,"target":"right","response":"right","rt":1343,"correct":true,"confidence":5},{"trial_n":39,"n_dots":3.85,"target":"right","response":"right","rt":141.60000002384,"correct":true,"confidence":5},{"trial_n":40,"n_dots":3.75,"target":"right","response":"right","rt":129.69999992847,"correct":true,"confidence":4},{"trial_n":41,"n_dots":3.75,"target":"right","response":"right","rt":167.40000009537,"correct":true,"confidence":5},{"trial_n":42,"n_dots":3.65,"target":"left","response":"left","rt":24,"correct":true,"confidence":2},{"trial_n":43,"n_dots":3.65,"target":"right","response":"right","rt":57.200000047684,"correct":true,"confidence":1},{"trial_n":44,"n_dots":3.55,"target":"right","response":"right","rt":386.10000002384,"correct":true,"confidence":1},{"trial_n":45,"n_dots":3.55,"target":"left","response":"left","rt":1171.2999999523,"correct":true,"confidence":2},{"trial_n":46,"n_dots":3.45,"target":"right","response":"right","rt":450.60000002384,"correct":true,"confidence":1},{"trial_n":47,"n_dots":3.45,"target":"left","response":"left","rt":768.40000009537,"correct":true,"confidence":2},{"trial_n":48,"n_dots":3.35,"target":"right","response":"left","rt":1260.3000000715,"correct":false,"confidence":3},{"trial_n":49,"n_dots":3.45,"target":"right","response":"right","rt":564.19999992847,"correct":true,"confidence":3},{"trial_n":50,"n_dots":3.45,"target":"left","response":"left","rt":996.79999995232,"correct":true,"confidence":3},{"trial_n":51,"n_dots":3.35,"target":"left","response":"right","rt":197.39999997616,"correct":false,"confidence":3},{"trial_n":52,"n_dots":3.45,"target":"right","response":"right","rt":182.30000007153,"correct":true,"confidence":5},{"trial_n":53,"n_dots":3.45,"target":"right","response":"right","rt":261.70000004768,"correct":true,"confidence":2},{"trial_n":54,"n_dots":3.35,"target":"right","response":"right","rt":586,"correct":true,"confidence":2},{"trial_n":55,"n_dots":3.35,"target":"left","response":"right","rt":418.29999995232,"correct":false,"confidence":2},{"trial_n":56,"n_dots":3.45,"target":"right","response":"right","rt":148.10000002384,"correct":true,"confidence":2},{"trial_n":57,"n_dots":3.45,"target":"left","response":"left","rt":1375.1000000238,"correct":true,"confidence":1},{"trial_n":58,"n_dots":3.35,"target":"left","response":"right","rt":137,"correct":false,"confidence":1},{"trial_n":59,"n_dots":3.45,"target":"left","response":"left","rt":1054.7000000477,"correct":true,"confidence":4},{"trial_n":60,"n_dots":3.45,"target":"right","response":"right","rt":697.60000002384,"correct":true,"confidence":4},{"trial_n":61,"n_dots":3.35,"target":"left","response":"left","rt":632.30000007153,"correct":true,"confidence":5},{"trial_n":62,"n_dots":3.35,"target":"left","response":"left","rt":905.40000009537,"correct":true,"confidence":5},{"trial_n":63,"n_dots":3.25,"target":"left","response":"left","rt":208.80000007153,"correct":true,"confidence":5},{"trial_n":64,"n_dots":3.25,"target":"right","response":"left","rt":919.20000004768,"correct":false,"confidence":1},{"trial_n":65,"n_dots":3.35,"target":"right","response":"right","rt":633.39999997616,"correct":true,"confidence":2},{"trial_n":66,"n_dots":3.35,"target":"left","response":"left","rt":475.5,"correct":true,"confidence":3},{"trial_n":67,"n_dots":3.25,"target":"left","response":"left","rt":537.79999995232,"correct":true,"confidence":3},{"trial_n":68,"n_dots":3.25,"target":"left","response":"left","rt":569.69999992847,"correct":true,"confidence":4},{"trial_n":69,"n_dots":3.15,"target":"right","response":"left","rt":651.29999995232,"correct":false,"confidence":4},{"trial_n":70,"n_dots":3.25,"target":"left","response":"left","rt":743.89999997616,"correct":true,"confidence":3},{"trial_n":71,"n_dots":3.25,"target":"right","response":"left","rt":8752.4000000954,"correct":false,"confidence":3},{"trial_n":72,"n_dots":3.35,"target":"left","response":"left","rt":1028.1999999285,"correct":true,"confidence":1},{"trial_n":73,"n_dots":3.35,"target":"left","response":"left","rt":372.10000002384,"correct":true,"confidence":1},{"trial_n":74,"n_dots":3.25,"target":"right","response":"right","rt":229.10000002384,"correct":true,"confidence":2},{"trial_n":75,"n_dots":3.25,"target":"left","response":"left","rt":972.60000002384,"correct":true,"confidence":3},{"trial_n":76,"n_dots":3.15,"target":"left","response":"left","rt":728.5,"correct":true,"confidence":1},{"trial_n":77,"n_dots":3.15,"target":"left","response":"left","rt":1097.8999999762,"correct":true,"confidence":2},{"trial_n":78,"n_dots":3.05,"target":"right","response":"right","rt":755.10000002384,"correct":true,"confidence":4},{"trial_n":79,"n_dots":3.05,"target":"right","response":"left","rt":1719,"correct":false,"confidence":1},{"trial_n":80,"n_dots":3.15,"target":"left","response":"left","rt":488.30000007153,"correct":true,"confidence":1},{"trial_n":81,"n_dots":3.15,"target":"right","response":"left","rt":178.60000002384,"correct":false,"confidence":3},{"trial_n":82,"n_dots":3.25,"target":"right","response":"right","rt":980.39999997616,"correct":true,"confidence":3},{"trial_n":83,"n_dots":3.25,"target":"right","response":"left","rt":1256.1999999285,"correct":false,"confidence":3},{"trial_n":84,"n_dots":3.35,"target":"left","response":"right","rt":742,"correct":false,"confidence":2},{"trial_n":85,"n_dots":3.45,"target":"right","response":"left","rt":7.7000000476837,"correct":false,"confidence":1},{"trial_n":86,"n_dots":3.55,"target":"right","response":"right","rt":3763.2999999523,"correct":true,"confidence":3},{"trial_n":87,"n_dots":3.55,"target":"left","response":"left","rt":68.799999952316,"correct":true,"confidence":3},{"trial_n":88,"n_dots":3.45,"target":"right","response":"right","rt":277.89999997616,"correct":true,"confidence":3},{"trial_n":89,"n_dots":3.45,"target":"right","response":"right","rt":313.10000002384,"correct":true,"confidence":4},{"trial_n":90,"n_dots":3.35,"target":"right","response":"left","rt":214.09999990463,"correct":false,"confidence":2},{"trial_n":91,"n_dots":3.45,"target":"left","response":"left","rt":1189.1000000238,"correct":true,"confidence":3},{"trial_n":92,"n_dots":3.45,"target":"left","response":"left","rt":325.89999997616,"correct":true,"confidence":3},{"trial_n":93,"n_dots":3.35,"target":"left","response":"left","rt":120.10000002384,"correct":true,"confidence":2},{"trial_n":94,"n_dots":3.35,"target":"left","response":"left","rt":248.60000002384,"correct":true,"confidence":2},{"trial_n":95,"n_dots":3.25,"target":"right","response":"right","rt":477.09999990463,"correct":true,"confidence":5},{"trial_n":96,"n_dots":3.25,"target":"left","response":"right","rt":466.89999997616,"correct":false,"confidence":1},{"trial_n":97,"n_dots":3.35,"target":"left","response":"right","rt":2687.4000000954,"correct":false,"confidence":1},{"trial_n":98,"n_dots":3.45,"target":"right","response":"right","rt":63187.400000095,"correct":true,"confidence":3},{"trial_n":99,"n_dots":3.45,"target":"left","response":"right","rt":22.600000023842,"correct":false,"confidence":4},{"trial_n":100,"n_dots":3.55,"target":"left","response":"left","rt":602.09999990463,"correct":true,"confidence":3},{"trial_n":101,"n_dots":3.55,"target":"left","response":"left","rt":460,"correct":true,"confidence":3},{"trial_n":102,"n_dots":3.45,"target":"left","response":"left","rt":375.79999995232,"correct":true,"confidence":3},{"trial_n":103,"n_dots":3.45,"target":"right","response":"right","rt":493.30000007153,"correct":true,"confidence":4},{"trial_n":104,"n_dots":3.35,"target":"right","response":"right","rt":1410.8000000715,"correct":true,"confidence":5},{"trial_n":105,"n_dots":3.35,"target":"right","response":"right","rt":54.799999952316,"correct":true,"confidence":5},{"trial_n":106,"n_dots":3.25,"target":"right","response":"right","rt":1172.6000000238,"correct":true,"confidence":5},{"trial_n":107,"n_dots":3.25,"target":"left","response":"right","rt":359,"correct":false,"confidence":4},{"trial_n":108,"n_dots":3.35,"target":"left","response":"left","rt":287.89999997616,"correct":true,"confidence":3},{"trial_n":109,"n_dots":3.35,"target":"left","response":"left","rt":87.800000071526,"correct":true,"confidence":3},{"trial_n":110,"n_dots":3.25,"target":"right","response":"left","rt":110.80000007153,"correct":false,"confidence":3},{"trial_n":111,"n_dots":3.35,"target":"left","response":"left","rt":479.79999995232,"correct":true,"confidence":3},{"trial_n":112,"n_dots":3.35,"target":"right","response":"right","rt":982.39999997616,"correct":true,"confidence":4},{"trial_n":113,"n_dots":3.25,"target":"left","response":"right","rt":12885.799999952,"correct":false,"confidence":5},{"trial_n":114,"n_dots":3.35,"target":"left","response":"left","rt":4519.6999999285,"correct":true,"confidence":4},{"trial_n":115,"n_dots":3.35,"target":"left","response":"left","rt":195.29999995232,"correct":true,"confidence":3},{"trial_n":116,"n_dots":3.25,"target":"left","response":"left","rt":53,"correct":true,"confidence":4},{"trial_n":117,"n_dots":3.25,"target":"left","response":"left","rt":153.19999992847,"correct":true,"confidence":4},{"trial_n":118,"n_dots":3.15,"target":"right","response":"right","rt":119.60000002384,"correct":true,"confidence":5},{"trial_n":119,"n_dots":3.15,"target":"left","response":"left","rt":292.39999997616,"correct":true,"confidence":3},{"trial_n":120,"n_dots":3.05,"target":"left","response":"left","rt":75.400000095367,"correct":true,"confidence":4},{"trial_n":121,"n_dots":3.05,"target":"left","response":"left","rt":1114.6000000238,"correct":true,"confidence":4},{"trial_n":122,"n_dots":2.95,"target":"left","response":"left","rt":51.5,"correct":true,"confidence":4},{"trial_n":123,"n_dots":2.95,"target":"right","response":"left","rt":137.5,"correct":false,"confidence":5},{"trial_n":124,"n_dots":3.05,"target":"left","response":"left","rt":67,"correct":true,"confidence":4},{"trial_n":125,"n_dots":3.05,"target":"left","response":"left","rt":172.29999995232,"correct":true,"confidence":5},{"trial_n":126,"n_dots":2.95,"target":"left","response":"right","rt":414.39999997616,"correct":false,"confidence":5},{"trial_n":127,"n_dots":3.05,"target":"right","response":"right","rt":402.60000002384,"correct":true,"confidence":3},{"trial_n":128,"n_dots":3.05,"target":"right","response":"left","rt":1921.3000000715,"correct":false,"confidence":3},{"trial_n":129,"n_dots":3.15,"target":"left","response":"right","rt":1902.8999999762,"correct":false,"confidence":3},{"trial_n":130,"n_dots":3.25,"target":"right","response":"right","rt":877.69999992847,"correct":true,"confidence":2},{"trial_n":131,"n_dots":3.25,"target":"left","response":"right","rt":890.89999997616,"correct":false,"confidence":2},{"trial_n":132,"n_dots":3.35,"target":"left","response":"left","rt":1197.0999999046,"correct":true,"confidence":2},{"trial_n":133,"n_dots":3.35,"target":"right","response":"right","rt":1240.3000000715,"correct":true,"confidence":3},{"trial_n":134,"n_dots":3.25,"target":"left","response":"right","rt":808.69999992847,"correct":false,"confidence":6},{"trial_n":135,"n_dots":3.35,"target":"left","response":"right","rt":811.80000007153,"correct":false,"confidence":4},{"trial_n":136,"n_dots":3.45,"target":"right","response":"right","rt":608.79999995232,"correct":true,"confidence":6},{"trial_n":137,"n_dots":3.45,"target":"right","response":"right","rt":1169.6999999285,"correct":true,"confidence":3},{"trial_n":138,"n_dots":3.35,"target":"right","response":"right","rt":1887.7000000477,"correct":true,"confidence":2},{"trial_n":139,"n_dots":3.35,"target":"left","response":"left","rt":1269.5,"correct":true,"confidence":2},{"trial_n":140,"n_dots":3.25,"target":"left","response":"left","rt":1167.3999999762,"correct":true,"confidence":2},{"trial_n":141,"n_dots":3.25,"target":"right","response":"right","rt":830.70000004768,"correct":true,"confidence":3},{"trial_n":142,"n_dots":3.15,"target":"right","response":"right","rt":1082.7999999523,"correct":true,"confidence":5},{"trial_n":143,"n_dots":3.15,"target":"left","response":"right","rt":698,"correct":false,"confidence":3},{"trial_n":144,"n_dots":3.25,"target":"left","response":"right","rt":774,"correct":false,"confidence":5},{"trial_n":145,"n_dots":3.35,"target":"right","response":"right","rt":2842.2000000477,"correct":true,"confidence":6},{"trial_n":146,"n_dots":3.35,"target":"right","response":"right","rt":678.19999992847,"correct":true,"confidence":5},{"trial_n":147,"n_dots":3.25,"target":"left","response":"left","rt":1044.5,"correct":true,"confidence":3},{"trial_n":148,"n_dots":3.25,"target":"right","response":"right","rt":680.20000004768,"correct":true,"confidence":3},{"trial_n":149,"n_dots":3.15,"target":"left","response":"left","rt":878.10000002384,"correct":true,"confidence":3},{"trial_n":150,"n_dots":3.15,"target":"left","response":"left","rt":1300.3000000715,"correct":true,"confidence":2},{"trial_n":151,"n_dots":3.05,"target":"left","response":"left","rt":1617.2000000477,"correct":true,"confidence":4},{"trial_n":152,"n_dots":3.05,"target":"left","response":"left","rt":195.10000002384,"correct":true,"confidence":2},{"trial_n":153,"n_dots":2.95,"target":"right","response":"right","rt":577.60000002384,"correct":true,"confidence":5},{"trial_n":154,"n_dots":2.95,"target":"right","response":"right","rt":3336.3999999762,"correct":true,"confidence":5},{"trial_n":155,"n_dots":2.85,"target":"right","response":"right","rt":1091.5999999046,"correct":true,"confidence":5},{"trial_n":156,"n_dots":2.85,"target":"right","response":"left","rt":3705.8000000715,"correct":false,"confidence":3},{"trial_n":157,"n_dots":2.95,"target":"left","response":"right","rt":825.5,"correct":false,"confidence":5},{"trial_n":158,"n_dots":3.05,"target":"left","response":"left","rt":626.39999997616,"correct":true,"confidence":3},{"trial_n":159,"n_dots":3.05,"target":"left","response":"left","rt":1325.7999999523,"correct":true,"confidence":2},{"trial_n":160,"n_dots":2.95,"target":"left","response":"left","rt":824.59999990463,"correct":true,"confidence":2},{"trial_n":161,"n_dots":2.95,"target":"right","response":"right","rt":396.90000009537,"correct":true,"confidence":3},{"trial_n":162,"n_dots":2.85,"target":"left","response":"left","rt":413.89999997616,"correct":true,"confidence":2},{"trial_n":163,"n_dots":2.85,"target":"left","response":"right","rt":1592.6999999285,"correct":false,"confidence":2},{"trial_n":164,"n_dots":2.95,"target":"right","response":"left","rt":747.39999997616,"correct":false,"confidence":2},{"trial_n":165,"n_dots":3.05,"target":"right","response":"left","rt":992.70000004768,"correct":false,"confidence":2},{"trial_n":166,"n_dots":3.15,"target":"left","response":"left","rt":462,"correct":true,"confidence":4},{"trial_n":167,"n_dots":3.15,"target":"left","response":"left","rt":577.10000002384,"correct":true,"confidence":3},{"trial_n":168,"n_dots":3.05,"target":"right","response":"left","rt":912.10000002384,"correct":false,"confidence":3},{"trial_n":169,"n_dots":3.15,"target":"left","response":"left","rt":775.70000004768,"correct":true,"confidence":2},{"trial_n":170,"n_dots":3.15,"target":"right","response":"right","rt":2399,"correct":true,"confidence":3},{"trial_n":171,"n_dots":3.05,"target":"right","response":"right","rt":19838.400000095,"correct":true,"confidence":6},{"trial_n":172,"n_dots":3.05,"target":"left","response":"left","rt":2162.8000000715,"correct":true,"confidence":3},{"trial_n":173,"n_dots":2.95,"target":"right","response":"left","rt":1795.3000000715,"correct":false,"confidence":3},{"trial_n":174,"n_dots":3.05,"target":"right","response":"right","rt":879.59999990463,"correct":true,"confidence":4},{"trial_n":175,"n_dots":3.05,"target":"right","response":"left","rt":2910.2000000477,"correct":false,"confidence":3},{"trial_n":176,"n_dots":3.15,"target":"right","response":"right","rt":7008.8999999762,"correct":true,"confidence":2},{"trial_n":177,"n_dots":3.15,"target":"left","response":"right","rt":969.69999992847,"correct":false,"confidence":4},{"trial_n":178,"n_dots":3.25,"target":"right","response":"right","rt":2220.3000000715,"correct":true,"confidence":5},{"trial_n":179,"n_dots":3.25,"target":"left","response":"right","rt":1031,"correct":false,"confidence":3},{"trial_n":180,"n_dots":3.35,"target":"left","response":"right","rt":1058.7000000477,"correct":false,"confidence":4},{"trial_n":181,"n_dots":3.45,"target":"left","response":"right","rt":503.80000007153,"correct":false,"confidence":2},{"trial_n":182,"n_dots":3.55,"target":"left","response":"left","rt":837,"correct":true,"confidence":2},{"trial_n":183,"n_dots":3.55,"target":"left","response":"left","rt":883.70000004768,"correct":true,"confidence":2},{"trial_n":184,"n_dots":3.45,"target":"right","response":"left","rt":1045.4000000954,"correct":false,"confidence":2},{"trial_n":185,"n_dots":3.55,"target":"right","response":"left","rt":861.10000002384,"correct":false,"confidence":2},{"trial_n":186,"n_dots":3.65,"target":"right","response":"right","rt":436.10000002384,"correct":true,"confidence":4},{"trial_n":187,"n_dots":3.65,"target":"left","response":"left","rt":873.80000007153,"correct":true,"confidence":2},{"trial_n":188,"n_dots":3.55,"target":"right","response":"left","rt":485.79999995232,"correct":false,"confidence":2},{"trial_n":189,"n_dots":3.65,"target":"right","response":"left","rt":1618.5,"correct":false,"confidence":2},{"trial_n":190,"n_dots":3.75,"target":"right","response":"left","rt":1104.1999999285,"correct":false,"confidence":1},{"trial_n":191,"n_dots":3.85,"target":"right","response":"right","rt":1014,"correct":true,"confidence":4},{"trial_n":192,"n_dots":3.85,"target":"right","response":"right","rt":688,"correct":true,"confidence":2},{"trial_n":193,"n_dots":3.75,"target":"left","response":"left","rt":677.30000007153,"correct":true,"confidence":2},{"trial_n":194,"n_dots":3.75,"target":"left","response":"left","rt":337.40000009537,"correct":true,"confidence":4}]