[{"trial_n":1,"n_dots":4.25,"target":"right","response":"right","rt":4235.6999999997,"correct":true,"confidence":-1},{"trial_n":2,"n_dots":4.25,"target":"right","response":"left","rt":2194.0999999996,"correct":false,"confidence":-1},{"trial_n":3,"n_dots":4.65,"target":"left","response":"left","rt":546.40000000037,"correct":true,"confidence":-1},{"trial_n":4,"n_dots":4.65,"target":"left","response":"left","rt":394.5,"correct":true,"confidence":-1},{"trial_n":5,"n_dots":4.25,"target":"left","response":"left","rt":637,"correct":true,"confidence":-1},{"trial_n":6,"n_dots":4.25,"target":"left","response":"left","rt":429.10000000009,"correct":true,"confidence":-1},{"trial_n":7,"n_dots":3.85,"target":"left","response":"right","rt":1374.7000000002,"correct":false,"confidence":-1},{"trial_n":8,"n_dots":4.05,"target":"right","response":"right","rt":898.70000000019,"correct":true,"confidence":-1},{"trial_n":9,"n_dots":4.05,"target":"left","response":"left","rt":338,"correct":true,"confidence":-1},{"trial_n":10,"n_dots":3.85,"target":"left","response":"right","rt":524.5,"correct":false,"confidence":-1},{"trial_n":11,"n_dots":4.05,"target":"left","response":"left","rt":136.10000000009,"correct":true,"confidence":-1},{"trial_n":12,"n_dots":4.05,"target":"left","response":"right","rt":364.39999999991,"correct":false,"confidence":-1},{"trial_n":13,"n_dots":4.15,"target":"left","response":"left","rt":551.29999999981,"correct":true,"confidence":-1},{"trial_n":14,"n_dots":4.15,"target":"right","response":"right","rt":2082.4000000004,"correct":true,"confidence":-1},{"trial_n":15,"n_dots":4.05,"target":"right","response":"right","rt":177.29999999981,"correct":true,"confidence":-1},{"trial_n":16,"n_dots":4.05,"target":"left","response":"right","rt":915.40000000037,"correct":false,"confidence":-1},{"trial_n":17,"n_dots":4.15,"target":"right","response":"right","rt":51.199999999721,"correct":true,"confidence":-1},{"trial_n":18,"n_dots":4.15,"target":"left","response":"right","rt":221.39999999991,"correct":false,"confidence":-1},{"trial_n":19,"n_dots":4.25,"target":"left","response":"left","rt":184.09999999963,"correct":true,"confidence":-1},{"trial_n":20,"n_dots":4.25,"target":"left","response":"left","rt":612,"correct":true,"confidence":-1},{"trial_n":21,"n_dots":4.15,"target":"left","response":"right","rt":105.29999999981,"correct":false,"confidence":-1},{"trial_n":22,"n_dots":4.25,"target":"right","response":"right","rt":231.39999999991,"correct":true,"confidence":-1},{"trial_n":23,"n_dots":4.25,"target":"left","response":"right","rt":1427.8000000003,"correct":false,"confidence":-1},{"trial_n":24,"n_dots":4.35,"target":"right","response":"right","rt":66.200000000186,"correct":true,"confidence":-1},{"trial_n":25,"n_dots":4.35,"target":"right","response":"right","rt":187.69999999972,"correct":true,"confidence":-1},{"trial_n":26,"n_dots":4.25,"target":"left","response":"right","rt":553.19999999972,"correct":false,"confidence":-1},{"trial_n":27,"n_dots":4.35,"target":"right","response":"right","rt":179.79999999981,"correct":true,"confidence":5},{"trial_n":28,"n_dots":4.35,"target":"right","response":"right","rt":891.89999999991,"correct":true,"confidence":5},{"trial_n":29,"n_dots":4.25,"target":"right","response":"right","rt":12.199999999721,"correct":true,"confidence":4},{"trial_n":30,"n_dots":4.25,"target":"left","response":"left","rt":96.600000000093,"correct":true,"confidence":3},{"trial_n":31,"n_dots":4.15,"target":"left","response":"left","rt":239.79999999981,"correct":true,"confidence":3},{"trial_n":32,"n_dots":4.15,"target":"left","response":"left","rt":303.29999999981,"correct":true,"confidence":4},{"trial_n":33,"n_dots":4.05,"target":"left","response":"left","rt":475.60000000009,"correct":true,"confidence":4},{"trial_n":34,"n_dots":4.05,"target":"right","response":"right","rt":1836,"correct":true,"confidence":3},{"trial_n":35,"n_dots":3.95,"target":"right","response":"right","rt":66.299999999814,"correct":true,"confidence":4},{"trial_n":36,"n_dots":3.95,"target":"right","response":"right","rt":914.10000000009,"correct":true,"confidence":3},{"trial_n":37,"n_dots":3.85,"target":"right","response":"right","rt":924.89999999991,"correct":true,"confidence":4},{"trial_n":38,"n_dots":3.85,"target":"left","response":"left","rt":1251.5,"correct":true,"confidence":3},{"trial_n":39,"n_dots":3.75,"target":"right","response":"right","rt":1393.1000000001,"correct":true,"confidence":3},{"trial_n":40,"n_dots":3.75,"target":"right","response":"right","rt":960,"correct":true,"confidence":4},{"trial_n":41,"n_dots":3.65,"target":"right","response":"right","rt":5119.8999999999,"correct":true,"confidence":3},{"trial_n":42,"n_dots":3.65,"target":"left","response":"right","rt":6880.6000000001,"correct":false,"confidence":4},{"trial_n":43,"n_dots":3.75,"target":"left","response":"left","rt":4158.6000000001,"correct":true,"confidence":2},{"trial_n":44,"n_dots":3.75,"target":"left","response":"left","rt":951.90000000037,"correct":true,"confidence":4},{"trial_n":45,"n_dots":3.65,"target":"left","response":"right","rt":6793.5,"correct":false,"confidence":4},{"trial_n":46,"n_dots":3.75,"target":"right","response":"right","rt":20045.6,"correct":true,"confidence":3},{"trial_n":47,"n_dots":3.75,"target":"left","response":"right","rt":1062.1999999997,"correct":false,"confidence":4},{"trial_n":48,"n_dots":3.85,"target":"left","response":"left","rt":756.19999999972,"correct":true,"confidence":4},{"trial_n":49,"n_dots":3.85,"target":"right","response":"left","rt":10268.6,"correct":false,"confidence":4},{"trial_n":50,"n_dots":3.95,"target":"right","response":"right","rt":1389.8000000003,"correct":true,"confidence":4},{"trial_n":51,"n_dots":3.95,"target":"right","response":"right","rt":1146.7000000002,"correct":true,"confidence":4},{"trial_n":52,"n_dots":3.85,"target":"right","response":"right","rt":980.89999999991,"correct":true,"confidence":4},{"trial_n":53,"n_dots":3.85,"target":"right","response":"left","rt":843.20000000019,"correct":false,"confidence":3},{"trial_n":54,"n_dots":3.95,"target":"left","response":"right","rt":572,"correct":false,"confidence":4},{"trial_n":55,"n_dots":4.05,"target":"right","response":"right","rt":759.30000000028,"correct":true,"confidence":4},{"trial_n":56,"n_dots":4.05,"target":"right","response":"left","rt":1147.5,"correct":false,"confidence":3},{"trial_n":57,"n_dots":4.15,"target":"left","response":"right","rt":1872.1000000001,"correct":false,"confidence":4},{"trial_n":58,"n_dots":4.25,"target":"left","response":"left","rt":1000,"correct":true,"confidence":4},{"trial_n":59,"n_dots":4.25,"target":"right","response":"right","rt":863.09999999963,"correct":true,"confidence":4},{"trial_n":60,"n_dots":4.15,"target":"left","response":"left","rt":855.5,"correct":true,"confidence":4},{"trial_n":61,"n_dots":4.15,"target":"left","response":"left","rt":1047.1000000001,"correct":true,"confidence":4},{"trial_n":62,"n_dots":4.05,"target":"left","response":"left","rt":1309.6000000001,"correct":true,"confidence":4},{"trial_n":63,"n_dots":4.05,"target":"right","response":"right","rt":849.59999999963,"correct":true,"confidence":2},{"trial_n":64,"n_dots":3.95,"target":"right","response":"right","rt":2758.7000000002,"correct":true,"confidence":4},{"trial_n":65,"n_dots":3.95,"target":"left","response":"left","rt":2008,"correct":true,"confidence":3},{"trial_n":66,"n_dots":3.85,"target":"right","response":"right","rt":1041.3000000003,"correct":true,"confidence":4},{"trial_n":67,"n_dots":3.85,"target":"left","response":"left","rt":3409,"correct":true,"confidence":3},{"trial_n":68,"n_dots":3.75,"target":"right","response":"right","rt":1146.1000000001,"correct":true,"confidence":4},{"trial_n":69,"n_dots":3.75,"target":"right","response":"right","rt":856.60000000009,"correct":true,"confidence":4},{"trial_n":70,"n_dots":3.65,"target":"left","response":"right","rt":2470.4999999995,"correct":false,"confidence":4},{"trial_n":71,"n_dots":3.75,"target":"left","response":"left","rt":950.70000000019,"correct":true,"confidence":3},{"trial_n":72,"n_dots":3.75,"target":"right","response":"right","rt":2876.7000000002,"correct":true,"confidence":4},{"trial_n":73,"n_dots":3.65,"target":"left","response":"right","rt":1877.9000000004,"correct":false,"confidence":4},{"trial_n":74,"n_dots":3.75,"target":"right","response":"right","rt":1760.3000000007,"correct":true,"confidence":4},{"trial_n":75,"n_dots":3.75,"target":"left","response":"left","rt":6863.7000000002,"correct":true,"confidence":3},{"trial_n":76,"n_dots":3.65,"target":"left","response":"right","rt":1821.5999999996,"correct":false,"confidence":2},{"trial_n":77,"n_dots":3.75,"target":"left","response":"right","rt":4063.7999999998,"correct":false,"confidence":4},{"trial_n":78,"n_dots":3.85,"target":"right","response":"right","rt":1610.7999999998,"correct":true,"confidence":3},{"trial_n":79,"n_dots":3.85,"target":"right","response":"right","rt":960.20000000019,"correct":true,"confidence":4},{"trial_n":80,"n_dots":3.75,"target":"left","response":"left","rt":1143.7000000002,"correct":true,"confidence":3},{"trial_n":81,"n_dots":3.75,"target":"right","response":"right","rt":1159.6000000006,"correct":true,"confidence":4},{"trial_n":82,"n_dots":3.65,"target":"left","response":"right","rt":1155.5,"correct":false,"confidence":4},{"trial_n":83,"n_dots":3.75,"target":"left","response":"left","rt":1585.2000000002,"correct":true,"confidence":3},{"trial_n":84,"n_dots":3.75,"target":"right","response":"right","rt":2945.3999999994,"correct":true,"confidence":4},{"trial_n":85,"n_dots":3.65,"target":"left","response":"left","rt":639.20000000019,"correct":true,"confidence":3},{"trial_n":86,"n_dots":3.65,"target":"right","response":"right","rt":1538,"correct":true,"confidence":4},{"trial_n":87,"n_dots":3.55,"target":"right","response":"left","rt":3235.6999999993,"correct":false,"confidence":3},{"trial_n":88,"n_dots":3.65,"target":"left","response":"right","rt":2829.2000000002,"correct":false,"confidence":3},{"trial_n":89,"n_dots":3.75,"target":"left","response":"left","rt":1253.5,"correct":true,"confidence":4},{"trial_n":90,"n_dots":3.75,"target":"left","response":"right","rt":926.59999999963,"correct":false,"confidence":4},{"trial_n":91,"n_dots":3.85,"target":"left","response":"left","rt":481.29999999981,"correct":true,"confidence":3},{"trial_n":92,"n_dots":3.85,"target":"left","response":"right","rt":755.79999999981,"correct":false,"confidence":4},{"trial_n":93,"n_dots":3.95,"target":"right","response":"left","rt":1609.7000000002,"correct":false,"confidence":3},{"trial_n":94,"n_dots":4.05,"target":"left","response":"right","rt":796,"correct":false,"confidence":3},{"trial_n":95,"n_dots":4.15,"target":"left","response":"left","rt":5311.1999999993,"correct":true,"confidence":4},{"trial_n":96,"n_dots":4.15,"target":"left","response":"left","rt":726.20000000019,"correct":true,"confidence":4},{"trial_n":97,"n_dots":4.05,"target":"right","response":"right","rt":918.10000000056,"correct":true,"confidence":4},{"trial_n":98,"n_dots":4.05,"target":"left","response":"left","rt":1124.5,"correct":true,"confidence":3},{"trial_n":99,"n_dots":3.95,"target":"left","response":"right","rt":661.80000000075,"correct":false,"confidence":2},{"trial_n":100,"n_dots":4.05,"target":"right","response":"right","rt":761.79999999981,"correct":true,"confidence":2},{"trial_n":101,"n_dots":4.05,"target":"left","response":"left","rt":1544.2999999998,"correct":true,"confidence":2},{"trial_n":102,"n_dots":3.95,"target":"right","response":"right","rt":914.40000000037,"correct":true,"confidence":3},{"trial_n":103,"n_dots":3.95,"target":"left","response":"left","rt":848.90000000037,"correct":true,"confidence":4},{"trial_n":104,"n_dots":3.85,"target":"left","response":"right","rt":21626.6,"correct":false,"confidence":3},{"trial_n":105,"n_dots":3.95,"target":"right","response":"right","rt":1212.0999999996,"correct":true,"confidence":4},{"trial_n":106,"n_dots":3.95,"target":"left","response":"left","rt":1684.2999999998,"correct":true,"confidence":2},{"trial_n":107,"n_dots":3.85,"target":"left","response":"left","rt":491.80000000075,"correct":true,"confidence":3},{"trial_n":108,"n_dots":3.85,"target":"left","response":"left","rt":1046.1000000006,"correct":true,"confidence":4},{"trial_n":109,"n_dots":3.75,"target":"right","response":"right","rt":549.40000000037,"correct":true,"confidence":4},{"trial_n":110,"n_dots":3.75,"target":"right","response":"right","rt":646.40000000037,"correct":true,"confidence":3},{"trial_n":111,"n_dots":3.65,"target":"left","response":"right","rt":575.79999999981,"correct":false,"confidence":3},{"trial_n":112,"n_dots":3.75,"target":"right","response":"left","rt":6548.1000000006,"correct":false,"confidence":3},{"trial_n":113,"n_dots":3.85,"target":"left","response":"right","rt":5721.7999999998,"correct":false,"confidence":3},{"trial_n":114,"n_dots":3.95,"target":"right","response":"right","rt":596,"correct":true,"confidence":3},{"trial_n":115,"n_dots":3.95,"target":"left","response":"right","rt":528.20000000019,"correct":false,"confidence":3},{"trial_n":116,"n_dots":4.05,"target":"right","response":"right","rt":782.90000000037,"correct":true,"confidence":5},{"trial_n":117,"n_dots":4.05,"target":"right","response":"right","rt":729.10000000056,"correct":true,"confidence":5},{"trial_n":118,"n_dots":3.95,"target":"right","response":"right","rt":691.40000000037,"correct":true,"confidence":3},{"trial_n":119,"n_dots":3.95,"target":"left","response":"right","rt":1124.7999999998,"correct":false,"confidence":4},{"trial_n":120,"n_dots":4.05,"target":"right","response":"right","rt":488.79999999981,"correct":true,"confidence":4},{"trial_n":121,"n_dots":4.05,"target":"left","response":"right","rt":1027,"correct":false,"confidence":4},{"trial_n":122,"n_dots":4.15,"target":"left","response":"left","rt":1379.2000000002,"correct":true,"confidence":3},{"trial_n":123,"n_dots":4.15,"target":"right","response":"right","rt":572.70000000019,"correct":true,"confidence":5},{"trial_n":124,"n_dots":4.05,"target":"left","response":"left","rt":736.70000000019,"correct":true,"confidence":4},{"trial_n":125,"n_dots":4.05,"target":"left","response":"right","rt":698,"correct":false,"confidence":5},{"trial_n":126,"n_dots":4.15,"target":"right","response":"left","rt":1018.8999999994,"correct":false,"confidence":3},{"trial_n":127,"n_dots":4.25,"target":"right","response":"right","rt":1517.2000000002,"correct":true,"confidence":4},{"trial_n":128,"n_dots":4.25,"target":"right","response":"right","rt":855.5,"correct":true,"confidence":4},{"trial_n":129,"n_dots":4.15,"target":"right","response":"right","rt":650.59999999963,"correct":true,"confidence":4},{"trial_n":130,"n_dots":4.15,"target":"right","response":"right","rt":454.20000000019,"correct":true,"confidence":5},{"trial_n":131,"n_dots":4.05,"target":"right","response":"right","rt":668.10000000056,"correct":true,"confidence":4},{"trial_n":132,"n_dots":4.05,"target":"right","response":"left","rt":1605.1000000006,"correct":false,"confidence":4},{"trial_n":133,"n_dots":4.15,"target":"left","response":"right","rt":783.70000000019,"correct":false,"confidence":4},{"trial_n":134,"n_dots":4.25,"target":"right","response":"left","rt":1311.0999999996,"correct":false,"confidence":3},{"trial_n":135,"n_dots":4.35,"target":"right","response":"right","rt":707.89999999944,"correct":true,"confidence":4},{"trial_n":136,"n_dots":4.35,"target":"left","response":"left","rt":1842.7000000002,"correct":true,"confidence":3},{"trial_n":137,"n_dots":4.25,"target":"right","response":"right","rt":898,"correct":true,"confidence":4},{"trial_n":138,"n_dots":4.25,"target":"right","response":"right","rt":675.90000000037,"correct":true,"confidence":4},{"trial_n":139,"n_dots":4.15,"target":"left","response":"left","rt":579.20000000019,"correct":true,"confidence":3},{"trial_n":140,"n_dots":4.15,"target":"right","response":"right","rt":783.90000000037,"correct":true,"confidence":4},{"trial_n":141,"n_dots":4.05,"target":"right","response":"right","rt":593.59999999963,"correct":true,"confidence":5},{"trial_n":142,"n_dots":4.05,"target":"left","response":"left","rt":1228.2999999998,"correct":true,"confidence":5},{"trial_n":143,"n_dots":3.95,"target":"right","response":"right","rt":925.59999999963,"correct":true,"confidence":5},{"trial_n":144,"n_dots":3.95,"target":"left","response":"right","rt":668.20000000019,"correct":false,"confidence":4},{"trial_n":145,"n_dots":4.05,"target":"right","response":"right","rt":458,"correct":true,"confidence":3},{"trial_n":146,"n_dots":4.05,"target":"left","response":"left","rt":1211.1000000006,"correct":true,"confidence":2},{"trial_n":147,"n_dots":3.95,"target":"right","response":"right","rt":856.40000000037,"correct":true,"confidence":4},{"trial_n":148,"n_dots":3.95,"target":"left","response":"right","rt":787,"correct":false,"confidence":3},{"trial_n":149,"n_dots":4.05,"target":"left","response":"right","rt":773.59999999963,"correct":false,"confidence":3},{"trial_n":150,"n_dots":4.15,"target":"right","response":"right","rt":1032,"correct":true,"confidence":4},{"trial_n":151,"n_dots":4.15,"target":"right","response":"right","rt":685.40000000037,"correct":true,"confidence":3},{"trial_n":152,"n_dots":4.05,"target":"right","response":"right","rt":504.09999999963,"correct":true,"confidence":4},{"trial_n":153,"n_dots":4.05,"target":"right","response":"right","rt":398.5,"correct":true,"confidence":4},{"trial_n":154,"n_dots":3.95,"target":"right","response":"right","rt":475.20000000019,"correct":true,"confidence":5},{"trial_n":155,"n_dots":3.95,"target":"left","response":"right","rt":418.19999999925,"correct":false,"confidence":4},{"trial_n":156,"n_dots":4.05,"target":"left","response":"left","rt":595,"correct":true,"confidence":3},{"trial_n":157,"n_dots":4.05,"target":"right","response":"right","rt":728.5,"correct":true,"confidence":4},{"trial_n":158,"n_dots":3.95,"target":"left","response":"right","rt":528.09999999963,"correct":false,"confidence":4},{"trial_n":159,"n_dots":4.05,"target":"right","response":"right","rt":1783.7000000002,"correct":true,"confidence":4},{"trial_n":160,"n_dots":4.05,"target":"left","response":"left","rt":1703.0999999996,"correct":true,"confidence":4},{"trial_n":161,"n_dots":3.95,"target":"right","response":"left","rt":674.79999999981,"correct":false,"confidence":3},{"trial_n":162,"n_dots":4.05,"target":"left","response":"right","rt":444.79999999981,"correct":false,"confidence":5},{"trial_n":163,"n_dots":4.15,"target":"right","response":"right","rt":684,"correct":true,"confidence":4},{"trial_n":164,"n_dots":4.15,"target":"left","response":"right","rt":4707.3999999994,"correct":false,"confidence":4},{"trial_n":165,"n_dots":4.25,"target":"right","response":"right","rt":316.5,"correct":true,"confidence":3},{"trial_n":166,"n_dots":4.25,"target":"left","response":"left","rt":645.80000000075,"correct":true,"confidence":4},{"trial_n":167,"n_dots":4.15,"target":"right","response":"right","rt":12236.5,"correct":true,"confidence":4},{"trial_n":168,"n_dots":4.15,"target":"right","response":"right","rt":468.29999999981,"correct":true,"confidence":4},{"trial_n":169,"n_dots":4.05,"target":"left","response":"right","rt":637.89999999944,"correct":false,"confidence":3},{"trial_n":170,"n_dots":4.15,"target":"left","response":"left","rt":721,"correct":true,"confidence":4},{"trial_n":171,"n_dots":4.15,"target":"right","response":"right","rt":451.19999999925,"correct":true,"confidence":5},{"trial_n":172,"n_dots":4.05,"target":"right","response":"right","rt":760.80000000075,"correct":true,"confidence":4},{"trial_n":173,"n_dots":4.05,"target":"left","response":"left","rt":507.90000000037,"correct":true,"confidence":3},{"trial_n":174,"n_dots":3.95,"target":"left","response":"left","rt":666.29999999981,"correct":true,"confidence":3},{"trial_n":175,"n_dots":3.95,"target":"left","response":"left","rt":758.79999999981,"correct":true,"confidence":4},{"trial_n":176,"n_dots":3.85,"target":"right","response":"left","rt":1180.5,"correct":false,"confidence":3},{"trial_n":177,"n_dots":3.95,"target":"right","response":"right","rt":545.59999999963,"correct":true,"confidence":4},{"trial_n":178,"n_dots":3.95,"target":"right","response":"left","rt":773.39999999944,"correct":false,"confidence":3},{"trial_n":179,"n_dots":4.05,"target":"left","response":"left","rt":723.40000000037,"correct":true,"confidence":4},{"trial_n":180,"n_dots":4.05,"target":"right","response":"right","rt":864.20000000019,"correct":true,"confidence":4},{"trial_n":181,"n_dots":3.95,"target":"left","response":"left","rt":650,"correct":true,"confidence":3},{"trial_n":182,"n_dots":3.95,"target":"right","response":"right","rt":1385.8999999994,"correct":true,"confidence":4},{"trial_n":183,"n_dots":3.85,"target":"right","response":"left","rt":644.40000000037,"correct":false,"confidence":3},{"trial_n":184,"n_dots":3.95,"target":"right","response":"right","rt":1075.9000000004,"correct":true,"confidence":4},{"trial_n":185,"n_dots":3.95,"target":"right","response":"right","rt":754.79999999981,"correct":true,"confidence":3},{"trial_n":186,"n_dots":3.85,"target":"left","response":"right","rt":582.10000000056,"correct":false,"confidence":3},{"trial_n":187,"n_dots":3.95,"target":"left","response":"right","rt":741.40000000037,"correct":false,"confidence":4},{"trial_n":188,"n_dots":4.05,"target":"right","response":"right","rt":662.5,"correct":true,"confidence":3},{"trial_n":189,"n_dots":4.05,"target":"right","response":"right","rt":1360,"correct":true,"confidence":3},{"trial_n":190,"n_dots":3.95,"target":"right","response":"right","rt":3614.4000000004,"correct":true,"confidence":4},{"trial_n":191,"n_dots":3.95,"target":"right","response":"right","rt":594.70000000019,"correct":true,"confidence":3},{"trial_n":192,"n_dots":3.85,"target":"left","response":"right","rt":1144.5,"correct":false,"confidence":4},{"trial_n":193,"n_dots":3.95,"target":"left","response":"left","rt":738.5,"correct":true,"confidence":5},{"trial_n":194,"n_dots":3.95,"target":"left","response":"right","rt":1620.8999999994,"correct":false,"confidence":3}]