[{"trial_n":1,"n_dots":4.25,"target":"left","response":"right","rt":6358,"correct":false,"confidence":-1},{"trial_n":2,"n_dots":4.25,"target":"right","response":"left","rt":1253,"correct":false,"confidence":-1},{"trial_n":3,"n_dots":4.65,"target":"right","response":"right","rt":673,"correct":true,"confidence":-1},{"trial_n":4,"n_dots":4.65,"target":"left","response":"left","rt":412,"correct":true,"confidence":-1},{"trial_n":5,"n_dots":4.25,"target":"left","response":"left","rt":1240,"correct":true,"confidence":-1},{"trial_n":6,"n_dots":4.25,"target":"right","response":"right","rt":458,"correct":true,"confidence":-1},{"trial_n":7,"n_dots":3.85,"target":"right","response":"right","rt":318,"correct":true,"confidence":-1},{"trial_n":8,"n_dots":3.85,"target":"right","response":"right","rt":1082,"correct":true,"confidence":-1},{"trial_n":9,"n_dots":3.65,"target":"left","response":"left","rt":450,"correct":true,"confidence":-1},{"trial_n":10,"n_dots":3.65,"target":"left","response":"left","rt":916,"correct":true,"confidence":-1},{"trial_n":11,"n_dots":3.45,"target":"right","response":"right","rt":484,"correct":true,"confidence":-1},{"trial_n":12,"n_dots":3.45,"target":"left","response":"left","rt":280,"correct":true,"confidence":-1},{"trial_n":13,"n_dots":3.35,"target":"right","response":"right","rt":308,"correct":true,"confidence":-1},{"trial_n":14,"n_dots":3.35,"target":"left","response":"left","rt":321,"correct":true,"confidence":-1},{"trial_n":15,"n_dots":3.25,"target":"right","response":"right","rt":278,"correct":true,"confidence":-1},{"trial_n":16,"n_dots":3.25,"target":"left","response":"left","rt":343,"correct":true,"confidence":-1},{"trial_n":17,"n_dots":3.15,"target":"left","response":"left","rt":322,"correct":true,"confidence":-1},{"trial_n":18,"n_dots":3.15,"target":"left","response":"left","rt":745,"correct":true,"confidence":-1},{"trial_n":19,"n_dots":3.05,"target":"right","response":"right","rt":338,"correct":true,"confidence":-1},{"trial_n":20,"n_dots":3.05,"target":"right","response":"right","rt":197,"correct":true,"confidence":-1},{"trial_n":21,"n_dots":2.95,"target":"right","response":"right","rt":578,"correct":true,"confidence":-1},{"trial_n":22,"n_dots":2.95,"target":"left","response":"right","rt":362,"correct":false,"confidence":-1},{"trial_n":23,"n_dots":3.05,"target":"right","response":"right","rt":261,"correct":true,"confidence":-1},{"trial_n":24,"n_dots":3.05,"target":"left","response":"left","rt":392,"correct":true,"confidence":-1},{"trial_n":25,"n_dots":2.95,"target":"right","response":"right","rt":316,"correct":true,"confidence":-1},{"trial_n":26,"n_dots":2.95,"target":"right","response":"left","rt":935,"correct":false,"confidence":-1},{"trial_n":27,"n_dots":3.05,"target":"right","response":"left","rt":548,"correct":false,"confidence":3},{"trial_n":28,"n_dots":3.15,"target":"left","response":"right","rt":507,"correct":false,"confidence":5},{"trial_n":29,"n_dots":3.25,"target":"right","response":"right","rt":991,"correct":true,"confidence":4},{"trial_n":30,"n_dots":3.25,"target":"right","response":"right","rt":707,"correct":true,"confidence":3},{"trial_n":31,"n_dots":3.15,"target":"left","response":"left","rt":2208,"correct":true,"confidence":2},{"trial_n":32,"n_dots":3.15,"target":"right","response":"right","rt":1574,"correct":true,"confidence":4},{"trial_n":33,"n_dots":3.05,"target":"left","response":"left","rt":1084,"correct":true,"confidence":3},{"trial_n":34,"n_dots":3.05,"target":"right","response":"left","rt":1986,"correct":false,"confidence":4},{"trial_n":35,"n_dots":3.15,"target":"left","response":"left","rt":1352,"correct":true,"confidence":3},{"trial_n":36,"n_dots":3.15,"target":"right","response":"right","rt":526,"correct":true,"confidence":3},{"trial_n":37,"n_dots":3.05,"target":"left","response":"left","rt":1710,"correct":true,"confidence":5},{"trial_n":38,"n_dots":3.05,"target":"right","response":"right","rt":502,"correct":true,"confidence":4},{"trial_n":39,"n_dots":2.95,"target":"left","response":"right","rt":589,"correct":false,"confidence":3},{"trial_n":40,"n_dots":3.05,"target":"left","response":"right","rt":1176,"correct":false,"confidence":4},{"trial_n":41,"n_dots":3.15,"target":"left","response":"right","rt":1517,"correct":false,"confidence":3},{"trial_n":42,"n_dots":3.25,"target":"left","response":"left","rt":617,"correct":true,"confidence":3},{"trial_n":43,"n_dots":3.25,"target":"left","response":"left","rt":1728,"correct":true,"confidence":2},{"trial_n":44,"n_dots":3.15,"target":"right","response":"right","rt":672,"correct":true,"confidence":6},{"trial_n":45,"n_dots":3.15,"target":"left","response":"left","rt":1468,"correct":true,"confidence":3},{"trial_n":46,"n_dots":3.05,"target":"right","response":"right","rt":885,"correct":true,"confidence":4},{"trial_n":47,"n_dots":3.05,"target":"right","response":"right","rt":762,"correct":true,"confidence":3},{"trial_n":48,"n_dots":2.95,"target":"right","response":"right","rt":717,"correct":true,"confidence":4},{"trial_n":49,"n_dots":2.95,"target":"left","response":"left","rt":573,"correct":true,"confidence":3},{"trial_n":50,"n_dots":2.85,"target":"left","response":"right","rt":1107,"correct":false,"confidence":4},{"trial_n":51,"n_dots":2.95,"target":"right","response":"right","rt":759,"correct":true,"confidence":4},{"trial_n":52,"n_dots":2.95,"target":"right","response":"right","rt":652,"correct":true,"confidence":4},{"trial_n":53,"n_dots":2.85,"target":"left","response":"left","rt":817,"correct":true,"confidence":3},{"trial_n":54,"n_dots":2.85,"target":"left","response":"left","rt":1160,"correct":true,"confidence":3},{"trial_n":55,"n_dots":2.75,"target":"right","response":"right","rt":349,"correct":true,"confidence":5},{"trial_n":56,"n_dots":2.75,"target":"right","response":"right","rt":289,"correct":true,"confidence":4},{"trial_n":57,"n_dots":2.65,"target":"left","response":"left","rt":1634,"correct":true,"confidence":3},{"trial_n":58,"n_dots":2.65,"target":"left","response":"left","rt":1000,"correct":true,"confidence":2},{"trial_n":59,"n_dots":2.55,"target":"left","response":"right","rt":361,"correct":false,"confidence":3},{"trial_n":60,"n_dots":2.65,"target":"left","response":"right","rt":1467,"correct":false,"confidence":4},{"trial_n":61,"n_dots":2.75,"target":"left","response":"left","rt":1283,"correct":true,"confidence":3},{"trial_n":62,"n_dots":2.75,"target":"left","response":"left","rt":699,"correct":true,"confidence":3},{"trial_n":63,"n_dots":2.65,"target":"right","response":"right","rt":342,"correct":true,"confidence":4},{"trial_n":64,"n_dots":2.65,"target":"left","response":"left","rt":674,"correct":true,"confidence":3},{"trial_n":65,"n_dots":2.55,"target":"left","response":"right","rt":360,"correct":false,"confidence":4},{"trial_n":66,"n_dots":2.65,"target":"right","response":"right","rt":294,"correct":true,"confidence":4},{"trial_n":67,"n_dots":2.65,"target":"right","response":"right","rt":683,"correct":true,"confidence":4},{"trial_n":68,"n_dots":2.55,"target":"left","response":"left","rt":498,"correct":true,"confidence":3},{"trial_n":69,"n_dots":2.55,"target":"left","response":"right","rt":301,"correct":false,"confidence":4},{"trial_n":70,"n_dots":2.65,"target":"right","response":"right","rt":302,"correct":true,"confidence":4},{"trial_n":71,"n_dots":2.65,"target":"left","response":"left","rt":286,"correct":true,"confidence":3},{"trial_n":72,"n_dots":2.55,"target":"right","response":"right","rt":464,"correct":true,"confidence":4},{"trial_n":73,"n_dots":2.55,"target":"left","response":"left","rt":893,"correct":true,"confidence":3},{"trial_n":74,"n_dots":2.45,"target":"left","response":"left","rt":442,"correct":true,"confidence":3},{"trial_n":75,"n_dots":2.45,"target":"left","response":"right","rt":826,"correct":false,"confidence":4},{"trial_n":76,"n_dots":2.55,"target":"right","response":"right","rt":980,"correct":true,"confidence":4},{"trial_n":77,"n_dots":2.55,"target":"right","response":"left","rt":269,"correct":false,"confidence":3},{"trial_n":78,"n_dots":2.65,"target":"right","response":"right","rt":293,"correct":true,"confidence":3},{"trial_n":79,"n_dots":2.65,"target":"left","response":"right","rt":596,"correct":false,"confidence":3},{"trial_n":80,"n_dots":2.75,"target":"left","response":"left","rt":665,"correct":true,"confidence":3},{"trial_n":81,"n_dots":2.75,"target":"left","response":"right","rt":700,"correct":false,"confidence":3},{"trial_n":82,"n_dots":2.85,"target":"left","response":"left","rt":368,"correct":true,"confidence":4},{"trial_n":83,"n_dots":2.85,"target":"left","response":"left","rt":619,"correct":true,"confidence":4},{"trial_n":84,"n_dots":2.75,"target":"right","response":"right","rt":454,"correct":true,"confidence":4},{"trial_n":85,"n_dots":2.75,"target":"left","response":"left","rt":315,"correct":true,"confidence":3},{"trial_n":86,"n_dots":2.65,"target":"left","response":"left","rt":390,"correct":true,"confidence":3},{"trial_n":87,"n_dots":2.65,"target":"right","response":"left","rt":634,"correct":false,"confidence":3},{"trial_n":88,"n_dots":2.75,"target":"right","response":"right","rt":258,"correct":true,"confidence":4},{"trial_n":89,"n_dots":2.75,"target":"left","response":"left","rt":304,"correct":true,"confidence":3},{"trial_n":90,"n_dots":2.65,"target":"right","response":"left","rt":1648,"correct":false,"confidence":3},{"trial_n":91,"n_dots":2.75,"target":"left","response":"left","rt":939,"correct":true,"confidence":3},{"trial_n":92,"n_dots":2.75,"target":"left","response":"right","rt":364,"correct":false,"confidence":4},{"trial_n":93,"n_dots":2.85,"target":"left","response":"left","rt":2377,"correct":true,"confidence":3},{"trial_n":94,"n_dots":2.85,"target":"left","response":"right","rt":468,"correct":false,"confidence":3},{"trial_n":95,"n_dots":2.95,"target":"left","response":"left","rt":482,"correct":true,"confidence":4},{"trial_n":96,"n_dots":2.95,"target":"right","response":"right","rt":331,"correct":true,"confidence":3},{"trial_n":97,"n_dots":2.85,"target":"left","response":"left","rt":247,"correct":true,"confidence":3},{"trial_n":98,"n_dots":2.85,"target":"left","response":"left","rt":759,"correct":true,"confidence":3},{"trial_n":99,"n_dots":2.75,"target":"right","response":"right","rt":185,"correct":true,"confidence":3},{"trial_n":100,"n_dots":2.75,"target":"right","response":"right","rt":763,"correct":true,"confidence":3},{"trial_n":101,"n_dots":2.65,"target":"right","response":"left","rt":985,"correct":false,"confidence":3},{"trial_n":102,"n_dots":2.75,"target":"right","response":"left","rt":648,"correct":false,"confidence":3},{"trial_n":103,"n_dots":2.85,"target":"right","response":"left","rt":410,"correct":false,"confidence":1},{"trial_n":104,"n_dots":2.95,"target":"left","response":"right","rt":664,"correct":false,"confidence":3},{"trial_n":105,"n_dots":3.05,"target":"left","response":"left","rt":277,"correct":true,"confidence":3},{"trial_n":106,"n_dots":3.05,"target":"right","response":"right","rt":692,"correct":true,"confidence":3},{"trial_n":107,"n_dots":2.95,"target":"right","response":"right","rt":398,"correct":true,"confidence":3},{"trial_n":108,"n_dots":2.95,"target":"right","response":"right","rt":424,"correct":true,"confidence":3},{"trial_n":109,"n_dots":2.85,"target":"right","response":"left","rt":366,"correct":false,"confidence":3},{"trial_n":110,"n_dots":2.95,"target":"right","response":"right","rt":366,"correct":true,"confidence":3},{"trial_n":111,"n_dots":2.95,"target":"right","response":"right","rt":416,"correct":true,"confidence":3},{"trial_n":112,"n_dots":2.85,"target":"right","response":"left","rt":467,"correct":false,"confidence":3},{"trial_n":113,"n_dots":2.95,"target":"left","response":"left","rt":571,"correct":true,"confidence":3},{"trial_n":114,"n_dots":2.95,"target":"left","response":"left","rt":271,"correct":true,"confidence":3},{"trial_n":115,"n_dots":2.85,"target":"left","response":"left","rt":379,"correct":true,"confidence":3},{"trial_n":116,"n_dots":2.85,"target":"left","response":"right","rt":289,"correct":false,"confidence":2},{"trial_n":117,"n_dots":2.95,"target":"left","response":"right","rt":504,"correct":false,"confidence":3},{"trial_n":118,"n_dots":3.05,"target":"left","response":"left","rt":718,"correct":true,"confidence":3},{"trial_n":119,"n_dots":3.05,"target":"right","response":"right","rt":314,"correct":true,"confidence":4},{"trial_n":120,"n_dots":2.95,"target":"left","response":"right","rt":371,"correct":false,"confidence":3},{"trial_n":121,"n_dots":3.05,"target":"right","response":"left","rt":300,"correct":false,"confidence":3},{"trial_n":122,"n_dots":3.15,"target":"right","response":"right","rt":284,"correct":true,"confidence":4},{"trial_n":123,"n_dots":3.15,"target":"left","response":"left","rt":236,"correct":true,"confidence":4},{"trial_n":124,"n_dots":3.05,"target":"right","response":"right","rt":568,"correct":true,"confidence":3},{"trial_n":125,"n_dots":3.05,"target":"right","response":"right","rt":291,"correct":true,"confidence":3},{"trial_n":126,"n_dots":2.95,"target":"right","response":"right","rt":294,"correct":true,"confidence":3},{"trial_n":127,"n_dots":2.95,"target":"right","response":"right","rt":382,"correct":true,"confidence":3},{"trial_n":128,"n_dots":2.85,"target":"right","response":"right","rt":796,"correct":true,"confidence":3},{"trial_n":129,"n_dots":2.85,"target":"right","response":"right","rt":309,"correct":true,"confidence":4},{"trial_n":130,"n_dots":2.75,"target":"right","response":"right","rt":337,"correct":true,"confidence":3},{"trial_n":131,"n_dots":2.75,"target":"left","response":"left","rt":296,"correct":true,"confidence":3},{"trial_n":132,"n_dots":2.65,"target":"left","response":"left","rt":299,"correct":true,"confidence":3},{"trial_n":133,"n_dots":2.65,"target":"right","response":"left","rt":636,"correct":false,"confidence":2},{"trial_n":134,"n_dots":2.75,"target":"left","response":"left","rt":904,"correct":true,"confidence":1},{"trial_n":135,"n_dots":2.75,"target":"left","response":"left","rt":1000,"correct":true,"confidence":3},{"trial_n":136,"n_dots":2.65,"target":"left","response":"left","rt":653,"correct":true,"confidence":3},{"trial_n":137,"n_dots":2.65,"target":"left","response":"right","rt":451,"correct":false,"confidence":2},{"trial_n":138,"n_dots":2.75,"target":"left","response":"right","rt":174,"correct":false,"confidence":4},{"trial_n":139,"n_dots":2.85,"target":"left","response":"right","rt":324,"correct":false,"confidence":3},{"trial_n":140,"n_dots":2.95,"target":"right","response":"right","rt":300,"correct":true,"confidence":3},{"trial_n":141,"n_dots":2.95,"target":"right","response":"right","rt":1176,"correct":true,"confidence":3},{"trial_n":142,"n_dots":2.85,"target":"right","response":"left","rt":543,"correct":false,"confidence":3},{"trial_n":143,"n_dots":2.95,"target":"right","response":"right","rt":335,"correct":true,"confidence":3},{"trial_n":144,"n_dots":2.95,"target":"right","response":"right","rt":540,"correct":true,"confidence":4},{"trial_n":145,"n_dots":2.85,"target":"left","response":"left","rt":1003,"correct":true,"confidence":3},{"trial_n":146,"n_dots":2.85,"target":"right","response":"left","rt":889,"correct":false,"confidence":3},{"trial_n":147,"n_dots":2.95,"target":"left","response":"right","rt":484,"correct":false,"confidence":3},{"trial_n":148,"n_dots":3.05,"target":"left","response":"left","rt":727,"correct":true,"confidence":3},{"trial_n":149,"n_dots":3.05,"target":"left","response":"left","rt":891,"correct":true,"confidence":4},{"trial_n":150,"n_dots":2.95,"target":"right","response":"right","rt":348,"correct":true,"confidence":4},{"trial_n":151,"n_dots":2.95,"target":"right","response":"right","rt":465,"correct":true,"confidence":3},{"trial_n":152,"n_dots":2.85,"target":"right","response":"right","rt":583,"correct":true,"confidence":4},{"trial_n":153,"n_dots":2.85,"target":"right","response":"right","rt":1752,"correct":true,"confidence":3},{"trial_n":154,"n_dots":2.75,"target":"right","response":"right","rt":531,"correct":true,"confidence":4},{"trial_n":155,"n_dots":2.75,"target":"right","response":"left","rt":925,"correct":false,"confidence":3},{"trial_n":156,"n_dots":2.85,"target":"right","response":"left","rt":933,"correct":false,"confidence":2},{"trial_n":157,"n_dots":2.95,"target":"left","response":"right","rt":338,"correct":false,"confidence":2},{"trial_n":158,"n_dots":3.05,"target":"left","response":"right","rt":583,"correct":false,"confidence":3},{"trial_n":159,"n_dots":3.15,"target":"right","response":"right","rt":619,"correct":true,"confidence":3},{"trial_n":160,"n_dots":3.15,"target":"right","response":"right","rt":675,"correct":true,"confidence":3},{"trial_n":161,"n_dots":3.05,"target":"right","response":"right","rt":788,"correct":true,"confidence":2},{"trial_n":162,"n_dots":3.05,"target":"left","response":"left","rt":272,"correct":true,"confidence":2},{"trial_n":163,"n_dots":2.95,"target":"right","response":"right","rt":150,"correct":true,"confidence":4},{"trial_n":164,"n_dots":2.95,"target":"left","response":"left","rt":564,"correct":true,"confidence":3},{"trial_n":165,"n_dots":2.85,"target":"left","response":"left","rt":2726,"correct":true,"confidence":3},{"trial_n":166,"n_dots":2.85,"target":"right","response":"right","rt":273,"correct":true,"confidence":3},{"trial_n":167,"n_dots":2.75,"target":"right","response":"right","rt":259,"correct":true,"confidence":4},{"trial_n":168,"n_dots":2.75,"target":"left","response":"right","rt":505,"correct":false,"confidence":3},{"trial_n":169,"n_dots":2.85,"target":"right","response":"right","rt":250,"correct":true,"confidence":3},{"trial_n":170,"n_dots":2.85,"target":"left","response":"left","rt":780,"correct":true,"confidence":3},{"trial_n":171,"n_dots":2.75,"target":"left","response":"right","rt":293,"correct":false,"confidence":4},{"trial_n":172,"n_dots":2.85,"target":"right","response":"right","rt":368,"correct":true,"confidence":4},{"trial_n":173,"n_dots":2.85,"target":"right","response":"right","rt":487,"correct":true,"confidence":4},{"trial_n":174,"n_dots":2.75,"target":"right","response":"right","rt":524,"correct":true,"confidence":3},{"trial_n":175,"n_dots":2.75,"target":"left","response":"right","rt":302,"correct":false,"confidence":4},{"trial_n":176,"n_dots":2.85,"target":"right","response":"right","rt":283,"correct":true,"confidence":4},{"trial_n":177,"n_dots":2.85,"target":"right","response":"right","rt":299,"correct":true,"confidence":3},{"trial_n":178,"n_dots":2.75,"target":"left","response":"right","rt":391,"correct":false,"confidence":3},{"trial_n":179,"n_dots":2.85,"target":"right","response":"right","rt":330,"correct":true,"confidence":4},{"trial_n":180,"n_dots":2.85,"target":"right","response":"right","rt":248,"correct":true,"confidence":3},{"trial_n":181,"n_dots":2.75,"target":"left","response":"right","rt":316,"correct":false,"confidence":3},{"trial_n":182,"n_dots":2.85,"target":"left","response":"right","rt":484,"correct":false,"confidence":2},{"trial_n":183,"n_dots":2.95,"target":"left","response":"left","rt":228,"correct":true,"confidence":3},{"trial_n":184,"n_dots":2.95,"target":"right","response":"right","rt":236,"correct":true,"confidence":3},{"trial_n":185,"n_dots":2.85,"target":"left","response":"right","rt":57,"correct":false,"confidence":3},{"trial_n":186,"n_dots":2.95,"target":"right","response":"right","rt":314,"correct":true,"confidence":4},{"trial_n":187,"n_dots":2.95,"target":"left","response":"right","rt":299,"correct":false,"confidence":3},{"trial_n":188,"n_dots":3.05,"target":"left","response":"left","rt":135,"correct":true,"confidence":3},{"trial_n":189,"n_dots":3.05,"target":"right","response":"right","rt":256,"correct":true,"confidence":4},{"trial_n":190,"n_dots":2.95,"target":"left","response":"right","rt":375,"correct":false,"confidence":3},{"trial_n":191,"n_dots":3.05,"target":"left","response":"right","rt":543,"correct":false,"confidence":3},{"trial_n":192,"n_dots":3.15,"target":"right","response":"right","rt":367,"correct":true,"confidence":4},{"trial_n":193,"n_dots":3.15,"target":"left","response":"right","rt":355,"correct":false,"confidence":3},{"trial_n":194,"n_dots":3.25,"target":"right","response":"right","rt":236,"correct":true,"confidence":4}]