[{"trial_n":1,"n_dots":4.25,"target":"right","response":"right","rt":10265.699999999,"correct":true,"confidence":-1},{"trial_n":2,"n_dots":4.25,"target":"right","response":"right","rt":1098.8000000007,"correct":true,"confidence":-1},{"trial_n":3,"n_dots":3.85,"target":"right","response":"left","rt":1089,"correct":false,"confidence":-1},{"trial_n":4,"n_dots":4.25,"target":"right","response":"right","rt":1006.3000000007,"correct":true,"confidence":-1},{"trial_n":5,"n_dots":4.25,"target":"right","response":"left","rt":1124.5999999978,"correct":false,"confidence":-1},{"trial_n":6,"n_dots":4.65,"target":"left","response":"left","rt":645.90000000224,"correct":true,"confidence":-1},{"trial_n":7,"n_dots":4.65,"target":"left","response":"left","rt":631,"correct":true,"confidence":-1},{"trial_n":8,"n_dots":4.45,"target":"right","response":"right","rt":816.80000000075,"correct":true,"confidence":-1},{"trial_n":9,"n_dots":4.45,"target":"right","response":"right","rt":619.89999999851,"correct":true,"confidence":-1},{"trial_n":10,"n_dots":4.25,"target":"left","response":"left","rt":746.39999999851,"correct":true,"confidence":-1},{"trial_n":11,"n_dots":4.25,"target":"left","response":"left","rt":382.90000000224,"correct":true,"confidence":-1},{"trial_n":12,"n_dots":4.05,"target":"left","response":"left","rt":1056.4000000022,"correct":true,"confidence":-1},{"trial_n":13,"n_dots":4.05,"target":"right","response":"right","rt":1020.200000003,"correct":true,"confidence":-1},{"trial_n":14,"n_dots":3.95,"target":"right","response":"right","rt":722.30000000075,"correct":true,"confidence":-1},{"trial_n":15,"n_dots":3.95,"target":"left","response":"left","rt":670.69999999925,"correct":true,"confidence":-1},{"trial_n":16,"n_dots":3.85,"target":"left","response":"left","rt":713.19999999925,"correct":true,"confidence":-1},{"trial_n":17,"n_dots":3.85,"target":"right","response":"right","rt":501.30000000075,"correct":true,"confidence":-1},{"trial_n":18,"n_dots":3.75,"target":"left","response":"left","rt":363.20000000298,"correct":true,"confidence":-1},{"trial_n":19,"n_dots":3.75,"target":"left","response":"left","rt":324.39999999851,"correct":true,"confidence":-1},{"trial_n":20,"n_dots":3.65,"target":"left","response":"left","rt":692.90000000224,"correct":true,"confidence":-1},{"trial_n":21,"n_dots":3.65,"target":"right","response":"right","rt":685.59999999776,"correct":true,"confidence":-1},{"trial_n":22,"n_dots":3.55,"target":"left","response":"left","rt":822.69999999925,"correct":true,"confidence":-1},{"trial_n":23,"n_dots":3.55,"target":"left","response":"left","rt":986.40000000224,"correct":true,"confidence":-1},{"trial_n":24,"n_dots":3.45,"target":"right","response":"right","rt":696.90000000224,"correct":true,"confidence":-1},{"trial_n":25,"n_dots":3.45,"target":"right","response":"right","rt":752.20000000298,"correct":true,"confidence":-1},{"trial_n":26,"n_dots":3.35,"target":"left","response":"right","rt":979.5,"correct":false,"confidence":-1},{"trial_n":27,"n_dots":3.45,"target":"left","response":"left","rt":976.60000000149,"correct":true,"confidence":6},{"trial_n":28,"n_dots":3.45,"target":"left","response":"left","rt":877.5,"correct":true,"confidence":4},{"trial_n":29,"n_dots":3.35,"target":"left","response":"left","rt":832.39999999851,"correct":true,"confidence":4},{"trial_n":30,"n_dots":3.35,"target":"right","response":"right","rt":686,"correct":true,"confidence":4},{"trial_n":31,"n_dots":3.25,"target":"left","response":"left","rt":830.19999999925,"correct":true,"confidence":5},{"trial_n":32,"n_dots":3.25,"target":"right","response":"right","rt":738,"correct":true,"confidence":6},{"trial_n":33,"n_dots":3.15,"target":"right","response":"right","rt":902.80000000075,"correct":true,"confidence":6},{"trial_n":34,"n_dots":3.15,"target":"right","response":"right","rt":869.80000000075,"correct":true,"confidence":6},{"trial_n":35,"n_dots":3.05,"target":"left","response":"left","rt":628.40000000224,"correct":true,"confidence":5},{"trial_n":36,"n_dots":3.05,"target":"left","response":"left","rt":800.70000000298,"correct":true,"confidence":5},{"trial_n":37,"n_dots":2.95,"target":"left","response":"left","rt":662,"correct":true,"confidence":6},{"trial_n":38,"n_dots":2.95,"target":"right","response":"left","rt":804.5,"correct":false,"confidence":2},{"trial_n":39,"n_dots":3.05,"target":"left","response":"right","rt":982.09999999776,"correct":false,"confidence":3},{"trial_n":40,"n_dots":3.15,"target":"right","response":"right","rt":1157.5,"correct":true,"confidence":2},{"trial_n":41,"n_dots":3.15,"target":"left","response":"right","rt":886.5,"correct":false,"confidence":4},{"trial_n":42,"n_dots":3.25,"target":"left","response":"left","rt":534.70000000298,"correct":true,"confidence":6},{"trial_n":43,"n_dots":3.25,"target":"left","response":"left","rt":2536.0999999978,"correct":true,"confidence":6},{"trial_n":44,"n_dots":3.15,"target":"right","response":"left","rt":740.19999999925,"correct":false,"confidence":3},{"trial_n":45,"n_dots":3.25,"target":"left","response":"left","rt":648.80000000075,"correct":true,"confidence":6},{"trial_n":46,"n_dots":3.25,"target":"left","response":"left","rt":907.19999999925,"correct":true,"confidence":5},{"trial_n":47,"n_dots":3.15,"target":"left","response":"left","rt":643.5,"correct":true,"confidence":6},{"trial_n":48,"n_dots":3.15,"target":"right","response":"right","rt":941.09999999776,"correct":true,"confidence":5},{"trial_n":49,"n_dots":3.05,"target":"right","response":"left","rt":523,"correct":false,"confidence":3},{"trial_n":50,"n_dots":3.15,"target":"left","response":"left","rt":984.69999999925,"correct":true,"confidence":5},{"trial_n":51,"n_dots":3.15,"target":"right","response":"right","rt":720.60000000149,"correct":true,"confidence":6},{"trial_n":52,"n_dots":3.05,"target":"left","response":"right","rt":1335.3000000007,"correct":false,"confidence":6},{"trial_n":53,"n_dots":3.15,"target":"right","response":"left","rt":737.10000000149,"correct":false,"confidence":1},{"trial_n":54,"n_dots":3.25,"target":"right","response":"right","rt":810.69999999925,"correct":true,"confidence":5},{"trial_n":55,"n_dots":3.25,"target":"right","response":"right","rt":1053.5,"correct":true,"confidence":5},{"trial_n":56,"n_dots":3.15,"target":"left","response":"left","rt":1003.3999999985,"correct":true,"confidence":4},{"trial_n":57,"n_dots":3.15,"target":"right","response":"right","rt":574.69999999925,"correct":true,"confidence":6},{"trial_n":58,"n_dots":3.05,"target":"left","response":"left","rt":772.19999999925,"correct":true,"confidence":6},{"trial_n":59,"n_dots":3.05,"target":"left","response":"right","rt":688.30000000075,"correct":false,"confidence":4},{"trial_n":60,"n_dots":3.15,"target":"right","response":"left","rt":694.30000000075,"correct":false,"confidence":5},{"trial_n":61,"n_dots":3.25,"target":"right","response":"right","rt":726.59999999776,"correct":true,"confidence":6},{"trial_n":62,"n_dots":3.25,"target":"right","response":"right","rt":627.70000000298,"correct":true,"confidence":6},{"trial_n":63,"n_dots":3.15,"target":"right","response":"right","rt":696.39999999851,"correct":true,"confidence":4},{"trial_n":64,"n_dots":3.15,"target":"left","response":"left","rt":542,"correct":true,"confidence":5},{"trial_n":65,"n_dots":3.05,"target":"left","response":"left","rt":655.09999999776,"correct":true,"confidence":6},{"trial_n":66,"n_dots":3.05,"target":"right","response":"right","rt":664,"correct":true,"confidence":5},{"trial_n":67,"n_dots":2.95,"target":"left","response":"left","rt":587.29999999702,"correct":true,"confidence":6},{"trial_n":68,"n_dots":2.95,"target":"right","response":"right","rt":771.5,"correct":true,"confidence":5},{"trial_n":69,"n_dots":2.85,"target":"right","response":"right","rt":937.5,"correct":true,"confidence":4},{"trial_n":70,"n_dots":2.85,"target":"left","response":"left","rt":621.29999999702,"correct":true,"confidence":6},{"trial_n":71,"n_dots":2.75,"target":"left","response":"left","rt":761,"correct":true,"confidence":6},{"trial_n":72,"n_dots":2.75,"target":"left","response":"left","rt":719.39999999851,"correct":true,"confidence":5},{"trial_n":73,"n_dots":2.65,"target":"right","response":"right","rt":737,"correct":true,"confidence":4},{"trial_n":74,"n_dots":2.65,"target":"left","response":"left","rt":541.79999999702,"correct":true,"confidence":5},{"trial_n":75,"n_dots":2.55,"target":"right","response":"right","rt":489.40000000224,"correct":true,"confidence":4},{"trial_n":76,"n_dots":2.55,"target":"right","response":"right","rt":641.10000000149,"correct":true,"confidence":4},{"trial_n":77,"n_dots":2.45,"target":"left","response":"left","rt":819.80000000075,"correct":true,"confidence":2},{"trial_n":78,"n_dots":2.45,"target":"right","response":"right","rt":735.39999999851,"correct":true,"confidence":4},{"trial_n":79,"n_dots":2.35,"target":"right","response":"left","rt":683.40000000224,"correct":false,"confidence":3},{"trial_n":80,"n_dots":2.45,"target":"right","response":"right","rt":851.40000000224,"correct":true,"confidence":2},{"trial_n":81,"n_dots":2.45,"target":"left","response":"left","rt":696.69999999925,"correct":true,"confidence":3},{"trial_n":82,"n_dots":2.35,"target":"left","response":"left","rt":483.5,"correct":true,"confidence":4},{"trial_n":83,"n_dots":2.35,"target":"right","response":"left","rt":1328.1999999993,"correct":false,"confidence":4},{"trial_n":84,"n_dots":2.45,"target":"left","response":"left","rt":575.09999999776,"correct":true,"confidence":4},{"trial_n":85,"n_dots":2.45,"target":"right","response":"right","rt":687.89999999851,"correct":true,"confidence":3},{"trial_n":86,"n_dots":2.35,"target":"right","response":"right","rt":639.59999999776,"correct":true,"confidence":5},{"trial_n":87,"n_dots":2.35,"target":"left","response":"right","rt":729.70000000298,"correct":false,"confidence":4},{"trial_n":88,"n_dots":2.45,"target":"left","response":"right","rt":608.30000000075,"correct":false,"confidence":3},{"trial_n":89,"n_dots":2.55,"target":"left","response":"left","rt":501.5,"correct":true,"confidence":4},{"trial_n":90,"n_dots":2.55,"target":"right","response":"right","rt":487.69999999925,"correct":true,"confidence":5},{"trial_n":91,"n_dots":2.45,"target":"right","response":"right","rt":364.39999999851,"correct":true,"confidence":2},{"trial_n":92,"n_dots":2.45,"target":"right","response":"right","rt":1126.6999999993,"correct":true,"confidence":4},{"trial_n":93,"n_dots":2.35,"target":"left","response":"left","rt":905.80000000075,"correct":true,"confidence":4},{"trial_n":94,"n_dots":2.35,"target":"right","response":"right","rt":502.80000000075,"correct":true,"confidence":5},{"trial_n":95,"n_dots":2.25,"target":"left","response":"left","rt":525.09999999776,"correct":true,"confidence":3},{"trial_n":96,"n_dots":2.25,"target":"left","response":"left","rt":352.60000000149,"correct":true,"confidence":4},{"trial_n":97,"n_dots":2.15,"target":"right","response":"right","rt":518.20000000298,"correct":true,"confidence":4},{"trial_n":98,"n_dots":2.15,"target":"right","response":"right","rt":484.79999999702,"correct":true,"confidence":6},{"trial_n":99,"n_dots":2.05,"target":"left","response":"right","rt":428.10000000149,"correct":false,"confidence":4},{"trial_n":100,"n_dots":2.15,"target":"left","response":"right","rt":520.39999999851,"correct":false,"confidence":5},{"trial_n":101,"n_dots":2.25,"target":"left","response":"left","rt":1992.1000000015,"correct":true,"confidence":3},{"trial_n":102,"n_dots":2.25,"target":"right","response":"left","rt":8622.5,"correct":false,"confidence":4},{"trial_n":103,"n_dots":2.35,"target":"right","response":"right","rt":482.60000000149,"correct":true,"confidence":2},{"trial_n":104,"n_dots":2.35,"target":"left","response":"left","rt":557.39999999851,"correct":true,"confidence":3},{"trial_n":105,"n_dots":2.25,"target":"left","response":"left","rt":800.79999999702,"correct":true,"confidence":4},{"trial_n":106,"n_dots":2.25,"target":"left","response":"left","rt":516.80000000075,"correct":true,"confidence":5},{"trial_n":107,"n_dots":2.15,"target":"right","response":"right","rt":383.5,"correct":true,"confidence":1},{"trial_n":108,"n_dots":2.15,"target":"left","response":"right","rt":1013.799999997,"correct":false,"confidence":3},{"trial_n":109,"n_dots":2.25,"target":"right","response":"right","rt":870.5,"correct":true,"confidence":5},{"trial_n":110,"n_dots":2.25,"target":"left","response":"left","rt":789,"correct":true,"confidence":5},{"trial_n":111,"n_dots":2.15,"target":"left","response":"left","rt":958.69999999925,"correct":true,"confidence":3},{"trial_n":112,"n_dots":2.15,"target":"right","response":"left","rt":461.79999999702,"correct":false,"confidence":5},{"trial_n":113,"n_dots":2.25,"target":"right","response":"right","rt":834.69999999925,"correct":true,"confidence":6},{"trial_n":114,"n_dots":2.25,"target":"right","response":"right","rt":829.30000000075,"correct":true,"confidence":2},{"trial_n":115,"n_dots":2.15,"target":"left","response":"right","rt":974.30000000075,"correct":false,"confidence":4},{"trial_n":116,"n_dots":2.25,"target":"right","response":"right","rt":470,"correct":true,"confidence":3},{"trial_n":117,"n_dots":2.25,"target":"right","response":"right","rt":687.60000000149,"correct":true,"confidence":4},{"trial_n":118,"n_dots":2.15,"target":"right","response":"right","rt":771.10000000149,"correct":true,"confidence":2},{"trial_n":119,"n_dots":2.15,"target":"right","response":"left","rt":423.40000000224,"correct":false,"confidence":5},{"trial_n":120,"n_dots":2.25,"target":"left","response":"right","rt":706.60000000149,"correct":false,"confidence":1},{"trial_n":121,"n_dots":2.35,"target":"left","response":"left","rt":577.5,"correct":true,"confidence":3},{"trial_n":122,"n_dots":2.35,"target":"left","response":"left","rt":573.5,"correct":true,"confidence":2},{"trial_n":123,"n_dots":2.25,"target":"left","response":"right","rt":631.30000000075,"correct":false,"confidence":1},{"trial_n":124,"n_dots":2.35,"target":"right","response":"left","rt":416.5,"correct":false,"confidence":4},{"trial_n":125,"n_dots":2.45,"target":"left","response":"left","rt":421.80000000075,"correct":true,"confidence":5},{"trial_n":126,"n_dots":2.45,"target":"right","response":"left","rt":524.79999999702,"correct":false,"confidence":3},{"trial_n":127,"n_dots":2.55,"target":"right","response":"right","rt":459.10000000149,"correct":true,"confidence":4},{"trial_n":128,"n_dots":2.55,"target":"right","response":"left","rt":489.79999999702,"correct":false,"confidence":3},{"trial_n":129,"n_dots":2.65,"target":"right","response":"right","rt":748,"correct":true,"confidence":6},{"trial_n":130,"n_dots":2.65,"target":"left","response":"left","rt":399.30000000075,"correct":true,"confidence":5},{"trial_n":131,"n_dots":2.55,"target":"right","response":"right","rt":342.30000000075,"correct":true,"confidence":4},{"trial_n":132,"n_dots":2.55,"target":"left","response":"left","rt":500.10000000149,"correct":true,"confidence":5},{"trial_n":133,"n_dots":2.45,"target":"right","response":"right","rt":753.70000000298,"correct":true,"confidence":4},{"trial_n":134,"n_dots":2.45,"target":"left","response":"left","rt":475.90000000224,"correct":true,"confidence":5},{"trial_n":135,"n_dots":2.35,"target":"left","response":"right","rt":449.30000000075,"correct":false,"confidence":3},{"trial_n":136,"n_dots":2.45,"target":"left","response":"left","rt":2283.299999997,"correct":true,"confidence":3},{"trial_n":137,"n_dots":2.45,"target":"left","response":"left","rt":460.70000000298,"correct":true,"confidence":5},{"trial_n":138,"n_dots":2.35,"target":"right","response":"left","rt":390.09999999776,"correct":false,"confidence":4},{"trial_n":139,"n_dots":2.45,"target":"right","response":"right","rt":726,"correct":true,"confidence":4},{"trial_n":140,"n_dots":2.45,"target":"right","response":"left","rt":737.69999999925,"correct":false,"confidence":3},{"trial_n":141,"n_dots":2.55,"target":"left","response":"left","rt":304.19999999925,"correct":true,"confidence":4},{"trial_n":142,"n_dots":2.55,"target":"left","response":"left","rt":398.40000000224,"correct":true,"confidence":2},{"trial_n":143,"n_dots":2.45,"target":"left","response":"right","rt":534.19999999925,"correct":false,"confidence":5},{"trial_n":144,"n_dots":2.55,"target":"right","response":"right","rt":9885.299999997,"correct":true,"confidence":5},{"trial_n":145,"n_dots":2.55,"target":"left","response":"left","rt":1287.3999999985,"correct":true,"confidence":3},{"trial_n":146,"n_dots":2.45,"target":"right","response":"right","rt":704.80000000075,"correct":true,"confidence":4},{"trial_n":147,"n_dots":2.45,"target":"right","response":"right","rt":642.5,"correct":true,"confidence":5},{"trial_n":148,"n_dots":2.35,"target":"right","response":"left","rt":939.89999999851,"correct":false,"confidence":2},{"trial_n":149,"n_dots":2.45,"target":"left","response":"right","rt":736.5,"correct":false,"confidence":4},{"trial_n":150,"n_dots":2.55,"target":"right","response":"right","rt":537.80000000075,"correct":true,"confidence":2},{"trial_n":151,"n_dots":2.55,"target":"left","response":"left","rt":488.80000000075,"correct":true,"confidence":3},{"trial_n":152,"n_dots":2.45,"target":"left","response":"left","rt":455.5,"correct":true,"confidence":4},{"trial_n":153,"n_dots":2.45,"target":"left","response":"left","rt":1347.9000000022,"correct":true,"confidence":4},{"trial_n":154,"n_dots":2.35,"target":"right","response":"left","rt":532,"correct":false,"confidence":3},{"trial_n":155,"n_dots":2.45,"target":"right","response":"right","rt":560.5,"correct":true,"confidence":4},{"trial_n":156,"n_dots":2.45,"target":"right","response":"right","rt":694.89999999851,"correct":true,"confidence":3},{"trial_n":157,"n_dots":2.35,"target":"left","response":"left","rt":153345.2,"correct":true,"confidence":3},{"trial_n":158,"n_dots":2.35,"target":"right","response":"left","rt":490.40000000224,"correct":false,"confidence":2},{"trial_n":159,"n_dots":2.45,"target":"right","response":"right","rt":193.10000000149,"correct":true,"confidence":4},{"trial_n":160,"n_dots":2.45,"target":"left","response":"left","rt":702.70000000298,"correct":true,"confidence":3},{"trial_n":161,"n_dots":2.35,"target":"left","response":"right","rt":770.19999999925,"correct":false,"confidence":5},{"trial_n":162,"n_dots":2.45,"target":"right","response":"left","rt":277.90000000224,"correct":false,"confidence":4},{"trial_n":163,"n_dots":2.55,"target":"right","response":"right","rt":731,"correct":true,"confidence":3},{"trial_n":164,"n_dots":2.55,"target":"right","response":"left","rt":613.60000000149,"correct":false,"confidence":3},{"trial_n":165,"n_dots":2.65,"target":"left","response":"right","rt":561.10000000149,"correct":false,"confidence":3},{"trial_n":166,"n_dots":2.75,"target":"left","response":"left","rt":438.19999999925,"correct":true,"confidence":2},{"trial_n":167,"n_dots":2.75,"target":"right","response":"left","rt":447.29999999702,"correct":false,"confidence":5},{"trial_n":168,"n_dots":2.85,"target":"right","response":"right","rt":564.40000000224,"correct":true,"confidence":3},{"trial_n":169,"n_dots":2.85,"target":"left","response":"left","rt":494.59999999776,"correct":true,"confidence":5},{"trial_n":170,"n_dots":2.75,"target":"right","response":"left","rt":614.09999999776,"correct":false,"confidence":3},{"trial_n":171,"n_dots":2.85,"target":"left","response":"left","rt":932.19999999925,"correct":true,"confidence":6},{"trial_n":172,"n_dots":2.85,"target":"right","response":"right","rt":493.80000000075,"correct":true,"confidence":4},{"trial_n":173,"n_dots":2.75,"target":"right","response":"right","rt":719.10000000149,"correct":true,"confidence":6},{"trial_n":174,"n_dots":2.75,"target":"right","response":"right","rt":827,"correct":true,"confidence":6},{"trial_n":175,"n_dots":2.65,"target":"right","response":"left","rt":449.5,"correct":false,"confidence":4},{"trial_n":176,"n_dots":2.75,"target":"left","response":"left","rt":693.30000000075,"correct":true,"confidence":3},{"trial_n":177,"n_dots":2.75,"target":"left","response":"left","rt":471.19999999925,"correct":true,"confidence":4},{"trial_n":178,"n_dots":2.65,"target":"right","response":"left","rt":620,"correct":false,"confidence":3},{"trial_n":179,"n_dots":2.75,"target":"right","response":"right","rt":429.30000000075,"correct":true,"confidence":5},{"trial_n":180,"n_dots":2.75,"target":"left","response":"left","rt":629.59999999776,"correct":true,"confidence":4},{"trial_n":181,"n_dots":2.65,"target":"left","response":"left","rt":711.30000000075,"correct":true,"confidence":4},{"trial_n":182,"n_dots":2.65,"target":"right","response":"right","rt":714.40000000224,"correct":true,"confidence":4},{"trial_n":183,"n_dots":2.55,"target":"left","response":"left","rt":272.90000000224,"correct":true,"confidence":6},{"trial_n":184,"n_dots":2.55,"target":"left","response":"left","rt":372,"correct":true,"confidence":3},{"trial_n":185,"n_dots":2.45,"target":"left","response":"left","rt":470.30000000075,"correct":true,"confidence":4},{"trial_n":186,"n_dots":2.45,"target":"right","response":"left","rt":953.70000000298,"correct":false,"confidence":4},{"trial_n":187,"n_dots":2.55,"target":"right","response":"right","rt":460,"correct":true,"confidence":5},{"trial_n":188,"n_dots":2.55,"target":"left","response":"left","rt":354.89999999851,"correct":true,"confidence":4},{"trial_n":189,"n_dots":2.45,"target":"right","response":"left","rt":332.5,"correct":false,"confidence":4},{"trial_n":190,"n_dots":2.55,"target":"left","response":"left","rt":355.69999999925,"correct":true,"confidence":4},{"trial_n":191,"n_dots":2.55,"target":"left","response":"left","rt":243,"correct":true,"confidence":3},{"trial_n":192,"n_dots":2.45,"target":"left","response":"left","rt":396.80000000075,"correct":true,"confidence":4},{"trial_n":193,"n_dots":2.45,"target":"right","response":"left","rt":434.39999999851,"correct":false,"confidence":6},{"trial_n":194,"n_dots":2.55,"target":"left","response":"left","rt":279.69999999925,"correct":true,"confidence":5}]