[{"trial_n":1,"n_dots":4.25,"target":"left","response":"left","rt":4051.3999999762,"correct":true,"confidence":-1},{"trial_n":2,"n_dots":4.25,"target":"right","response":"right","rt":705.60000002384,"correct":true,"confidence":-1},{"trial_n":3,"n_dots":3.85,"target":"left","response":"left","rt":478.60000002384,"correct":true,"confidence":-1},{"trial_n":4,"n_dots":3.85,"target":"left","response":"left","rt":324.59999996424,"correct":true,"confidence":-1},{"trial_n":5,"n_dots":3.45,"target":"left","response":"left","rt":513,"correct":true,"confidence":-1},{"trial_n":6,"n_dots":3.45,"target":"right","response":"right","rt":316.69999998808,"correct":true,"confidence":-1},{"trial_n":7,"n_dots":3.05,"target":"left","response":"right","rt":84.900000035763,"correct":false,"confidence":-1},{"trial_n":8,"n_dots":3.25,"target":"right","response":"right","rt":476.30000001192,"correct":true,"confidence":-1},{"trial_n":9,"n_dots":3.25,"target":"left","response":"right","rt":700.09999996424,"correct":false,"confidence":-1},{"trial_n":10,"n_dots":3.45,"target":"left","response":"right","rt":721.80000001192,"correct":false,"confidence":-1},{"trial_n":11,"n_dots":3.65,"target":"right","response":"right","rt":476.59999996424,"correct":true,"confidence":-1},{"trial_n":12,"n_dots":3.65,"target":"right","response":"right","rt":344.5,"correct":true,"confidence":-1},{"trial_n":13,"n_dots":3.55,"target":"left","response":"left","rt":788.09999996424,"correct":true,"confidence":-1},{"trial_n":14,"n_dots":3.55,"target":"left","response":"right","rt":144.09999996424,"correct":false,"confidence":-1},{"trial_n":15,"n_dots":3.65,"target":"left","response":"right","rt":286.59999996424,"correct":false,"confidence":-1},{"trial_n":16,"n_dots":3.75,"target":"left","response":"right","rt":319.20000004768,"correct":false,"confidence":-1},{"trial_n":17,"n_dots":3.85,"target":"right","response":"right","rt":648.10000002384,"correct":true,"confidence":-1},{"trial_n":18,"n_dots":3.85,"target":"left","response":"right","rt":509.29999995232,"correct":false,"confidence":-1},{"trial_n":19,"n_dots":3.95,"target":"right","response":"left","rt":761.69999998808,"correct":false,"confidence":-1},{"trial_n":20,"n_dots":4.05,"target":"left","response":"right","rt":704.10000002384,"correct":false,"confidence":-1},{"trial_n":21,"n_dots":4.15,"target":"right","response":"right","rt":301.39999997616,"correct":true,"confidence":-1},{"trial_n":22,"n_dots":4.15,"target":"right","response":"right","rt":407.30000001192,"correct":true,"confidence":-1},{"trial_n":23,"n_dots":4.05,"target":"right","response":"right","rt":276.69999998808,"correct":true,"confidence":-1},{"trial_n":24,"n_dots":4.05,"target":"right","response":"right","rt":19,"correct":true,"confidence":-1},{"trial_n":25,"n_dots":3.95,"target":"right","response":"right","rt":106.80000001192,"correct":true,"confidence":-1},{"trial_n":26,"n_dots":3.95,"target":"left","response":"left","rt":249.19999998808,"correct":true,"confidence":-1},{"trial_n":27,"n_dots":3.85,"target":"right","response":"right","rt":249.59999996424,"correct":true,"confidence":5},{"trial_n":28,"n_dots":3.85,"target":"right","response":"right","rt":484.09999996424,"correct":true,"confidence":5},{"trial_n":29,"n_dots":3.75,"target":"right","response":"right","rt":381.5,"correct":true,"confidence":6},{"trial_n":30,"n_dots":3.75,"target":"right","response":"right","rt":796,"correct":true,"confidence":4},{"trial_n":31,"n_dots":3.65,"target":"right","response":"right","rt":437.39999997616,"correct":true,"confidence":4},{"trial_n":32,"n_dots":3.65,"target":"right","response":"left","rt":959.60000002384,"correct":false,"confidence":3},{"trial_n":33,"n_dots":3.75,"target":"right","response":"right","rt":338.19999998808,"correct":true,"confidence":6},{"trial_n":34,"n_dots":3.75,"target":"left","response":"left","rt":501.89999997616,"correct":true,"confidence":4},{"trial_n":35,"n_dots":3.65,"target":"left","response":"right","rt":868.80000001192,"correct":false,"confidence":3},{"trial_n":36,"n_dots":3.75,"target":"left","response":"right","rt":499.79999995232,"correct":false,"confidence":4},{"trial_n":37,"n_dots":3.85,"target":"left","response":"left","rt":269.69999998808,"correct":true,"confidence":4},{"trial_n":38,"n_dots":3.85,"target":"right","response":"right","rt":342.80000001192,"correct":true,"confidence":5},{"trial_n":39,"n_dots":3.75,"target":"left","response":"right","rt":504.90000003576,"correct":false,"confidence":4},{"trial_n":40,"n_dots":3.85,"target":"left","response":"left","rt":243.69999998808,"correct":true,"confidence":6},{"trial_n":41,"n_dots":3.85,"target":"left","response":"left","rt":245.19999998808,"correct":true,"confidence":6},{"trial_n":42,"n_dots":3.75,"target":"right","response":"right","rt":580.60000002384,"correct":true,"confidence":5},{"trial_n":43,"n_dots":3.75,"target":"right","response":"right","rt":376.69999998808,"correct":true,"confidence":5},{"trial_n":44,"n_dots":3.65,"target":"left","response":"left","rt":200.89999997616,"correct":true,"confidence":6},{"trial_n":45,"n_dots":3.65,"target":"left","response":"left","rt":588.30000001192,"correct":true,"confidence":4},{"trial_n":46,"n_dots":3.55,"target":"left","response":"left","rt":628.69999998808,"correct":true,"confidence":4},{"trial_n":47,"n_dots":3.55,"target":"right","response":"right","rt":383.29999995232,"correct":true,"confidence":6},{"trial_n":48,"n_dots":3.45,"target":"right","response":"right","rt":368.80000001192,"correct":true,"confidence":5},{"trial_n":49,"n_dots":3.45,"target":"right","response":"right","rt":1156.8999999762,"correct":true,"confidence":5},{"trial_n":50,"n_dots":3.35,"target":"left","response":"right","rt":972.89999997616,"correct":false,"confidence":3},{"trial_n":51,"n_dots":3.45,"target":"left","response":"right","rt":1267.3000000119,"correct":false,"confidence":3},{"trial_n":52,"n_dots":3.55,"target":"left","response":"left","rt":851.30000001192,"correct":true,"confidence":4},{"trial_n":53,"n_dots":3.55,"target":"left","response":"left","rt":981.60000002384,"correct":true,"confidence":4},{"trial_n":54,"n_dots":3.45,"target":"left","response":"left","rt":703.79999995232,"correct":true,"confidence":5},{"trial_n":55,"n_dots":3.45,"target":"left","response":"right","rt":786.90000003576,"correct":false,"confidence":3},{"trial_n":56,"n_dots":3.55,"target":"right","response":"right","rt":625.19999998808,"correct":true,"confidence":4},{"trial_n":57,"n_dots":3.55,"target":"left","response":"right","rt":1580.8999999762,"correct":false,"confidence":2},{"trial_n":58,"n_dots":3.65,"target":"left","response":"right","rt":610.39999997616,"correct":false,"confidence":3},{"trial_n":59,"n_dots":3.75,"target":"left","response":"left","rt":986.90000003576,"correct":true,"confidence":4},{"trial_n":60,"n_dots":3.75,"target":"right","response":"right","rt":681.69999998808,"correct":true,"confidence":5},{"trial_n":61,"n_dots":3.65,"target":"right","response":"right","rt":321.10000002384,"correct":true,"confidence":6},{"trial_n":62,"n_dots":3.65,"target":"right","response":"right","rt":806.59999996424,"correct":true,"confidence":6},{"trial_n":63,"n_dots":3.55,"target":"left","response":"right","rt":689.30000001192,"correct":false,"confidence":5},{"trial_n":64,"n_dots":3.65,"target":"right","response":"right","rt":961.70000004768,"correct":true,"confidence":5},{"trial_n":65,"n_dots":3.65,"target":"left","response":"left","rt":912.59999996424,"correct":true,"confidence":6},{"trial_n":66,"n_dots":3.55,"target":"right","response":"right","rt":613.30000001192,"correct":true,"confidence":5},{"trial_n":67,"n_dots":3.55,"target":"left","response":"left","rt":530.5,"correct":true,"confidence":3},{"trial_n":68,"n_dots":3.45,"target":"right","response":"right","rt":761,"correct":true,"confidence":5},{"trial_n":69,"n_dots":3.45,"target":"left","response":"left","rt":849.69999998808,"correct":true,"confidence":3},{"trial_n":70,"n_dots":3.35,"target":"left","response":"left","rt":885.69999998808,"correct":true,"confidence":3},{"trial_n":71,"n_dots":3.35,"target":"left","response":"right","rt":298.89999997616,"correct":false,"confidence":4},{"trial_n":72,"n_dots":3.45,"target":"left","response":"right","rt":534.39999997616,"correct":false,"confidence":4},{"trial_n":73,"n_dots":3.55,"target":"left","response":"left","rt":476.5,"correct":true,"confidence":3},{"trial_n":74,"n_dots":3.55,"target":"right","response":"right","rt":380,"correct":true,"confidence":5},{"trial_n":75,"n_dots":3.45,"target":"right","response":"right","rt":535.90000003576,"correct":true,"confidence":4},{"trial_n":76,"n_dots":3.45,"target":"right","response":"right","rt":242.19999998808,"correct":true,"confidence":5},{"trial_n":77,"n_dots":3.35,"target":"right","response":"right","rt":658.69999998808,"correct":true,"confidence":4},{"trial_n":78,"n_dots":3.35,"target":"right","response":"right","rt":436,"correct":true,"confidence":3},{"trial_n":79,"n_dots":3.25,"target":"left","response":"right","rt":380,"correct":false,"confidence":4},{"trial_n":80,"n_dots":3.35,"target":"left","response":"left","rt":558.5,"correct":true,"confidence":4},{"trial_n":81,"n_dots":3.35,"target":"right","response":"left","rt":630.20000004768,"correct":false,"confidence":3},{"trial_n":82,"n_dots":3.45,"target":"right","response":"right","rt":533.5,"correct":true,"confidence":3},{"trial_n":83,"n_dots":3.45,"target":"left","response":"left","rt":493.30000001192,"correct":true,"confidence":4},{"trial_n":84,"n_dots":3.35,"target":"right","response":"right","rt":408.19999998808,"correct":true,"confidence":5},{"trial_n":85,"n_dots":3.35,"target":"right","response":"right","rt":447.60000002384,"correct":true,"confidence":5},{"trial_n":86,"n_dots":3.25,"target":"left","response":"right","rt":760.80000001192,"correct":false,"confidence":3},{"trial_n":87,"n_dots":3.35,"target":"right","response":"right","rt":386.39999997616,"correct":true,"confidence":5},{"trial_n":88,"n_dots":3.35,"target":"right","response":"right","rt":589.69999998808,"correct":true,"confidence":5},{"trial_n":89,"n_dots":3.25,"target":"left","response":"left","rt":909.10000002384,"correct":true,"confidence":4},{"trial_n":90,"n_dots":3.25,"target":"right","response":"left","rt":510.39999997616,"correct":false,"confidence":4},{"trial_n":91,"n_dots":3.35,"target":"right","response":"right","rt":755.5,"correct":true,"confidence":3},{"trial_n":92,"n_dots":3.35,"target":"left","response":"right","rt":382.80000001192,"correct":false,"confidence":4},{"trial_n":93,"n_dots":3.45,"target":"left","response":"left","rt":710.90000003576,"correct":true,"confidence":5},{"trial_n":94,"n_dots":3.45,"target":"right","response":"right","rt":586.80000001192,"correct":true,"confidence":4},{"trial_n":95,"n_dots":3.35,"target":"right","response":"right","rt":336.70000004768,"correct":true,"confidence":5},{"trial_n":96,"n_dots":3.35,"target":"right","response":"right","rt":427.80000001192,"correct":true,"confidence":4},{"trial_n":97,"n_dots":3.25,"target":"left","response":"left","rt":751.10000002384,"correct":true,"confidence":4},{"trial_n":98,"n_dots":3.25,"target":"right","response":"right","rt":418.60000002384,"correct":true,"confidence":3},{"trial_n":99,"n_dots":3.15,"target":"right","response":"right","rt":1051.2999999523,"correct":true,"confidence":6},{"trial_n":100,"n_dots":3.15,"target":"right","response":"right","rt":839.40000003576,"correct":true,"confidence":3},{"trial_n":101,"n_dots":3.05,"target":"right","response":"right","rt":547.19999998808,"correct":true,"confidence":4},{"trial_n":102,"n_dots":3.05,"target":"left","response":"right","rt":556.10000002384,"correct":false,"confidence":3},{"trial_n":103,"n_dots":3.15,"target":"right","response":"right","rt":166.80000001192,"correct":true,"confidence":4},{"trial_n":104,"n_dots":3.15,"target":"right","response":"left","rt":563,"correct":false,"confidence":3},{"trial_n":105,"n_dots":3.25,"target":"right","response":"right","rt":507.19999998808,"correct":true,"confidence":4},{"trial_n":106,"n_dots":3.25,"target":"left","response":"left","rt":464.5,"correct":true,"confidence":5},{"trial_n":107,"n_dots":3.15,"target":"left","response":"left","rt":723.69999998808,"correct":true,"confidence":3},{"trial_n":108,"n_dots":3.15,"target":"left","response":"right","rt":281,"correct":false,"confidence":4},{"trial_n":109,"n_dots":3.25,"target":"left","response":"left","rt":369.5,"correct":true,"confidence":4},{"trial_n":110,"n_dots":3.25,"target":"left","response":"left","rt":404,"correct":true,"confidence":4},{"trial_n":111,"n_dots":3.15,"target":"left","response":"left","rt":336.80000001192,"correct":true,"confidence":6},{"trial_n":112,"n_dots":3.15,"target":"left","response":"left","rt":708.59999996424,"correct":true,"confidence":4},{"trial_n":113,"n_dots":3.05,"target":"right","response":"right","rt":461.90000003576,"correct":true,"confidence":6},{"trial_n":114,"n_dots":3.05,"target":"right","response":"right","rt":1201.1999999881,"correct":true,"confidence":3},{"trial_n":115,"n_dots":2.95,"target":"left","response":"right","rt":456.89999997616,"correct":false,"confidence":4},{"trial_n":116,"n_dots":3.05,"target":"right","response":"right","rt":460.19999998808,"correct":true,"confidence":4},{"trial_n":117,"n_dots":3.05,"target":"right","response":"right","rt":213.60000002384,"correct":true,"confidence":3},{"trial_n":118,"n_dots":2.95,"target":"left","response":"left","rt":375.5,"correct":true,"confidence":3},{"trial_n":119,"n_dots":2.95,"target":"right","response":"right","rt":540.5,"correct":true,"confidence":3},{"trial_n":120,"n_dots":2.85,"target":"left","response":"right","rt":705.89999997616,"correct":false,"confidence":3},{"trial_n":121,"n_dots":2.95,"target":"left","response":"left","rt":220.19999998808,"correct":true,"confidence":4},{"trial_n":122,"n_dots":2.95,"target":"right","response":"right","rt":753.5,"correct":true,"confidence":4},{"trial_n":123,"n_dots":2.85,"target":"right","response":"right","rt":364,"correct":true,"confidence":4},{"trial_n":124,"n_dots":2.85,"target":"left","response":"left","rt":1286.4000000358,"correct":true,"confidence":3},{"trial_n":125,"n_dots":2.75,"target":"right","response":"right","rt":904.40000003576,"correct":true,"confidence":4},{"trial_n":126,"n_dots":2.75,"target":"left","response":"right","rt":804.39999997616,"correct":false,"confidence":4},{"trial_n":127,"n_dots":2.85,"target":"right","response":"right","rt":701.60000002384,"correct":true,"confidence":3},{"trial_n":128,"n_dots":2.85,"target":"left","response":"right","rt":663.10000002384,"correct":false,"confidence":3},{"trial_n":129,"n_dots":2.95,"target":"right","response":"right","rt":341.19999998808,"correct":true,"confidence":5},{"trial_n":130,"n_dots":2.95,"target":"left","response":"left","rt":773,"correct":true,"confidence":3},{"trial_n":131,"n_dots":2.85,"target":"left","response":"left","rt":576.09999996424,"correct":true,"confidence":4},{"trial_n":132,"n_dots":2.85,"target":"left","response":"left","rt":436,"correct":true,"confidence":4},{"trial_n":133,"n_dots":2.75,"target":"right","response":"left","rt":347.20000004768,"correct":false,"confidence":4},{"trial_n":134,"n_dots":2.85,"target":"left","response":"left","rt":1234.1999999881,"correct":true,"confidence":3},{"trial_n":135,"n_dots":2.85,"target":"left","response":"left","rt":455.80000001192,"correct":true,"confidence":5},{"trial_n":136,"n_dots":2.75,"target":"left","response":"left","rt":264.5,"correct":true,"confidence":4},{"trial_n":137,"n_dots":2.75,"target":"right","response":"right","rt":591.20000004768,"correct":true,"confidence":5},{"trial_n":138,"n_dots":2.65,"target":"left","response":"left","rt":653.79999995232,"correct":true,"confidence":4},{"trial_n":139,"n_dots":2.65,"target":"right","response":"right","rt":580.19999998808,"correct":true,"confidence":6},{"trial_n":140,"n_dots":2.55,"target":"left","response":"left","rt":790.69999998808,"correct":true,"confidence":3},{"trial_n":141,"n_dots":2.55,"target":"left","response":"left","rt":567.10000002384,"correct":true,"confidence":3},{"trial_n":142,"n_dots":2.45,"target":"left","response":"left","rt":329.5,"correct":true,"confidence":4},{"trial_n":143,"n_dots":2.45,"target":"left","response":"left","rt":238.30000001192,"correct":true,"confidence":4},{"trial_n":144,"n_dots":2.35,"target":"right","response":"left","rt":3089.6999999881,"correct":false,"confidence":5},{"trial_n":145,"n_dots":2.45,"target":"left","response":"left","rt":206.5,"correct":true,"confidence":5},{"trial_n":146,"n_dots":2.45,"target":"left","response":"left","rt":389.89999997616,"correct":true,"confidence":4},{"trial_n":147,"n_dots":2.35,"target":"right","response":"left","rt":582.10000002384,"correct":false,"confidence":3},{"trial_n":148,"n_dots":2.45,"target":"left","response":"left","rt":18.199999988079,"correct":true,"confidence":5},{"trial_n":149,"n_dots":2.45,"target":"left","response":"left","rt":295.60000002384,"correct":true,"confidence":4},{"trial_n":150,"n_dots":2.35,"target":"left","response":"left","rt":109.40000003576,"correct":true,"confidence":6},{"trial_n":151,"n_dots":2.35,"target":"left","response":"left","rt":494.10000002384,"correct":true,"confidence":4},{"trial_n":152,"n_dots":2.25,"target":"left","response":"left","rt":617.80000001192,"correct":true,"confidence":4},{"trial_n":153,"n_dots":2.25,"target":"right","response":"left","rt":428,"correct":false,"confidence":3},{"trial_n":154,"n_dots":2.35,"target":"right","response":"right","rt":1585.6000000238,"correct":true,"confidence":3},{"trial_n":155,"n_dots":2.35,"target":"right","response":"left","rt":166.39999997616,"correct":false,"confidence":3},{"trial_n":156,"n_dots":2.45,"target":"right","response":"left","rt":84.799999952316,"correct":false,"confidence":4},{"trial_n":157,"n_dots":2.55,"target":"right","response":"left","rt":70.599999964237,"correct":false,"confidence":4},{"trial_n":158,"n_dots":2.65,"target":"left","response":"left","rt":150.10000002384,"correct":true,"confidence":4},{"trial_n":159,"n_dots":2.65,"target":"right","response":"left","rt":1051.5,"correct":false,"confidence":2},{"trial_n":160,"n_dots":2.75,"target":"left","response":"left","rt":337.59999996424,"correct":true,"confidence":3},{"trial_n":161,"n_dots":2.75,"target":"left","response":"left","rt":1597.6000000238,"correct":true,"confidence":2},{"trial_n":162,"n_dots":2.65,"target":"right","response":"left","rt":522.19999998808,"correct":false,"confidence":3},{"trial_n":163,"n_dots":2.75,"target":"right","response":"left","rt":347.59999996424,"correct":false,"confidence":3},{"trial_n":164,"n_dots":2.85,"target":"left","response":"left","rt":479,"correct":true,"confidence":3},{"trial_n":165,"n_dots":2.85,"target":"right","response":"right","rt":972.40000003576,"correct":true,"confidence":4},{"trial_n":166,"n_dots":2.75,"target":"right","response":"right","rt":896.30000001192,"correct":true,"confidence":3},{"trial_n":167,"n_dots":2.75,"target":"right","response":"right","rt":739.70000004768,"correct":true,"confidence":4},{"trial_n":168,"n_dots":2.65,"target":"right","response":"right","rt":525.69999998808,"correct":true,"confidence":4},{"trial_n":169,"n_dots":2.65,"target":"left","response":"right","rt":804.60000002384,"correct":false,"confidence":4},{"trial_n":170,"n_dots":2.75,"target":"right","response":"right","rt":618.20000004768,"correct":true,"confidence":3},{"trial_n":171,"n_dots":2.75,"target":"right","response":"right","rt":415.29999995232,"correct":true,"confidence":3},{"trial_n":172,"n_dots":2.65,"target":"left","response":"right","rt":1046.5,"correct":false,"confidence":2},{"trial_n":173,"n_dots":2.75,"target":"left","response":"left","rt":299.69999998808,"correct":true,"confidence":3},{"trial_n":174,"n_dots":2.75,"target":"right","response":"right","rt":303.79999995232,"correct":true,"confidence":3},{"trial_n":175,"n_dots":2.65,"target":"right","response":"right","rt":164.80000001192,"correct":true,"confidence":3},{"trial_n":176,"n_dots":2.65,"target":"right","response":"right","rt":710,"correct":true,"confidence":3},{"trial_n":177,"n_dots":2.55,"target":"right","response":"right","rt":123.59999996424,"correct":true,"confidence":2},{"trial_n":178,"n_dots":2.55,"target":"left","response":"right","rt":817.5,"correct":false,"confidence":3},{"trial_n":179,"n_dots":2.65,"target":"left","response":"right","rt":766.10000002384,"correct":false,"confidence":4},{"trial_n":180,"n_dots":2.75,"target":"left","response":"left","rt":300.10000002384,"correct":true,"confidence":4},{"trial_n":181,"n_dots":2.75,"target":"right","response":"right","rt":703.19999998808,"correct":true,"confidence":3},{"trial_n":182,"n_dots":2.65,"target":"right","response":"left","rt":587.40000003576,"correct":false,"confidence":3},{"trial_n":183,"n_dots":2.75,"target":"right","response":"right","rt":289.60000002384,"correct":true,"confidence":3},{"trial_n":184,"n_dots":2.75,"target":"right","response":"right","rt":1128.2999999523,"correct":true,"confidence":2},{"trial_n":185,"n_dots":2.65,"target":"left","response":"right","rt":1226.8999999762,"correct":false,"confidence":2},{"trial_n":186,"n_dots":2.75,"target":"right","response":"right","rt":386.30000001192,"correct":true,"confidence":3},{"trial_n":187,"n_dots":2.75,"target":"left","response":"left","rt":444.80000001192,"correct":true,"confidence":3},{"trial_n":188,"n_dots":2.65,"target":"right","response":"right","rt":383.5,"correct":true,"confidence":4},{"trial_n":189,"n_dots":2.65,"target":"right","response":"right","rt":282.30000001192,"correct":true,"confidence":3},{"trial_n":190,"n_dots":2.55,"target":"right","response":"right","rt":259.60000002384,"correct":true,"confidence":4},{"trial_n":191,"n_dots":2.55,"target":"left","response":"right","rt":183.59999996424,"correct":false,"confidence":4},{"trial_n":192,"n_dots":2.65,"target":"right","response":"right","rt":396.89999997616,"correct":true,"confidence":4},{"trial_n":193,"n_dots":2.65,"target":"left","response":"right","rt":129,"correct":false,"confidence":3},{"trial_n":194,"n_dots":2.75,"target":"left","response":"right","rt":156.69999998808,"correct":false,"confidence":3}]