[{"trial_n":1,"n_dots":4.25,"target":"left","response":"left","rt":14351.4,"correct":true,"confidence":-1},{"trial_n":2,"n_dots":4.25,"target":"right","response":"right","rt":1945.0999999999,"correct":true,"confidence":-1},{"trial_n":3,"n_dots":3.85,"target":"right","response":"right","rt":1397.3,"correct":true,"confidence":-1},{"trial_n":4,"n_dots":3.85,"target":"left","response":"left","rt":723.39999999991,"correct":true,"confidence":-1},{"trial_n":5,"n_dots":3.45,"target":"left","response":"left","rt":846.39999999991,"correct":true,"confidence":-1},{"trial_n":6,"n_dots":3.45,"target":"right","response":"left","rt":629.40000000014,"correct":false,"confidence":-1},{"trial_n":7,"n_dots":3.85,"target":"right","response":"right","rt":689.39999999991,"correct":true,"confidence":-1},{"trial_n":8,"n_dots":3.85,"target":"left","response":"left","rt":438.19999999995,"correct":true,"confidence":-1},{"trial_n":9,"n_dots":3.65,"target":"right","response":"right","rt":575.80000000005,"correct":true,"confidence":-1},{"trial_n":10,"n_dots":3.65,"target":"right","response":"right","rt":498.39999999991,"correct":true,"confidence":-1},{"trial_n":11,"n_dots":3.45,"target":"left","response":"left","rt":773.5,"correct":true,"confidence":-1},{"trial_n":12,"n_dots":3.45,"target":"right","response":"right","rt":638.80000000005,"correct":true,"confidence":-1},{"trial_n":13,"n_dots":3.35,"target":"right","response":"right","rt":522.40000000014,"correct":true,"confidence":-1},{"trial_n":14,"n_dots":3.35,"target":"left","response":"right","rt":682.80000000005,"correct":false,"confidence":-1},{"trial_n":15,"n_dots":3.45,"target":"left","response":"left","rt":945,"correct":true,"confidence":-1},{"trial_n":16,"n_dots":3.45,"target":"right","response":"left","rt":626.39999999991,"correct":false,"confidence":-1},{"trial_n":17,"n_dots":3.55,"target":"left","response":"right","rt":588.80000000005,"correct":false,"confidence":-1},{"trial_n":18,"n_dots":3.65,"target":"right","response":"right","rt":638.09999999986,"correct":true,"confidence":-1},{"trial_n":19,"n_dots":3.65,"target":"left","response":"left","rt":808.30000000005,"correct":true,"confidence":-1},{"trial_n":20,"n_dots":3.55,"target":"left","response":"right","rt":675.69999999995,"correct":false,"confidence":-1},{"trial_n":21,"n_dots":3.65,"target":"left","response":"left","rt":519.39999999991,"correct":true,"confidence":-1},{"trial_n":22,"n_dots":3.65,"target":"right","response":"left","rt":543.5,"correct":false,"confidence":-1},{"trial_n":23,"n_dots":3.75,"target":"left","response":"left","rt":645.80000000005,"correct":true,"confidence":-1},{"trial_n":24,"n_dots":3.75,"target":"right","response":"right","rt":838.69999999995,"correct":true,"confidence":-1},{"trial_n":25,"n_dots":3.65,"target":"left","response":"right","rt":1194.2,"correct":false,"confidence":-1},{"trial_n":26,"n_dots":3.75,"target":"right","response":"right","rt":562.40000000014,"correct":true,"confidence":-1},{"trial_n":27,"n_dots":3.75,"target":"right","response":"right","rt":644.89999999991,"correct":true,"confidence":2},{"trial_n":28,"n_dots":3.65,"target":"right","response":"right","rt":1266.2,"correct":true,"confidence":3},{"trial_n":29,"n_dots":3.65,"target":"right","response":"right","rt":838.89999999991,"correct":true,"confidence":5},{"trial_n":30,"n_dots":3.55,"target":"right","response":"left","rt":2340,"correct":false,"confidence":1},{"trial_n":31,"n_dots":3.65,"target":"left","response":"left","rt":604,"correct":true,"confidence":4},{"trial_n":32,"n_dots":3.65,"target":"right","response":"right","rt":786.69999999995,"correct":true,"confidence":2},{"trial_n":33,"n_dots":3.55,"target":"right","response":"right","rt":1319.2,"correct":true,"confidence":1},{"trial_n":34,"n_dots":3.55,"target":"right","response":"right","rt":1583.8,"correct":true,"confidence":1},{"trial_n":35,"n_dots":3.45,"target":"left","response":"left","rt":821.30000000005,"correct":true,"confidence":3},{"trial_n":36,"n_dots":3.45,"target":"left","response":"right","rt":1154.9000000001,"correct":false,"confidence":2},{"trial_n":37,"n_dots":3.55,"target":"left","response":"left","rt":624.90000000014,"correct":true,"confidence":1},{"trial_n":38,"n_dots":3.55,"target":"right","response":"left","rt":827.19999999995,"correct":false,"confidence":3},{"trial_n":39,"n_dots":3.65,"target":"left","response":"left","rt":828,"correct":true,"confidence":2},{"trial_n":40,"n_dots":3.65,"target":"left","response":"left","rt":1161.8,"correct":true,"confidence":1},{"trial_n":41,"n_dots":3.55,"target":"left","response":"left","rt":611,"correct":true,"confidence":5},{"trial_n":42,"n_dots":3.55,"target":"left","response":"left","rt":807,"correct":true,"confidence":2},{"trial_n":43,"n_dots":3.45,"target":"left","response":"left","rt":830.09999999986,"correct":true,"confidence":3},{"trial_n":44,"n_dots":3.45,"target":"left","response":"left","rt":509.5,"correct":true,"confidence":3},{"trial_n":45,"n_dots":3.35,"target":"left","response":"left","rt":5791.4000000001,"correct":true,"confidence":2},{"trial_n":46,"n_dots":3.35,"target":"right","response":"right","rt":1026.1000000001,"correct":true,"confidence":1},{"trial_n":47,"n_dots":3.25,"target":"left","response":"left","rt":535.89999999991,"correct":true,"confidence":5},{"trial_n":48,"n_dots":3.25,"target":"left","response":"left","rt":761.79999999981,"correct":true,"confidence":6},{"trial_n":49,"n_dots":3.15,"target":"left","response":"right","rt":1801.7000000002,"correct":false,"confidence":1},{"trial_n":50,"n_dots":3.25,"target":"right","response":"left","rt":920,"correct":false,"confidence":2},{"trial_n":51,"n_dots":3.35,"target":"left","response":"left","rt":629.89999999991,"correct":true,"confidence":1},{"trial_n":52,"n_dots":3.35,"target":"right","response":"left","rt":747.19999999995,"correct":false,"confidence":3},{"trial_n":53,"n_dots":3.45,"target":"right","response":"right","rt":529.69999999995,"correct":true,"confidence":2},{"trial_n":54,"n_dots":3.45,"target":"right","response":"right","rt":713.89999999991,"correct":true,"confidence":1},{"trial_n":55,"n_dots":3.35,"target":"left","response":"left","rt":1531.7,"correct":true,"confidence":2},{"trial_n":56,"n_dots":3.35,"target":"left","response":"left","rt":807.10000000009,"correct":true,"confidence":4},{"trial_n":57,"n_dots":3.25,"target":"left","response":"left","rt":565.09999999986,"correct":true,"confidence":5},{"trial_n":58,"n_dots":3.25,"target":"left","response":"left","rt":639.80000000005,"correct":true,"confidence":2},{"trial_n":59,"n_dots":3.15,"target":"right","response":"left","rt":738.5,"correct":false,"confidence":3},{"trial_n":60,"n_dots":3.25,"target":"left","response":"left","rt":465.19999999995,"correct":true,"confidence":2},{"trial_n":61,"n_dots":3.25,"target":"left","response":"left","rt":553.30000000005,"correct":true,"confidence":2},{"trial_n":62,"n_dots":3.15,"target":"right","response":"left","rt":970.5,"correct":false,"confidence":2},{"trial_n":63,"n_dots":3.25,"target":"left","response":"left","rt":592.5,"correct":true,"confidence":2},{"trial_n":64,"n_dots":3.25,"target":"left","response":"left","rt":529.10000000009,"correct":true,"confidence":6},{"trial_n":65,"n_dots":3.15,"target":"right","response":"left","rt":915.5,"correct":false,"confidence":2},{"trial_n":66,"n_dots":3.25,"target":"right","response":"right","rt":906.60000000009,"correct":true,"confidence":3},{"trial_n":67,"n_dots":3.25,"target":"left","response":"left","rt":673.69999999995,"correct":true,"confidence":4},{"trial_n":68,"n_dots":3.15,"target":"right","response":"left","rt":773.10000000009,"correct":false,"confidence":1},{"trial_n":69,"n_dots":3.25,"target":"left","response":"right","rt":593.80000000005,"correct":false,"confidence":4},{"trial_n":70,"n_dots":3.35,"target":"right","response":"right","rt":661.89999999991,"correct":true,"confidence":4},{"trial_n":71,"n_dots":3.35,"target":"left","response":"right","rt":430.39999999991,"correct":false,"confidence":3},{"trial_n":72,"n_dots":3.45,"target":"left","response":"right","rt":519.10000000009,"correct":false,"confidence":1},{"trial_n":73,"n_dots":3.55,"target":"left","response":"right","rt":769.5,"correct":false,"confidence":3},{"trial_n":74,"n_dots":3.65,"target":"right","response":"right","rt":717.30000000005,"correct":true,"confidence":2},{"trial_n":75,"n_dots":3.65,"target":"right","response":"right","rt":607.80000000005,"correct":true,"confidence":3},{"trial_n":76,"n_dots":3.55,"target":"left","response":"right","rt":823,"correct":false,"confidence":2},{"trial_n":77,"n_dots":3.65,"target":"right","response":"right","rt":708.69999999995,"correct":true,"confidence":1},{"trial_n":78,"n_dots":3.65,"target":"left","response":"left","rt":572.5,"correct":true,"confidence":6},{"trial_n":79,"n_dots":3.55,"target":"left","response":"right","rt":902.40000000014,"correct":false,"confidence":2},{"trial_n":80,"n_dots":3.65,"target":"right","response":"right","rt":490.30000000005,"correct":true,"confidence":1},{"trial_n":81,"n_dots":3.65,"target":"right","response":"right","rt":952.79999999981,"correct":true,"confidence":1},{"trial_n":82,"n_dots":3.55,"target":"right","response":"right","rt":810,"correct":true,"confidence":3},{"trial_n":83,"n_dots":3.55,"target":"left","response":"right","rt":690.09999999986,"correct":false,"confidence":1},{"trial_n":84,"n_dots":3.65,"target":"right","response":"right","rt":513.20000000019,"correct":true,"confidence":2},{"trial_n":85,"n_dots":3.65,"target":"right","response":"left","rt":759.5,"correct":false,"confidence":3},{"trial_n":86,"n_dots":3.75,"target":"right","response":"right","rt":593.5,"correct":true,"confidence":5},{"trial_n":87,"n_dots":3.75,"target":"left","response":"left","rt":745,"correct":true,"confidence":5},{"trial_n":88,"n_dots":3.65,"target":"right","response":"left","rt":1070.5999999999,"correct":false,"confidence":2},{"trial_n":89,"n_dots":3.75,"target":"left","response":"left","rt":618.80000000005,"correct":true,"confidence":1},{"trial_n":90,"n_dots":3.75,"target":"right","response":"right","rt":812.40000000014,"correct":true,"confidence":1},{"trial_n":91,"n_dots":3.65,"target":"right","response":"right","rt":747.30000000005,"correct":true,"confidence":2},{"trial_n":92,"n_dots":3.65,"target":"left","response":"left","rt":421.30000000005,"correct":true,"confidence":4},{"trial_n":93,"n_dots":3.55,"target":"right","response":"right","rt":537.40000000014,"correct":true,"confidence":4},{"trial_n":94,"n_dots":3.55,"target":"left","response":"right","rt":966.20000000019,"correct":false,"confidence":1},{"trial_n":95,"n_dots":3.65,"target":"right","response":"right","rt":731.80000000005,"correct":true,"confidence":3},{"trial_n":96,"n_dots":3.65,"target":"right","response":"right","rt":800.79999999981,"correct":true,"confidence":3},{"trial_n":97,"n_dots":3.55,"target":"left","response":"left","rt":885.39999999991,"correct":true,"confidence":1},{"trial_n":98,"n_dots":3.55,"target":"right","response":"right","rt":510,"correct":true,"confidence":5},{"trial_n":99,"n_dots":3.45,"target":"right","response":"right","rt":1132.3999999999,"correct":true,"confidence":1},{"trial_n":100,"n_dots":3.45,"target":"left","response":"left","rt":658.79999999981,"correct":true,"confidence":4},{"trial_n":101,"n_dots":3.35,"target":"left","response":"right","rt":725.79999999981,"correct":false,"confidence":1},{"trial_n":102,"n_dots":3.45,"target":"left","response":"right","rt":718,"correct":false,"confidence":1},{"trial_n":103,"n_dots":3.55,"target":"right","response":"right","rt":766.5,"correct":true,"confidence":1},{"trial_n":104,"n_dots":3.55,"target":"right","response":"right","rt":788.89999999991,"correct":true,"confidence":2},{"trial_n":105,"n_dots":3.45,"target":"left","response":"left","rt":1385,"correct":true,"confidence":2},{"trial_n":106,"n_dots":3.45,"target":"right","response":"right","rt":759.80000000005,"correct":true,"confidence":1},{"trial_n":107,"n_dots":3.35,"target":"right","response":"right","rt":663.89999999991,"correct":true,"confidence":4},{"trial_n":108,"n_dots":3.35,"target":"right","response":"right","rt":1015.9000000001,"correct":true,"confidence":2},{"trial_n":109,"n_dots":3.25,"target":"left","response":"right","rt":970.69999999995,"correct":false,"confidence":2},{"trial_n":110,"n_dots":3.35,"target":"right","response":"right","rt":868.30000000005,"correct":true,"confidence":1},{"trial_n":111,"n_dots":3.35,"target":"left","response":"left","rt":821.30000000005,"correct":true,"confidence":1},{"trial_n":112,"n_dots":3.25,"target":"left","response":"right","rt":20411.8,"correct":false,"confidence":1},{"trial_n":113,"n_dots":3.35,"target":"left","response":"left","rt":603.20000000019,"correct":true,"confidence":6},{"trial_n":114,"n_dots":3.35,"target":"left","response":"left","rt":660.5,"correct":true,"confidence":5},{"trial_n":115,"n_dots":3.25,"target":"right","response":"left","rt":671.5,"correct":false,"confidence":4},{"trial_n":116,"n_dots":3.35,"target":"left","response":"left","rt":445.69999999995,"correct":true,"confidence":5},{"trial_n":117,"n_dots":3.35,"target":"right","response":"left","rt":1512.3,"correct":false,"confidence":1},{"trial_n":118,"n_dots":3.45,"target":"right","response":"right","rt":602.10000000009,"correct":true,"confidence":1},{"trial_n":119,"n_dots":3.45,"target":"right","response":"right","rt":529,"correct":true,"confidence":1},{"trial_n":120,"n_dots":3.35,"target":"left","response":"left","rt":553.90000000014,"correct":true,"confidence":3},{"trial_n":121,"n_dots":3.35,"target":"left","response":"left","rt":352.19999999995,"correct":true,"confidence":3},{"trial_n":122,"n_dots":3.25,"target":"left","response":"left","rt":751.5,"correct":true,"confidence":2},{"trial_n":123,"n_dots":3.25,"target":"left","response":"left","rt":605.89999999991,"correct":true,"confidence":3},{"trial_n":124,"n_dots":3.15,"target":"left","response":"left","rt":580,"correct":true,"confidence":5},{"trial_n":125,"n_dots":3.15,"target":"right","response":"right","rt":642.60000000009,"correct":true,"confidence":4},{"trial_n":126,"n_dots":3.05,"target":"right","response":"left","rt":745.89999999991,"correct":false,"confidence":3},{"trial_n":127,"n_dots":3.15,"target":"left","response":"right","rt":2842.2,"correct":false,"confidence":1},{"trial_n":128,"n_dots":3.25,"target":"left","response":"left","rt":1062.8999999999,"correct":true,"confidence":1},{"trial_n":129,"n_dots":3.25,"target":"left","response":"left","rt":681.69999999995,"correct":true,"confidence":2},{"trial_n":130,"n_dots":3.15,"target":"right","response":"left","rt":710.30000000005,"correct":false,"confidence":2},{"trial_n":131,"n_dots":3.25,"target":"right","response":"right","rt":881.79999999981,"correct":true,"confidence":1},{"trial_n":132,"n_dots":3.25,"target":"right","response":"left","rt":844.10000000009,"correct":false,"confidence":2},{"trial_n":133,"n_dots":3.35,"target":"left","response":"left","rt":768.69999999995,"correct":true,"confidence":1},{"trial_n":134,"n_dots":3.35,"target":"right","response":"right","rt":1086.7,"correct":true,"confidence":1},{"trial_n":135,"n_dots":3.25,"target":"right","response":"right","rt":834.40000000014,"correct":true,"confidence":1},{"trial_n":136,"n_dots":3.25,"target":"left","response":"left","rt":689.19999999995,"correct":true,"confidence":1},{"trial_n":137,"n_dots":3.15,"target":"right","response":"left","rt":949.89999999991,"correct":false,"confidence":1},{"trial_n":138,"n_dots":3.25,"target":"right","response":"right","rt":546.89999999991,"correct":true,"confidence":3},{"trial_n":139,"n_dots":3.25,"target":"left","response":"left","rt":578.70000000019,"correct":true,"confidence":4},{"trial_n":140,"n_dots":3.15,"target":"left","response":"right","rt":929.39999999991,"correct":false,"confidence":1},{"trial_n":141,"n_dots":3.25,"target":"left","response":"left","rt":1142.3999999999,"correct":true,"confidence":2},{"trial_n":142,"n_dots":3.25,"target":"left","response":"left","rt":1194,"correct":true,"confidence":3},{"trial_n":143,"n_dots":3.15,"target":"right","response":"right","rt":962.80000000005,"correct":true,"confidence":1},{"trial_n":144,"n_dots":3.15,"target":"left","response":"left","rt":610.20000000019,"correct":true,"confidence":5},{"trial_n":145,"n_dots":3.05,"target":"right","response":"right","rt":870.5,"correct":true,"confidence":1},{"trial_n":146,"n_dots":3.05,"target":"right","response":"left","rt":689,"correct":false,"confidence":3},{"trial_n":147,"n_dots":3.15,"target":"right","response":"right","rt":609.39999999991,"correct":true,"confidence":5},{"trial_n":148,"n_dots":3.15,"target":"left","response":"left","rt":446.80000000005,"correct":true,"confidence":5},{"trial_n":149,"n_dots":3.05,"target":"left","response":"left","rt":744.10000000009,"correct":true,"confidence":1},{"trial_n":150,"n_dots":3.05,"target":"right","response":"left","rt":804.19999999995,"correct":false,"confidence":1},{"trial_n":151,"n_dots":3.15,"target":"right","response":"right","rt":691.59999999986,"correct":true,"confidence":3},{"trial_n":152,"n_dots":3.15,"target":"left","response":"right","rt":1057.4000000001,"correct":false,"confidence":1},{"trial_n":153,"n_dots":3.25,"target":"right","response":"right","rt":1003.5,"correct":true,"confidence":3},{"trial_n":154,"n_dots":3.25,"target":"left","response":"right","rt":1035.8999999999,"correct":false,"confidence":2},{"trial_n":155,"n_dots":3.35,"target":"right","response":"right","rt":993,"correct":true,"confidence":1},{"trial_n":156,"n_dots":3.35,"target":"right","response":"right","rt":629.5,"correct":true,"confidence":1},{"trial_n":157,"n_dots":3.25,"target":"left","response":"left","rt":605,"correct":true,"confidence":2},{"trial_n":158,"n_dots":3.25,"target":"left","response":"left","rt":787,"correct":true,"confidence":1},{"trial_n":159,"n_dots":3.15,"target":"left","response":"right","rt":889.29999999981,"correct":false,"confidence":1},{"trial_n":160,"n_dots":3.25,"target":"right","response":"right","rt":579.39999999991,"correct":true,"confidence":1},{"trial_n":161,"n_dots":3.25,"target":"left","response":"left","rt":1007.5999999999,"correct":true,"confidence":1},{"trial_n":162,"n_dots":3.15,"target":"right","response":"left","rt":829.39999999991,"correct":false,"confidence":3},{"trial_n":163,"n_dots":3.25,"target":"left","response":"left","rt":455.60000000009,"correct":true,"confidence":5},{"trial_n":164,"n_dots":3.25,"target":"right","response":"left","rt":806.40000000014,"correct":false,"confidence":1},{"trial_n":165,"n_dots":3.35,"target":"left","response":"left","rt":265.89999999991,"correct":true,"confidence":4},{"trial_n":166,"n_dots":3.35,"target":"right","response":"right","rt":1212.7,"correct":true,"confidence":1},{"trial_n":167,"n_dots":3.25,"target":"left","response":"left","rt":543.5,"correct":true,"confidence":5},{"trial_n":168,"n_dots":3.25,"target":"right","response":"right","rt":530.69999999995,"correct":true,"confidence":3},{"trial_n":169,"n_dots":3.15,"target":"right","response":"right","rt":849.10000000009,"correct":true,"confidence":2},{"trial_n":170,"n_dots":3.15,"target":"left","response":"left","rt":420.80000000005,"correct":true,"confidence":3},{"trial_n":171,"n_dots":3.05,"target":"right","response":"right","rt":768.19999999995,"correct":true,"confidence":2},{"trial_n":172,"n_dots":3.05,"target":"left","response":"left","rt":542,"correct":true,"confidence":2},{"trial_n":173,"n_dots":2.95,"target":"left","response":"left","rt":603.20000000019,"correct":true,"confidence":1},{"trial_n":174,"n_dots":2.95,"target":"left","response":"left","rt":484.19999999995,"correct":true,"confidence":6},{"trial_n":175,"n_dots":2.85,"target":"left","response":"left","rt":824,"correct":true,"confidence":1},{"trial_n":176,"n_dots":2.85,"target":"right","response":"left","rt":7278.9000000001,"correct":false,"confidence":1},{"trial_n":177,"n_dots":2.95,"target":"right","response":"right","rt":666,"correct":true,"confidence":2},{"trial_n":178,"n_dots":2.95,"target":"left","response":"left","rt":706.30000000005,"correct":true,"confidence":1},{"trial_n":179,"n_dots":2.85,"target":"right","response":"right","rt":479.19999999995,"correct":true,"confidence":3},{"trial_n":180,"n_dots":2.85,"target":"right","response":"right","rt":347.60000000009,"correct":true,"confidence":2},{"trial_n":181,"n_dots":2.75,"target":"left","response":"right","rt":729.89999999991,"correct":false,"confidence":4},{"trial_n":182,"n_dots":2.85,"target":"right","response":"right","rt":1381,"correct":true,"confidence":1},{"trial_n":183,"n_dots":2.85,"target":"right","response":"right","rt":806.80000000005,"correct":true,"confidence":1},{"trial_n":184,"n_dots":2.75,"target":"left","response":"left","rt":983.29999999981,"correct":true,"confidence":1},{"trial_n":185,"n_dots":2.75,"target":"right","response":"right","rt":673.90000000014,"correct":true,"confidence":1},{"trial_n":186,"n_dots":2.65,"target":"right","response":"right","rt":831.39999999991,"correct":true,"confidence":2},{"trial_n":187,"n_dots":2.65,"target":"right","response":"left","rt":702.80000000005,"correct":false,"confidence":3},{"trial_n":188,"n_dots":2.75,"target":"right","response":"right","rt":558.69999999995,"correct":true,"confidence":3},{"trial_n":189,"n_dots":2.75,"target":"left","response":"left","rt":630.5,"correct":true,"confidence":3},{"trial_n":190,"n_dots":2.65,"target":"left","response":"left","rt":844.40000000014,"correct":true,"confidence":1},{"trial_n":191,"n_dots":2.65,"target":"right","response":"right","rt":627,"correct":true,"confidence":3},{"trial_n":192,"n_dots":2.55,"target":"right","response":"right","rt":917.30000000005,"correct":true,"confidence":1},{"trial_n":193,"n_dots":2.55,"target":"left","response":"left","rt":932.80000000005,"correct":true,"confidence":1},{"trial_n":194,"n_dots":2.45,"target":"right","response":"right","rt":864.19999999995,"correct":true,"confidence":3}]