[{"trial_n":1,"n_dots":4.25,"target":"right","response":"left","rt":1932.5,"correct":false,"confidence":-1},{"trial_n":2,"n_dots":4.25,"target":"right","response":"right","rt":428.90000000596,"correct":true,"confidence":-1},{"trial_n":3,"n_dots":4.25,"target":"right","response":"right","rt":8.1000000089407,"correct":true,"confidence":-1},{"trial_n":4,"n_dots":3.85,"target":"left","response":"left","rt":473.5,"correct":true,"confidence":-1},{"trial_n":5,"n_dots":3.85,"target":"right","response":"right","rt":111.89999999106,"correct":true,"confidence":-1},{"trial_n":6,"n_dots":3.45,"target":"left","response":"left","rt":178.09999999404,"correct":true,"confidence":-1},{"trial_n":7,"n_dots":3.45,"target":"right","response":"right","rt":237,"correct":true,"confidence":-1},{"trial_n":8,"n_dots":3.25,"target":"left","response":"left","rt":80.70000000298,"correct":true,"confidence":-1},{"trial_n":9,"n_dots":3.25,"target":"right","response":"left","rt":371.80000001192,"correct":false,"confidence":-1},{"trial_n":10,"n_dots":3.45,"target":"left","response":"left","rt":323.29999999702,"correct":true,"confidence":-1},{"trial_n":11,"n_dots":3.45,"target":"right","response":"right","rt":159.70000000298,"correct":true,"confidence":-1},{"trial_n":12,"n_dots":3.25,"target":"left","response":"left","rt":74.399999991059,"correct":true,"confidence":-1},{"trial_n":13,"n_dots":3.25,"target":"right","response":"left","rt":390.30000001192,"correct":false,"confidence":-1},{"trial_n":14,"n_dots":3.35,"target":"left","response":"left","rt":184.60000000894,"correct":true,"confidence":-1},{"trial_n":15,"n_dots":3.35,"target":"right","response":"right","rt":144.09999999404,"correct":true,"confidence":-1},{"trial_n":16,"n_dots":3.25,"target":"right","response":"left","rt":214.29999999702,"correct":false,"confidence":-1},{"trial_n":17,"n_dots":3.35,"target":"right","response":"right","rt":37.399999991059,"correct":true,"confidence":-1},{"trial_n":18,"n_dots":3.35,"target":"left","response":"right","rt":382.09999999404,"correct":false,"confidence":-1},{"trial_n":19,"n_dots":3.45,"target":"left","response":"left","rt":421.89999999106,"correct":true,"confidence":-1},{"trial_n":20,"n_dots":3.45,"target":"right","response":"right","rt":107.20000000298,"correct":true,"confidence":-1},{"trial_n":21,"n_dots":3.35,"target":"right","response":"right","rt":110.70000000298,"correct":true,"confidence":-1},{"trial_n":22,"n_dots":3.35,"target":"right","response":"right","rt":134.30000001192,"correct":true,"confidence":-1},{"trial_n":23,"n_dots":3.25,"target":"left","response":"left","rt":142.70000000298,"correct":true,"confidence":-1},{"trial_n":24,"n_dots":3.25,"target":"left","response":"right","rt":136.5,"correct":false,"confidence":-1},{"trial_n":25,"n_dots":3.35,"target":"left","response":"right","rt":31,"correct":false,"confidence":-1},{"trial_n":26,"n_dots":3.45,"target":"right","response":"right","rt":273.10000000894,"correct":true,"confidence":-1},{"trial_n":27,"n_dots":3.45,"target":"left","response":"left","rt":298.89999999106,"correct":true,"confidence":2},{"trial_n":28,"n_dots":3.35,"target":"right","response":"left","rt":124.5,"correct":false,"confidence":3},{"trial_n":29,"n_dots":3.45,"target":"right","response":"right","rt":14.40000000596,"correct":true,"confidence":3},{"trial_n":30,"n_dots":3.45,"target":"left","response":"left","rt":30.40000000596,"correct":true,"confidence":2},{"trial_n":31,"n_dots":3.35,"target":"left","response":"left","rt":325.59999999404,"correct":true,"confidence":4},{"trial_n":32,"n_dots":3.35,"target":"right","response":"right","rt":101.29999999702,"correct":true,"confidence":2},{"trial_n":33,"n_dots":3.25,"target":"right","response":"right","rt":88.29999999702,"correct":true,"confidence":3},{"trial_n":34,"n_dots":3.25,"target":"left","response":"right","rt":69.59999999404,"correct":false,"confidence":2},{"trial_n":35,"n_dots":3.35,"target":"left","response":"right","rt":388.29999999702,"correct":false,"confidence":5},{"trial_n":36,"n_dots":3.45,"target":"right","response":"left","rt":279.60000000894,"correct":false,"confidence":1},{"trial_n":37,"n_dots":3.55,"target":"right","response":"right","rt":588.19999998808,"correct":true,"confidence":4},{"trial_n":38,"n_dots":3.55,"target":"right","response":"right","rt":163,"correct":true,"confidence":4},{"trial_n":39,"n_dots":3.45,"target":"left","response":"left","rt":301.90000000596,"correct":true,"confidence":3},{"trial_n":40,"n_dots":3.45,"target":"left","response":"left","rt":241.5,"correct":true,"confidence":3},{"trial_n":41,"n_dots":3.35,"target":"left","response":"left","rt":129.79999999702,"correct":true,"confidence":3},{"trial_n":42,"n_dots":3.35,"target":"left","response":"left","rt":198.79999999702,"correct":true,"confidence":3},{"trial_n":43,"n_dots":3.25,"target":"right","response":"left","rt":680.70000000298,"correct":false,"confidence":3},{"trial_n":44,"n_dots":3.35,"target":"right","response":"right","rt":257.10000000894,"correct":true,"confidence":2},{"trial_n":45,"n_dots":3.35,"target":"right","response":"right","rt":401.39999999106,"correct":true,"confidence":3},{"trial_n":46,"n_dots":3.25,"target":"left","response":"right","rt":342.39999999106,"correct":false,"confidence":3},{"trial_n":47,"n_dots":3.35,"target":"left","response":"left","rt":347.89999999106,"correct":true,"confidence":2},{"trial_n":48,"n_dots":3.35,"target":"left","response":"left","rt":173.90000000596,"correct":true,"confidence":2},{"trial_n":49,"n_dots":3.25,"target":"left","response":"left","rt":101.79999999702,"correct":true,"confidence":2},{"trial_n":50,"n_dots":3.25,"target":"left","response":"left","rt":193,"correct":true,"confidence":3},{"trial_n":51,"n_dots":3.15,"target":"left","response":"right","rt":86.70000000298,"correct":false,"confidence":1},{"trial_n":52,"n_dots":3.25,"target":"right","response":"right","rt":100,"correct":true,"confidence":4},{"trial_n":53,"n_dots":3.25,"target":"right","response":"right","rt":41.70000000298,"correct":true,"confidence":3},{"trial_n":54,"n_dots":3.15,"target":"right","response":"left","rt":221.59999999404,"correct":false,"confidence":2},{"trial_n":55,"n_dots":3.25,"target":"right","response":"right","rt":168.70000000298,"correct":true,"confidence":4},{"trial_n":56,"n_dots":3.25,"target":"left","response":"left","rt":290.5,"correct":true,"confidence":2},{"trial_n":57,"n_dots":3.15,"target":"left","response":"left","rt":470.29999999702,"correct":true,"confidence":3},{"trial_n":58,"n_dots":3.15,"target":"right","response":"right","rt":27,"correct":true,"confidence":2},{"trial_n":59,"n_dots":3.05,"target":"right","response":"right","rt":38.5,"correct":true,"confidence":2},{"trial_n":60,"n_dots":3.05,"target":"left","response":"right","rt":632.19999998808,"correct":false,"confidence":3},{"trial_n":61,"n_dots":3.15,"target":"right","response":"right","rt":208.10000000894,"correct":true,"confidence":3},{"trial_n":62,"n_dots":3.15,"target":"left","response":"right","rt":157.70000000298,"correct":false,"confidence":1},{"trial_n":63,"n_dots":3.25,"target":"left","response":"left","rt":98.79999999702,"correct":true,"confidence":3},{"trial_n":64,"n_dots":3.25,"target":"left","response":"left","rt":2.7999999970198,"correct":true,"confidence":2},{"trial_n":65,"n_dots":3.15,"target":"right","response":"left","rt":5723.6999999881,"correct":false,"confidence":2},{"trial_n":66,"n_dots":3.25,"target":"right","response":"right","rt":52.70000000298,"correct":true,"confidence":2},{"trial_n":67,"n_dots":3.25,"target":"left","response":"right","rt":536,"correct":false,"confidence":2},{"trial_n":68,"n_dots":3.35,"target":"left","response":"left","rt":133.79999999702,"correct":true,"confidence":2},{"trial_n":69,"n_dots":3.35,"target":"right","response":"right","rt":80.20000000298,"correct":true,"confidence":3},{"trial_n":70,"n_dots":3.25,"target":"left","response":"left","rt":224.70000000298,"correct":true,"confidence":2},{"trial_n":71,"n_dots":3.25,"target":"right","response":"right","rt":173.90000000596,"correct":true,"confidence":4},{"trial_n":72,"n_dots":3.15,"target":"right","response":"right","rt":511.70000000298,"correct":true,"confidence":4},{"trial_n":73,"n_dots":3.15,"target":"left","response":"left","rt":223.40000000596,"correct":true,"confidence":3},{"trial_n":74,"n_dots":3.05,"target":"left","response":"right","rt":447.79999999702,"correct":false,"confidence":2},{"trial_n":75,"n_dots":3.15,"target":"left","response":"left","rt":336.20000000298,"correct":true,"confidence":2},{"trial_n":76,"n_dots":3.15,"target":"left","response":"left","rt":351.39999999106,"correct":true,"confidence":2},{"trial_n":77,"n_dots":3.05,"target":"left","response":"left","rt":280.70000000298,"correct":true,"confidence":3},{"trial_n":78,"n_dots":3.05,"target":"right","response":"right","rt":100.09999999404,"correct":true,"confidence":3},{"trial_n":79,"n_dots":2.95,"target":"right","response":"left","rt":374.79999999702,"correct":false,"confidence":2},{"trial_n":80,"n_dots":3.05,"target":"left","response":"left","rt":137.40000000596,"correct":true,"confidence":4},{"trial_n":81,"n_dots":3.05,"target":"right","response":"right","rt":69.20000000298,"correct":true,"confidence":4},{"trial_n":82,"n_dots":2.95,"target":"left","response":"left","rt":142.60000000894,"correct":true,"confidence":4},{"trial_n":83,"n_dots":2.95,"target":"right","response":"left","rt":643.39999999106,"correct":false,"confidence":3},{"trial_n":84,"n_dots":3.05,"target":"right","response":"right","rt":30.59999999404,"correct":true,"confidence":4},{"trial_n":85,"n_dots":3.05,"target":"right","response":"right","rt":3.8999999910593,"correct":true,"confidence":5},{"trial_n":86,"n_dots":2.95,"target":"right","response":"right","rt":26.40000000596,"correct":true,"confidence":4},{"trial_n":87,"n_dots":2.95,"target":"left","response":"left","rt":302.59999999404,"correct":true,"confidence":3},{"trial_n":88,"n_dots":2.85,"target":"left","response":"left","rt":237.10000000894,"correct":true,"confidence":3},{"trial_n":89,"n_dots":2.85,"target":"left","response":"left","rt":211.89999999106,"correct":true,"confidence":3},{"trial_n":90,"n_dots":2.75,"target":"right","response":"left","rt":260.29999999702,"correct":false,"confidence":2},{"trial_n":91,"n_dots":2.85,"target":"right","response":"right","rt":35,"correct":true,"confidence":3},{"trial_n":92,"n_dots":2.85,"target":"right","response":"left","rt":590.70000000298,"correct":false,"confidence":4},{"trial_n":93,"n_dots":2.95,"target":"right","response":"right","rt":565.79999999702,"correct":true,"confidence":3},{"trial_n":94,"n_dots":2.95,"target":"right","response":"right","rt":402.09999999404,"correct":true,"confidence":5},{"trial_n":95,"n_dots":2.85,"target":"left","response":"left","rt":173.59999999404,"correct":true,"confidence":4},{"trial_n":96,"n_dots":2.85,"target":"left","response":"left","rt":97.59999999404,"correct":true,"confidence":4},{"trial_n":97,"n_dots":2.75,"target":"left","response":"right","rt":814.59999999404,"correct":false,"confidence":3},{"trial_n":98,"n_dots":2.85,"target":"right","response":"right","rt":70.29999999702,"correct":true,"confidence":4},{"trial_n":99,"n_dots":2.85,"target":"left","response":"right","rt":752,"correct":false,"confidence":1},{"trial_n":100,"n_dots":2.95,"target":"left","response":"right","rt":741.29999999702,"correct":false,"confidence":2},{"trial_n":101,"n_dots":3.05,"target":"left","response":"right","rt":158.69999998808,"correct":false,"confidence":1},{"trial_n":102,"n_dots":3.15,"target":"left","response":"left","rt":1130.400000006,"correct":true,"confidence":2},{"trial_n":103,"n_dots":3.15,"target":"right","response":"right","rt":690.70000000298,"correct":true,"confidence":4},{"trial_n":104,"n_dots":3.05,"target":"left","response":"left","rt":124.89999999106,"correct":true,"confidence":4},{"trial_n":105,"n_dots":3.05,"target":"left","response":"left","rt":275,"correct":true,"confidence":4},{"trial_n":106,"n_dots":2.95,"target":"right","response":"right","rt":71.300000011921,"correct":true,"confidence":5},{"trial_n":107,"n_dots":2.95,"target":"right","response":"right","rt":329.29999999702,"correct":true,"confidence":3},{"trial_n":108,"n_dots":2.85,"target":"left","response":"right","rt":59.79999999702,"correct":false,"confidence":3},{"trial_n":109,"n_dots":2.95,"target":"left","response":"left","rt":244.5,"correct":true,"confidence":3},{"trial_n":110,"n_dots":2.95,"target":"left","response":"left","rt":222.60000000894,"correct":true,"confidence":5},{"trial_n":111,"n_dots":2.85,"target":"right","response":"right","rt":401.40000000596,"correct":true,"confidence":2},{"trial_n":112,"n_dots":2.85,"target":"right","response":"right","rt":428.5,"correct":true,"confidence":3},{"trial_n":113,"n_dots":2.75,"target":"right","response":"right","rt":111.09999999404,"correct":true,"confidence":3},{"trial_n":114,"n_dots":2.75,"target":"right","response":"right","rt":26.20000000298,"correct":true,"confidence":3},{"trial_n":115,"n_dots":2.65,"target":"left","response":"right","rt":307.79999999702,"correct":false,"confidence":3},{"trial_n":116,"n_dots":2.75,"target":"left","response":"left","rt":120.09999999404,"correct":true,"confidence":4},{"trial_n":117,"n_dots":2.75,"target":"left","response":"left","rt":152.09999999404,"correct":true,"confidence":3},{"trial_n":118,"n_dots":2.65,"target":"right","response":"left","rt":378.5,"correct":false,"confidence":3},{"trial_n":119,"n_dots":2.75,"target":"left","response":"left","rt":130.20000000298,"correct":true,"confidence":2},{"trial_n":120,"n_dots":2.75,"target":"left","response":"left","rt":32.29999999702,"correct":true,"confidence":3},{"trial_n":121,"n_dots":2.65,"target":"left","response":"left","rt":129.20000000298,"correct":true,"confidence":4},{"trial_n":122,"n_dots":2.65,"target":"right","response":"left","rt":331.79999999702,"correct":false,"confidence":3},{"trial_n":123,"n_dots":2.75,"target":"right","response":"right","rt":130.09999999404,"correct":true,"confidence":3},{"trial_n":124,"n_dots":2.75,"target":"left","response":"left","rt":635.29999999702,"correct":true,"confidence":2},{"trial_n":125,"n_dots":2.65,"target":"left","response":"right","rt":113.90000000596,"correct":false,"confidence":1},{"trial_n":126,"n_dots":2.75,"target":"right","response":"left","rt":121.79999999702,"correct":false,"confidence":3},{"trial_n":127,"n_dots":2.85,"target":"right","response":"right","rt":440.5,"correct":true,"confidence":4},{"trial_n":128,"n_dots":2.85,"target":"left","response":"left","rt":338.70000000298,"correct":true,"confidence":3},{"trial_n":129,"n_dots":2.75,"target":"left","response":"left","rt":326.5,"correct":true,"confidence":3},{"trial_n":130,"n_dots":2.75,"target":"left","response":"left","rt":333.10000000894,"correct":true,"confidence":2},{"trial_n":131,"n_dots":2.65,"target":"right","response":"right","rt":553.89999999106,"correct":true,"confidence":2},{"trial_n":132,"n_dots":2.65,"target":"left","response":"left","rt":140.20000000298,"correct":true,"confidence":2},{"trial_n":133,"n_dots":2.55,"target":"right","response":"left","rt":527.5,"correct":false,"confidence":2},{"trial_n":134,"n_dots":2.65,"target":"left","response":"left","rt":262.5,"correct":true,"confidence":2},{"trial_n":135,"n_dots":2.65,"target":"right","response":"right","rt":495.60000000894,"correct":true,"confidence":2},{"trial_n":136,"n_dots":2.55,"target":"left","response":"left","rt":804.80000001192,"correct":true,"confidence":2},{"trial_n":137,"n_dots":2.55,"target":"left","response":"left","rt":34,"correct":true,"confidence":2},{"trial_n":138,"n_dots":2.45,"target":"right","response":"right","rt":139.09999999404,"correct":true,"confidence":2},{"trial_n":139,"n_dots":2.45,"target":"left","response":"right","rt":639.29999999702,"correct":false,"confidence":2},{"trial_n":140,"n_dots":2.55,"target":"right","response":"right","rt":242.39999999106,"correct":true,"confidence":3},{"trial_n":141,"n_dots":2.55,"target":"left","response":"right","rt":293.79999999702,"correct":false,"confidence":4},{"trial_n":142,"n_dots":2.65,"target":"right","response":"right","rt":128.90000000596,"correct":true,"confidence":4},{"trial_n":143,"n_dots":2.65,"target":"right","response":"right","rt":128.5,"correct":true,"confidence":3},{"trial_n":144,"n_dots":2.55,"target":"right","response":"left","rt":454.90000000596,"correct":false,"confidence":2},{"trial_n":145,"n_dots":2.65,"target":"left","response":"left","rt":220.79999999702,"correct":true,"confidence":2},{"trial_n":146,"n_dots":2.65,"target":"left","response":"left","rt":309.79999999702,"correct":true,"confidence":3},{"trial_n":147,"n_dots":2.55,"target":"right","response":"right","rt":110.40000000596,"correct":true,"confidence":2},{"trial_n":148,"n_dots":2.55,"target":"left","response":"left","rt":35.59999999404,"correct":true,"confidence":3},{"trial_n":149,"n_dots":2.45,"target":"left","response":"right","rt":20.79999999702,"correct":false,"confidence":2},{"trial_n":150,"n_dots":2.55,"target":"right","response":"right","rt":659.29999999702,"correct":true,"confidence":2},{"trial_n":151,"n_dots":2.55,"target":"left","response":"left","rt":42.800000011921,"correct":true,"confidence":2},{"trial_n":152,"n_dots":2.45,"target":"right","response":"left","rt":172.60000000894,"correct":false,"confidence":2},{"trial_n":153,"n_dots":2.55,"target":"right","response":"left","rt":91.79999999702,"correct":false,"confidence":2},{"trial_n":154,"n_dots":2.65,"target":"left","response":"left","rt":590.79999999702,"correct":true,"confidence":4},{"trial_n":155,"n_dots":2.65,"target":"right","response":"right","rt":627.59999999404,"correct":true,"confidence":3},{"trial_n":156,"n_dots":2.55,"target":"right","response":"left","rt":543.90000000596,"correct":false,"confidence":3},{"trial_n":157,"n_dots":2.65,"target":"left","response":"left","rt":298.29999999702,"correct":true,"confidence":3},{"trial_n":158,"n_dots":2.65,"target":"right","response":"right","rt":216.80000001192,"correct":true,"confidence":3},{"trial_n":159,"n_dots":2.55,"target":"left","response":"left","rt":283.59999999404,"correct":true,"confidence":3},{"trial_n":160,"n_dots":2.55,"target":"left","response":"left","rt":174.10000000894,"correct":true,"confidence":3},{"trial_n":161,"n_dots":2.45,"target":"left","response":"right","rt":132.29999999702,"correct":false,"confidence":2},{"trial_n":162,"n_dots":2.55,"target":"right","response":"right","rt":667.59999999404,"correct":true,"confidence":3},{"trial_n":163,"n_dots":2.55,"target":"left","response":"right","rt":191.39999999106,"correct":false,"confidence":3},{"trial_n":164,"n_dots":2.65,"target":"left","response":"left","rt":236.70000000298,"correct":true,"confidence":3},{"trial_n":165,"n_dots":2.65,"target":"left","response":"right","rt":50.100000008941,"correct":false,"confidence":2},{"trial_n":166,"n_dots":2.75,"target":"left","response":"left","rt":370.10000000894,"correct":true,"confidence":3},{"trial_n":167,"n_dots":2.75,"target":"right","response":"right","rt":616.40000000596,"correct":true,"confidence":2},{"trial_n":168,"n_dots":2.65,"target":"right","response":"right","rt":538.09999999404,"correct":true,"confidence":3},{"trial_n":169,"n_dots":2.65,"target":"right","response":"right","rt":33.20000000298,"correct":true,"confidence":3},{"trial_n":170,"n_dots":2.55,"target":"right","response":"right","rt":520.09999999404,"correct":true,"confidence":3},{"trial_n":171,"n_dots":2.55,"target":"right","response":"right","rt":224.5,"correct":true,"confidence":3},{"trial_n":172,"n_dots":2.45,"target":"right","response":"left","rt":152.90000000596,"correct":false,"confidence":3},{"trial_n":173,"n_dots":2.55,"target":"left","response":"left","rt":267.5,"correct":true,"confidence":4},{"trial_n":174,"n_dots":2.55,"target":"right","response":"right","rt":598,"correct":true,"confidence":4},{"trial_n":175,"n_dots":2.45,"target":"right","response":"right","rt":298.80000001192,"correct":true,"confidence":3},{"trial_n":176,"n_dots":2.45,"target":"right","response":"right","rt":81.199999988079,"correct":true,"confidence":5},{"trial_n":177,"n_dots":2.35,"target":"left","response":"left","rt":362.30000001192,"correct":true,"confidence":2},{"trial_n":178,"n_dots":2.35,"target":"left","response":"left","rt":345.39999999106,"correct":true,"confidence":2},{"trial_n":179,"n_dots":2.25,"target":"right","response":"right","rt":425.89999999106,"correct":true,"confidence":2},{"trial_n":180,"n_dots":2.25,"target":"left","response":"left","rt":296.70000000298,"correct":true,"confidence":3},{"trial_n":181,"n_dots":2.15,"target":"right","response":"left","rt":195.40000000596,"correct":false,"confidence":3},{"trial_n":182,"n_dots":2.25,"target":"left","response":"left","rt":719.39999999106,"correct":true,"confidence":2},{"trial_n":183,"n_dots":2.25,"target":"right","response":"left","rt":219.79999999702,"correct":false,"confidence":3},{"trial_n":184,"n_dots":2.35,"target":"right","response":"right","rt":266.30000001192,"correct":true,"confidence":4},{"trial_n":185,"n_dots":2.35,"target":"left","response":"left","rt":204.10000000894,"correct":true,"confidence":3},{"trial_n":186,"n_dots":2.25,"target":"right","response":"left","rt":185.10000000894,"correct":false,"confidence":4},{"trial_n":187,"n_dots":2.35,"target":"left","response":"right","rt":445.90000000596,"correct":false,"confidence":5},{"trial_n":188,"n_dots":2.45,"target":"right","response":"left","rt":144.29999999702,"correct":false,"confidence":4},{"trial_n":189,"n_dots":2.55,"target":"right","response":"right","rt":563.10000000894,"correct":true,"confidence":4},{"trial_n":190,"n_dots":2.55,"target":"left","response":"left","rt":110,"correct":true,"confidence":5},{"trial_n":191,"n_dots":2.45,"target":"right","response":"right","rt":367.5,"correct":true,"confidence":3},{"trial_n":192,"n_dots":2.45,"target":"right","response":"right","rt":40.5,"correct":true,"confidence":5},{"trial_n":193,"n_dots":2.35,"target":"right","response":"right","rt":477.5,"correct":true,"confidence":3},{"trial_n":194,"n_dots":2.35,"target":"left","response":"left","rt":273.09999999404,"correct":true,"confidence":3}]