[{"trial_n":1,"n_dots":4.25,"target":"right","response":"left","rt":6458.9000000358,"correct":false,"confidence":-1},{"trial_n":2,"n_dots":4.25,"target":"left","response":"left","rt":2179.5,"correct":true,"confidence":-1},{"trial_n":3,"n_dots":4.25,"target":"left","response":"right","rt":1724.6999999881,"correct":false,"confidence":-1},{"trial_n":4,"n_dots":4.65,"target":"right","response":"right","rt":1527.8000000119,"correct":true,"confidence":-1},{"trial_n":5,"n_dots":4.65,"target":"left","response":"left","rt":1083.0999999642,"correct":true,"confidence":-1},{"trial_n":6,"n_dots":4.25,"target":"left","response":"left","rt":1086.8999999762,"correct":true,"confidence":-1},{"trial_n":7,"n_dots":4.25,"target":"left","response":"left","rt":988.60000002384,"correct":true,"confidence":-1},{"trial_n":8,"n_dots":4.05,"target":"right","response":"right","rt":1109,"correct":true,"confidence":-1},{"trial_n":9,"n_dots":4.05,"target":"right","response":"right","rt":1002.3999999762,"correct":true,"confidence":-1},{"trial_n":10,"n_dots":3.85,"target":"left","response":"left","rt":1368.8999999762,"correct":true,"confidence":-1},{"trial_n":11,"n_dots":3.85,"target":"right","response":"right","rt":989.80000001192,"correct":true,"confidence":-1},{"trial_n":12,"n_dots":3.65,"target":"right","response":"left","rt":1040.3000000119,"correct":false,"confidence":-1},{"trial_n":13,"n_dots":3.75,"target":"right","response":"right","rt":1077.5,"correct":true,"confidence":-1},{"trial_n":14,"n_dots":3.75,"target":"left","response":"left","rt":1032.3000000119,"correct":true,"confidence":-1},{"trial_n":15,"n_dots":3.65,"target":"left","response":"left","rt":1034.3000000119,"correct":true,"confidence":-1},{"trial_n":16,"n_dots":3.65,"target":"right","response":"right","rt":1004.6999999881,"correct":true,"confidence":-1},{"trial_n":17,"n_dots":3.55,"target":"left","response":"left","rt":1442.6999999881,"correct":true,"confidence":-1},{"trial_n":18,"n_dots":3.55,"target":"right","response":"right","rt":924,"correct":true,"confidence":-1},{"trial_n":19,"n_dots":3.45,"target":"left","response":"left","rt":1095.5,"correct":true,"confidence":-1},{"trial_n":20,"n_dots":3.45,"target":"right","response":"right","rt":983.5,"correct":true,"confidence":-1},{"trial_n":21,"n_dots":3.35,"target":"left","response":"left","rt":941.90000003576,"correct":true,"confidence":-1},{"trial_n":22,"n_dots":3.35,"target":"right","response":"left","rt":891,"correct":false,"confidence":-1},{"trial_n":23,"n_dots":3.45,"target":"left","response":"left","rt":1029.3000000119,"correct":true,"confidence":-1},{"trial_n":24,"n_dots":3.45,"target":"left","response":"left","rt":930.19999998808,"correct":true,"confidence":-1},{"trial_n":25,"n_dots":3.35,"target":"left","response":"left","rt":1041.5,"correct":true,"confidence":-1},{"trial_n":26,"n_dots":3.35,"target":"left","response":"left","rt":971.60000002384,"correct":true,"confidence":-1},{"trial_n":27,"n_dots":3.25,"target":"right","response":"right","rt":1075.5,"correct":true,"confidence":3},{"trial_n":28,"n_dots":3.25,"target":"left","response":"left","rt":851.5,"correct":true,"confidence":6},{"trial_n":29,"n_dots":3.15,"target":"right","response":"left","rt":1033.3000000119,"correct":false,"confidence":3},{"trial_n":30,"n_dots":3.25,"target":"left","response":"left","rt":924.20000004768,"correct":true,"confidence":5},{"trial_n":31,"n_dots":3.25,"target":"right","response":"right","rt":941.60000002384,"correct":true,"confidence":4},{"trial_n":32,"n_dots":3.15,"target":"left","response":"left","rt":925.60000002384,"correct":true,"confidence":6},{"trial_n":33,"n_dots":3.15,"target":"right","response":"left","rt":1348.3999999762,"correct":false,"confidence":2},{"trial_n":34,"n_dots":3.25,"target":"left","response":"left","rt":905.10000002384,"correct":true,"confidence":5},{"trial_n":35,"n_dots":3.25,"target":"right","response":"left","rt":1016,"correct":false,"confidence":3},{"trial_n":36,"n_dots":3.35,"target":"right","response":"right","rt":908.30000001192,"correct":true,"confidence":4},{"trial_n":37,"n_dots":3.35,"target":"left","response":"left","rt":889.5,"correct":true,"confidence":6},{"trial_n":38,"n_dots":3.25,"target":"left","response":"left","rt":965.09999996424,"correct":true,"confidence":4},{"trial_n":39,"n_dots":3.25,"target":"right","response":"right","rt":1032.3000000119,"correct":true,"confidence":2},{"trial_n":40,"n_dots":3.15,"target":"right","response":"right","rt":1192.3000000119,"correct":true,"confidence":3},{"trial_n":41,"n_dots":3.15,"target":"left","response":"left","rt":872.20000004768,"correct":true,"confidence":5},{"trial_n":42,"n_dots":3.05,"target":"left","response":"left","rt":1005.5,"correct":true,"confidence":2},{"trial_n":43,"n_dots":3.05,"target":"left","response":"left","rt":885.40000003576,"correct":true,"confidence":4},{"trial_n":44,"n_dots":2.95,"target":"right","response":"right","rt":953.39999997616,"correct":true,"confidence":4},{"trial_n":45,"n_dots":2.95,"target":"right","response":"right","rt":1220.8999999762,"correct":true,"confidence":1},{"trial_n":46,"n_dots":2.85,"target":"left","response":"right","rt":1382.6999999881,"correct":false,"confidence":2},{"trial_n":47,"n_dots":2.95,"target":"left","response":"left","rt":931.79999995232,"correct":true,"confidence":5},{"trial_n":48,"n_dots":2.95,"target":"left","response":"left","rt":814.60000002384,"correct":true,"confidence":3},{"trial_n":49,"n_dots":2.85,"target":"right","response":"right","rt":816,"correct":true,"confidence":5},{"trial_n":50,"n_dots":2.85,"target":"right","response":"right","rt":965.19999998808,"correct":true,"confidence":3},{"trial_n":51,"n_dots":2.75,"target":"left","response":"left","rt":925.69999998808,"correct":true,"confidence":5},{"trial_n":52,"n_dots":2.75,"target":"left","response":"left","rt":1530.6000000238,"correct":true,"confidence":1},{"trial_n":53,"n_dots":2.65,"target":"left","response":"left","rt":887.69999998808,"correct":true,"confidence":2},{"trial_n":54,"n_dots":2.65,"target":"right","response":"right","rt":1105.3999999762,"correct":true,"confidence":4},{"trial_n":55,"n_dots":2.55,"target":"left","response":"left","rt":2664.3000000119,"correct":true,"confidence":3},{"trial_n":56,"n_dots":2.55,"target":"right","response":"left","rt":1118.5,"correct":false,"confidence":6},{"trial_n":57,"n_dots":2.65,"target":"left","response":"left","rt":622.09999996424,"correct":true,"confidence":2},{"trial_n":58,"n_dots":2.65,"target":"left","response":"left","rt":468.39999997616,"correct":true,"confidence":5},{"trial_n":59,"n_dots":2.55,"target":"left","response":"left","rt":562.39999997616,"correct":true,"confidence":2},{"trial_n":60,"n_dots":2.55,"target":"right","response":"right","rt":1613.3000000119,"correct":true,"confidence":3},{"trial_n":61,"n_dots":2.45,"target":"left","response":"left","rt":362.5,"correct":true,"confidence":2},{"trial_n":62,"n_dots":2.45,"target":"right","response":"right","rt":505.60000002384,"correct":true,"confidence":3},{"trial_n":63,"n_dots":2.35,"target":"left","response":"left","rt":696.5,"correct":true,"confidence":2},{"trial_n":64,"n_dots":2.35,"target":"right","response":"right","rt":920.40000003576,"correct":true,"confidence":3},{"trial_n":65,"n_dots":2.25,"target":"right","response":"left","rt":923.30000001192,"correct":false,"confidence":2},{"trial_n":66,"n_dots":2.35,"target":"left","response":"right","rt":616.69999998808,"correct":false,"confidence":4},{"trial_n":67,"n_dots":2.45,"target":"left","response":"left","rt":491.39999997616,"correct":true,"confidence":3},{"trial_n":68,"n_dots":2.45,"target":"left","response":"left","rt":699.5,"correct":true,"confidence":1},{"trial_n":69,"n_dots":2.35,"target":"left","response":"left","rt":649.09999996424,"correct":true,"confidence":3},{"trial_n":70,"n_dots":2.35,"target":"right","response":"right","rt":865.69999998808,"correct":true,"confidence":2},{"trial_n":71,"n_dots":2.25,"target":"left","response":"right","rt":1485.6999999881,"correct":false,"confidence":2},{"trial_n":72,"n_dots":2.35,"target":"left","response":"right","rt":812.19999998808,"correct":false,"confidence":1},{"trial_n":73,"n_dots":2.45,"target":"right","response":"right","rt":837.80000001192,"correct":true,"confidence":2},{"trial_n":74,"n_dots":2.45,"target":"right","response":"left","rt":414.40000003576,"correct":false,"confidence":5},{"trial_n":75,"n_dots":2.55,"target":"right","response":"left","rt":985.5,"correct":false,"confidence":2},{"trial_n":76,"n_dots":2.65,"target":"right","response":"left","rt":662.69999998808,"correct":false,"confidence":3},{"trial_n":77,"n_dots":2.75,"target":"left","response":"right","rt":867.89999997616,"correct":false,"confidence":2},{"trial_n":78,"n_dots":2.85,"target":"left","response":"left","rt":837.30000001192,"correct":true,"confidence":1},{"trial_n":79,"n_dots":2.85,"target":"right","response":"right","rt":694.5,"correct":true,"confidence":2},{"trial_n":80,"n_dots":2.75,"target":"left","response":"left","rt":378.5,"correct":true,"confidence":5},{"trial_n":81,"n_dots":2.75,"target":"right","response":"right","rt":589.30000001192,"correct":true,"confidence":3},{"trial_n":82,"n_dots":2.65,"target":"right","response":"right","rt":182.39999997616,"correct":true,"confidence":2},{"trial_n":83,"n_dots":2.65,"target":"right","response":"right","rt":1959.4000000358,"correct":true,"confidence":2},{"trial_n":84,"n_dots":2.55,"target":"right","response":"right","rt":311,"correct":true,"confidence":3},{"trial_n":85,"n_dots":2.55,"target":"left","response":"right","rt":428.30000001192,"correct":false,"confidence":3},{"trial_n":86,"n_dots":2.65,"target":"right","response":"left","rt":894.40000003576,"correct":false,"confidence":3},{"trial_n":87,"n_dots":2.75,"target":"right","response":"left","rt":247.69999998808,"correct":false,"confidence":3},{"trial_n":88,"n_dots":2.85,"target":"right","response":"left","rt":1174.2999999523,"correct":false,"confidence":1},{"trial_n":89,"n_dots":2.95,"target":"left","response":"left","rt":280.30000001192,"correct":true,"confidence":6},{"trial_n":90,"n_dots":2.95,"target":"left","response":"left","rt":242.5,"correct":true,"confidence":6},{"trial_n":91,"n_dots":2.85,"target":"right","response":"right","rt":807,"correct":true,"confidence":5},{"trial_n":92,"n_dots":2.85,"target":"right","response":"left","rt":772.5,"correct":false,"confidence":5},{"trial_n":93,"n_dots":2.95,"target":"right","response":"right","rt":730.60000002384,"correct":true,"confidence":4},{"trial_n":94,"n_dots":2.95,"target":"left","response":"left","rt":475.20000004768,"correct":true,"confidence":6},{"trial_n":95,"n_dots":2.85,"target":"left","response":"left","rt":646.5,"correct":true,"confidence":5},{"trial_n":96,"n_dots":2.85,"target":"right","response":"right","rt":872.60000002384,"correct":true,"confidence":2},{"trial_n":97,"n_dots":2.75,"target":"right","response":"left","rt":622.80000001192,"correct":false,"confidence":2},{"trial_n":98,"n_dots":2.85,"target":"left","response":"left","rt":734.59999996424,"correct":true,"confidence":6},{"trial_n":99,"n_dots":2.85,"target":"left","response":"left","rt":622.80000001192,"correct":true,"confidence":6},{"trial_n":100,"n_dots":2.75,"target":"right","response":"left","rt":656.69999998808,"correct":false,"confidence":3},{"trial_n":101,"n_dots":2.85,"target":"right","response":"left","rt":295.60000002384,"correct":false,"confidence":2},{"trial_n":102,"n_dots":2.95,"target":"right","response":"right","rt":446.09999996424,"correct":true,"confidence":6},{"trial_n":103,"n_dots":2.95,"target":"left","response":"left","rt":599.19999998808,"correct":true,"confidence":5},{"trial_n":104,"n_dots":2.85,"target":"right","response":"left","rt":1096.2000000477,"correct":false,"confidence":3},{"trial_n":105,"n_dots":2.95,"target":"right","response":"left","rt":860.89999997616,"correct":false,"confidence":2},{"trial_n":106,"n_dots":3.05,"target":"right","response":"right","rt":507.30000001192,"correct":true,"confidence":6},{"trial_n":107,"n_dots":3.05,"target":"right","response":"right","rt":972.19999998808,"correct":true,"confidence":5},{"trial_n":108,"n_dots":2.95,"target":"right","response":"left","rt":575.19999998808,"correct":false,"confidence":4},{"trial_n":109,"n_dots":3.05,"target":"left","response":"left","rt":605.29999995232,"correct":true,"confidence":6},{"trial_n":110,"n_dots":3.05,"target":"right","response":"left","rt":370.89999997616,"correct":false,"confidence":3},{"trial_n":111,"n_dots":3.15,"target":"right","response":"right","rt":710.19999998808,"correct":true,"confidence":2},{"trial_n":112,"n_dots":3.15,"target":"right","response":"right","rt":482.19999998808,"correct":true,"confidence":6},{"trial_n":113,"n_dots":3.05,"target":"left","response":"left","rt":256,"correct":true,"confidence":6},{"trial_n":114,"n_dots":3.05,"target":"left","response":"left","rt":518.40000003576,"correct":true,"confidence":5},{"trial_n":115,"n_dots":2.95,"target":"right","response":"left","rt":303,"correct":false,"confidence":5},{"trial_n":116,"n_dots":3.05,"target":"left","response":"left","rt":356.89999997616,"correct":true,"confidence":3},{"trial_n":117,"n_dots":3.05,"target":"right","response":"right","rt":763.30000001192,"correct":true,"confidence":5},{"trial_n":118,"n_dots":2.95,"target":"right","response":"right","rt":879.09999996424,"correct":true,"confidence":2},{"trial_n":119,"n_dots":2.95,"target":"right","response":"right","rt":1195,"correct":true,"confidence":5},{"trial_n":120,"n_dots":2.85,"target":"right","response":"left","rt":488.80000001192,"correct":false,"confidence":3},{"trial_n":121,"n_dots":2.95,"target":"right","response":"right","rt":208.80000001192,"correct":true,"confidence":3},{"trial_n":122,"n_dots":2.95,"target":"left","response":"left","rt":413.89999997616,"correct":true,"confidence":6},{"trial_n":123,"n_dots":2.85,"target":"right","response":"right","rt":493.39999997616,"correct":true,"confidence":2},{"trial_n":124,"n_dots":2.85,"target":"left","response":"left","rt":284.20000004768,"correct":true,"confidence":6},{"trial_n":125,"n_dots":2.75,"target":"left","response":"left","rt":518,"correct":true,"confidence":4},{"trial_n":126,"n_dots":2.75,"target":"left","response":"left","rt":312.80000001192,"correct":true,"confidence":6},{"trial_n":127,"n_dots":2.65,"target":"left","response":"left","rt":343.60000002384,"correct":true,"confidence":4},{"trial_n":128,"n_dots":2.65,"target":"right","response":"right","rt":221.70000004768,"correct":true,"confidence":3},{"trial_n":129,"n_dots":2.55,"target":"right","response":"left","rt":310.60000002384,"correct":false,"confidence":5},{"trial_n":130,"n_dots":2.65,"target":"left","response":"right","rt":413.80000001192,"correct":false,"confidence":2},{"trial_n":131,"n_dots":2.75,"target":"left","response":"left","rt":302.70000004768,"correct":true,"confidence":6},{"trial_n":132,"n_dots":2.75,"target":"right","response":"right","rt":265.30000001192,"correct":true,"confidence":5},{"trial_n":133,"n_dots":2.65,"target":"left","response":"left","rt":257.10000002384,"correct":true,"confidence":5},{"trial_n":134,"n_dots":2.65,"target":"left","response":"left","rt":308.19999998808,"correct":true,"confidence":2},{"trial_n":135,"n_dots":2.55,"target":"right","response":"right","rt":229.69999998808,"correct":true,"confidence":2},{"trial_n":136,"n_dots":2.55,"target":"right","response":"left","rt":312.5,"correct":false,"confidence":5},{"trial_n":137,"n_dots":2.65,"target":"left","response":"right","rt":308.69999998808,"correct":false,"confidence":2},{"trial_n":138,"n_dots":2.75,"target":"right","response":"left","rt":291.60000002384,"correct":false,"confidence":5},{"trial_n":139,"n_dots":2.85,"target":"left","response":"left","rt":1197,"correct":true,"confidence":2},{"trial_n":140,"n_dots":2.85,"target":"right","response":"left","rt":316.39999997616,"correct":false,"confidence":5},{"trial_n":141,"n_dots":2.95,"target":"left","response":"left","rt":388.09999996424,"correct":true,"confidence":4},{"trial_n":142,"n_dots":2.95,"target":"left","response":"left","rt":330.20000004768,"correct":true,"confidence":5},{"trial_n":143,"n_dots":2.85,"target":"left","response":"left","rt":511.20000004768,"correct":true,"confidence":4},{"trial_n":144,"n_dots":2.85,"target":"left","response":"left","rt":343.69999998808,"correct":true,"confidence":4},{"trial_n":145,"n_dots":2.75,"target":"right","response":"right","rt":1100.6999999881,"correct":true,"confidence":3},{"trial_n":146,"n_dots":2.75,"target":"left","response":"left","rt":262.10000002384,"correct":true,"confidence":4},{"trial_n":147,"n_dots":2.65,"target":"left","response":"left","rt":260.10000002384,"correct":true,"confidence":3},{"trial_n":148,"n_dots":2.65,"target":"left","response":"left","rt":415.89999997616,"correct":true,"confidence":4},{"trial_n":149,"n_dots":2.55,"target":"left","response":"left","rt":222.89999997616,"correct":true,"confidence":3},{"trial_n":150,"n_dots":2.55,"target":"right","response":"left","rt":201,"correct":false,"confidence":4},{"trial_n":151,"n_dots":2.65,"target":"left","response":"left","rt":265.80000001192,"correct":true,"confidence":5},{"trial_n":152,"n_dots":2.65,"target":"right","response":"right","rt":558.39999997616,"correct":true,"confidence":1},{"trial_n":153,"n_dots":2.55,"target":"left","response":"left","rt":376.60000002384,"correct":true,"confidence":5},{"trial_n":154,"n_dots":2.55,"target":"left","response":"left","rt":361.79999995232,"correct":true,"confidence":2},{"trial_n":155,"n_dots":2.45,"target":"right","response":"left","rt":271,"correct":false,"confidence":3},{"trial_n":156,"n_dots":2.55,"target":"right","response":"left","rt":632.60000002384,"correct":false,"confidence":1},{"trial_n":157,"n_dots":2.65,"target":"right","response":"right","rt":272.90000003576,"correct":true,"confidence":2},{"trial_n":158,"n_dots":2.65,"target":"right","response":"right","rt":576.19999998808,"correct":true,"confidence":2},{"trial_n":159,"n_dots":2.55,"target":"right","response":"right","rt":699.10000002384,"correct":true,"confidence":3},{"trial_n":160,"n_dots":2.55,"target":"right","response":"left","rt":295.19999998808,"correct":false,"confidence":1},{"trial_n":161,"n_dots":2.65,"target":"right","response":"right","rt":380.80000001192,"correct":true,"confidence":2},{"trial_n":162,"n_dots":2.65,"target":"left","response":"left","rt":247.10000002384,"correct":true,"confidence":5},{"trial_n":163,"n_dots":2.55,"target":"left","response":"left","rt":365.69999998808,"correct":true,"confidence":3},{"trial_n":164,"n_dots":2.55,"target":"left","response":"right","rt":216.69999998808,"correct":false,"confidence":2},{"trial_n":165,"n_dots":2.65,"target":"right","response":"right","rt":212.19999998808,"correct":true,"confidence":3},{"trial_n":166,"n_dots":2.65,"target":"right","response":"right","rt":236.59999996424,"correct":true,"confidence":3},{"trial_n":167,"n_dots":2.55,"target":"right","response":"right","rt":272,"correct":true,"confidence":5},{"trial_n":168,"n_dots":2.55,"target":"left","response":"right","rt":658.80000001192,"correct":false,"confidence":1},{"trial_n":169,"n_dots":2.65,"target":"left","response":"left","rt":417.90000003576,"correct":true,"confidence":2},{"trial_n":170,"n_dots":2.65,"target":"left","response":"left","rt":926.39999997616,"correct":true,"confidence":1},{"trial_n":171,"n_dots":2.55,"target":"right","response":"right","rt":414.10000002384,"correct":true,"confidence":3},{"trial_n":172,"n_dots":2.55,"target":"right","response":"right","rt":287,"correct":true,"confidence":2},{"trial_n":173,"n_dots":2.45,"target":"right","response":"left","rt":274.69999998808,"correct":false,"confidence":5},{"trial_n":174,"n_dots":2.55,"target":"left","response":"left","rt":275.59999996424,"correct":true,"confidence":1},{"trial_n":175,"n_dots":2.55,"target":"right","response":"left","rt":1092.5,"correct":false,"confidence":1},{"trial_n":176,"n_dots":2.65,"target":"left","response":"left","rt":435.20000004768,"correct":true,"confidence":2},{"trial_n":177,"n_dots":2.65,"target":"left","response":"right","rt":258.10000002384,"correct":false,"confidence":5},{"trial_n":178,"n_dots":2.75,"target":"right","response":"right","rt":245.5,"correct":true,"confidence":5},{"trial_n":179,"n_dots":2.75,"target":"left","response":"right","rt":299.90000003576,"correct":false,"confidence":4},{"trial_n":180,"n_dots":2.85,"target":"left","response":"left","rt":257,"correct":true,"confidence":2},{"trial_n":181,"n_dots":2.85,"target":"left","response":"left","rt":244.19999998808,"correct":true,"confidence":3},{"trial_n":182,"n_dots":2.75,"target":"left","response":"right","rt":356.30000001192,"correct":false,"confidence":3},{"trial_n":183,"n_dots":2.85,"target":"right","response":"right","rt":279.69999998808,"correct":true,"confidence":4},{"trial_n":184,"n_dots":2.85,"target":"right","response":"right","rt":263.80000001192,"correct":true,"confidence":2},{"trial_n":185,"n_dots":2.75,"target":"left","response":"right","rt":36.300000011921,"correct":false,"confidence":2},{"trial_n":186,"n_dots":2.85,"target":"right","response":"right","rt":144.19999998808,"correct":true,"confidence":3},{"trial_n":187,"n_dots":2.85,"target":"right","response":"right","rt":215.69999998808,"correct":true,"confidence":3},{"trial_n":188,"n_dots":2.75,"target":"right","response":"right","rt":280.10000002384,"correct":true,"confidence":6},{"trial_n":189,"n_dots":2.75,"target":"left","response":"right","rt":260.59999996424,"correct":false,"confidence":1},{"trial_n":190,"n_dots":2.85,"target":"right","response":"right","rt":282,"correct":true,"confidence":4},{"trial_n":191,"n_dots":2.85,"target":"left","response":"left","rt":291.80000001192,"correct":true,"confidence":5},{"trial_n":192,"n_dots":2.75,"target":"left","response":"left","rt":173.19999998808,"correct":true,"confidence":6},{"trial_n":193,"n_dots":2.75,"target":"left","response":"left","rt":200.5,"correct":true,"confidence":6},{"trial_n":194,"n_dots":2.65,"target":"right","response":"left","rt":312.80000001192,"correct":false,"confidence":2}]