[{"trial_n":1,"n_dots":4.25,"target":"right","response":"left","rt":1832,"correct":false,"confidence":-1},{"trial_n":2,"n_dots":4.25,"target":"right","response":"right","rt":576,"correct":true,"confidence":-1},{"trial_n":3,"n_dots":4.25,"target":"left","response":"left","rt":513,"correct":true,"confidence":-1},{"trial_n":4,"n_dots":3.85,"target":"left","response":"left","rt":449,"correct":true,"confidence":-1},{"trial_n":5,"n_dots":3.85,"target":"right","response":"right","rt":291,"correct":true,"confidence":-1},{"trial_n":6,"n_dots":3.45,"target":"left","response":"left","rt":294,"correct":true,"confidence":-1},{"trial_n":7,"n_dots":3.45,"target":"left","response":"left","rt":284,"correct":true,"confidence":-1},{"trial_n":8,"n_dots":3.25,"target":"left","response":"left","rt":284,"correct":true,"confidence":-1},{"trial_n":9,"n_dots":3.25,"target":"right","response":"left","rt":278,"correct":false,"confidence":-1},{"trial_n":10,"n_dots":3.45,"target":"left","response":"left","rt":342,"correct":true,"confidence":-1},{"trial_n":11,"n_dots":3.45,"target":"left","response":"left","rt":269,"correct":true,"confidence":-1},{"trial_n":12,"n_dots":3.25,"target":"left","response":"left","rt":256,"correct":true,"confidence":-1},{"trial_n":13,"n_dots":3.25,"target":"left","response":"left","rt":302,"correct":true,"confidence":-1},{"trial_n":14,"n_dots":3.15,"target":"right","response":"right","rt":254,"correct":true,"confidence":-1},{"trial_n":15,"n_dots":3.15,"target":"left","response":"left","rt":181,"correct":true,"confidence":-1},{"trial_n":16,"n_dots":3.05,"target":"right","response":"left","rt":214,"correct":false,"confidence":-1},{"trial_n":17,"n_dots":3.15,"target":"left","response":"left","rt":233,"correct":true,"confidence":-1},{"trial_n":18,"n_dots":3.15,"target":"left","response":"right","rt":357,"correct":false,"confidence":-1},{"trial_n":19,"n_dots":3.25,"target":"left","response":"left","rt":267,"correct":true,"confidence":-1},{"trial_n":20,"n_dots":3.25,"target":"right","response":"right","rt":290,"correct":true,"confidence":-1},{"trial_n":21,"n_dots":3.15,"target":"left","response":"left","rt":245,"correct":true,"confidence":-1},{"trial_n":22,"n_dots":3.15,"target":"left","response":"left","rt":357,"correct":true,"confidence":-1},{"trial_n":23,"n_dots":3.05,"target":"right","response":"right","rt":240,"correct":true,"confidence":-1},{"trial_n":24,"n_dots":3.05,"target":"left","response":"right","rt":397,"correct":false,"confidence":-1},{"trial_n":25,"n_dots":3.15,"target":"left","response":"left","rt":204,"correct":true,"confidence":-1},{"trial_n":26,"n_dots":3.15,"target":"right","response":"left","rt":82,"correct":false,"confidence":-1},{"trial_n":27,"n_dots":3.25,"target":"right","response":"left","rt":374,"correct":false,"confidence":4},{"trial_n":28,"n_dots":3.35,"target":"left","response":"left","rt":282,"correct":true,"confidence":5},{"trial_n":29,"n_dots":3.35,"target":"left","response":"left","rt":804,"correct":true,"confidence":5},{"trial_n":30,"n_dots":3.25,"target":"right","response":"left","rt":330,"correct":false,"confidence":5},{"trial_n":31,"n_dots":3.35,"target":"left","response":"left","rt":300,"correct":true,"confidence":5},{"trial_n":32,"n_dots":3.35,"target":"right","response":"right","rt":481,"correct":true,"confidence":5},{"trial_n":33,"n_dots":3.25,"target":"left","response":"left","rt":606,"correct":true,"confidence":5},{"trial_n":34,"n_dots":3.25,"target":"left","response":"left","rt":348,"correct":true,"confidence":4},{"trial_n":35,"n_dots":3.15,"target":"left","response":"left","rt":323,"correct":true,"confidence":5},{"trial_n":36,"n_dots":3.15,"target":"left","response":"left","rt":418,"correct":true,"confidence":4},{"trial_n":37,"n_dots":3.05,"target":"right","response":"right","rt":475,"correct":true,"confidence":4},{"trial_n":38,"n_dots":3.05,"target":"left","response":"left","rt":561,"correct":true,"confidence":4},{"trial_n":39,"n_dots":2.95,"target":"left","response":"left","rt":402,"correct":true,"confidence":5},{"trial_n":40,"n_dots":2.95,"target":"left","response":"left","rt":472,"correct":true,"confidence":3},{"trial_n":41,"n_dots":2.85,"target":"right","response":"left","rt":332,"correct":false,"confidence":4},{"trial_n":42,"n_dots":2.95,"target":"right","response":"right","rt":544,"correct":true,"confidence":5},{"trial_n":43,"n_dots":2.95,"target":"left","response":"left","rt":1312,"correct":true,"confidence":5},{"trial_n":44,"n_dots":2.85,"target":"left","response":"left","rt":342,"correct":true,"confidence":4},{"trial_n":45,"n_dots":2.85,"target":"left","response":"left","rt":399,"correct":true,"confidence":4},{"trial_n":46,"n_dots":2.75,"target":"right","response":"left","rt":387,"correct":false,"confidence":4},{"trial_n":47,"n_dots":2.85,"target":"left","response":"left","rt":506,"correct":true,"confidence":3},{"trial_n":48,"n_dots":2.85,"target":"left","response":"left","rt":336,"correct":true,"confidence":4},{"trial_n":49,"n_dots":2.75,"target":"right","response":"left","rt":427,"correct":false,"confidence":3},{"trial_n":50,"n_dots":2.85,"target":"right","response":"right","rt":257,"correct":true,"confidence":3},{"trial_n":51,"n_dots":2.85,"target":"left","response":"left","rt":340,"correct":true,"confidence":3},{"trial_n":52,"n_dots":2.75,"target":"right","response":"left","rt":429,"correct":false,"confidence":5},{"trial_n":53,"n_dots":2.85,"target":"left","response":"left","rt":282,"correct":true,"confidence":5},{"trial_n":54,"n_dots":2.85,"target":"right","response":"left","rt":498,"correct":false,"confidence":4},{"trial_n":55,"n_dots":2.95,"target":"right","response":"right","rt":321,"correct":true,"confidence":3},{"trial_n":56,"n_dots":2.95,"target":"left","response":"left","rt":273,"correct":true,"confidence":5},{"trial_n":57,"n_dots":2.85,"target":"left","response":"left","rt":342,"correct":true,"confidence":4},{"trial_n":58,"n_dots":2.85,"target":"right","response":"left","rt":298,"correct":false,"confidence":4},{"trial_n":59,"n_dots":2.95,"target":"left","response":"left","rt":306,"correct":true,"confidence":5},{"trial_n":60,"n_dots":2.95,"target":"right","response":"left","rt":369,"correct":false,"confidence":4},{"trial_n":61,"n_dots":3.05,"target":"right","response":"left","rt":356,"correct":false,"confidence":4},{"trial_n":62,"n_dots":3.15,"target":"right","response":"right","rt":433,"correct":true,"confidence":3},{"trial_n":63,"n_dots":3.15,"target":"right","response":"right","rt":332,"correct":true,"confidence":4},{"trial_n":64,"n_dots":3.05,"target":"left","response":"left","rt":208,"correct":true,"confidence":5},{"trial_n":65,"n_dots":3.05,"target":"left","response":"left","rt":289,"correct":true,"confidence":5},{"trial_n":66,"n_dots":2.95,"target":"right","response":"left","rt":364,"correct":false,"confidence":4},{"trial_n":67,"n_dots":3.05,"target":"left","response":"left","rt":420,"correct":true,"confidence":4},{"trial_n":68,"n_dots":3.05,"target":"right","response":"left","rt":1884,"correct":false,"confidence":5},{"trial_n":69,"n_dots":3.15,"target":"right","response":"left","rt":646,"correct":false,"confidence":3},{"trial_n":70,"n_dots":3.25,"target":"left","response":"left","rt":523,"correct":true,"confidence":4},{"trial_n":71,"n_dots":3.25,"target":"left","response":"left","rt":532,"correct":true,"confidence":5},{"trial_n":72,"n_dots":3.15,"target":"right","response":"left","rt":580,"correct":false,"confidence":4},{"trial_n":73,"n_dots":3.25,"target":"right","response":"left","rt":470,"correct":false,"confidence":5},{"trial_n":74,"n_dots":3.35,"target":"right","response":"left","rt":505,"correct":false,"confidence":3},{"trial_n":75,"n_dots":3.45,"target":"right","response":"left","rt":413,"correct":false,"confidence":3},{"trial_n":76,"n_dots":3.55,"target":"left","response":"left","rt":323,"correct":true,"confidence":5},{"trial_n":77,"n_dots":3.55,"target":"right","response":"right","rt":1059,"correct":true,"confidence":3},{"trial_n":78,"n_dots":3.45,"target":"right","response":"left","rt":398,"correct":false,"confidence":2},{"trial_n":79,"n_dots":3.55,"target":"left","response":"left","rt":318,"correct":true,"confidence":2},{"trial_n":80,"n_dots":3.55,"target":"right","response":"right","rt":414,"correct":true,"confidence":4},{"trial_n":81,"n_dots":3.45,"target":"right","response":"left","rt":1238,"correct":false,"confidence":2},{"trial_n":82,"n_dots":3.55,"target":"right","response":"right","rt":285,"correct":true,"confidence":2},{"trial_n":83,"n_dots":3.55,"target":"right","response":"right","rt":319,"correct":true,"confidence":2},{"trial_n":84,"n_dots":3.45,"target":"right","response":"left","rt":291,"correct":false,"confidence":3},{"trial_n":85,"n_dots":3.55,"target":"right","response":"left","rt":295,"correct":false,"confidence":3},{"trial_n":86,"n_dots":3.65,"target":"right","response":"right","rt":1127,"correct":true,"confidence":2},{"trial_n":87,"n_dots":3.65,"target":"right","response":"right","rt":364,"correct":true,"confidence":2},{"trial_n":88,"n_dots":3.55,"target":"left","response":"left","rt":246,"correct":true,"confidence":5},{"trial_n":89,"n_dots":3.55,"target":"right","response":"left","rt":387,"correct":false,"confidence":2},{"trial_n":90,"n_dots":3.65,"target":"left","response":"left","rt":672,"correct":true,"confidence":5},{"trial_n":91,"n_dots":3.65,"target":"left","response":"left","rt":348,"correct":true,"confidence":5},{"trial_n":92,"n_dots":3.55,"target":"right","response":"left","rt":321,"correct":false,"confidence":3},{"trial_n":93,"n_dots":3.65,"target":"right","response":"right","rt":821,"correct":true,"confidence":2},{"trial_n":94,"n_dots":3.65,"target":"right","response":"left","rt":318,"correct":false,"confidence":4},{"trial_n":95,"n_dots":3.75,"target":"right","response":"left","rt":363,"correct":false,"confidence":2},{"trial_n":96,"n_dots":3.85,"target":"left","response":"left","rt":303,"correct":true,"confidence":3},{"trial_n":97,"n_dots":3.85,"target":"left","response":"left","rt":264,"correct":true,"confidence":3},{"trial_n":98,"n_dots":3.75,"target":"right","response":"right","rt":341,"correct":true,"confidence":3},{"trial_n":99,"n_dots":3.75,"target":"left","response":"left","rt":421,"correct":true,"confidence":5},{"trial_n":100,"n_dots":3.65,"target":"left","response":"left","rt":325,"correct":true,"confidence":5},{"trial_n":101,"n_dots":3.65,"target":"right","response":"left","rt":1277,"correct":false,"confidence":1},{"trial_n":102,"n_dots":3.75,"target":"right","response":"left","rt":402,"correct":false,"confidence":1},{"trial_n":103,"n_dots":3.85,"target":"right","response":"left","rt":439,"correct":false,"confidence":1},{"trial_n":104,"n_dots":3.95,"target":"right","response":"right","rt":321,"correct":true,"confidence":1},{"trial_n":105,"n_dots":3.95,"target":"left","response":"left","rt":178,"correct":true,"confidence":4},{"trial_n":106,"n_dots":3.85,"target":"right","response":"left","rt":1518,"correct":false,"confidence":1},{"trial_n":107,"n_dots":3.95,"target":"right","response":"right","rt":577,"correct":true,"confidence":1},{"trial_n":108,"n_dots":3.95,"target":"left","response":"left","rt":410,"correct":true,"confidence":1},{"trial_n":109,"n_dots":3.85,"target":"left","response":"left","rt":363,"correct":true,"confidence":1},{"trial_n":110,"n_dots":3.85,"target":"right","response":"right","rt":364,"correct":true,"confidence":1},{"trial_n":111,"n_dots":3.75,"target":"left","response":"left","rt":377,"correct":true,"confidence":2},{"trial_n":112,"n_dots":3.75,"target":"right","response":"left","rt":422,"correct":false,"confidence":1},{"trial_n":113,"n_dots":3.85,"target":"left","response":"right","rt":918,"correct":false,"confidence":2},{"trial_n":114,"n_dots":3.95,"target":"left","response":"left","rt":421,"correct":true,"confidence":2},{"trial_n":115,"n_dots":3.95,"target":"right","response":"right","rt":425,"correct":true,"confidence":3},{"trial_n":116,"n_dots":3.85,"target":"left","response":"left","rt":237,"correct":true,"confidence":3},{"trial_n":117,"n_dots":3.85,"target":"left","response":"left","rt":426,"correct":true,"confidence":3},{"trial_n":118,"n_dots":3.75,"target":"right","response":"right","rt":624,"correct":true,"confidence":2},{"trial_n":119,"n_dots":3.75,"target":"right","response":"right","rt":390,"correct":true,"confidence":1},{"trial_n":120,"n_dots":3.65,"target":"left","response":"left","rt":382,"correct":true,"confidence":1},{"trial_n":121,"n_dots":3.65,"target":"left","response":"left","rt":502,"correct":true,"confidence":1},{"trial_n":122,"n_dots":3.55,"target":"right","response":"right","rt":192,"correct":true,"confidence":2},{"trial_n":123,"n_dots":3.55,"target":"left","response":"left","rt":321,"correct":true,"confidence":1},{"trial_n":124,"n_dots":3.45,"target":"right","response":"right","rt":224,"correct":true,"confidence":2},{"trial_n":125,"n_dots":3.45,"target":"right","response":"right","rt":131,"correct":true,"confidence":2},{"trial_n":126,"n_dots":3.35,"target":"left","response":"left","rt":335,"correct":true,"confidence":2},{"trial_n":127,"n_dots":3.35,"target":"left","response":"left","rt":331,"correct":true,"confidence":3},{"trial_n":128,"n_dots":3.25,"target":"left","response":"left","rt":443,"correct":true,"confidence":1},{"trial_n":129,"n_dots":3.25,"target":"left","response":"left","rt":369,"correct":true,"confidence":2},{"trial_n":130,"n_dots":3.15,"target":"right","response":"right","rt":243,"correct":true,"confidence":2},{"trial_n":131,"n_dots":3.15,"target":"right","response":"left","rt":420,"correct":false,"confidence":1},{"trial_n":132,"n_dots":3.25,"target":"left","response":"left","rt":1544,"correct":true,"confidence":1},{"trial_n":133,"n_dots":3.25,"target":"right","response":"right","rt":762,"correct":true,"confidence":1},{"trial_n":134,"n_dots":3.15,"target":"left","response":"left","rt":410,"correct":true,"confidence":2},{"trial_n":135,"n_dots":3.15,"target":"left","response":"left","rt":424,"correct":true,"confidence":2},{"trial_n":136,"n_dots":3.05,"target":"right","response":"left","rt":364,"correct":false,"confidence":2},{"trial_n":137,"n_dots":3.15,"target":"left","response":"left","rt":721,"correct":true,"confidence":1},{"trial_n":138,"n_dots":3.15,"target":"right","response":"right","rt":339,"correct":true,"confidence":1},{"trial_n":139,"n_dots":3.05,"target":"right","response":"left","rt":435,"correct":false,"confidence":2},{"trial_n":140,"n_dots":3.15,"target":"left","response":"left","rt":949,"correct":true,"confidence":1},{"trial_n":141,"n_dots":3.15,"target":"left","response":"left","rt":499,"correct":true,"confidence":1},{"trial_n":142,"n_dots":3.05,"target":"left","response":"left","rt":323,"correct":true,"confidence":2},{"trial_n":143,"n_dots":3.05,"target":"left","response":"left","rt":461,"correct":true,"confidence":1},{"trial_n":144,"n_dots":2.95,"target":"right","response":"left","rt":713,"correct":false,"confidence":1},{"trial_n":145,"n_dots":3.05,"target":"left","response":"left","rt":514,"correct":true,"confidence":2},{"trial_n":146,"n_dots":3.05,"target":"right","response":"right","rt":273,"correct":true,"confidence":2},{"trial_n":147,"n_dots":2.95,"target":"right","response":"right","rt":243,"correct":true,"confidence":2},{"trial_n":148,"n_dots":2.95,"target":"left","response":"left","rt":119,"correct":true,"confidence":2},{"trial_n":149,"n_dots":2.85,"target":"left","response":"left","rt":451,"correct":true,"confidence":2},{"trial_n":150,"n_dots":2.85,"target":"right","response":"right","rt":185,"correct":true,"confidence":3},{"trial_n":151,"n_dots":2.75,"target":"left","response":"left","rt":371,"correct":true,"confidence":1},{"trial_n":152,"n_dots":2.75,"target":"left","response":"left","rt":349,"correct":true,"confidence":1},{"trial_n":153,"n_dots":2.65,"target":"right","response":"left","rt":443,"correct":false,"confidence":1},{"trial_n":154,"n_dots":2.75,"target":"left","response":"left","rt":332,"correct":true,"confidence":1},{"trial_n":155,"n_dots":2.75,"target":"left","response":"left","rt":365,"correct":true,"confidence":1},{"trial_n":156,"n_dots":2.65,"target":"right","response":"right","rt":169,"correct":true,"confidence":2},{"trial_n":157,"n_dots":2.65,"target":"right","response":"left","rt":273,"correct":false,"confidence":3},{"trial_n":158,"n_dots":2.75,"target":"right","response":"right","rt":277,"correct":true,"confidence":3},{"trial_n":159,"n_dots":2.75,"target":"left","response":"right","rt":326,"correct":false,"confidence":3},{"trial_n":160,"n_dots":2.85,"target":"left","response":"left","rt":245,"correct":true,"confidence":2},{"trial_n":161,"n_dots":2.85,"target":"right","response":"right","rt":155,"correct":true,"confidence":3},{"trial_n":162,"n_dots":2.75,"target":"left","response":"left","rt":513,"correct":true,"confidence":2},{"trial_n":163,"n_dots":2.75,"target":"right","response":"right","rt":256,"correct":true,"confidence":3},{"trial_n":164,"n_dots":2.65,"target":"right","response":"right","rt":194,"correct":true,"confidence":3},{"trial_n":165,"n_dots":2.65,"target":"right","response":"right","rt":588,"correct":true,"confidence":3},{"trial_n":166,"n_dots":2.55,"target":"right","response":"right","rt":355,"correct":true,"confidence":3},{"trial_n":167,"n_dots":2.55,"target":"left","response":"left","rt":463,"correct":true,"confidence":3},{"trial_n":168,"n_dots":2.45,"target":"right","response":"left","rt":2406,"correct":false,"confidence":3},{"trial_n":169,"n_dots":2.55,"target":"right","response":"right","rt":232,"correct":true,"confidence":3},{"trial_n":170,"n_dots":2.55,"target":"right","response":"right","rt":170,"correct":true,"confidence":1},{"trial_n":171,"n_dots":2.45,"target":"left","response":"left","rt":82,"correct":true,"confidence":1},{"trial_n":172,"n_dots":2.45,"target":"left","response":"left","rt":286,"correct":true,"confidence":1},{"trial_n":173,"n_dots":2.35,"target":"right","response":"right","rt":402,"correct":true,"confidence":1},{"trial_n":174,"n_dots":2.35,"target":"left","response":"left","rt":28,"correct":true,"confidence":1},{"trial_n":175,"n_dots":2.25,"target":"right","response":"left","rt":238,"correct":false,"confidence":1},{"trial_n":176,"n_dots":2.35,"target":"left","response":"left","rt":352,"correct":true,"confidence":1},{"trial_n":177,"n_dots":2.35,"target":"left","response":"left","rt":369,"correct":true,"confidence":1},{"trial_n":178,"n_dots":2.25,"target":"right","response":"right","rt":4,"correct":true,"confidence":1},{"trial_n":179,"n_dots":2.25,"target":"right","response":"right","rt":261,"correct":true,"confidence":1},{"trial_n":180,"n_dots":2.15,"target":"right","response":"left","rt":386,"correct":false,"confidence":1},{"trial_n":181,"n_dots":2.25,"target":"right","response":"left","rt":870,"correct":false,"confidence":1},{"trial_n":182,"n_dots":2.35,"target":"right","response":"left","rt":339,"correct":false,"confidence":1},{"trial_n":183,"n_dots":2.45,"target":"left","response":"right","rt":333,"correct":false,"confidence":1},{"trial_n":184,"n_dots":2.55,"target":"right","response":"left","rt":367,"correct":false,"confidence":1},{"trial_n":185,"n_dots":2.65,"target":"left","response":"left","rt":207,"correct":true,"confidence":1},{"trial_n":186,"n_dots":2.65,"target":"left","response":"left","rt":459,"correct":true,"confidence":1},{"trial_n":187,"n_dots":2.55,"target":"right","response":"left","rt":299,"correct":false,"confidence":1},{"trial_n":188,"n_dots":2.65,"target":"right","response":"right","rt":275,"correct":true,"confidence":2},{"trial_n":189,"n_dots":2.65,"target":"left","response":"left","rt":124,"correct":true,"confidence":1},{"trial_n":190,"n_dots":2.55,"target":"right","response":"right","rt":37,"correct":true,"confidence":1},{"trial_n":191,"n_dots":2.55,"target":"left","response":"left","rt":291,"correct":true,"confidence":1},{"trial_n":192,"n_dots":2.45,"target":"left","response":"left","rt":262,"correct":true,"confidence":1},{"trial_n":193,"n_dots":2.45,"target":"right","response":"left","rt":176,"correct":false,"confidence":1},{"trial_n":194,"n_dots":2.55,"target":"left","response":"left","rt":223,"correct":true,"confidence":1}]