[{"trial_n":1,"n_dots":4.25,"target":"left","response":"left","rt":3481.700000003,"correct":true,"confidence":-1},{"trial_n":2,"n_dots":4.25,"target":"right","response":"right","rt":102.90000000596,"correct":true,"confidence":-1},{"trial_n":3,"n_dots":3.85,"target":"right","response":"left","rt":424.40000000596,"correct":false,"confidence":-1},{"trial_n":4,"n_dots":4.25,"target":"left","response":"right","rt":214,"correct":false,"confidence":-1},{"trial_n":5,"n_dots":4.65,"target":"left","response":"right","rt":369,"correct":false,"confidence":-1},{"trial_n":6,"n_dots":5.05,"target":"left","response":"left","rt":490.40000000596,"correct":true,"confidence":-1},{"trial_n":7,"n_dots":5.05,"target":"left","response":"left","rt":1320.1000000089,"correct":true,"confidence":-1},{"trial_n":8,"n_dots":4.85,"target":"right","response":"right","rt":863,"correct":true,"confidence":-1},{"trial_n":9,"n_dots":4.85,"target":"left","response":"left","rt":751.10000000894,"correct":true,"confidence":-1},{"trial_n":10,"n_dots":4.65,"target":"left","response":"left","rt":326.5,"correct":true,"confidence":-1},{"trial_n":11,"n_dots":4.65,"target":"left","response":"left","rt":1054.700000003,"correct":true,"confidence":-1},{"trial_n":12,"n_dots":4.45,"target":"left","response":"left","rt":2276.799999997,"correct":true,"confidence":-1},{"trial_n":13,"n_dots":4.45,"target":"right","response":"right","rt":22547.799999997,"correct":true,"confidence":-1},{"trial_n":14,"n_dots":4.35,"target":"left","response":"left","rt":407.20000000298,"correct":true,"confidence":-1},{"trial_n":15,"n_dots":4.35,"target":"left","response":"left","rt":77.5,"correct":true,"confidence":-1},{"trial_n":16,"n_dots":4.25,"target":"left","response":"left","rt":358.70000000298,"correct":true,"confidence":-1},{"trial_n":17,"n_dots":4.25,"target":"left","response":"left","rt":365.09999999404,"correct":true,"confidence":-1},{"trial_n":18,"n_dots":4.15,"target":"left","response":"left","rt":79.79999999702,"correct":true,"confidence":-1},{"trial_n":19,"n_dots":4.15,"target":"right","response":"right","rt":259.09999999404,"correct":true,"confidence":-1},{"trial_n":20,"n_dots":4.05,"target":"left","response":"left","rt":182.29999999702,"correct":true,"confidence":-1},{"trial_n":21,"n_dots":4.05,"target":"right","response":"right","rt":166.40000000596,"correct":true,"confidence":-1},{"trial_n":22,"n_dots":3.95,"target":"left","response":"left","rt":34.79999999702,"correct":true,"confidence":-1},{"trial_n":23,"n_dots":3.95,"target":"right","response":"right","rt":26.79999999702,"correct":true,"confidence":-1},{"trial_n":24,"n_dots":3.85,"target":"right","response":"right","rt":315.29999999702,"correct":true,"confidence":-1},{"trial_n":25,"n_dots":3.85,"target":"left","response":"left","rt":468.29999999702,"correct":true,"confidence":-1},{"trial_n":26,"n_dots":3.75,"target":"left","response":"left","rt":351.90000000596,"correct":true,"confidence":-1},{"trial_n":27,"n_dots":3.75,"target":"left","response":"left","rt":641.69999998808,"correct":true,"confidence":4},{"trial_n":28,"n_dots":3.65,"target":"left","response":"left","rt":310,"correct":true,"confidence":6},{"trial_n":29,"n_dots":3.65,"target":"right","response":"right","rt":1272.599999994,"correct":true,"confidence":2},{"trial_n":30,"n_dots":3.55,"target":"left","response":"left","rt":519.89999999106,"correct":true,"confidence":5},{"trial_n":31,"n_dots":3.55,"target":"right","response":"right","rt":1368.900000006,"correct":true,"confidence":1},{"trial_n":32,"n_dots":3.45,"target":"right","response":"right","rt":490.30000001192,"correct":true,"confidence":5},{"trial_n":33,"n_dots":3.45,"target":"right","response":"left","rt":336.70000000298,"correct":false,"confidence":5},{"trial_n":34,"n_dots":3.55,"target":"right","response":"right","rt":273.80000001192,"correct":true,"confidence":6},{"trial_n":35,"n_dots":3.55,"target":"left","response":"left","rt":153.70000000298,"correct":true,"confidence":6},{"trial_n":36,"n_dots":3.45,"target":"left","response":"left","rt":29.59999999404,"correct":true,"confidence":6},{"trial_n":37,"n_dots":3.45,"target":"right","response":"left","rt":257.90000000596,"correct":false,"confidence":5},{"trial_n":38,"n_dots":3.55,"target":"left","response":"left","rt":423.69999998808,"correct":true,"confidence":6},{"trial_n":39,"n_dots":3.55,"target":"right","response":"right","rt":5,"correct":true,"confidence":6},{"trial_n":40,"n_dots":3.45,"target":"left","response":"right","rt":288.10000000894,"correct":false,"confidence":4},{"trial_n":41,"n_dots":3.55,"target":"left","response":"right","rt":2515,"correct":false,"confidence":3},{"trial_n":42,"n_dots":3.65,"target":"right","response":"right","rt":115.20000000298,"correct":true,"confidence":6},{"trial_n":43,"n_dots":3.65,"target":"right","response":"right","rt":571.40000000596,"correct":true,"confidence":6},{"trial_n":44,"n_dots":3.55,"target":"left","response":"left","rt":1545.599999994,"correct":true,"confidence":3},{"trial_n":45,"n_dots":3.55,"target":"right","response":"left","rt":1493.5,"correct":false,"confidence":3},{"trial_n":46,"n_dots":3.65,"target":"right","response":"left","rt":1182.400000006,"correct":false,"confidence":4},{"trial_n":47,"n_dots":3.75,"target":"right","response":"right","rt":343.5,"correct":true,"confidence":6},{"trial_n":48,"n_dots":3.75,"target":"right","response":"right","rt":465.5,"correct":true,"confidence":6},{"trial_n":49,"n_dots":3.65,"target":"right","response":"right","rt":66.399999991059,"correct":true,"confidence":6},{"trial_n":50,"n_dots":3.65,"target":"right","response":"right","rt":1561.400000006,"correct":true,"confidence":6},{"trial_n":51,"n_dots":3.55,"target":"right","response":"right","rt":121.60000000894,"correct":true,"confidence":6},{"trial_n":52,"n_dots":3.55,"target":"right","response":"left","rt":564,"correct":false,"confidence":3},{"trial_n":53,"n_dots":3.65,"target":"right","response":"right","rt":321.79999999702,"correct":true,"confidence":6},{"trial_n":54,"n_dots":3.65,"target":"left","response":"left","rt":494.5,"correct":true,"confidence":3},{"trial_n":55,"n_dots":3.55,"target":"right","response":"right","rt":269,"correct":true,"confidence":5},{"trial_n":56,"n_dots":3.55,"target":"left","response":"right","rt":269.19999998808,"correct":false,"confidence":5},{"trial_n":57,"n_dots":3.65,"target":"left","response":"left","rt":57.699999988079,"correct":true,"confidence":6},{"trial_n":58,"n_dots":3.65,"target":"left","response":"left","rt":787.5,"correct":true,"confidence":1},{"trial_n":59,"n_dots":3.55,"target":"right","response":"right","rt":1046.6000000089,"correct":true,"confidence":1},{"trial_n":60,"n_dots":3.55,"target":"right","response":"right","rt":590.70000000298,"correct":true,"confidence":1},{"trial_n":61,"n_dots":3.45,"target":"right","response":"right","rt":711,"correct":true,"confidence":4},{"trial_n":62,"n_dots":3.45,"target":"right","response":"right","rt":141.10000000894,"correct":true,"confidence":6},{"trial_n":63,"n_dots":3.35,"target":"left","response":"left","rt":369.29999999702,"correct":true,"confidence":3},{"trial_n":64,"n_dots":3.35,"target":"right","response":"right","rt":310.89999999106,"correct":true,"confidence":5},{"trial_n":65,"n_dots":3.25,"target":"left","response":"left","rt":717.40000000596,"correct":true,"confidence":4},{"trial_n":66,"n_dots":3.25,"target":"left","response":"left","rt":1911.3999999911,"correct":true,"confidence":4},{"trial_n":67,"n_dots":3.15,"target":"left","response":"left","rt":48.899999991059,"correct":true,"confidence":4},{"trial_n":68,"n_dots":3.15,"target":"left","response":"right","rt":239.60000000894,"correct":false,"confidence":6},{"trial_n":69,"n_dots":3.25,"target":"left","response":"left","rt":84.90000000596,"correct":true,"confidence":6},{"trial_n":70,"n_dots":3.25,"target":"left","response":"left","rt":7.9000000059605,"correct":true,"confidence":6},{"trial_n":71,"n_dots":3.15,"target":"left","response":"right","rt":245.19999998808,"correct":false,"confidence":6},{"trial_n":72,"n_dots":3.25,"target":"right","response":"right","rt":322.19999998808,"correct":true,"confidence":6},{"trial_n":73,"n_dots":3.25,"target":"left","response":"left","rt":507.30000001192,"correct":true,"confidence":6},{"trial_n":74,"n_dots":3.15,"target":"right","response":"right","rt":27.40000000596,"correct":true,"confidence":6},{"trial_n":75,"n_dots":3.15,"target":"left","response":"left","rt":57.100000008941,"correct":true,"confidence":6},{"trial_n":76,"n_dots":3.05,"target":"left","response":"right","rt":1607.700000003,"correct":false,"confidence":5},{"trial_n":77,"n_dots":3.15,"target":"right","response":"right","rt":730.90000000596,"correct":true,"confidence":6},{"trial_n":78,"n_dots":3.15,"target":"right","response":"left","rt":191.59999999404,"correct":false,"confidence":6},{"trial_n":79,"n_dots":3.25,"target":"right","response":"right","rt":505.40000000596,"correct":true,"confidence":6},{"trial_n":80,"n_dots":3.25,"target":"left","response":"left","rt":320.90000000596,"correct":true,"confidence":6},{"trial_n":81,"n_dots":3.15,"target":"left","response":"left","rt":285,"correct":true,"confidence":6},{"trial_n":82,"n_dots":3.15,"target":"left","response":"right","rt":599.90000000596,"correct":false,"confidence":4},{"trial_n":83,"n_dots":3.25,"target":"right","response":"right","rt":194.69999998808,"correct":true,"confidence":6},{"trial_n":84,"n_dots":3.25,"target":"right","response":"right","rt":426.39999999106,"correct":true,"confidence":1},{"trial_n":85,"n_dots":3.15,"target":"right","response":"right","rt":276.70000000298,"correct":true,"confidence":6},{"trial_n":86,"n_dots":3.15,"target":"right","response":"right","rt":20.70000000298,"correct":true,"confidence":1},{"trial_n":87,"n_dots":3.05,"target":"right","response":"right","rt":633.19999998808,"correct":true,"confidence":5},{"trial_n":88,"n_dots":3.05,"target":"right","response":"right","rt":627.80000001192,"correct":true,"confidence":4},{"trial_n":89,"n_dots":2.95,"target":"left","response":"right","rt":264.5,"correct":false,"confidence":6},{"trial_n":90,"n_dots":3.05,"target":"right","response":"right","rt":2035.3999999911,"correct":true,"confidence":6},{"trial_n":91,"n_dots":3.05,"target":"right","response":"right","rt":1144.3000000119,"correct":true,"confidence":6},{"trial_n":92,"n_dots":2.95,"target":"right","response":"right","rt":460.29999999702,"correct":true,"confidence":6},{"trial_n":93,"n_dots":2.95,"target":"left","response":"left","rt":282.20000000298,"correct":true,"confidence":6},{"trial_n":94,"n_dots":2.85,"target":"left","response":"right","rt":425.29999999702,"correct":false,"confidence":6},{"trial_n":95,"n_dots":2.95,"target":"right","response":"right","rt":346.30000001192,"correct":true,"confidence":6},{"trial_n":96,"n_dots":2.95,"target":"right","response":"right","rt":175.39999999106,"correct":true,"confidence":6},{"trial_n":97,"n_dots":2.85,"target":"right","response":"right","rt":1027.900000006,"correct":true,"confidence":6},{"trial_n":98,"n_dots":2.85,"target":"right","response":"right","rt":71.70000000298,"correct":true,"confidence":6},{"trial_n":99,"n_dots":2.75,"target":"left","response":"left","rt":400.20000000298,"correct":true,"confidence":6},{"trial_n":100,"n_dots":2.75,"target":"left","response":"right","rt":796.09999999404,"correct":false,"confidence":6},{"trial_n":101,"n_dots":2.85,"target":"right","response":"right","rt":372.80000001192,"correct":true,"confidence":4},{"trial_n":102,"n_dots":2.85,"target":"left","response":"left","rt":383.70000000298,"correct":true,"confidence":1},{"trial_n":103,"n_dots":2.75,"target":"right","response":"right","rt":488.20000000298,"correct":true,"confidence":6},{"trial_n":104,"n_dots":2.75,"target":"left","response":"right","rt":475.90000000596,"correct":false,"confidence":6},{"trial_n":105,"n_dots":2.85,"target":"right","response":"left","rt":1417,"correct":false,"confidence":6},{"trial_n":106,"n_dots":2.95,"target":"right","response":"right","rt":331.20000000298,"correct":true,"confidence":6},{"trial_n":107,"n_dots":2.95,"target":"right","response":"right","rt":369.59999999404,"correct":true,"confidence":6},{"trial_n":108,"n_dots":2.85,"target":"left","response":"left","rt":481.29999999702,"correct":true,"confidence":5},{"trial_n":109,"n_dots":2.85,"target":"left","response":"left","rt":352.20000000298,"correct":true,"confidence":4},{"trial_n":110,"n_dots":2.75,"target":"right","response":"right","rt":207,"correct":true,"confidence":6},{"trial_n":111,"n_dots":2.75,"target":"left","response":"right","rt":384.39999999106,"correct":false,"confidence":6},{"trial_n":112,"n_dots":2.85,"target":"left","response":"right","rt":247.59999999404,"correct":false,"confidence":6},{"trial_n":113,"n_dots":2.95,"target":"right","response":"left","rt":353.5,"correct":false,"confidence":6},{"trial_n":114,"n_dots":3.05,"target":"right","response":"right","rt":1438.3999999911,"correct":true,"confidence":6},{"trial_n":115,"n_dots":3.05,"target":"left","response":"left","rt":167.09999999404,"correct":true,"confidence":6},{"trial_n":116,"n_dots":2.95,"target":"left","response":"left","rt":199.20000000298,"correct":true,"confidence":4},{"trial_n":117,"n_dots":2.95,"target":"left","response":"left","rt":302.29999999702,"correct":true,"confidence":5},{"trial_n":118,"n_dots":2.85,"target":"right","response":"left","rt":326.29999999702,"correct":false,"confidence":6},{"trial_n":119,"n_dots":2.95,"target":"right","response":"right","rt":562.20000000298,"correct":true,"confidence":6},{"trial_n":120,"n_dots":2.95,"target":"right","response":"left","rt":365,"correct":false,"confidence":6},{"trial_n":121,"n_dots":3.05,"target":"right","response":"left","rt":27,"correct":false,"confidence":6},{"trial_n":122,"n_dots":3.15,"target":"right","response":"right","rt":145.79999999702,"correct":true,"confidence":6},{"trial_n":123,"n_dots":3.15,"target":"right","response":"right","rt":374.79999999702,"correct":true,"confidence":6},{"trial_n":124,"n_dots":3.05,"target":"right","response":"right","rt":137.09999999404,"correct":true,"confidence":6},{"trial_n":125,"n_dots":3.05,"target":"left","response":"left","rt":276.09999999404,"correct":true,"confidence":5},{"trial_n":126,"n_dots":2.95,"target":"left","response":"left","rt":399.19999998808,"correct":true,"confidence":4},{"trial_n":127,"n_dots":2.95,"target":"right","response":"left","rt":446.29999999702,"correct":false,"confidence":3},{"trial_n":128,"n_dots":3.05,"target":"left","response":"left","rt":248.29999999702,"correct":true,"confidence":6},{"trial_n":129,"n_dots":3.05,"target":"left","response":"left","rt":432.29999999702,"correct":true,"confidence":5},{"trial_n":130,"n_dots":2.95,"target":"right","response":"left","rt":291.40000000596,"correct":false,"confidence":4},{"trial_n":131,"n_dots":3.05,"target":"left","response":"left","rt":412.10000000894,"correct":true,"confidence":5},{"trial_n":132,"n_dots":3.05,"target":"left","response":"left","rt":152.69999998808,"correct":true,"confidence":5},{"trial_n":133,"n_dots":2.95,"target":"right","response":"left","rt":420.70000000298,"correct":false,"confidence":5},{"trial_n":134,"n_dots":3.05,"target":"left","response":"left","rt":1064.900000006,"correct":true,"confidence":5},{"trial_n":135,"n_dots":3.05,"target":"left","response":"left","rt":163,"correct":true,"confidence":4},{"trial_n":136,"n_dots":2.95,"target":"right","response":"left","rt":559.40000000596,"correct":false,"confidence":4},{"trial_n":137,"n_dots":3.05,"target":"left","response":"left","rt":998,"correct":true,"confidence":1},{"trial_n":138,"n_dots":3.05,"target":"right","response":"right","rt":163.5,"correct":true,"confidence":3},{"trial_n":139,"n_dots":2.95,"target":"left","response":"left","rt":666.40000000596,"correct":true,"confidence":4},{"trial_n":140,"n_dots":2.95,"target":"left","response":"left","rt":190.10000000894,"correct":true,"confidence":4},{"trial_n":141,"n_dots":2.85,"target":"right","response":"left","rt":233,"correct":false,"confidence":4},{"trial_n":142,"n_dots":2.95,"target":"right","response":"left","rt":519.79999999702,"correct":false,"confidence":4},{"trial_n":143,"n_dots":3.05,"target":"left","response":"left","rt":201.90000000596,"correct":true,"confidence":4},{"trial_n":144,"n_dots":3.05,"target":"right","response":"left","rt":771,"correct":false,"confidence":4},{"trial_n":145,"n_dots":3.15,"target":"left","response":"left","rt":401.70000000298,"correct":true,"confidence":4},{"trial_n":146,"n_dots":3.15,"target":"left","response":"left","rt":282.90000000596,"correct":true,"confidence":4},{"trial_n":147,"n_dots":3.05,"target":"right","response":"right","rt":66.59999999404,"correct":true,"confidence":5},{"trial_n":148,"n_dots":3.05,"target":"left","response":"left","rt":65.79999999702,"correct":true,"confidence":4},{"trial_n":149,"n_dots":2.95,"target":"right","response":"right","rt":252,"correct":true,"confidence":5},{"trial_n":150,"n_dots":2.95,"target":"right","response":"right","rt":681.29999999702,"correct":true,"confidence":4},{"trial_n":151,"n_dots":2.85,"target":"left","response":"left","rt":139.79999999702,"correct":true,"confidence":5},{"trial_n":152,"n_dots":2.85,"target":"right","response":"right","rt":529.89999999106,"correct":true,"confidence":3},{"trial_n":153,"n_dots":2.75,"target":"left","response":"left","rt":204.20000000298,"correct":true,"confidence":4},{"trial_n":154,"n_dots":2.75,"target":"left","response":"right","rt":57.20000000298,"correct":false,"confidence":4},{"trial_n":155,"n_dots":2.85,"target":"right","response":"right","rt":422.89999999106,"correct":true,"confidence":5},{"trial_n":156,"n_dots":2.85,"target":"left","response":"left","rt":193.10000000894,"correct":true,"confidence":1},{"trial_n":157,"n_dots":2.75,"target":"right","response":"right","rt":256.70000000298,"correct":true,"confidence":5},{"trial_n":158,"n_dots":2.75,"target":"right","response":"right","rt":250.5,"correct":true,"confidence":4},{"trial_n":159,"n_dots":2.65,"target":"left","response":"right","rt":78.600000008941,"correct":false,"confidence":1},{"trial_n":160,"n_dots":2.75,"target":"right","response":"right","rt":64.100000008941,"correct":true,"confidence":3},{"trial_n":161,"n_dots":2.75,"target":"right","response":"left","rt":931.89999999106,"correct":false,"confidence":3},{"trial_n":162,"n_dots":2.85,"target":"right","response":"right","rt":844.20000000298,"correct":true,"confidence":5},{"trial_n":163,"n_dots":2.85,"target":"left","response":"left","rt":139.5,"correct":true,"confidence":4},{"trial_n":164,"n_dots":2.75,"target":"left","response":"left","rt":99.90000000596,"correct":true,"confidence":4},{"trial_n":165,"n_dots":2.75,"target":"right","response":"right","rt":437.70000000298,"correct":true,"confidence":5},{"trial_n":166,"n_dots":2.65,"target":"left","response":"right","rt":211.40000000596,"correct":false,"confidence":5},{"trial_n":167,"n_dots":2.75,"target":"left","response":"right","rt":162.30000001192,"correct":false,"confidence":5},{"trial_n":168,"n_dots":2.85,"target":"right","response":"left","rt":363.89999999106,"correct":false,"confidence":1},{"trial_n":169,"n_dots":2.95,"target":"right","response":"right","rt":742,"correct":true,"confidence":1},{"trial_n":170,"n_dots":2.95,"target":"left","response":"left","rt":133.40000000596,"correct":true,"confidence":1},{"trial_n":171,"n_dots":2.85,"target":"left","response":"left","rt":28.600000008941,"correct":true,"confidence":1},{"trial_n":172,"n_dots":2.85,"target":"right","response":"right","rt":826.69999998808,"correct":true,"confidence":1},{"trial_n":173,"n_dots":2.75,"target":"left","response":"left","rt":66.90000000596,"correct":true,"confidence":4},{"trial_n":174,"n_dots":2.75,"target":"left","response":"left","rt":164.5,"correct":true,"confidence":4},{"trial_n":175,"n_dots":2.65,"target":"left","response":"left","rt":117.69999998808,"correct":true,"confidence":3},{"trial_n":176,"n_dots":2.65,"target":"left","response":"left","rt":291.69999998808,"correct":true,"confidence":1},{"trial_n":177,"n_dots":2.55,"target":"left","response":"left","rt":79.600000008941,"correct":true,"confidence":3},{"trial_n":178,"n_dots":2.55,"target":"right","response":"left","rt":100.20000000298,"correct":false,"confidence":1},{"trial_n":179,"n_dots":2.65,"target":"left","response":"left","rt":477.29999999702,"correct":true,"confidence":1},{"trial_n":180,"n_dots":2.65,"target":"right","response":"left","rt":45.29999999702,"correct":false,"confidence":1},{"trial_n":181,"n_dots":2.75,"target":"right","response":"right","rt":510.29999999702,"correct":true,"confidence":1},{"trial_n":182,"n_dots":2.75,"target":"right","response":"right","rt":379,"correct":true,"confidence":1},{"trial_n":183,"n_dots":2.65,"target":"right","response":"left","rt":202.5,"correct":false,"confidence":1},{"trial_n":184,"n_dots":2.75,"target":"right","response":"left","rt":10516.299999997,"correct":false,"confidence":4},{"trial_n":185,"n_dots":2.85,"target":"right","response":"left","rt":1105.3999999911,"correct":false,"confidence":5},{"trial_n":186,"n_dots":2.95,"target":"left","response":"left","rt":1808.700000003,"correct":true,"confidence":5},{"trial_n":187,"n_dots":2.95,"target":"right","response":"left","rt":842.09999999404,"correct":false,"confidence":4},{"trial_n":188,"n_dots":3.05,"target":"left","response":"left","rt":3497.8999999911,"correct":true,"confidence":1},{"trial_n":189,"n_dots":3.05,"target":"right","response":"right","rt":47.79999999702,"correct":true,"confidence":5},{"trial_n":190,"n_dots":2.95,"target":"left","response":"left","rt":56.09999999404,"correct":true,"confidence":1},{"trial_n":191,"n_dots":2.95,"target":"left","response":"right","rt":166.79999999702,"correct":false,"confidence":1},{"trial_n":192,"n_dots":3.05,"target":"left","response":"left","rt":4548.099999994,"correct":true,"confidence":4},{"trial_n":193,"n_dots":3.05,"target":"left","response":"right","rt":108,"correct":false,"confidence":1},{"trial_n":194,"n_dots":3.15,"target":"right","response":"right","rt":159.5,"correct":true,"confidence":1}]