[{"trial_n":1,"n_dots":4.25,"target":"right","response":"right","rt":5639.8999999999,"correct":true,"confidence":-1},{"trial_n":2,"n_dots":4.25,"target":"right","response":"right","rt":1708.5,"correct":true,"confidence":-1},{"trial_n":3,"n_dots":3.85,"target":"right","response":"left","rt":1839.7999999998,"correct":false,"confidence":-1},{"trial_n":4,"n_dots":4.25,"target":"left","response":"left","rt":1962,"correct":true,"confidence":-1},{"trial_n":5,"n_dots":4.25,"target":"left","response":"left","rt":621,"correct":true,"confidence":-1},{"trial_n":6,"n_dots":3.85,"target":"left","response":"right","rt":2028.6000000001,"correct":false,"confidence":-1},{"trial_n":7,"n_dots":4.25,"target":"left","response":"right","rt":318,"correct":false,"confidence":-1},{"trial_n":8,"n_dots":4.45,"target":"right","response":"right","rt":540,"correct":true,"confidence":-1},{"trial_n":9,"n_dots":4.45,"target":"right","response":"right","rt":1076.2,"correct":true,"confidence":-1},{"trial_n":10,"n_dots":4.25,"target":"left","response":"left","rt":352.30000000005,"correct":true,"confidence":-1},{"trial_n":11,"n_dots":4.25,"target":"right","response":"right","rt":463.19999999995,"correct":true,"confidence":-1},{"trial_n":12,"n_dots":4.05,"target":"left","response":"left","rt":209.09999999986,"correct":true,"confidence":-1},{"trial_n":13,"n_dots":4.05,"target":"right","response":"left","rt":336,"correct":false,"confidence":-1},{"trial_n":14,"n_dots":4.15,"target":"right","response":"right","rt":310.10000000009,"correct":true,"confidence":-1},{"trial_n":15,"n_dots":4.15,"target":"left","response":"left","rt":129.89999999991,"correct":true,"confidence":-1},{"trial_n":16,"n_dots":4.05,"target":"right","response":"right","rt":228,"correct":true,"confidence":-1},{"trial_n":17,"n_dots":4.05,"target":"right","response":"right","rt":226.60000000009,"correct":true,"confidence":-1},{"trial_n":18,"n_dots":3.95,"target":"right","response":"right","rt":220.59999999986,"correct":true,"confidence":-1},{"trial_n":19,"n_dots":3.95,"target":"right","response":"right","rt":281.39999999991,"correct":true,"confidence":-1},{"trial_n":20,"n_dots":3.85,"target":"right","response":"left","rt":240,"correct":false,"confidence":-1},{"trial_n":21,"n_dots":3.95,"target":"left","response":"left","rt":238.80000000005,"correct":true,"confidence":-1},{"trial_n":22,"n_dots":3.95,"target":"right","response":"left","rt":180.59999999986,"correct":false,"confidence":-1},{"trial_n":23,"n_dots":4.05,"target":"right","response":"left","rt":362,"correct":false,"confidence":-1},{"trial_n":24,"n_dots":4.15,"target":"left","response":"left","rt":331,"correct":true,"confidence":-1},{"trial_n":25,"n_dots":4.15,"target":"right","response":"right","rt":276.89999999991,"correct":true,"confidence":-1},{"trial_n":26,"n_dots":4.05,"target":"left","response":"left","rt":236.59999999986,"correct":true,"confidence":-1},{"trial_n":27,"n_dots":4.05,"target":"left","response":"left","rt":398.10000000009,"correct":true,"confidence":2},{"trial_n":28,"n_dots":3.95,"target":"left","response":"right","rt":1180.1000000001,"correct":false,"confidence":1},{"trial_n":29,"n_dots":4.05,"target":"left","response":"left","rt":341.5,"correct":true,"confidence":5},{"trial_n":30,"n_dots":4.05,"target":"right","response":"right","rt":279,"correct":true,"confidence":5},{"trial_n":31,"n_dots":3.95,"target":"right","response":"right","rt":670.5,"correct":true,"confidence":3},{"trial_n":32,"n_dots":3.95,"target":"right","response":"right","rt":238.19999999995,"correct":true,"confidence":5},{"trial_n":33,"n_dots":3.85,"target":"right","response":"right","rt":635.20000000019,"correct":true,"confidence":5},{"trial_n":34,"n_dots":3.85,"target":"right","response":"right","rt":1581.4000000004,"correct":true,"confidence":3},{"trial_n":35,"n_dots":3.75,"target":"right","response":"left","rt":3724.1999999997,"correct":false,"confidence":1},{"trial_n":36,"n_dots":3.85,"target":"right","response":"right","rt":1113.3999999999,"correct":true,"confidence":2},{"trial_n":37,"n_dots":3.85,"target":"left","response":"left","rt":611.29999999981,"correct":true,"confidence":5},{"trial_n":38,"n_dots":3.75,"target":"right","response":"right","rt":868.70000000019,"correct":true,"confidence":4},{"trial_n":39,"n_dots":3.75,"target":"left","response":"left","rt":574.30000000028,"correct":true,"confidence":5},{"trial_n":40,"n_dots":3.65,"target":"left","response":"left","rt":1384.8000000003,"correct":true,"confidence":2},{"trial_n":41,"n_dots":3.65,"target":"left","response":"left","rt":358.30000000028,"correct":true,"confidence":4},{"trial_n":42,"n_dots":3.55,"target":"right","response":"right","rt":606.70000000019,"correct":true,"confidence":4},{"trial_n":43,"n_dots":3.55,"target":"left","response":"left","rt":4204.5,"correct":true,"confidence":1},{"trial_n":44,"n_dots":3.45,"target":"left","response":"right","rt":509.5,"correct":false,"confidence":2},{"trial_n":45,"n_dots":3.55,"target":"right","response":"left","rt":4020.0999999996,"correct":false,"confidence":2},{"trial_n":46,"n_dots":3.65,"target":"left","response":"left","rt":981.80000000028,"correct":true,"confidence":3},{"trial_n":47,"n_dots":3.65,"target":"left","response":"right","rt":814.39999999991,"correct":false,"confidence":3},{"trial_n":48,"n_dots":3.75,"target":"right","response":"right","rt":2222.7000000002,"correct":true,"confidence":3},{"trial_n":49,"n_dots":3.75,"target":"left","response":"left","rt":365.80000000028,"correct":true,"confidence":5},{"trial_n":50,"n_dots":3.65,"target":"right","response":"right","rt":435.69999999972,"correct":true,"confidence":5},{"trial_n":51,"n_dots":3.65,"target":"right","response":"right","rt":479.5,"correct":true,"confidence":5},{"trial_n":52,"n_dots":3.55,"target":"left","response":"left","rt":348.10000000009,"correct":true,"confidence":6},{"trial_n":53,"n_dots":3.55,"target":"left","response":"left","rt":421.39999999991,"correct":true,"confidence":5},{"trial_n":54,"n_dots":3.45,"target":"right","response":"right","rt":637.39999999991,"correct":true,"confidence":4},{"trial_n":55,"n_dots":3.45,"target":"left","response":"left","rt":852.39999999991,"correct":true,"confidence":3},{"trial_n":56,"n_dots":3.35,"target":"right","response":"right","rt":459.89999999991,"correct":true,"confidence":4},{"trial_n":57,"n_dots":3.35,"target":"left","response":"right","rt":2167.5,"correct":false,"confidence":2},{"trial_n":58,"n_dots":3.45,"target":"right","response":"right","rt":2256.3999999999,"correct":true,"confidence":1},{"trial_n":59,"n_dots":3.45,"target":"right","response":"right","rt":1852.8999999999,"correct":true,"confidence":1},{"trial_n":60,"n_dots":3.35,"target":"left","response":"right","rt":3006.8999999999,"correct":false,"confidence":1},{"trial_n":61,"n_dots":3.45,"target":"right","response":"right","rt":363.5,"correct":true,"confidence":5},{"trial_n":62,"n_dots":3.45,"target":"right","response":"right","rt":1887.3999999999,"correct":true,"confidence":2},{"trial_n":63,"n_dots":3.35,"target":"left","response":"left","rt":847.70000000019,"correct":true,"confidence":3},{"trial_n":64,"n_dots":3.35,"target":"right","response":"right","rt":2476.6000000001,"correct":true,"confidence":1},{"trial_n":65,"n_dots":3.25,"target":"left","response":"left","rt":377.69999999972,"correct":true,"confidence":5},{"trial_n":66,"n_dots":3.25,"target":"right","response":"right","rt":881.29999999981,"correct":true,"confidence":4},{"trial_n":67,"n_dots":3.15,"target":"left","response":"right","rt":446,"correct":false,"confidence":4},{"trial_n":68,"n_dots":3.25,"target":"left","response":"left","rt":504.39999999991,"correct":true,"confidence":3},{"trial_n":69,"n_dots":3.25,"target":"left","response":"right","rt":978.60000000009,"correct":false,"confidence":2},{"trial_n":70,"n_dots":3.35,"target":"left","response":"left","rt":346.5,"correct":true,"confidence":3},{"trial_n":71,"n_dots":3.35,"target":"right","response":"right","rt":475.60000000009,"correct":true,"confidence":1},{"trial_n":72,"n_dots":3.25,"target":"right","response":"right","rt":468.29999999981,"correct":true,"confidence":4},{"trial_n":73,"n_dots":3.25,"target":"left","response":"left","rt":424.10000000009,"correct":true,"confidence":4},{"trial_n":74,"n_dots":3.15,"target":"left","response":"left","rt":836.59999999963,"correct":true,"confidence":4},{"trial_n":75,"n_dots":3.15,"target":"right","response":"right","rt":481,"correct":true,"confidence":3},{"trial_n":76,"n_dots":3.05,"target":"right","response":"right","rt":1420.3000000003,"correct":true,"confidence":1},{"trial_n":77,"n_dots":3.05,"target":"right","response":"left","rt":2684.2000000002,"correct":false,"confidence":1},{"trial_n":78,"n_dots":3.15,"target":"left","response":"left","rt":820.30000000028,"correct":true,"confidence":2},{"trial_n":79,"n_dots":3.15,"target":"left","response":"left","rt":338.5,"correct":true,"confidence":5},{"trial_n":80,"n_dots":3.05,"target":"left","response":"left","rt":317.89999999991,"correct":true,"confidence":4},{"trial_n":81,"n_dots":3.05,"target":"right","response":"left","rt":610.69999999972,"correct":false,"confidence":4},{"trial_n":82,"n_dots":3.15,"target":"right","response":"right","rt":3259.7999999998,"correct":true,"confidence":1},{"trial_n":83,"n_dots":3.15,"target":"right","response":"right","rt":339.89999999991,"correct":true,"confidence":6},{"trial_n":84,"n_dots":3.05,"target":"right","response":"right","rt":342.39999999991,"correct":true,"confidence":6},{"trial_n":85,"n_dots":3.05,"target":"right","response":"right","rt":305.10000000009,"correct":true,"confidence":6},{"trial_n":86,"n_dots":2.95,"target":"left","response":"right","rt":1007.6000000001,"correct":false,"confidence":4},{"trial_n":87,"n_dots":3.05,"target":"left","response":"left","rt":1795,"correct":true,"confidence":2},{"trial_n":88,"n_dots":3.05,"target":"left","response":"left","rt":1796.3999999999,"correct":true,"confidence":2},{"trial_n":89,"n_dots":2.95,"target":"left","response":"left","rt":404.90000000037,"correct":true,"confidence":5},{"trial_n":90,"n_dots":2.95,"target":"left","response":"right","rt":3697.4000000004,"correct":false,"confidence":1},{"trial_n":91,"n_dots":3.05,"target":"right","response":"right","rt":502.60000000009,"correct":true,"confidence":5},{"trial_n":92,"n_dots":3.05,"target":"left","response":"left","rt":2480.3999999999,"correct":true,"confidence":1},{"trial_n":93,"n_dots":2.95,"target":"left","response":"left","rt":452.79999999981,"correct":true,"confidence":4},{"trial_n":94,"n_dots":2.95,"target":"right","response":"right","rt":258.39999999991,"correct":true,"confidence":6},{"trial_n":95,"n_dots":2.85,"target":"left","response":"left","rt":1219,"correct":true,"confidence":3},{"trial_n":96,"n_dots":2.85,"target":"right","response":"right","rt":360.30000000028,"correct":true,"confidence":4},{"trial_n":97,"n_dots":2.75,"target":"left","response":"left","rt":245.30000000028,"correct":true,"confidence":6},{"trial_n":98,"n_dots":2.75,"target":"right","response":"left","rt":1703.6000000001,"correct":false,"confidence":2},{"trial_n":99,"n_dots":2.85,"target":"left","response":"right","rt":1968.2000000002,"correct":false,"confidence":1},{"trial_n":100,"n_dots":2.95,"target":"right","response":"right","rt":455.60000000009,"correct":true,"confidence":4},{"trial_n":101,"n_dots":2.95,"target":"right","response":"right","rt":277,"correct":true,"confidence":5},{"trial_n":102,"n_dots":2.85,"target":"left","response":"left","rt":296.69999999972,"correct":true,"confidence":3},{"trial_n":103,"n_dots":2.85,"target":"left","response":"left","rt":256,"correct":true,"confidence":3},{"trial_n":104,"n_dots":2.75,"target":"right","response":"right","rt":1542.9000000004,"correct":true,"confidence":1},{"trial_n":105,"n_dots":2.75,"target":"left","response":"left","rt":339.10000000009,"correct":true,"confidence":4},{"trial_n":106,"n_dots":2.65,"target":"right","response":"right","rt":302.39999999991,"correct":true,"confidence":5},{"trial_n":107,"n_dots":2.65,"target":"left","response":"left","rt":274.19999999972,"correct":true,"confidence":5},{"trial_n":108,"n_dots":2.55,"target":"right","response":"right","rt":375.5,"correct":true,"confidence":5},{"trial_n":109,"n_dots":2.55,"target":"left","response":"right","rt":1008,"correct":false,"confidence":2},{"trial_n":110,"n_dots":2.65,"target":"left","response":"left","rt":596.10000000009,"correct":true,"confidence":4},{"trial_n":111,"n_dots":2.65,"target":"right","response":"right","rt":365.10000000009,"correct":true,"confidence":3},{"trial_n":112,"n_dots":2.55,"target":"left","response":"left","rt":262.30000000028,"correct":true,"confidence":6},{"trial_n":113,"n_dots":2.55,"target":"left","response":"left","rt":404.40000000037,"correct":true,"confidence":3},{"trial_n":114,"n_dots":2.45,"target":"left","response":"left","rt":266.30000000028,"correct":true,"confidence":5},{"trial_n":115,"n_dots":2.45,"target":"left","response":"left","rt":347.60000000009,"correct":true,"confidence":5},{"trial_n":116,"n_dots":2.35,"target":"left","response":"left","rt":235.79999999981,"correct":true,"confidence":4},{"trial_n":117,"n_dots":2.35,"target":"right","response":"left","rt":827,"correct":false,"confidence":1},{"trial_n":118,"n_dots":2.45,"target":"right","response":"right","rt":2186,"correct":true,"confidence":1},{"trial_n":119,"n_dots":2.45,"target":"left","response":"left","rt":463.39999999991,"correct":true,"confidence":2},{"trial_n":120,"n_dots":2.35,"target":"left","response":"left","rt":244.10000000009,"correct":true,"confidence":4},{"trial_n":121,"n_dots":2.35,"target":"right","response":"right","rt":418.5,"correct":true,"confidence":5},{"trial_n":122,"n_dots":2.25,"target":"right","response":"left","rt":1359.3000000003,"correct":false,"confidence":1},{"trial_n":123,"n_dots":2.35,"target":"left","response":"left","rt":408.10000000009,"correct":true,"confidence":3},{"trial_n":124,"n_dots":2.35,"target":"left","response":"left","rt":1262.2999999998,"correct":true,"confidence":1},{"trial_n":125,"n_dots":2.25,"target":"right","response":"right","rt":315.60000000009,"correct":true,"confidence":3},{"trial_n":126,"n_dots":2.25,"target":"right","response":"left","rt":393.19999999972,"correct":false,"confidence":4},{"trial_n":127,"n_dots":2.35,"target":"right","response":"left","rt":606.60000000009,"correct":false,"confidence":2},{"trial_n":128,"n_dots":2.45,"target":"left","response":"right","rt":1533,"correct":false,"confidence":1},{"trial_n":129,"n_dots":2.55,"target":"right","response":"left","rt":706.10000000009,"correct":false,"confidence":2},{"trial_n":130,"n_dots":2.65,"target":"left","response":"left","rt":355.70000000019,"correct":true,"confidence":4},{"trial_n":131,"n_dots":2.65,"target":"right","response":"left","rt":1676.7999999998,"correct":false,"confidence":4},{"trial_n":132,"n_dots":2.75,"target":"right","response":"right","rt":722.30000000028,"correct":true,"confidence":1},{"trial_n":133,"n_dots":2.75,"target":"left","response":"left","rt":561.29999999981,"correct":true,"confidence":2},{"trial_n":134,"n_dots":2.65,"target":"left","response":"right","rt":503.79999999981,"correct":false,"confidence":5},{"trial_n":135,"n_dots":2.75,"target":"left","response":"right","rt":1038,"correct":false,"confidence":2},{"trial_n":136,"n_dots":2.85,"target":"left","response":"right","rt":1487.8999999999,"correct":false,"confidence":2},{"trial_n":137,"n_dots":2.95,"target":"left","response":"left","rt":430.10000000009,"correct":true,"confidence":5},{"trial_n":138,"n_dots":2.95,"target":"right","response":"left","rt":1065.2000000002,"correct":false,"confidence":1},{"trial_n":139,"n_dots":3.05,"target":"right","response":"right","rt":455.60000000009,"correct":true,"confidence":4},{"trial_n":140,"n_dots":3.05,"target":"left","response":"left","rt":1974.1000000001,"correct":true,"confidence":1},{"trial_n":141,"n_dots":2.95,"target":"left","response":"right","rt":740.10000000009,"correct":false,"confidence":2},{"trial_n":142,"n_dots":3.05,"target":"left","response":"left","rt":1696.5,"correct":true,"confidence":1},{"trial_n":143,"n_dots":3.05,"target":"right","response":"right","rt":329.29999999981,"correct":true,"confidence":4},{"trial_n":144,"n_dots":2.95,"target":"right","response":"left","rt":1300.1999999997,"correct":false,"confidence":1},{"trial_n":145,"n_dots":3.05,"target":"right","response":"right","rt":606.5,"correct":true,"confidence":1},{"trial_n":146,"n_dots":3.05,"target":"left","response":"left","rt":483,"correct":true,"confidence":3},{"trial_n":147,"n_dots":2.95,"target":"left","response":"left","rt":1567.3999999999,"correct":true,"confidence":1},{"trial_n":148,"n_dots":2.95,"target":"right","response":"left","rt":316.5,"correct":false,"confidence":4},{"trial_n":149,"n_dots":3.05,"target":"left","response":"left","rt":891.20000000019,"correct":true,"confidence":3},{"trial_n":150,"n_dots":3.05,"target":"left","response":"left","rt":245.79999999981,"correct":true,"confidence":6},{"trial_n":151,"n_dots":2.95,"target":"left","response":"left","rt":934.79999999981,"correct":true,"confidence":3},{"trial_n":152,"n_dots":2.95,"target":"right","response":"left","rt":1042.1000000001,"correct":false,"confidence":2},{"trial_n":153,"n_dots":3.05,"target":"left","response":"left","rt":252.39999999991,"correct":true,"confidence":5},{"trial_n":154,"n_dots":3.05,"target":"right","response":"right","rt":1456.1999999997,"correct":true,"confidence":3},{"trial_n":155,"n_dots":2.95,"target":"left","response":"left","rt":98.200000000186,"correct":true,"confidence":6},{"trial_n":156,"n_dots":2.95,"target":"left","response":"left","rt":507.10000000009,"correct":true,"confidence":4},{"trial_n":157,"n_dots":2.85,"target":"right","response":"left","rt":564.70000000019,"correct":false,"confidence":3},{"trial_n":158,"n_dots":2.95,"target":"right","response":"right","rt":1122.1000000001,"correct":true,"confidence":2},{"trial_n":159,"n_dots":2.95,"target":"right","response":"left","rt":1310.6000000001,"correct":false,"confidence":2},{"trial_n":160,"n_dots":3.05,"target":"left","response":"right","rt":2632.7000000002,"correct":false,"confidence":1},{"trial_n":161,"n_dots":3.15,"target":"right","response":"right","rt":552.89999999991,"correct":true,"confidence":3},{"trial_n":162,"n_dots":3.15,"target":"right","response":"right","rt":262.60000000009,"correct":true,"confidence":4},{"trial_n":163,"n_dots":3.05,"target":"right","response":"left","rt":548.89999999991,"correct":false,"confidence":1},{"trial_n":164,"n_dots":3.15,"target":"left","response":"left","rt":690.20000000019,"correct":true,"confidence":3},{"trial_n":165,"n_dots":3.15,"target":"right","response":"right","rt":493.90000000037,"correct":true,"confidence":2},{"trial_n":166,"n_dots":3.05,"target":"left","response":"left","rt":1171.9000000004,"correct":true,"confidence":2},{"trial_n":167,"n_dots":3.05,"target":"left","response":"left","rt":467.20000000019,"correct":true,"confidence":3},{"trial_n":168,"n_dots":2.95,"target":"left","response":"left","rt":1410,"correct":true,"confidence":1},{"trial_n":169,"n_dots":2.95,"target":"left","response":"right","rt":817.89999999991,"correct":false,"confidence":3},{"trial_n":170,"n_dots":3.05,"target":"right","response":"right","rt":910.5,"correct":true,"confidence":3},{"trial_n":171,"n_dots":3.05,"target":"left","response":"left","rt":209.89999999991,"correct":true,"confidence":5},{"trial_n":172,"n_dots":2.95,"target":"right","response":"left","rt":568.20000000019,"correct":false,"confidence":3},{"trial_n":173,"n_dots":3.05,"target":"right","response":"left","rt":1192.1000000001,"correct":false,"confidence":1},{"trial_n":174,"n_dots":3.15,"target":"right","response":"right","rt":334.60000000009,"correct":true,"confidence":4},{"trial_n":175,"n_dots":3.15,"target":"right","response":"left","rt":574.19999999972,"correct":false,"confidence":1},{"trial_n":176,"n_dots":3.25,"target":"right","response":"right","rt":3890.5,"correct":true,"confidence":1},{"trial_n":177,"n_dots":3.25,"target":"left","response":"left","rt":431.30000000028,"correct":true,"confidence":5},{"trial_n":178,"n_dots":3.15,"target":"left","response":"left","rt":399,"correct":true,"confidence":2},{"trial_n":179,"n_dots":3.15,"target":"right","response":"right","rt":337.60000000009,"correct":true,"confidence":6},{"trial_n":180,"n_dots":3.05,"target":"right","response":"right","rt":394.09999999963,"correct":true,"confidence":5},{"trial_n":181,"n_dots":3.05,"target":"left","response":"right","rt":453.29999999981,"correct":false,"confidence":2},{"trial_n":182,"n_dots":3.15,"target":"right","response":"right","rt":542.09999999963,"correct":true,"confidence":4},{"trial_n":183,"n_dots":3.15,"target":"left","response":"left","rt":472.60000000009,"correct":true,"confidence":4},{"trial_n":184,"n_dots":3.05,"target":"left","response":"right","rt":1492.4000000004,"correct":false,"confidence":1},{"trial_n":185,"n_dots":3.15,"target":"left","response":"left","rt":1570.4000000004,"correct":true,"confidence":1},{"trial_n":186,"n_dots":3.15,"target":"right","response":"right","rt":551.79999999981,"correct":true,"confidence":1},{"trial_n":187,"n_dots":3.05,"target":"right","response":"left","rt":230.19999999972,"correct":false,"confidence":2},{"trial_n":188,"n_dots":3.15,"target":"right","response":"right","rt":1139,"correct":true,"confidence":3},{"trial_n":189,"n_dots":3.15,"target":"right","response":"right","rt":651.89999999991,"correct":true,"confidence":3},{"trial_n":190,"n_dots":3.05,"target":"right","response":"left","rt":627.70000000019,"correct":false,"confidence":3},{"trial_n":191,"n_dots":3.15,"target":"left","response":"left","rt":443.19999999972,"correct":true,"confidence":5},{"trial_n":192,"n_dots":3.15,"target":"left","response":"left","rt":562.19999999972,"correct":true,"confidence":4},{"trial_n":193,"n_dots":3.05,"target":"left","response":"left","rt":1167.1000000001,"correct":true,"confidence":2},{"trial_n":194,"n_dots":3.05,"target":"right","response":"right","rt":953.10000000009,"correct":true,"confidence":3}]