[{"trial_n":1,"n_dots":4.25,"target":"right","response":"right","rt":2507.2000000002,"correct":true,"confidence":-1},{"trial_n":2,"n_dots":4.25,"target":"left","response":"left","rt":662.40000000037,"correct":true,"confidence":-1},{"trial_n":3,"n_dots":3.85,"target":"right","response":"right","rt":1040.5,"correct":true,"confidence":-1},{"trial_n":4,"n_dots":3.85,"target":"left","response":"left","rt":1009.5,"correct":true,"confidence":-1},{"trial_n":5,"n_dots":3.45,"target":"right","response":"right","rt":616,"correct":true,"confidence":-1},{"trial_n":6,"n_dots":3.45,"target":"right","response":"right","rt":969.09999999963,"correct":true,"confidence":-1},{"trial_n":7,"n_dots":3.05,"target":"right","response":"right","rt":992.5,"correct":true,"confidence":-1},{"trial_n":8,"n_dots":3.05,"target":"right","response":"left","rt":839.5,"correct":false,"confidence":-1},{"trial_n":9,"n_dots":3.25,"target":"right","response":"right","rt":664.30000000075,"correct":true,"confidence":-1},{"trial_n":10,"n_dots":3.25,"target":"right","response":"left","rt":645.5,"correct":false,"confidence":-1},{"trial_n":11,"n_dots":3.45,"target":"right","response":"left","rt":288.5,"correct":false,"confidence":-1},{"trial_n":12,"n_dots":3.65,"target":"right","response":"left","rt":674.39999999944,"correct":false,"confidence":-1},{"trial_n":13,"n_dots":3.75,"target":"left","response":"left","rt":854.20000000019,"correct":true,"confidence":-1},{"trial_n":14,"n_dots":3.75,"target":"left","response":"right","rt":449.5,"correct":false,"confidence":-1},{"trial_n":15,"n_dots":3.85,"target":"left","response":"left","rt":528.5,"correct":true,"confidence":-1},{"trial_n":16,"n_dots":3.85,"target":"right","response":"left","rt":489.79999999981,"correct":false,"confidence":-1},{"trial_n":17,"n_dots":3.95,"target":"left","response":"left","rt":383.79999999981,"correct":true,"confidence":-1},{"trial_n":18,"n_dots":3.95,"target":"right","response":"right","rt":549.5,"correct":true,"confidence":-1},{"trial_n":19,"n_dots":3.85,"target":"right","response":"right","rt":450.29999999981,"correct":true,"confidence":-1},{"trial_n":20,"n_dots":3.85,"target":"left","response":"left","rt":178.59999999963,"correct":true,"confidence":-1},{"trial_n":21,"n_dots":3.75,"target":"right","response":"right","rt":302.20000000019,"correct":true,"confidence":-1},{"trial_n":22,"n_dots":3.75,"target":"left","response":"left","rt":1680.5,"correct":true,"confidence":-1},{"trial_n":23,"n_dots":3.65,"target":"right","response":"right","rt":56.700000000186,"correct":true,"confidence":-1},{"trial_n":24,"n_dots":3.65,"target":"left","response":"left","rt":266.5,"correct":true,"confidence":-1},{"trial_n":25,"n_dots":3.55,"target":"right","response":"right","rt":170.39999999944,"correct":true,"confidence":-1},{"trial_n":26,"n_dots":3.55,"target":"right","response":"left","rt":133.5,"correct":false,"confidence":-1},{"trial_n":27,"n_dots":3.65,"target":"right","response":"right","rt":1075.3999999994,"correct":true,"confidence":2},{"trial_n":28,"n_dots":3.65,"target":"left","response":"left","rt":75.899999999441,"correct":true,"confidence":3},{"trial_n":29,"n_dots":3.55,"target":"left","response":"left","rt":360.5,"correct":true,"confidence":4},{"trial_n":30,"n_dots":3.55,"target":"right","response":"right","rt":596.59999999963,"correct":true,"confidence":3},{"trial_n":31,"n_dots":3.45,"target":"right","response":"left","rt":247.79999999981,"correct":false,"confidence":3},{"trial_n":32,"n_dots":3.55,"target":"left","response":"left","rt":399.5,"correct":true,"confidence":4},{"trial_n":33,"n_dots":3.55,"target":"right","response":"right","rt":821.39999999944,"correct":true,"confidence":2},{"trial_n":34,"n_dots":3.45,"target":"left","response":"left","rt":462.5,"correct":true,"confidence":2},{"trial_n":35,"n_dots":3.45,"target":"right","response":"left","rt":1249.2999999998,"correct":false,"confidence":3},{"trial_n":36,"n_dots":3.55,"target":"left","response":"left","rt":411.20000000019,"correct":true,"confidence":1},{"trial_n":37,"n_dots":3.55,"target":"left","response":"left","rt":433.29999999981,"correct":true,"confidence":1},{"trial_n":38,"n_dots":3.45,"target":"right","response":"right","rt":154790.3,"correct":true,"confidence":1},{"trial_n":39,"n_dots":3.45,"target":"right","response":"left","rt":68268.3,"correct":false,"confidence":1},{"trial_n":40,"n_dots":3.55,"target":"right","response":"right","rt":917.60000000056,"correct":true,"confidence":2},{"trial_n":41,"n_dots":3.55,"target":"left","response":"left","rt":1107.2000000002,"correct":true,"confidence":3},{"trial_n":42,"n_dots":3.45,"target":"left","response":"left","rt":767.40000000037,"correct":true,"confidence":3},{"trial_n":43,"n_dots":3.45,"target":"left","response":"left","rt":846.19999999925,"correct":true,"confidence":3},{"trial_n":44,"n_dots":3.35,"target":"right","response":"left","rt":1941.7000000002,"correct":false,"confidence":3},{"trial_n":45,"n_dots":3.45,"target":"left","response":"right","rt":524.5,"correct":false,"confidence":2},{"trial_n":46,"n_dots":3.55,"target":"right","response":"left","rt":405.09999999963,"correct":false,"confidence":1},{"trial_n":47,"n_dots":3.65,"target":"left","response":"right","rt":454,"correct":false,"confidence":3},{"trial_n":48,"n_dots":3.75,"target":"left","response":"right","rt":824.09999999963,"correct":false,"confidence":3},{"trial_n":49,"n_dots":3.85,"target":"left","response":"left","rt":379.5,"correct":true,"confidence":1},{"trial_n":50,"n_dots":3.85,"target":"left","response":"left","rt":142.29999999981,"correct":true,"confidence":1},{"trial_n":51,"n_dots":3.75,"target":"right","response":"right","rt":774.19999999925,"correct":true,"confidence":3},{"trial_n":52,"n_dots":3.75,"target":"left","response":"left","rt":191.59999999963,"correct":true,"confidence":2},{"trial_n":53,"n_dots":3.65,"target":"right","response":"right","rt":566.20000000019,"correct":true,"confidence":3},{"trial_n":54,"n_dots":3.65,"target":"left","response":"right","rt":541.20000000019,"correct":false,"confidence":3},{"trial_n":55,"n_dots":3.75,"target":"left","response":"left","rt":10723.9,"correct":true,"confidence":4},{"trial_n":56,"n_dots":3.75,"target":"right","response":"left","rt":119.59999999963,"correct":false,"confidence":4},{"trial_n":57,"n_dots":3.85,"target":"right","response":"left","rt":2440.7999999998,"correct":false,"confidence":4},{"trial_n":58,"n_dots":3.95,"target":"right","response":"right","rt":173.29999999981,"correct":true,"confidence":4},{"trial_n":59,"n_dots":3.95,"target":"right","response":"left","rt":2514.2999999998,"correct":false,"confidence":4},{"trial_n":60,"n_dots":4.05,"target":"right","response":"right","rt":288.89999999944,"correct":true,"confidence":3},{"trial_n":61,"n_dots":4.05,"target":"left","response":"left","rt":483.20000000019,"correct":true,"confidence":2},{"trial_n":62,"n_dots":3.95,"target":"right","response":"right","rt":462.89999999944,"correct":true,"confidence":5},{"trial_n":63,"n_dots":3.95,"target":"left","response":"left","rt":699.20000000019,"correct":true,"confidence":1},{"trial_n":64,"n_dots":3.85,"target":"left","response":"left","rt":720.20000000019,"correct":true,"confidence":4},{"trial_n":65,"n_dots":3.85,"target":"left","response":"left","rt":896.59999999963,"correct":true,"confidence":5},{"trial_n":66,"n_dots":3.75,"target":"left","response":"left","rt":360,"correct":true,"confidence":2},{"trial_n":67,"n_dots":3.75,"target":"right","response":"right","rt":843.5,"correct":true,"confidence":3},{"trial_n":68,"n_dots":3.65,"target":"left","response":"left","rt":221.09999999963,"correct":true,"confidence":1},{"trial_n":69,"n_dots":3.65,"target":"left","response":"left","rt":224.20000000019,"correct":true,"confidence":4},{"trial_n":70,"n_dots":3.55,"target":"right","response":"right","rt":879.70000000019,"correct":true,"confidence":1},{"trial_n":71,"n_dots":3.55,"target":"left","response":"left","rt":480.89999999944,"correct":true,"confidence":1},{"trial_n":72,"n_dots":3.45,"target":"left","response":"left","rt":206.20000000019,"correct":true,"confidence":3},{"trial_n":73,"n_dots":3.45,"target":"right","response":"left","rt":931.80000000075,"correct":false,"confidence":3},{"trial_n":74,"n_dots":3.55,"target":"right","response":"right","rt":859,"correct":true,"confidence":3},{"trial_n":75,"n_dots":3.55,"target":"left","response":"left","rt":347.20000000019,"correct":true,"confidence":2},{"trial_n":76,"n_dots":3.45,"target":"left","response":"left","rt":919.29999999981,"correct":true,"confidence":2},{"trial_n":77,"n_dots":3.45,"target":"left","response":"left","rt":677.90000000037,"correct":true,"confidence":2},{"trial_n":78,"n_dots":3.35,"target":"left","response":"right","rt":514.80000000075,"correct":false,"confidence":1},{"trial_n":79,"n_dots":3.45,"target":"right","response":"left","rt":551.59999999963,"correct":false,"confidence":1},{"trial_n":80,"n_dots":3.55,"target":"right","response":"right","rt":699.20000000019,"correct":true,"confidence":1},{"trial_n":81,"n_dots":3.55,"target":"right","response":"left","rt":102.90000000037,"correct":false,"confidence":1},{"trial_n":82,"n_dots":3.65,"target":"right","response":"left","rt":414.20000000019,"correct":false,"confidence":1},{"trial_n":83,"n_dots":3.75,"target":"left","response":"left","rt":371.5,"correct":true,"confidence":1},{"trial_n":84,"n_dots":3.75,"target":"left","response":"left","rt":290.09999999963,"correct":true,"confidence":1},{"trial_n":85,"n_dots":3.65,"target":"right","response":"right","rt":288.40000000037,"correct":true,"confidence":1},{"trial_n":86,"n_dots":3.65,"target":"left","response":"left","rt":624.10000000056,"correct":true,"confidence":3},{"trial_n":87,"n_dots":3.55,"target":"left","response":"left","rt":1522.9000000004,"correct":true,"confidence":1},{"trial_n":88,"n_dots":3.55,"target":"right","response":"right","rt":56.299999999814,"correct":true,"confidence":4},{"trial_n":89,"n_dots":3.45,"target":"left","response":"left","rt":390.29999999981,"correct":true,"confidence":2},{"trial_n":90,"n_dots":3.45,"target":"left","response":"left","rt":413.40000000037,"correct":true,"confidence":2},{"trial_n":91,"n_dots":3.35,"target":"right","response":"left","rt":32697.8,"correct":false,"confidence":1},{"trial_n":92,"n_dots":3.45,"target":"right","response":"left","rt":22.299999999814,"correct":false,"confidence":1},{"trial_n":93,"n_dots":3.55,"target":"right","response":"right","rt":55.599999999627,"correct":true,"confidence":3},{"trial_n":94,"n_dots":3.55,"target":"right","response":"left","rt":491.39999999944,"correct":false,"confidence":3},{"trial_n":95,"n_dots":3.65,"target":"left","response":"left","rt":195.39999999851,"correct":true,"confidence":3},{"trial_n":96,"n_dots":3.65,"target":"right","response":"right","rt":506.5,"correct":true,"confidence":1},{"trial_n":97,"n_dots":3.55,"target":"right","response":"left","rt":39.599999999627,"correct":false,"confidence":1},{"trial_n":98,"n_dots":3.65,"target":"right","response":"left","rt":128.19999999925,"correct":false,"confidence":1},{"trial_n":99,"n_dots":3.75,"target":"left","response":"left","rt":169.69999999925,"correct":true,"confidence":3},{"trial_n":100,"n_dots":3.75,"target":"left","response":"left","rt":113.59999999963,"correct":true,"confidence":2},{"trial_n":101,"n_dots":3.65,"target":"right","response":"right","rt":440.19999999925,"correct":true,"confidence":3},{"trial_n":102,"n_dots":3.65,"target":"right","response":"right","rt":111.19999999925,"correct":true,"confidence":3},{"trial_n":103,"n_dots":3.55,"target":"left","response":"left","rt":107.09999999963,"correct":true,"confidence":1},{"trial_n":104,"n_dots":3.55,"target":"right","response":"left","rt":67.299999998882,"correct":false,"confidence":1},{"trial_n":105,"n_dots":3.65,"target":"left","response":"left","rt":137.59999999963,"correct":true,"confidence":3},{"trial_n":106,"n_dots":3.65,"target":"right","response":"left","rt":48.699999999255,"correct":false,"confidence":2},{"trial_n":107,"n_dots":3.75,"target":"left","response":"left","rt":283.40000000037,"correct":true,"confidence":1},{"trial_n":108,"n_dots":3.75,"target":"left","response":"right","rt":1890.0999999996,"correct":false,"confidence":1},{"trial_n":109,"n_dots":3.85,"target":"left","response":"left","rt":1098.2999999989,"correct":true,"confidence":1},{"trial_n":110,"n_dots":3.85,"target":"left","response":"left","rt":710.59999999963,"correct":true,"confidence":1},{"trial_n":111,"n_dots":3.75,"target":"left","response":"left","rt":17267.699999999,"correct":true,"confidence":2},{"trial_n":112,"n_dots":3.75,"target":"left","response":"left","rt":732.09999999963,"correct":true,"confidence":2},{"trial_n":113,"n_dots":3.65,"target":"left","response":"left","rt":1127.3999999985,"correct":true,"confidence":2},{"trial_n":114,"n_dots":3.65,"target":"right","response":"left","rt":2207.2999999989,"correct":false,"confidence":2},{"trial_n":115,"n_dots":3.75,"target":"right","response":"right","rt":599.40000000037,"correct":true,"confidence":2},{"trial_n":116,"n_dots":3.75,"target":"right","response":"left","rt":646.19999999925,"correct":false,"confidence":2},{"trial_n":117,"n_dots":3.85,"target":"right","response":"left","rt":2071.5,"correct":false,"confidence":2},{"trial_n":118,"n_dots":3.95,"target":"right","response":"right","rt":807.40000000037,"correct":true,"confidence":3},{"trial_n":119,"n_dots":3.95,"target":"right","response":"left","rt":413.30000000075,"correct":false,"confidence":2},{"trial_n":120,"n_dots":4.05,"target":"left","response":"left","rt":33787.5,"correct":true,"confidence":3},{"trial_n":121,"n_dots":4.05,"target":"right","response":"right","rt":641.30000000075,"correct":true,"confidence":2},{"trial_n":122,"n_dots":3.95,"target":"left","response":"left","rt":183.69999999925,"correct":true,"confidence":2},{"trial_n":123,"n_dots":3.95,"target":"left","response":"left","rt":147.59999999963,"correct":true,"confidence":2},{"trial_n":124,"n_dots":3.85,"target":"right","response":"right","rt":464.09999999963,"correct":true,"confidence":2},{"trial_n":125,"n_dots":3.85,"target":"left","response":"left","rt":161.59999999963,"correct":true,"confidence":2},{"trial_n":126,"n_dots":3.75,"target":"left","response":"left","rt":74.699999999255,"correct":true,"confidence":2},{"trial_n":127,"n_dots":3.75,"target":"left","response":"left","rt":1017.8000000007,"correct":true,"confidence":2},{"trial_n":128,"n_dots":3.65,"target":"right","response":"right","rt":5.7000000011176,"correct":true,"confidence":3},{"trial_n":129,"n_dots":3.65,"target":"right","response":"right","rt":494.5,"correct":true,"confidence":3},{"trial_n":130,"n_dots":3.55,"target":"right","response":"right","rt":376.20000000112,"correct":true,"confidence":3},{"trial_n":131,"n_dots":3.55,"target":"right","response":"right","rt":84.300000000745,"correct":true,"confidence":2},{"trial_n":132,"n_dots":3.45,"target":"left","response":"left","rt":123.09999999963,"correct":true,"confidence":2},{"trial_n":133,"n_dots":3.45,"target":"left","response":"right","rt":160.59999999963,"correct":false,"confidence":3},{"trial_n":134,"n_dots":3.55,"target":"left","response":"left","rt":183.90000000037,"correct":true,"confidence":2},{"trial_n":135,"n_dots":3.55,"target":"left","response":"left","rt":392.40000000037,"correct":true,"confidence":3},{"trial_n":136,"n_dots":3.45,"target":"left","response":"left","rt":183.5,"correct":true,"confidence":2},{"trial_n":137,"n_dots":3.45,"target":"left","response":"right","rt":140.09999999963,"correct":false,"confidence":2},{"trial_n":138,"n_dots":3.55,"target":"right","response":"right","rt":288.59999999963,"correct":true,"confidence":2},{"trial_n":139,"n_dots":3.55,"target":"right","response":"left","rt":765.89999999851,"correct":false,"confidence":2},{"trial_n":140,"n_dots":3.65,"target":"left","response":"left","rt":29.599999999627,"correct":true,"confidence":2},{"trial_n":141,"n_dots":3.65,"target":"right","response":"right","rt":215.30000000075,"correct":true,"confidence":3},{"trial_n":142,"n_dots":3.55,"target":"left","response":"left","rt":207.30000000075,"correct":true,"confidence":2},{"trial_n":143,"n_dots":3.55,"target":"left","response":"right","rt":1684.5,"correct":false,"confidence":3},{"trial_n":144,"n_dots":3.65,"target":"right","response":"left","rt":31.400000000373,"correct":false,"confidence":2},{"trial_n":145,"n_dots":3.75,"target":"left","response":"left","rt":366.59999999963,"correct":true,"confidence":2},{"trial_n":146,"n_dots":3.75,"target":"right","response":"right","rt":202.5,"correct":true,"confidence":3},{"trial_n":147,"n_dots":3.65,"target":"right","response":"right","rt":120.5,"correct":true,"confidence":4},{"trial_n":148,"n_dots":3.65,"target":"left","response":"right","rt":7.3000000007451,"correct":false,"confidence":4},{"trial_n":149,"n_dots":3.75,"target":"right","response":"right","rt":370.59999999963,"correct":true,"confidence":3},{"trial_n":150,"n_dots":3.75,"target":"right","response":"right","rt":71.300000000745,"correct":true,"confidence":3},{"trial_n":151,"n_dots":3.65,"target":"right","response":"right","rt":162.40000000037,"correct":true,"confidence":3},{"trial_n":152,"n_dots":3.65,"target":"left","response":"left","rt":646.30000000075,"correct":true,"confidence":3},{"trial_n":153,"n_dots":3.55,"target":"left","response":"right","rt":107.59999999963,"correct":false,"confidence":3},{"trial_n":154,"n_dots":3.65,"target":"left","response":"left","rt":215.30000000075,"correct":true,"confidence":2},{"trial_n":155,"n_dots":3.65,"target":"left","response":"right","rt":188.09999999963,"correct":false,"confidence":3},{"trial_n":156,"n_dots":3.75,"target":"right","response":"right","rt":402.40000000037,"correct":true,"confidence":1},{"trial_n":157,"n_dots":3.75,"target":"right","response":"right","rt":246.59999999963,"correct":true,"confidence":1},{"trial_n":158,"n_dots":3.65,"target":"right","response":"left","rt":609.40000000037,"correct":false,"confidence":2},{"trial_n":159,"n_dots":3.75,"target":"left","response":"right","rt":436.5,"correct":false,"confidence":1},{"trial_n":160,"n_dots":3.85,"target":"left","response":"left","rt":259.20000000112,"correct":true,"confidence":2},{"trial_n":161,"n_dots":3.85,"target":"left","response":"left","rt":218.30000000075,"correct":true,"confidence":2},{"trial_n":162,"n_dots":3.75,"target":"left","response":"left","rt":35474.700000001,"correct":true,"confidence":1},{"trial_n":163,"n_dots":3.75,"target":"right","response":"right","rt":238.5,"correct":true,"confidence":5},{"trial_n":164,"n_dots":3.65,"target":"right","response":"right","rt":217.59999999963,"correct":true,"confidence":5},{"trial_n":165,"n_dots":3.65,"target":"left","response":"left","rt":247.60000000149,"correct":true,"confidence":3},{"trial_n":166,"n_dots":3.55,"target":"left","response":"left","rt":393.20000000112,"correct":true,"confidence":2},{"trial_n":167,"n_dots":3.55,"target":"right","response":"left","rt":113.5,"correct":false,"confidence":1},{"trial_n":168,"n_dots":3.65,"target":"left","response":"left","rt":227.20000000112,"correct":true,"confidence":2},{"trial_n":169,"n_dots":3.65,"target":"left","response":"right","rt":6034.7000000011,"correct":false,"confidence":1},{"trial_n":170,"n_dots":3.75,"target":"right","response":"right","rt":547.59999999963,"correct":true,"confidence":3},{"trial_n":171,"n_dots":3.75,"target":"right","response":"left","rt":165.5,"correct":false,"confidence":1},{"trial_n":172,"n_dots":3.85,"target":"right","response":"right","rt":56.700000001118,"correct":true,"confidence":2},{"trial_n":173,"n_dots":3.85,"target":"right","response":"right","rt":243.59999999963,"correct":true,"confidence":4},{"trial_n":174,"n_dots":3.75,"target":"left","response":"left","rt":275.20000000112,"correct":true,"confidence":3},{"trial_n":175,"n_dots":3.75,"target":"left","response":"left","rt":200.5,"correct":true,"confidence":2},{"trial_n":176,"n_dots":3.65,"target":"left","response":"left","rt":224.30000000075,"correct":true,"confidence":3},{"trial_n":177,"n_dots":3.65,"target":"right","response":"left","rt":437.5,"correct":false,"confidence":3},{"trial_n":178,"n_dots":3.75,"target":"left","response":"left","rt":93.10000000149,"correct":true,"confidence":6},{"trial_n":179,"n_dots":3.75,"target":"left","response":"left","rt":126.09999999963,"correct":true,"confidence":1},{"trial_n":180,"n_dots":3.65,"target":"right","response":"right","rt":446.70000000112,"correct":true,"confidence":1},{"trial_n":181,"n_dots":3.65,"target":"right","response":"right","rt":437.40000000037,"correct":true,"confidence":3},{"trial_n":182,"n_dots":3.55,"target":"right","response":"left","rt":707.60000000149,"correct":false,"confidence":3},{"trial_n":183,"n_dots":3.65,"target":"right","response":"right","rt":640.39999999851,"correct":true,"confidence":3},{"trial_n":184,"n_dots":3.65,"target":"right","response":"right","rt":879.5,"correct":true,"confidence":5},{"trial_n":185,"n_dots":3.55,"target":"left","response":"left","rt":377.70000000112,"correct":true,"confidence":3},{"trial_n":186,"n_dots":3.55,"target":"left","response":"right","rt":512.60000000149,"correct":false,"confidence":1},{"trial_n":187,"n_dots":3.65,"target":"right","response":"right","rt":212.20000000112,"correct":true,"confidence":6},{"trial_n":188,"n_dots":3.65,"target":"left","response":"left","rt":130.5,"correct":true,"confidence":6},{"trial_n":189,"n_dots":3.55,"target":"right","response":"right","rt":18.5,"correct":true,"confidence":6},{"trial_n":190,"n_dots":3.55,"target":"right","response":"left","rt":601.90000000037,"correct":false,"confidence":5},{"trial_n":191,"n_dots":3.65,"target":"left","response":"left","rt":320.70000000112,"correct":true,"confidence":5},{"trial_n":192,"n_dots":3.65,"target":"right","response":"right","rt":234.09999999963,"correct":true,"confidence":4},{"trial_n":193,"n_dots":3.55,"target":"left","response":"left","rt":377.30000000075,"correct":true,"confidence":6},{"trial_n":194,"n_dots":3.55,"target":"left","response":"left","rt":332.20000000112,"correct":true,"confidence":2}]