[{"trial_n":1,"n_dots":4.25,"target":"right","response":"left","rt":2191.099999994,"correct":false,"confidence":-1},{"trial_n":2,"n_dots":4.25,"target":"right","response":"right","rt":859.30000001192,"correct":true,"confidence":-1},{"trial_n":3,"n_dots":4.25,"target":"right","response":"right","rt":573.29999998212,"correct":true,"confidence":-1},{"trial_n":4,"n_dots":3.85,"target":"left","response":"left","rt":13.399999976158,"correct":true,"confidence":-1},{"trial_n":5,"n_dots":3.85,"target":"left","response":"left","rt":172,"correct":true,"confidence":-1},{"trial_n":6,"n_dots":3.45,"target":"left","response":"left","rt":18.399999976158,"correct":true,"confidence":-1},{"trial_n":7,"n_dots":3.45,"target":"left","response":"right","rt":113.70000001788,"correct":false,"confidence":-1},{"trial_n":8,"n_dots":3.65,"target":"right","response":"right","rt":118.80000001192,"correct":true,"confidence":-1},{"trial_n":9,"n_dots":3.65,"target":"left","response":"left","rt":273.19999998808,"correct":true,"confidence":-1},{"trial_n":10,"n_dots":3.45,"target":"right","response":"right","rt":590.80000001192,"correct":true,"confidence":-1},{"trial_n":11,"n_dots":3.45,"target":"right","response":"right","rt":26.40000000596,"correct":true,"confidence":-1},{"trial_n":12,"n_dots":3.25,"target":"right","response":"right","rt":1.2000000178814,"correct":true,"confidence":-1},{"trial_n":13,"n_dots":3.25,"target":"right","response":"left","rt":188.09999999404,"correct":false,"confidence":-1},{"trial_n":14,"n_dots":3.35,"target":"right","response":"right","rt":543.90000000596,"correct":true,"confidence":-1},{"trial_n":15,"n_dots":3.35,"target":"left","response":"left","rt":307.29999998212,"correct":true,"confidence":-1},{"trial_n":16,"n_dots":3.25,"target":"right","response":"left","rt":125.69999998808,"correct":false,"confidence":-1},{"trial_n":17,"n_dots":3.35,"target":"left","response":"left","rt":319,"correct":true,"confidence":-1},{"trial_n":18,"n_dots":3.35,"target":"left","response":"left","rt":207.5,"correct":true,"confidence":-1},{"trial_n":19,"n_dots":3.25,"target":"right","response":"left","rt":80,"correct":false,"confidence":-1},{"trial_n":20,"n_dots":3.35,"target":"right","response":"left","rt":650.40000000596,"correct":false,"confidence":-1},{"trial_n":21,"n_dots":3.45,"target":"left","response":"left","rt":415.29999998212,"correct":true,"confidence":-1},{"trial_n":22,"n_dots":3.45,"target":"left","response":"left","rt":82.09999999404,"correct":true,"confidence":-1},{"trial_n":23,"n_dots":3.35,"target":"right","response":"right","rt":286.70000001788,"correct":true,"confidence":-1},{"trial_n":24,"n_dots":3.35,"target":"left","response":"left","rt":100.59999999404,"correct":true,"confidence":-1},{"trial_n":25,"n_dots":3.25,"target":"right","response":"left","rt":361.69999998808,"correct":false,"confidence":-1},{"trial_n":26,"n_dots":3.35,"target":"right","response":"left","rt":42.299999982119,"correct":false,"confidence":-1},{"trial_n":27,"n_dots":3.45,"target":"left","response":"right","rt":681.59999999404,"correct":false,"confidence":4},{"trial_n":28,"n_dots":3.55,"target":"left","response":"left","rt":366.69999998808,"correct":true,"confidence":5},{"trial_n":29,"n_dots":3.55,"target":"right","response":"left","rt":619.09999999404,"correct":false,"confidence":3},{"trial_n":30,"n_dots":3.65,"target":"left","response":"left","rt":227.70000001788,"correct":true,"confidence":6},{"trial_n":31,"n_dots":3.65,"target":"right","response":"right","rt":193.90000000596,"correct":true,"confidence":5},{"trial_n":32,"n_dots":3.55,"target":"left","response":"left","rt":276.80000001192,"correct":true,"confidence":6},{"trial_n":33,"n_dots":3.55,"target":"left","response":"left","rt":185.39999997616,"correct":true,"confidence":5},{"trial_n":34,"n_dots":3.45,"target":"right","response":"left","rt":256.19999998808,"correct":false,"confidence":5},{"trial_n":35,"n_dots":3.55,"target":"left","response":"left","rt":20.40000000596,"correct":true,"confidence":6},{"trial_n":36,"n_dots":3.55,"target":"left","response":"left","rt":36.800000011921,"correct":true,"confidence":5},{"trial_n":37,"n_dots":3.45,"target":"left","response":"left","rt":360,"correct":true,"confidence":4},{"trial_n":38,"n_dots":3.45,"target":"right","response":"right","rt":138.59999999404,"correct":true,"confidence":3},{"trial_n":39,"n_dots":3.35,"target":"right","response":"right","rt":335,"correct":true,"confidence":4},{"trial_n":40,"n_dots":3.35,"target":"right","response":"right","rt":267.39999997616,"correct":true,"confidence":4},{"trial_n":41,"n_dots":3.25,"target":"left","response":"left","rt":176.39999997616,"correct":true,"confidence":6},{"trial_n":42,"n_dots":3.25,"target":"right","response":"left","rt":377.40000000596,"correct":false,"confidence":4},{"trial_n":43,"n_dots":3.35,"target":"right","response":"right","rt":214.39999997616,"correct":true,"confidence":5},{"trial_n":44,"n_dots":3.35,"target":"left","response":"left","rt":203.79999998212,"correct":true,"confidence":6},{"trial_n":45,"n_dots":3.25,"target":"left","response":"left","rt":131.39999997616,"correct":true,"confidence":5},{"trial_n":46,"n_dots":3.25,"target":"left","response":"left","rt":21.299999982119,"correct":true,"confidence":5},{"trial_n":47,"n_dots":3.15,"target":"left","response":"left","rt":282.5,"correct":true,"confidence":6},{"trial_n":48,"n_dots":3.15,"target":"left","response":"left","rt":11.299999982119,"correct":true,"confidence":6},{"trial_n":49,"n_dots":3.05,"target":"left","response":"left","rt":174.40000000596,"correct":true,"confidence":6},{"trial_n":50,"n_dots":3.05,"target":"right","response":"left","rt":574.39999997616,"correct":false,"confidence":5},{"trial_n":51,"n_dots":3.15,"target":"left","response":"left","rt":204.19999998808,"correct":true,"confidence":5},{"trial_n":52,"n_dots":3.15,"target":"right","response":"right","rt":588.59999999404,"correct":true,"confidence":5},{"trial_n":53,"n_dots":3.05,"target":"left","response":"left","rt":91.90000000596,"correct":true,"confidence":5},{"trial_n":54,"n_dots":3.05,"target":"right","response":"left","rt":174.29999998212,"correct":false,"confidence":5},{"trial_n":55,"n_dots":3.15,"target":"right","response":"left","rt":299.19999998808,"correct":false,"confidence":5},{"trial_n":56,"n_dots":3.25,"target":"left","response":"left","rt":135.19999998808,"correct":true,"confidence":5},{"trial_n":57,"n_dots":3.25,"target":"right","response":"left","rt":398.59999999404,"correct":false,"confidence":5},{"trial_n":58,"n_dots":3.35,"target":"left","response":"left","rt":309.40000000596,"correct":true,"confidence":3},{"trial_n":59,"n_dots":3.35,"target":"right","response":"right","rt":61.5,"correct":true,"confidence":5},{"trial_n":60,"n_dots":3.25,"target":"right","response":"left","rt":278.59999999404,"correct":false,"confidence":5},{"trial_n":61,"n_dots":3.35,"target":"left","response":"left","rt":166.79999998212,"correct":true,"confidence":5},{"trial_n":62,"n_dots":3.35,"target":"left","response":"left","rt":230.39999997616,"correct":true,"confidence":5},{"trial_n":63,"n_dots":3.25,"target":"left","response":"left","rt":43.199999988079,"correct":true,"confidence":6},{"trial_n":64,"n_dots":3.25,"target":"right","response":"right","rt":119.89999997616,"correct":true,"confidence":5},{"trial_n":65,"n_dots":3.15,"target":"left","response":"left","rt":58,"correct":true,"confidence":5},{"trial_n":66,"n_dots":3.15,"target":"right","response":"left","rt":81.59999999404,"correct":false,"confidence":5},{"trial_n":67,"n_dots":3.25,"target":"right","response":"left","rt":294,"correct":false,"confidence":5},{"trial_n":68,"n_dots":3.35,"target":"right","response":"left","rt":224,"correct":false,"confidence":3},{"trial_n":69,"n_dots":3.45,"target":"left","response":"left","rt":99.199999988079,"correct":true,"confidence":6},{"trial_n":70,"n_dots":3.45,"target":"left","response":"left","rt":184.79999998212,"correct":true,"confidence":6},{"trial_n":71,"n_dots":3.35,"target":"left","response":"left","rt":79.699999988079,"correct":true,"confidence":6},{"trial_n":72,"n_dots":3.35,"target":"left","response":"left","rt":54.299999982119,"correct":true,"confidence":6},{"trial_n":73,"n_dots":3.25,"target":"right","response":"left","rt":58.90000000596,"correct":false,"confidence":5},{"trial_n":74,"n_dots":3.35,"target":"left","response":"left","rt":109.69999998808,"correct":true,"confidence":6},{"trial_n":75,"n_dots":3.35,"target":"right","response":"right","rt":204.29999998212,"correct":true,"confidence":5},{"trial_n":76,"n_dots":3.25,"target":"left","response":"left","rt":93.699999988079,"correct":true,"confidence":5},{"trial_n":77,"n_dots":3.25,"target":"right","response":"right","rt":148.59999999404,"correct":true,"confidence":5},{"trial_n":78,"n_dots":3.15,"target":"right","response":"left","rt":54.299999982119,"correct":false,"confidence":5},{"trial_n":79,"n_dots":3.25,"target":"left","response":"left","rt":570.09999999404,"correct":true,"confidence":5},{"trial_n":80,"n_dots":3.25,"target":"left","response":"left","rt":68.299999982119,"correct":true,"confidence":5},{"trial_n":81,"n_dots":3.15,"target":"left","response":"left","rt":302,"correct":true,"confidence":5},{"trial_n":82,"n_dots":3.15,"target":"left","response":"left","rt":200.70000001788,"correct":true,"confidence":5},{"trial_n":83,"n_dots":3.05,"target":"left","response":"left","rt":431,"correct":true,"confidence":5},{"trial_n":84,"n_dots":3.05,"target":"left","response":"left","rt":188.80000001192,"correct":true,"confidence":6},{"trial_n":85,"n_dots":2.95,"target":"right","response":"right","rt":374.70000001788,"correct":true,"confidence":5},{"trial_n":86,"n_dots":2.95,"target":"right","response":"left","rt":140.80000001192,"correct":false,"confidence":5},{"trial_n":87,"n_dots":3.05,"target":"right","response":"right","rt":227.59999999404,"correct":true,"confidence":5},{"trial_n":88,"n_dots":3.05,"target":"right","response":"left","rt":284.90000000596,"correct":false,"confidence":5},{"trial_n":89,"n_dots":3.15,"target":"right","response":"left","rt":370.80000001192,"correct":false,"confidence":4},{"trial_n":90,"n_dots":3.25,"target":"left","response":"left","rt":305.89999997616,"correct":true,"confidence":5},{"trial_n":91,"n_dots":3.25,"target":"left","response":"left","rt":896.39999997616,"correct":true,"confidence":3},{"trial_n":92,"n_dots":3.15,"target":"left","response":"left","rt":131.29999998212,"correct":true,"confidence":5},{"trial_n":93,"n_dots":3.15,"target":"right","response":"right","rt":216.80000001192,"correct":true,"confidence":3},{"trial_n":94,"n_dots":3.05,"target":"left","response":"right","rt":46.90000000596,"correct":false,"confidence":2},{"trial_n":95,"n_dots":3.15,"target":"right","response":"right","rt":266.29999998212,"correct":true,"confidence":3},{"trial_n":96,"n_dots":3.15,"target":"right","response":"right","rt":298.70000001788,"correct":true,"confidence":4},{"trial_n":97,"n_dots":3.05,"target":"right","response":"left","rt":178.70000001788,"correct":false,"confidence":5},{"trial_n":98,"n_dots":3.15,"target":"left","response":"left","rt":234.09999999404,"correct":true,"confidence":3},{"trial_n":99,"n_dots":3.15,"target":"right","response":"right","rt":319.5,"correct":true,"confidence":6},{"trial_n":100,"n_dots":3.05,"target":"left","response":"left","rt":197.5,"correct":true,"confidence":4},{"trial_n":101,"n_dots":3.05,"target":"left","response":"right","rt":177.5,"correct":false,"confidence":5},{"trial_n":102,"n_dots":3.15,"target":"right","response":"right","rt":316,"correct":true,"confidence":4},{"trial_n":103,"n_dots":3.15,"target":"left","response":"left","rt":268.90000000596,"correct":true,"confidence":4},{"trial_n":104,"n_dots":3.05,"target":"left","response":"left","rt":70.59999999404,"correct":true,"confidence":5},{"trial_n":105,"n_dots":3.05,"target":"left","response":"right","rt":603,"correct":false,"confidence":3},{"trial_n":106,"n_dots":3.15,"target":"left","response":"left","rt":124.59999999404,"correct":true,"confidence":6},{"trial_n":107,"n_dots":3.15,"target":"right","response":"left","rt":251.60000002384,"correct":false,"confidence":3},{"trial_n":108,"n_dots":3.25,"target":"right","response":"right","rt":546.30000001192,"correct":true,"confidence":5},{"trial_n":109,"n_dots":3.25,"target":"left","response":"left","rt":93.90000000596,"correct":true,"confidence":5},{"trial_n":110,"n_dots":3.15,"target":"left","response":"left","rt":223,"correct":true,"confidence":5},{"trial_n":111,"n_dots":3.15,"target":"right","response":"right","rt":308.69999998808,"correct":true,"confidence":5},{"trial_n":112,"n_dots":3.05,"target":"right","response":"left","rt":287.19999998808,"correct":false,"confidence":2},{"trial_n":113,"n_dots":3.15,"target":"right","response":"right","rt":275.59999999404,"correct":true,"confidence":5},{"trial_n":114,"n_dots":3.15,"target":"right","response":"right","rt":421.40000000596,"correct":true,"confidence":5},{"trial_n":115,"n_dots":3.05,"target":"left","response":"left","rt":183.5,"correct":true,"confidence":5},{"trial_n":116,"n_dots":3.05,"target":"right","response":"left","rt":447.59999999404,"correct":false,"confidence":4},{"trial_n":117,"n_dots":3.15,"target":"right","response":"right","rt":296.40000000596,"correct":true,"confidence":5},{"trial_n":118,"n_dots":3.15,"target":"left","response":"left","rt":157.19999998808,"correct":true,"confidence":5},{"trial_n":119,"n_dots":3.05,"target":"left","response":"left","rt":377.19999998808,"correct":true,"confidence":5},{"trial_n":120,"n_dots":3.05,"target":"left","response":"left","rt":499.5,"correct":true,"confidence":5},{"trial_n":121,"n_dots":2.95,"target":"right","response":"right","rt":713.19999998808,"correct":true,"confidence":3},{"trial_n":122,"n_dots":2.95,"target":"right","response":"right","rt":351.29999998212,"correct":true,"confidence":5},{"trial_n":123,"n_dots":2.85,"target":"left","response":"left","rt":209.19999998808,"correct":true,"confidence":6},{"trial_n":124,"n_dots":2.85,"target":"left","response":"right","rt":635.69999998808,"correct":false,"confidence":2},{"trial_n":125,"n_dots":2.95,"target":"left","response":"left","rt":338.69999998808,"correct":true,"confidence":5},{"trial_n":126,"n_dots":2.95,"target":"left","response":"right","rt":411.40000000596,"correct":false,"confidence":4},{"trial_n":127,"n_dots":3.05,"target":"right","response":"right","rt":474.79999998212,"correct":true,"confidence":3},{"trial_n":128,"n_dots":3.05,"target":"left","response":"left","rt":494.09999999404,"correct":true,"confidence":4},{"trial_n":129,"n_dots":2.95,"target":"left","response":"left","rt":261.40000000596,"correct":true,"confidence":3},{"trial_n":130,"n_dots":2.95,"target":"right","response":"right","rt":491.5,"correct":true,"confidence":4},{"trial_n":131,"n_dots":2.85,"target":"right","response":"left","rt":340.39999997616,"correct":false,"confidence":4},{"trial_n":132,"n_dots":2.95,"target":"right","response":"right","rt":829.59999999404,"correct":true,"confidence":4},{"trial_n":133,"n_dots":2.95,"target":"left","response":"left","rt":149.19999998808,"correct":true,"confidence":4},{"trial_n":134,"n_dots":2.85,"target":"left","response":"left","rt":381.29999998212,"correct":true,"confidence":3},{"trial_n":135,"n_dots":2.85,"target":"right","response":"left","rt":464.29999998212,"correct":false,"confidence":4},{"trial_n":136,"n_dots":2.95,"target":"left","response":"left","rt":369,"correct":true,"confidence":5},{"trial_n":137,"n_dots":2.95,"target":"left","response":"left","rt":200.29999998212,"correct":true,"confidence":6},{"trial_n":138,"n_dots":2.85,"target":"left","response":"left","rt":212.69999998808,"correct":true,"confidence":6},{"trial_n":139,"n_dots":2.85,"target":"right","response":"right","rt":377.29999998212,"correct":true,"confidence":5},{"trial_n":140,"n_dots":2.75,"target":"right","response":"right","rt":244,"correct":true,"confidence":3},{"trial_n":141,"n_dots":2.75,"target":"left","response":"left","rt":168.19999998808,"correct":true,"confidence":6},{"trial_n":142,"n_dots":2.65,"target":"right","response":"right","rt":104.19999998808,"correct":true,"confidence":6},{"trial_n":143,"n_dots":2.65,"target":"right","response":"left","rt":166.19999998808,"correct":false,"confidence":5},{"trial_n":144,"n_dots":2.75,"target":"right","response":"left","rt":190.09999999404,"correct":false,"confidence":5},{"trial_n":145,"n_dots":2.85,"target":"left","response":"left","rt":239.59999999404,"correct":true,"confidence":6},{"trial_n":146,"n_dots":2.85,"target":"right","response":"right","rt":295.90000000596,"correct":true,"confidence":5},{"trial_n":147,"n_dots":2.75,"target":"right","response":"left","rt":54.300000011921,"correct":false,"confidence":6},{"trial_n":148,"n_dots":2.85,"target":"left","response":"left","rt":180.29999998212,"correct":true,"confidence":5},{"trial_n":149,"n_dots":2.85,"target":"right","response":"left","rt":288.19999998808,"correct":false,"confidence":6},{"trial_n":150,"n_dots":2.95,"target":"left","response":"left","rt":70.90000000596,"correct":true,"confidence":6},{"trial_n":151,"n_dots":2.95,"target":"right","response":"left","rt":118.09999999404,"correct":false,"confidence":6},{"trial_n":152,"n_dots":3.05,"target":"left","response":"left","rt":98,"correct":true,"confidence":6},{"trial_n":153,"n_dots":3.05,"target":"left","response":"left","rt":394.90000000596,"correct":true,"confidence":5},{"trial_n":154,"n_dots":2.95,"target":"right","response":"left","rt":131.90000000596,"correct":false,"confidence":3},{"trial_n":155,"n_dots":3.05,"target":"left","response":"left","rt":373.40000000596,"correct":true,"confidence":6},{"trial_n":156,"n_dots":3.05,"target":"left","response":"left","rt":214.09999999404,"correct":true,"confidence":6},{"trial_n":157,"n_dots":2.95,"target":"right","response":"left","rt":275.59999999404,"correct":false,"confidence":5},{"trial_n":158,"n_dots":3.05,"target":"right","response":"right","rt":198,"correct":true,"confidence":4},{"trial_n":159,"n_dots":3.05,"target":"left","response":"left","rt":110.60000002384,"correct":true,"confidence":5},{"trial_n":160,"n_dots":2.95,"target":"right","response":"right","rt":319.10000002384,"correct":true,"confidence":3},{"trial_n":161,"n_dots":2.95,"target":"right","response":"right","rt":352,"correct":true,"confidence":4},{"trial_n":162,"n_dots":2.85,"target":"left","response":"left","rt":128.20000001788,"correct":true,"confidence":4},{"trial_n":163,"n_dots":2.85,"target":"left","response":"left","rt":835.30000001192,"correct":true,"confidence":3},{"trial_n":164,"n_dots":2.75,"target":"left","response":"left","rt":514.09999999404,"correct":true,"confidence":5},{"trial_n":165,"n_dots":2.75,"target":"right","response":"left","rt":405.40000000596,"correct":false,"confidence":4},{"trial_n":166,"n_dots":2.85,"target":"right","response":"right","rt":293.70000001788,"correct":true,"confidence":4},{"trial_n":167,"n_dots":2.85,"target":"left","response":"right","rt":233.90000000596,"correct":false,"confidence":3},{"trial_n":168,"n_dots":2.95,"target":"left","response":"right","rt":233.40000000596,"correct":false,"confidence":5},{"trial_n":169,"n_dots":3.05,"target":"right","response":"left","rt":272.30000001192,"correct":false,"confidence":5},{"trial_n":170,"n_dots":3.15,"target":"right","response":"right","rt":6.0999999940395,"correct":true,"confidence":6},{"trial_n":171,"n_dots":3.15,"target":"right","response":"left","rt":163.30000001192,"correct":false,"confidence":6},{"trial_n":172,"n_dots":3.25,"target":"left","response":"left","rt":490.70000001788,"correct":true,"confidence":6},{"trial_n":173,"n_dots":3.25,"target":"right","response":"right","rt":286.40000000596,"correct":true,"confidence":3},{"trial_n":174,"n_dots":3.15,"target":"right","response":"left","rt":513.30000001192,"correct":false,"confidence":3},{"trial_n":175,"n_dots":3.25,"target":"right","response":"right","rt":411.19999998808,"correct":true,"confidence":4},{"trial_n":176,"n_dots":3.25,"target":"left","response":"left","rt":119.40000000596,"correct":true,"confidence":6},{"trial_n":177,"n_dots":3.15,"target":"right","response":"right","rt":241.20000001788,"correct":true,"confidence":6},{"trial_n":178,"n_dots":3.15,"target":"left","response":"left","rt":111.09999999404,"correct":true,"confidence":6},{"trial_n":179,"n_dots":3.05,"target":"right","response":"right","rt":169.69999998808,"correct":true,"confidence":6},{"trial_n":180,"n_dots":3.05,"target":"left","response":"right","rt":272.80000001192,"correct":false,"confidence":5},{"trial_n":181,"n_dots":3.15,"target":"left","response":"left","rt":155.90000000596,"correct":true,"confidence":5},{"trial_n":182,"n_dots":3.15,"target":"right","response":"left","rt":192.40000000596,"correct":false,"confidence":3},{"trial_n":183,"n_dots":3.25,"target":"left","response":"left","rt":57.300000011921,"correct":true,"confidence":6},{"trial_n":184,"n_dots":3.25,"target":"right","response":"left","rt":110.79999998212,"correct":false,"confidence":5},{"trial_n":185,"n_dots":3.35,"target":"right","response":"left","rt":174.09999999404,"correct":false,"confidence":3},{"trial_n":186,"n_dots":3.45,"target":"left","response":"left","rt":302.20000001788,"correct":true,"confidence":6},{"trial_n":187,"n_dots":3.45,"target":"right","response":"right","rt":221.59999999404,"correct":true,"confidence":5},{"trial_n":188,"n_dots":3.35,"target":"right","response":"left","rt":325.19999998808,"correct":false,"confidence":5},{"trial_n":189,"n_dots":3.45,"target":"right","response":"right","rt":34.40000000596,"correct":true,"confidence":5},{"trial_n":190,"n_dots":3.45,"target":"right","response":"left","rt":274.5,"correct":false,"confidence":5},{"trial_n":191,"n_dots":3.55,"target":"left","response":"left","rt":598.29999998212,"correct":true,"confidence":5},{"trial_n":192,"n_dots":3.55,"target":"right","response":"right","rt":88.59999999404,"correct":true,"confidence":5},{"trial_n":193,"n_dots":3.45,"target":"right","response":"right","rt":279.69999998808,"correct":true,"confidence":4},{"trial_n":194,"n_dots":3.45,"target":"left","response":"left","rt":72.5,"correct":true,"confidence":5}]