[{"trial_n":1,"n_dots":4.25,"target":"left","response":"left","rt":7939.1999999993,"correct":true,"confidence":-1},{"trial_n":2,"n_dots":4.25,"target":"right","response":"right","rt":726.59999999963,"correct":true,"confidence":-1},{"trial_n":3,"n_dots":3.85,"target":"right","response":"right","rt":989.59999999963,"correct":true,"confidence":-1},{"trial_n":4,"n_dots":3.85,"target":"right","response":"right","rt":582.19999999925,"correct":true,"confidence":-1},{"trial_n":5,"n_dots":3.45,"target":"left","response":"left","rt":536.89999999851,"correct":true,"confidence":-1},{"trial_n":6,"n_dots":3.45,"target":"right","response":"left","rt":544.30000000075,"correct":false,"confidence":-1},{"trial_n":7,"n_dots":3.85,"target":"left","response":"left","rt":376.40000000037,"correct":true,"confidence":-1},{"trial_n":8,"n_dots":3.85,"target":"left","response":"right","rt":344.09999999963,"correct":false,"confidence":-1},{"trial_n":9,"n_dots":4.05,"target":"right","response":"right","rt":375,"correct":true,"confidence":-1},{"trial_n":10,"n_dots":4.05,"target":"left","response":"left","rt":474.30000000075,"correct":true,"confidence":-1},{"trial_n":11,"n_dots":3.85,"target":"left","response":"left","rt":384.59999999963,"correct":true,"confidence":-1},{"trial_n":12,"n_dots":3.85,"target":"left","response":"left","rt":346.80000000075,"correct":true,"confidence":-1},{"trial_n":13,"n_dots":3.75,"target":"right","response":"right","rt":213,"correct":true,"confidence":-1},{"trial_n":14,"n_dots":3.75,"target":"right","response":"right","rt":260.80000000075,"correct":true,"confidence":-1},{"trial_n":15,"n_dots":3.65,"target":"right","response":"right","rt":194.90000000037,"correct":true,"confidence":-1},{"trial_n":16,"n_dots":3.65,"target":"right","response":"right","rt":328.40000000037,"correct":true,"confidence":-1},{"trial_n":17,"n_dots":3.55,"target":"left","response":"left","rt":336.69999999925,"correct":true,"confidence":-1},{"trial_n":18,"n_dots":3.55,"target":"right","response":"right","rt":221.70000000112,"correct":true,"confidence":-1},{"trial_n":19,"n_dots":3.45,"target":"right","response":"right","rt":342.5,"correct":true,"confidence":-1},{"trial_n":20,"n_dots":3.45,"target":"right","response":"right","rt":77.199999999255,"correct":true,"confidence":-1},{"trial_n":21,"n_dots":3.35,"target":"left","response":"right","rt":359.80000000075,"correct":false,"confidence":-1},{"trial_n":22,"n_dots":3.45,"target":"left","response":"left","rt":415.09999999963,"correct":true,"confidence":-1},{"trial_n":23,"n_dots":3.45,"target":"right","response":"right","rt":324,"correct":true,"confidence":-1},{"trial_n":24,"n_dots":3.35,"target":"right","response":"right","rt":357.09999999963,"correct":true,"confidence":-1},{"trial_n":25,"n_dots":3.35,"target":"right","response":"right","rt":357.40000000037,"correct":true,"confidence":-1},{"trial_n":26,"n_dots":3.25,"target":"right","response":"right","rt":324.59999999963,"correct":true,"confidence":-1},{"trial_n":27,"n_dots":3.25,"target":"left","response":"left","rt":406.80000000075,"correct":true,"confidence":4},{"trial_n":28,"n_dots":3.15,"target":"left","response":"left","rt":442.19999999925,"correct":true,"confidence":1},{"trial_n":29,"n_dots":3.15,"target":"right","response":"right","rt":329.30000000075,"correct":true,"confidence":6},{"trial_n":30,"n_dots":3.05,"target":"right","response":"left","rt":527,"correct":false,"confidence":3},{"trial_n":31,"n_dots":3.15,"target":"left","response":"left","rt":423.69999999925,"correct":true,"confidence":5},{"trial_n":32,"n_dots":3.15,"target":"left","response":"right","rt":456.09999999963,"correct":false,"confidence":4},{"trial_n":33,"n_dots":3.25,"target":"left","response":"right","rt":463,"correct":false,"confidence":1},{"trial_n":34,"n_dots":3.35,"target":"left","response":"left","rt":335.09999999963,"correct":true,"confidence":6},{"trial_n":35,"n_dots":3.35,"target":"left","response":"left","rt":394.40000000037,"correct":true,"confidence":6},{"trial_n":36,"n_dots":3.25,"target":"left","response":"left","rt":542.5,"correct":true,"confidence":2},{"trial_n":37,"n_dots":3.25,"target":"left","response":"left","rt":1377.1999999993,"correct":true,"confidence":2},{"trial_n":38,"n_dots":3.15,"target":"left","response":"left","rt":443.70000000112,"correct":true,"confidence":6},{"trial_n":39,"n_dots":3.15,"target":"right","response":"right","rt":522.19999999925,"correct":true,"confidence":1},{"trial_n":40,"n_dots":3.05,"target":"left","response":"left","rt":691.80000000075,"correct":true,"confidence":3},{"trial_n":41,"n_dots":3.05,"target":"right","response":"right","rt":465.29999999888,"correct":true,"confidence":1},{"trial_n":42,"n_dots":2.95,"target":"left","response":"left","rt":515.19999999925,"correct":true,"confidence":4},{"trial_n":43,"n_dots":2.95,"target":"right","response":"right","rt":640.40000000037,"correct":true,"confidence":1},{"trial_n":44,"n_dots":2.85,"target":"left","response":"left","rt":703.30000000075,"correct":true,"confidence":5},{"trial_n":45,"n_dots":2.85,"target":"left","response":"left","rt":455.60000000149,"correct":true,"confidence":1},{"trial_n":46,"n_dots":2.75,"target":"left","response":"right","rt":331.29999999888,"correct":false,"confidence":3},{"trial_n":47,"n_dots":2.85,"target":"right","response":"left","rt":466.09999999963,"correct":false,"confidence":5},{"trial_n":48,"n_dots":2.95,"target":"right","response":"right","rt":327.90000000037,"correct":true,"confidence":6},{"trial_n":49,"n_dots":2.95,"target":"left","response":"left","rt":345.90000000037,"correct":true,"confidence":4},{"trial_n":50,"n_dots":2.85,"target":"right","response":"right","rt":332.40000000037,"correct":true,"confidence":6},{"trial_n":51,"n_dots":2.85,"target":"left","response":"left","rt":440.10000000149,"correct":true,"confidence":1},{"trial_n":52,"n_dots":2.75,"target":"right","response":"right","rt":424.69999999925,"correct":true,"confidence":3},{"trial_n":53,"n_dots":2.75,"target":"left","response":"left","rt":475.5,"correct":true,"confidence":2},{"trial_n":54,"n_dots":2.65,"target":"left","response":"left","rt":498.5,"correct":true,"confidence":1},{"trial_n":55,"n_dots":2.65,"target":"right","response":"right","rt":801.39999999851,"correct":true,"confidence":4},{"trial_n":56,"n_dots":2.55,"target":"left","response":"left","rt":361.79999999888,"correct":true,"confidence":6},{"trial_n":57,"n_dots":2.55,"target":"left","response":"left","rt":593.59999999963,"correct":true,"confidence":6},{"trial_n":58,"n_dots":2.45,"target":"left","response":"left","rt":485.5,"correct":true,"confidence":6},{"trial_n":59,"n_dots":2.45,"target":"left","response":"right","rt":617.40000000037,"correct":false,"confidence":5},{"trial_n":60,"n_dots":2.55,"target":"left","response":"left","rt":689.09999999963,"correct":true,"confidence":1},{"trial_n":61,"n_dots":2.55,"target":"left","response":"left","rt":524.90000000037,"correct":true,"confidence":2},{"trial_n":62,"n_dots":2.45,"target":"right","response":"right","rt":765,"correct":true,"confidence":1},{"trial_n":63,"n_dots":2.45,"target":"right","response":"right","rt":1297.0999999996,"correct":true,"confidence":1},{"trial_n":64,"n_dots":2.35,"target":"right","response":"left","rt":587.5,"correct":false,"confidence":3},{"trial_n":65,"n_dots":2.45,"target":"left","response":"left","rt":499.90000000037,"correct":true,"confidence":4},{"trial_n":66,"n_dots":2.45,"target":"left","response":"left","rt":491.40000000037,"correct":true,"confidence":1},{"trial_n":67,"n_dots":2.35,"target":"left","response":"left","rt":606.40000000037,"correct":true,"confidence":4},{"trial_n":68,"n_dots":2.35,"target":"right","response":"right","rt":1283.6999999993,"correct":true,"confidence":1},{"trial_n":69,"n_dots":2.25,"target":"left","response":"left","rt":600.69999999925,"correct":true,"confidence":1},{"trial_n":70,"n_dots":2.25,"target":"right","response":"left","rt":891.30000000075,"correct":false,"confidence":3},{"trial_n":71,"n_dots":2.35,"target":"left","response":"left","rt":558.19999999925,"correct":true,"confidence":6},{"trial_n":72,"n_dots":2.35,"target":"right","response":"right","rt":915.19999999925,"correct":true,"confidence":6},{"trial_n":73,"n_dots":2.25,"target":"left","response":"right","rt":619.30000000075,"correct":false,"confidence":6},{"trial_n":74,"n_dots":2.35,"target":"right","response":"left","rt":962.59999999963,"correct":false,"confidence":6},{"trial_n":75,"n_dots":2.45,"target":"right","response":"right","rt":373.80000000075,"correct":true,"confidence":6},{"trial_n":76,"n_dots":2.45,"target":"left","response":"right","rt":499.5,"correct":false,"confidence":3},{"trial_n":77,"n_dots":2.55,"target":"right","response":"right","rt":784.40000000037,"correct":true,"confidence":1},{"trial_n":78,"n_dots":2.55,"target":"left","response":"right","rt":1536.0999999996,"correct":false,"confidence":1},{"trial_n":79,"n_dots":2.65,"target":"right","response":"right","rt":548,"correct":true,"confidence":6},{"trial_n":80,"n_dots":2.65,"target":"left","response":"right","rt":425.90000000037,"correct":false,"confidence":1},{"trial_n":81,"n_dots":2.75,"target":"left","response":"left","rt":496.80000000075,"correct":true,"confidence":6},{"trial_n":82,"n_dots":2.75,"target":"left","response":"left","rt":672.09999999963,"correct":true,"confidence":3},{"trial_n":83,"n_dots":2.65,"target":"right","response":"left","rt":699.59999999963,"correct":false,"confidence":1},{"trial_n":84,"n_dots":2.75,"target":"left","response":"right","rt":557.90000000037,"correct":false,"confidence":6},{"trial_n":85,"n_dots":2.85,"target":"right","response":"right","rt":385.20000000112,"correct":true,"confidence":6},{"trial_n":86,"n_dots":2.85,"target":"left","response":"right","rt":856.90000000037,"correct":false,"confidence":3},{"trial_n":87,"n_dots":2.95,"target":"right","response":"right","rt":990.30000000075,"correct":true,"confidence":4},{"trial_n":88,"n_dots":2.95,"target":"right","response":"left","rt":786.80000000075,"correct":false,"confidence":4},{"trial_n":89,"n_dots":3.05,"target":"right","response":"left","rt":506.19999999925,"correct":false,"confidence":1},{"trial_n":90,"n_dots":3.15,"target":"right","response":"right","rt":589.20000000112,"correct":true,"confidence":6},{"trial_n":91,"n_dots":3.15,"target":"left","response":"left","rt":430.40000000037,"correct":true,"confidence":6},{"trial_n":92,"n_dots":3.05,"target":"right","response":"right","rt":536.59999999963,"correct":true,"confidence":6},{"trial_n":93,"n_dots":3.05,"target":"left","response":"left","rt":438.80000000075,"correct":true,"confidence":1},{"trial_n":94,"n_dots":2.95,"target":"right","response":"left","rt":563.80000000075,"correct":false,"confidence":3},{"trial_n":95,"n_dots":3.05,"target":"left","response":"left","rt":519.5,"correct":true,"confidence":4},{"trial_n":96,"n_dots":3.05,"target":"right","response":"right","rt":407.30000000075,"correct":true,"confidence":5},{"trial_n":97,"n_dots":2.95,"target":"right","response":"right","rt":330.40000000037,"correct":true,"confidence":6},{"trial_n":98,"n_dots":2.95,"target":"right","response":"right","rt":453.80000000075,"correct":true,"confidence":1},{"trial_n":99,"n_dots":2.85,"target":"right","response":"left","rt":881.20000000112,"correct":false,"confidence":1},{"trial_n":100,"n_dots":2.95,"target":"left","response":"left","rt":515.40000000037,"correct":true,"confidence":5},{"trial_n":101,"n_dots":2.95,"target":"left","response":"left","rt":468.30000000075,"correct":true,"confidence":1},{"trial_n":102,"n_dots":2.85,"target":"left","response":"right","rt":892.59999999963,"correct":false,"confidence":1},{"trial_n":103,"n_dots":2.95,"target":"right","response":"left","rt":507.5,"correct":false,"confidence":6},{"trial_n":104,"n_dots":3.05,"target":"right","response":"right","rt":552.80000000075,"correct":true,"confidence":1},{"trial_n":105,"n_dots":3.05,"target":"right","response":"right","rt":889.40000000037,"correct":true,"confidence":5},{"trial_n":106,"n_dots":2.95,"target":"right","response":"left","rt":717.70000000112,"correct":false,"confidence":4},{"trial_n":107,"n_dots":3.05,"target":"right","response":"right","rt":345.40000000037,"correct":true,"confidence":6},{"trial_n":108,"n_dots":3.05,"target":"left","response":"left","rt":1055.3000000007,"correct":true,"confidence":3},{"trial_n":109,"n_dots":2.95,"target":"left","response":"left","rt":366.09999999963,"correct":true,"confidence":5},{"trial_n":110,"n_dots":2.95,"target":"left","response":"left","rt":387.19999999925,"correct":true,"confidence":6},{"trial_n":111,"n_dots":2.85,"target":"left","response":"left","rt":333.20000000112,"correct":true,"confidence":6},{"trial_n":112,"n_dots":2.85,"target":"left","response":"right","rt":463,"correct":false,"confidence":6},{"trial_n":113,"n_dots":2.95,"target":"left","response":"left","rt":516.09999999963,"correct":true,"confidence":6},{"trial_n":114,"n_dots":2.95,"target":"right","response":"left","rt":590.70000000112,"correct":false,"confidence":6},{"trial_n":115,"n_dots":3.05,"target":"left","response":"left","rt":455.80000000075,"correct":true,"confidence":5},{"trial_n":116,"n_dots":3.05,"target":"right","response":"right","rt":369.19999999925,"correct":true,"confidence":3},{"trial_n":117,"n_dots":2.95,"target":"right","response":"right","rt":433.30000000075,"correct":true,"confidence":1},{"trial_n":118,"n_dots":2.95,"target":"left","response":"right","rt":453.19999999925,"correct":false,"confidence":1},{"trial_n":119,"n_dots":3.05,"target":"left","response":"left","rt":338.5,"correct":true,"confidence":5},{"trial_n":120,"n_dots":3.05,"target":"left","response":"left","rt":503.09999999963,"correct":true,"confidence":4},{"trial_n":121,"n_dots":2.95,"target":"right","response":"right","rt":337.59999999963,"correct":true,"confidence":5},{"trial_n":122,"n_dots":2.95,"target":"right","response":"left","rt":396.20000000112,"correct":false,"confidence":5},{"trial_n":123,"n_dots":3.05,"target":"right","response":"right","rt":359.69999999925,"correct":true,"confidence":6},{"trial_n":124,"n_dots":3.05,"target":"right","response":"right","rt":374,"correct":true,"confidence":5},{"trial_n":125,"n_dots":2.95,"target":"right","response":"right","rt":363.30000000075,"correct":true,"confidence":6},{"trial_n":126,"n_dots":2.95,"target":"left","response":"left","rt":424.20000000112,"correct":true,"confidence":6},{"trial_n":127,"n_dots":2.85,"target":"right","response":"right","rt":586.5,"correct":true,"confidence":5},{"trial_n":128,"n_dots":2.85,"target":"right","response":"left","rt":896.80000000075,"correct":false,"confidence":1},{"trial_n":129,"n_dots":2.95,"target":"right","response":"right","rt":846.09999999963,"correct":true,"confidence":4},{"trial_n":130,"n_dots":2.95,"target":"left","response":"left","rt":577.19999999925,"correct":true,"confidence":4},{"trial_n":131,"n_dots":2.85,"target":"left","response":"right","rt":555,"correct":false,"confidence":4},{"trial_n":132,"n_dots":2.95,"target":"left","response":"right","rt":724.5,"correct":false,"confidence":4},{"trial_n":133,"n_dots":3.05,"target":"left","response":"left","rt":519.30000000075,"correct":true,"confidence":1},{"trial_n":134,"n_dots":3.05,"target":"left","response":"right","rt":531.40000000037,"correct":false,"confidence":5},{"trial_n":135,"n_dots":3.15,"target":"right","response":"right","rt":505.90000000037,"correct":true,"confidence":5},{"trial_n":136,"n_dots":3.15,"target":"left","response":"left","rt":453,"correct":true,"confidence":5},{"trial_n":137,"n_dots":3.05,"target":"left","response":"left","rt":736.70000000112,"correct":true,"confidence":1},{"trial_n":138,"n_dots":3.05,"target":"left","response":"right","rt":571.59999999963,"correct":false,"confidence":1},{"trial_n":139,"n_dots":3.15,"target":"right","response":"right","rt":492.40000000037,"correct":true,"confidence":3},{"trial_n":140,"n_dots":3.15,"target":"left","response":"left","rt":331.40000000037,"correct":true,"confidence":6},{"trial_n":141,"n_dots":3.05,"target":"right","response":"right","rt":643.30000000075,"correct":true,"confidence":3},{"trial_n":142,"n_dots":3.05,"target":"right","response":"right","rt":655.20000000112,"correct":true,"confidence":4},{"trial_n":143,"n_dots":2.95,"target":"left","response":"left","rt":531.70000000112,"correct":true,"confidence":1},{"trial_n":144,"n_dots":2.95,"target":"right","response":"right","rt":468.5,"correct":true,"confidence":3},{"trial_n":145,"n_dots":2.85,"target":"left","response":"left","rt":438.30000000075,"correct":true,"confidence":6},{"trial_n":146,"n_dots":2.85,"target":"left","response":"left","rt":413.09999999963,"correct":true,"confidence":6},{"trial_n":147,"n_dots":2.75,"target":"right","response":"right","rt":554.59999999963,"correct":true,"confidence":6},{"trial_n":148,"n_dots":2.75,"target":"left","response":"left","rt":312,"correct":true,"confidence":4},{"trial_n":149,"n_dots":2.65,"target":"left","response":"left","rt":601.69999999925,"correct":true,"confidence":1},{"trial_n":150,"n_dots":2.65,"target":"left","response":"left","rt":390.20000000112,"correct":true,"confidence":4},{"trial_n":151,"n_dots":2.55,"target":"right","response":"right","rt":334.09999999963,"correct":true,"confidence":4},{"trial_n":152,"n_dots":2.55,"target":"left","response":"left","rt":789.40000000037,"correct":true,"confidence":1},{"trial_n":153,"n_dots":2.45,"target":"right","response":"right","rt":558,"correct":true,"confidence":4},{"trial_n":154,"n_dots":2.45,"target":"left","response":"left","rt":324.30000000075,"correct":true,"confidence":5},{"trial_n":155,"n_dots":2.35,"target":"left","response":"left","rt":178.30000000075,"correct":true,"confidence":6},{"trial_n":156,"n_dots":2.35,"target":"right","response":"left","rt":889.40000000037,"correct":false,"confidence":2},{"trial_n":157,"n_dots":2.45,"target":"right","response":"left","rt":561.30000000075,"correct":false,"confidence":4},{"trial_n":158,"n_dots":2.55,"target":"left","response":"right","rt":559.90000000037,"correct":false,"confidence":6},{"trial_n":159,"n_dots":2.65,"target":"right","response":"left","rt":1530.0999999996,"correct":false,"confidence":1},{"trial_n":160,"n_dots":2.75,"target":"right","response":"right","rt":965.30000000075,"correct":true,"confidence":5},{"trial_n":161,"n_dots":2.75,"target":"right","response":"left","rt":456.09999999963,"correct":false,"confidence":6},{"trial_n":162,"n_dots":2.85,"target":"right","response":"left","rt":1118,"correct":false,"confidence":1},{"trial_n":163,"n_dots":2.95,"target":"left","response":"right","rt":689.80000000075,"correct":false,"confidence":1},{"trial_n":164,"n_dots":3.05,"target":"right","response":"right","rt":456.40000000037,"correct":true,"confidence":6},{"trial_n":165,"n_dots":3.05,"target":"left","response":"left","rt":447.70000000112,"correct":true,"confidence":3},{"trial_n":166,"n_dots":2.95,"target":"right","response":"left","rt":493.80000000075,"correct":false,"confidence":5},{"trial_n":167,"n_dots":3.05,"target":"right","response":"left","rt":602.09999999963,"correct":false,"confidence":1},{"trial_n":168,"n_dots":3.15,"target":"left","response":"left","rt":410,"correct":true,"confidence":5},{"trial_n":169,"n_dots":3.15,"target":"left","response":"left","rt":513.59999999963,"correct":true,"confidence":5},{"trial_n":170,"n_dots":3.05,"target":"left","response":"left","rt":464.09999999963,"correct":true,"confidence":1},{"trial_n":171,"n_dots":3.05,"target":"right","response":"right","rt":440.20000000112,"correct":true,"confidence":4},{"trial_n":172,"n_dots":2.95,"target":"right","response":"right","rt":916.70000000112,"correct":true,"confidence":1},{"trial_n":173,"n_dots":2.95,"target":"right","response":"right","rt":754.80000000075,"correct":true,"confidence":3},{"trial_n":174,"n_dots":2.85,"target":"right","response":"right","rt":366.39999999851,"correct":true,"confidence":4},{"trial_n":175,"n_dots":2.85,"target":"left","response":"left","rt":545.5,"correct":true,"confidence":1},{"trial_n":176,"n_dots":2.75,"target":"right","response":"left","rt":857.70000000112,"correct":false,"confidence":1},{"trial_n":177,"n_dots":2.85,"target":"right","response":"right","rt":632.20000000112,"correct":true,"confidence":3},{"trial_n":178,"n_dots":2.85,"target":"right","response":"right","rt":668.80000000075,"correct":true,"confidence":1},{"trial_n":179,"n_dots":2.75,"target":"left","response":"left","rt":533.09999999963,"correct":true,"confidence":1},{"trial_n":180,"n_dots":2.75,"target":"right","response":"right","rt":473.30000000075,"correct":true,"confidence":1},{"trial_n":181,"n_dots":2.65,"target":"right","response":"right","rt":549.20000000112,"correct":true,"confidence":1},{"trial_n":182,"n_dots":2.65,"target":"right","response":"right","rt":1049.8000000007,"correct":true,"confidence":1},{"trial_n":183,"n_dots":2.55,"target":"right","response":"right","rt":621,"correct":true,"confidence":3},{"trial_n":184,"n_dots":2.55,"target":"right","response":"left","rt":523.70000000112,"correct":false,"confidence":1},{"trial_n":185,"n_dots":2.65,"target":"right","response":"right","rt":354.90000000037,"correct":true,"confidence":6},{"trial_n":186,"n_dots":2.65,"target":"left","response":"left","rt":486.80000000075,"correct":true,"confidence":6},{"trial_n":187,"n_dots":2.55,"target":"left","response":"left","rt":481.10000000149,"correct":true,"confidence":6},{"trial_n":188,"n_dots":2.55,"target":"left","response":"left","rt":409.5,"correct":true,"confidence":6},{"trial_n":189,"n_dots":2.45,"target":"right","response":"right","rt":640.20000000112,"correct":true,"confidence":6},{"trial_n":190,"n_dots":2.45,"target":"right","response":"right","rt":803.90000000037,"correct":true,"confidence":6},{"trial_n":191,"n_dots":2.35,"target":"left","response":"left","rt":1039.0999999996,"correct":true,"confidence":6},{"trial_n":192,"n_dots":2.35,"target":"left","response":"left","rt":678.39999999851,"correct":true,"confidence":4},{"trial_n":193,"n_dots":2.25,"target":"left","response":"left","rt":220.90000000037,"correct":true,"confidence":5},{"trial_n":194,"n_dots":2.25,"target":"right","response":"right","rt":369.30000000075,"correct":true,"confidence":4}]