[{"trial_n":1,"n_dots":4.25,"target":"left","response":"left","rt":7569.0999999642,"correct":true,"confidence":-1},{"trial_n":2,"n_dots":4.25,"target":"right","response":"right","rt":1837.3000000119,"correct":true,"confidence":-1},{"trial_n":3,"n_dots":3.85,"target":"right","response":"right","rt":1696.3000000119,"correct":true,"confidence":-1},{"trial_n":4,"n_dots":3.85,"target":"left","response":"left","rt":1192.1999999881,"correct":true,"confidence":-1},{"trial_n":5,"n_dots":3.45,"target":"left","response":"right","rt":1108.1999999881,"correct":false,"confidence":-1},{"trial_n":6,"n_dots":3.85,"target":"right","response":"right","rt":734.69999998808,"correct":true,"confidence":-1},{"trial_n":7,"n_dots":3.85,"target":"right","response":"right","rt":575.89999997616,"correct":true,"confidence":-1},{"trial_n":8,"n_dots":3.65,"target":"right","response":"right","rt":686,"correct":true,"confidence":-1},{"trial_n":9,"n_dots":3.65,"target":"left","response":"right","rt":726.90000003576,"correct":false,"confidence":-1},{"trial_n":10,"n_dots":3.85,"target":"right","response":"right","rt":650.40000003576,"correct":true,"confidence":-1},{"trial_n":11,"n_dots":3.85,"target":"left","response":"left","rt":3286.6999999881,"correct":true,"confidence":-1},{"trial_n":12,"n_dots":3.65,"target":"right","response":"right","rt":976.09999996424,"correct":true,"confidence":-1},{"trial_n":13,"n_dots":3.65,"target":"right","response":"right","rt":608.19999998808,"correct":true,"confidence":-1},{"trial_n":14,"n_dots":3.55,"target":"left","response":"left","rt":688.60000002384,"correct":true,"confidence":-1},{"trial_n":15,"n_dots":3.55,"target":"left","response":"left","rt":447.39999997616,"correct":true,"confidence":-1},{"trial_n":16,"n_dots":3.45,"target":"right","response":"left","rt":511.89999997616,"correct":false,"confidence":-1},{"trial_n":17,"n_dots":3.55,"target":"left","response":"left","rt":449.79999995232,"correct":true,"confidence":-1},{"trial_n":18,"n_dots":3.55,"target":"right","response":"right","rt":465.89999997616,"correct":true,"confidence":-1},{"trial_n":19,"n_dots":3.45,"target":"left","response":"right","rt":590.30000001192,"correct":false,"confidence":-1},{"trial_n":20,"n_dots":3.55,"target":"left","response":"left","rt":268.79999995232,"correct":true,"confidence":-1},{"trial_n":21,"n_dots":3.55,"target":"left","response":"left","rt":196.59999996424,"correct":true,"confidence":-1},{"trial_n":22,"n_dots":3.45,"target":"right","response":"right","rt":926.89999997616,"correct":true,"confidence":-1},{"trial_n":23,"n_dots":3.45,"target":"right","response":"right","rt":464.69999998808,"correct":true,"confidence":-1},{"trial_n":24,"n_dots":3.35,"target":"left","response":"right","rt":394.19999998808,"correct":false,"confidence":-1},{"trial_n":25,"n_dots":3.45,"target":"left","response":"left","rt":449.09999996424,"correct":true,"confidence":-1},{"trial_n":26,"n_dots":3.45,"target":"left","response":"left","rt":598.60000002384,"correct":true,"confidence":-1},{"trial_n":27,"n_dots":3.35,"target":"right","response":"right","rt":1504.6999999881,"correct":true,"confidence":3},{"trial_n":28,"n_dots":3.35,"target":"left","response":"left","rt":906,"correct":true,"confidence":4},{"trial_n":29,"n_dots":3.25,"target":"right","response":"right","rt":927,"correct":true,"confidence":5},{"trial_n":30,"n_dots":3.25,"target":"left","response":"right","rt":1191,"correct":false,"confidence":3},{"trial_n":31,"n_dots":3.35,"target":"left","response":"right","rt":1286.1000000238,"correct":false,"confidence":1},{"trial_n":32,"n_dots":3.45,"target":"left","response":"left","rt":917.69999998808,"correct":true,"confidence":4},{"trial_n":33,"n_dots":3.45,"target":"left","response":"right","rt":1399.2000000477,"correct":false,"confidence":3},{"trial_n":34,"n_dots":3.55,"target":"left","response":"left","rt":1066.1999999881,"correct":true,"confidence":5},{"trial_n":35,"n_dots":3.55,"target":"right","response":"right","rt":977.39999997616,"correct":true,"confidence":5},{"trial_n":36,"n_dots":3.45,"target":"left","response":"left","rt":752.69999998808,"correct":true,"confidence":5},{"trial_n":37,"n_dots":3.45,"target":"right","response":"right","rt":858,"correct":true,"confidence":4},{"trial_n":38,"n_dots":3.35,"target":"right","response":"left","rt":5517.8999999762,"correct":false,"confidence":4},{"trial_n":39,"n_dots":3.45,"target":"left","response":"right","rt":1315.1999999881,"correct":false,"confidence":4},{"trial_n":40,"n_dots":3.55,"target":"left","response":"left","rt":1109.2999999523,"correct":true,"confidence":3},{"trial_n":41,"n_dots":3.55,"target":"right","response":"right","rt":684.39999997616,"correct":true,"confidence":5},{"trial_n":42,"n_dots":3.45,"target":"left","response":"left","rt":967.29999995232,"correct":true,"confidence":4},{"trial_n":43,"n_dots":3.45,"target":"left","response":"right","rt":34219.800000012,"correct":false,"confidence":2},{"trial_n":44,"n_dots":3.55,"target":"left","response":"left","rt":11317.199999988,"correct":true,"confidence":1},{"trial_n":45,"n_dots":3.55,"target":"right","response":"right","rt":753.59999996424,"correct":true,"confidence":5},{"trial_n":46,"n_dots":3.45,"target":"left","response":"left","rt":1884.5,"correct":true,"confidence":4},{"trial_n":47,"n_dots":3.45,"target":"left","response":"left","rt":722.30000001192,"correct":true,"confidence":4},{"trial_n":48,"n_dots":3.35,"target":"left","response":"left","rt":650.69999998808,"correct":true,"confidence":3},{"trial_n":49,"n_dots":3.35,"target":"left","response":"left","rt":1023.1999999881,"correct":true,"confidence":1},{"trial_n":50,"n_dots":3.25,"target":"left","response":"left","rt":954.19999998808,"correct":true,"confidence":4},{"trial_n":51,"n_dots":3.25,"target":"right","response":"right","rt":274.19999998808,"correct":true,"confidence":4},{"trial_n":52,"n_dots":3.15,"target":"right","response":"left","rt":1222,"correct":false,"confidence":1},{"trial_n":53,"n_dots":3.25,"target":"left","response":"left","rt":1107.8999999762,"correct":true,"confidence":5},{"trial_n":54,"n_dots":3.25,"target":"left","response":"right","rt":11208.399999976,"correct":false,"confidence":1},{"trial_n":55,"n_dots":3.35,"target":"left","response":"right","rt":770.90000003576,"correct":false,"confidence":1},{"trial_n":56,"n_dots":3.45,"target":"right","response":"right","rt":1138.3999999762,"correct":true,"confidence":2},{"trial_n":57,"n_dots":3.45,"target":"right","response":"left","rt":1142.5,"correct":false,"confidence":2},{"trial_n":58,"n_dots":3.55,"target":"left","response":"right","rt":814.60000002384,"correct":false,"confidence":4},{"trial_n":59,"n_dots":3.65,"target":"right","response":"right","rt":1044.8000000119,"correct":true,"confidence":3},{"trial_n":60,"n_dots":3.65,"target":"left","response":"left","rt":654.5,"correct":true,"confidence":2},{"trial_n":61,"n_dots":3.55,"target":"left","response":"left","rt":1261.4000000358,"correct":true,"confidence":4},{"trial_n":62,"n_dots":3.55,"target":"left","response":"left","rt":2008.8999999762,"correct":true,"confidence":4},{"trial_n":63,"n_dots":3.45,"target":"left","response":"left","rt":1004.3999999762,"correct":true,"confidence":3},{"trial_n":64,"n_dots":3.45,"target":"right","response":"right","rt":637.30000001192,"correct":true,"confidence":4},{"trial_n":65,"n_dots":3.35,"target":"right","response":"right","rt":1079.3000000119,"correct":true,"confidence":4},{"trial_n":66,"n_dots":3.35,"target":"right","response":"right","rt":790.10000002384,"correct":true,"confidence":4},{"trial_n":67,"n_dots":3.25,"target":"right","response":"right","rt":622.40000003576,"correct":true,"confidence":4},{"trial_n":68,"n_dots":3.25,"target":"left","response":"right","rt":873.10000002384,"correct":false,"confidence":1},{"trial_n":69,"n_dots":3.35,"target":"left","response":"left","rt":414.80000001192,"correct":true,"confidence":4},{"trial_n":70,"n_dots":3.35,"target":"right","response":"right","rt":1261.3999999762,"correct":true,"confidence":1},{"trial_n":71,"n_dots":3.25,"target":"left","response":"right","rt":1726,"correct":false,"confidence":1},{"trial_n":72,"n_dots":3.35,"target":"right","response":"left","rt":2699.5,"correct":false,"confidence":1},{"trial_n":73,"n_dots":3.45,"target":"left","response":"left","rt":8190.8000000119,"correct":true,"confidence":1},{"trial_n":74,"n_dots":3.45,"target":"right","response":"left","rt":1071.0999999642,"correct":false,"confidence":1},{"trial_n":75,"n_dots":3.55,"target":"right","response":"left","rt":1214.5,"correct":false,"confidence":1},{"trial_n":76,"n_dots":3.65,"target":"left","response":"right","rt":339.5,"correct":false,"confidence":1},{"trial_n":77,"n_dots":3.75,"target":"right","response":"left","rt":624.29999995232,"correct":false,"confidence":1},{"trial_n":78,"n_dots":3.85,"target":"right","response":"right","rt":1002.1000000238,"correct":true,"confidence":1},{"trial_n":79,"n_dots":3.85,"target":"right","response":"right","rt":351.89999997616,"correct":true,"confidence":3},{"trial_n":80,"n_dots":3.75,"target":"right","response":"right","rt":818.19999998808,"correct":true,"confidence":4},{"trial_n":81,"n_dots":3.75,"target":"right","response":"right","rt":448,"correct":true,"confidence":4},{"trial_n":82,"n_dots":3.65,"target":"right","response":"left","rt":1224.7999999523,"correct":false,"confidence":5},{"trial_n":83,"n_dots":3.75,"target":"left","response":"left","rt":862.40000003576,"correct":true,"confidence":1},{"trial_n":84,"n_dots":3.75,"target":"right","response":"left","rt":882.70000004768,"correct":false,"confidence":4},{"trial_n":85,"n_dots":3.85,"target":"right","response":"right","rt":3745.5999999642,"correct":true,"confidence":4},{"trial_n":86,"n_dots":3.85,"target":"right","response":"left","rt":1732.8000000119,"correct":false,"confidence":5},{"trial_n":87,"n_dots":3.95,"target":"right","response":"right","rt":207.10000002384,"correct":true,"confidence":4},{"trial_n":88,"n_dots":3.95,"target":"left","response":"left","rt":466.90000003576,"correct":true,"confidence":4},{"trial_n":89,"n_dots":3.85,"target":"left","response":"left","rt":928.30000001192,"correct":true,"confidence":4},{"trial_n":90,"n_dots":3.85,"target":"right","response":"left","rt":514.5,"correct":false,"confidence":4},{"trial_n":91,"n_dots":3.95,"target":"right","response":"left","rt":71553.600000024,"correct":false,"confidence":3},{"trial_n":92,"n_dots":4.05,"target":"right","response":"right","rt":719.60000002384,"correct":true,"confidence":4},{"trial_n":93,"n_dots":4.05,"target":"right","response":"right","rt":611.89999997616,"correct":true,"confidence":5},{"trial_n":94,"n_dots":3.95,"target":"right","response":"left","rt":995.5,"correct":false,"confidence":4},{"trial_n":95,"n_dots":4.05,"target":"right","response":"right","rt":1244.3000000119,"correct":true,"confidence":1},{"trial_n":96,"n_dots":4.05,"target":"right","response":"right","rt":259,"correct":true,"confidence":5},{"trial_n":97,"n_dots":3.95,"target":"right","response":"right","rt":99.5,"correct":true,"confidence":6},{"trial_n":98,"n_dots":3.95,"target":"left","response":"left","rt":397.70000004768,"correct":true,"confidence":6},{"trial_n":99,"n_dots":3.85,"target":"right","response":"right","rt":191.39999997616,"correct":true,"confidence":4},{"trial_n":100,"n_dots":3.85,"target":"left","response":"left","rt":671.89999997616,"correct":true,"confidence":6},{"trial_n":101,"n_dots":3.75,"target":"right","response":"right","rt":285.69999998808,"correct":true,"confidence":6},{"trial_n":102,"n_dots":3.75,"target":"right","response":"right","rt":116.59999996424,"correct":true,"confidence":6},{"trial_n":103,"n_dots":3.65,"target":"left","response":"right","rt":2020,"correct":false,"confidence":6},{"trial_n":104,"n_dots":3.75,"target":"left","response":"left","rt":900.80000001192,"correct":true,"confidence":5},{"trial_n":105,"n_dots":3.75,"target":"left","response":"left","rt":390.69999998808,"correct":true,"confidence":6},{"trial_n":106,"n_dots":3.65,"target":"right","response":"left","rt":113.69999998808,"correct":false,"confidence":6},{"trial_n":107,"n_dots":3.75,"target":"right","response":"right","rt":569.40000003576,"correct":true,"confidence":5},{"trial_n":108,"n_dots":3.75,"target":"right","response":"right","rt":875.40000003576,"correct":true,"confidence":6},{"trial_n":109,"n_dots":3.65,"target":"left","response":"left","rt":177.5,"correct":true,"confidence":6},{"trial_n":110,"n_dots":3.65,"target":"left","response":"left","rt":1142.1000000238,"correct":true,"confidence":6},{"trial_n":111,"n_dots":3.55,"target":"left","response":"left","rt":452.80000001192,"correct":true,"confidence":6},{"trial_n":112,"n_dots":3.55,"target":"right","response":"right","rt":253.70000004768,"correct":true,"confidence":1},{"trial_n":113,"n_dots":3.45,"target":"left","response":"left","rt":993.5,"correct":true,"confidence":5},{"trial_n":114,"n_dots":3.45,"target":"right","response":"right","rt":1079.5,"correct":true,"confidence":4},{"trial_n":115,"n_dots":3.35,"target":"right","response":"right","rt":538.40000003576,"correct":true,"confidence":5},{"trial_n":116,"n_dots":3.35,"target":"right","response":"left","rt":554.39999997616,"correct":false,"confidence":4},{"trial_n":117,"n_dots":3.45,"target":"left","response":"left","rt":397.19999998808,"correct":true,"confidence":5},{"trial_n":118,"n_dots":3.45,"target":"right","response":"right","rt":99,"correct":true,"confidence":4},{"trial_n":119,"n_dots":3.35,"target":"right","response":"left","rt":379.5,"correct":false,"confidence":5},{"trial_n":120,"n_dots":3.45,"target":"left","response":"left","rt":696.09999996424,"correct":true,"confidence":5},{"trial_n":121,"n_dots":3.45,"target":"left","response":"left","rt":924.69999998808,"correct":true,"confidence":5},{"trial_n":122,"n_dots":3.35,"target":"left","response":"left","rt":406.60000002384,"correct":true,"confidence":3},{"trial_n":123,"n_dots":3.35,"target":"left","response":"left","rt":320.09999996424,"correct":true,"confidence":5},{"trial_n":124,"n_dots":3.25,"target":"left","response":"left","rt":1066.6000000238,"correct":true,"confidence":5},{"trial_n":125,"n_dots":3.25,"target":"right","response":"right","rt":263.10000002384,"correct":true,"confidence":5},{"trial_n":126,"n_dots":3.15,"target":"left","response":"left","rt":143.80000001192,"correct":true,"confidence":6},{"trial_n":127,"n_dots":3.15,"target":"right","response":"right","rt":458.09999996424,"correct":true,"confidence":4},{"trial_n":128,"n_dots":3.05,"target":"left","response":"left","rt":108.39999997616,"correct":true,"confidence":2},{"trial_n":129,"n_dots":3.05,"target":"left","response":"left","rt":337.69999998808,"correct":true,"confidence":4},{"trial_n":130,"n_dots":2.95,"target":"right","response":"right","rt":257.30000001192,"correct":true,"confidence":4},{"trial_n":131,"n_dots":2.95,"target":"right","response":"left","rt":776,"correct":false,"confidence":1},{"trial_n":132,"n_dots":3.05,"target":"right","response":"right","rt":535.39999997616,"correct":true,"confidence":5},{"trial_n":133,"n_dots":3.05,"target":"left","response":"left","rt":605.59999996424,"correct":true,"confidence":5},{"trial_n":134,"n_dots":2.95,"target":"right","response":"left","rt":958.30000001192,"correct":false,"confidence":4},{"trial_n":135,"n_dots":3.05,"target":"left","response":"right","rt":2262.6999999881,"correct":false,"confidence":4},{"trial_n":136,"n_dots":3.15,"target":"right","response":"right","rt":1683.1999999881,"correct":true,"confidence":5},{"trial_n":137,"n_dots":3.15,"target":"right","response":"right","rt":1331.1999999881,"correct":true,"confidence":5},{"trial_n":138,"n_dots":3.05,"target":"left","response":"left","rt":1903.3000000119,"correct":true,"confidence":3},{"trial_n":139,"n_dots":3.05,"target":"right","response":"left","rt":1896.8000000119,"correct":false,"confidence":5},{"trial_n":140,"n_dots":3.15,"target":"right","response":"right","rt":869,"correct":true,"confidence":3},{"trial_n":141,"n_dots":3.15,"target":"right","response":"left","rt":998.59999996424,"correct":false,"confidence":4},{"trial_n":142,"n_dots":3.25,"target":"left","response":"left","rt":1397.8000000119,"correct":true,"confidence":3},{"trial_n":143,"n_dots":3.25,"target":"right","response":"right","rt":594.10000002384,"correct":true,"confidence":4},{"trial_n":144,"n_dots":3.15,"target":"right","response":"right","rt":276.5,"correct":true,"confidence":4},{"trial_n":145,"n_dots":3.15,"target":"left","response":"right","rt":760.80000001192,"correct":false,"confidence":3},{"trial_n":146,"n_dots":3.25,"target":"left","response":"right","rt":754.29999995232,"correct":false,"confidence":4},{"trial_n":147,"n_dots":3.35,"target":"right","response":"right","rt":1001.7999999523,"correct":true,"confidence":1},{"trial_n":148,"n_dots":3.35,"target":"left","response":"left","rt":838.80000001192,"correct":true,"confidence":5},{"trial_n":149,"n_dots":3.25,"target":"left","response":"left","rt":574.19999998808,"correct":true,"confidence":4},{"trial_n":150,"n_dots":3.25,"target":"right","response":"right","rt":439.59999996424,"correct":true,"confidence":4},{"trial_n":151,"n_dots":3.15,"target":"left","response":"right","rt":421.79999995232,"correct":false,"confidence":1},{"trial_n":152,"n_dots":3.25,"target":"left","response":"left","rt":414.40000003576,"correct":true,"confidence":3},{"trial_n":153,"n_dots":3.25,"target":"left","response":"left","rt":399.90000003576,"correct":true,"confidence":3},{"trial_n":154,"n_dots":3.15,"target":"left","response":"right","rt":540.39999997616,"correct":false,"confidence":4},{"trial_n":155,"n_dots":3.25,"target":"left","response":"left","rt":1469.0999999642,"correct":true,"confidence":2},{"trial_n":156,"n_dots":3.25,"target":"left","response":"left","rt":695.5,"correct":true,"confidence":4},{"trial_n":157,"n_dots":3.15,"target":"right","response":"right","rt":398.80000001192,"correct":true,"confidence":3},{"trial_n":158,"n_dots":3.15,"target":"right","response":"right","rt":340.89999997616,"correct":true,"confidence":4},{"trial_n":159,"n_dots":3.05,"target":"right","response":"right","rt":277.5,"correct":true,"confidence":4},{"trial_n":160,"n_dots":3.05,"target":"left","response":"left","rt":626.09999996424,"correct":true,"confidence":6},{"trial_n":161,"n_dots":2.95,"target":"left","response":"left","rt":1227.6999999881,"correct":true,"confidence":4},{"trial_n":162,"n_dots":2.95,"target":"right","response":"right","rt":350.90000003576,"correct":true,"confidence":3},{"trial_n":163,"n_dots":2.85,"target":"right","response":"right","rt":720.69999998808,"correct":true,"confidence":5},{"trial_n":164,"n_dots":2.85,"target":"right","response":"right","rt":1162.3999999762,"correct":true,"confidence":5},{"trial_n":165,"n_dots":2.75,"target":"left","response":"right","rt":7374.6999999881,"correct":false,"confidence":1},{"trial_n":166,"n_dots":2.85,"target":"right","response":"right","rt":614.59999996424,"correct":true,"confidence":4},{"trial_n":167,"n_dots":2.85,"target":"left","response":"left","rt":1574.1000000238,"correct":true,"confidence":5},{"trial_n":168,"n_dots":2.75,"target":"left","response":"right","rt":558.5,"correct":false,"confidence":5},{"trial_n":169,"n_dots":2.85,"target":"right","response":"right","rt":217424.5,"correct":true,"confidence":1},{"trial_n":170,"n_dots":2.85,"target":"right","response":"right","rt":621.89999997616,"correct":true,"confidence":3},{"trial_n":171,"n_dots":2.75,"target":"left","response":"left","rt":818.20000004768,"correct":true,"confidence":4},{"trial_n":172,"n_dots":2.75,"target":"right","response":"right","rt":1113.1000000238,"correct":true,"confidence":5},{"trial_n":173,"n_dots":2.65,"target":"right","response":"left","rt":523.19999998808,"correct":false,"confidence":4},{"trial_n":174,"n_dots":2.75,"target":"left","response":"left","rt":1173.3000000119,"correct":true,"confidence":3},{"trial_n":175,"n_dots":2.75,"target":"left","response":"left","rt":554.90000003576,"correct":true,"confidence":5},{"trial_n":176,"n_dots":2.65,"target":"left","response":"left","rt":614.40000003576,"correct":true,"confidence":4},{"trial_n":177,"n_dots":2.65,"target":"right","response":"right","rt":213.39999997616,"correct":true,"confidence":4},{"trial_n":178,"n_dots":2.55,"target":"right","response":"right","rt":1023.5,"correct":true,"confidence":5},{"trial_n":179,"n_dots":2.55,"target":"left","response":"left","rt":524.60000002384,"correct":true,"confidence":4},{"trial_n":180,"n_dots":2.45,"target":"right","response":"right","rt":305,"correct":true,"confidence":5},{"trial_n":181,"n_dots":2.45,"target":"right","response":"left","rt":592.89999997616,"correct":false,"confidence":4},{"trial_n":182,"n_dots":2.55,"target":"right","response":"right","rt":756.89999997616,"correct":true,"confidence":1},{"trial_n":183,"n_dots":2.55,"target":"left","response":"left","rt":457.30000001192,"correct":true,"confidence":3},{"trial_n":184,"n_dots":2.45,"target":"left","response":"left","rt":1276.1999999881,"correct":true,"confidence":4},{"trial_n":185,"n_dots":2.45,"target":"right","response":"left","rt":508.80000001192,"correct":false,"confidence":3},{"trial_n":186,"n_dots":2.55,"target":"left","response":"left","rt":1116,"correct":true,"confidence":4},{"trial_n":187,"n_dots":2.55,"target":"left","response":"left","rt":503.80000001192,"correct":true,"confidence":4},{"trial_n":188,"n_dots":2.45,"target":"left","response":"left","rt":535.5,"correct":true,"confidence":3},{"trial_n":189,"n_dots":2.45,"target":"right","response":"left","rt":1099.3999999762,"correct":false,"confidence":5},{"trial_n":190,"n_dots":2.55,"target":"left","response":"left","rt":900.19999998808,"correct":true,"confidence":5},{"trial_n":191,"n_dots":2.55,"target":"left","response":"left","rt":443.5,"correct":true,"confidence":5},{"trial_n":192,"n_dots":2.45,"target":"left","response":"left","rt":381,"correct":true,"confidence":1},{"trial_n":193,"n_dots":2.45,"target":"right","response":"right","rt":1509,"correct":true,"confidence":1},{"trial_n":194,"n_dots":2.35,"target":"right","response":"right","rt":1520.4000000358,"correct":true,"confidence":1}]