[{"trial_n":1,"n_dots":4.25,"target":"left","response":"right","rt":6842.2999999523,"correct":false,"confidence":-1},{"trial_n":2,"n_dots":4.25,"target":"right","response":"right","rt":1268.3000000715,"correct":true,"confidence":-1},{"trial_n":3,"n_dots":4.25,"target":"left","response":"left","rt":1140.1000000238,"correct":true,"confidence":-1},{"trial_n":4,"n_dots":3.85,"target":"left","response":"right","rt":1152.2999999523,"correct":false,"confidence":-1},{"trial_n":5,"n_dots":4.25,"target":"left","response":"left","rt":1095.7000000477,"correct":true,"confidence":-1},{"trial_n":6,"n_dots":4.25,"target":"right","response":"right","rt":822.80000007153,"correct":true,"confidence":-1},{"trial_n":7,"n_dots":3.85,"target":"left","response":"left","rt":1191,"correct":true,"confidence":-1},{"trial_n":8,"n_dots":3.85,"target":"left","response":"right","rt":1525.5,"correct":false,"confidence":-1},{"trial_n":9,"n_dots":4.05,"target":"right","response":"left","rt":718.69999992847,"correct":false,"confidence":-1},{"trial_n":10,"n_dots":4.25,"target":"right","response":"right","rt":977.60000002384,"correct":true,"confidence":-1},{"trial_n":11,"n_dots":4.25,"target":"right","response":"right","rt":697.10000002384,"correct":true,"confidence":-1},{"trial_n":12,"n_dots":4.05,"target":"left","response":"right","rt":770.5,"correct":false,"confidence":-1},{"trial_n":13,"n_dots":4.15,"target":"right","response":"left","rt":798.90000009537,"correct":false,"confidence":-1},{"trial_n":14,"n_dots":4.25,"target":"right","response":"right","rt":849.29999995232,"correct":true,"confidence":-1},{"trial_n":15,"n_dots":4.25,"target":"left","response":"right","rt":4407.2000000477,"correct":false,"confidence":-1},{"trial_n":16,"n_dots":4.35,"target":"left","response":"left","rt":1635.6999999285,"correct":true,"confidence":-1},{"trial_n":17,"n_dots":4.35,"target":"left","response":"left","rt":850.60000002384,"correct":true,"confidence":-1},{"trial_n":18,"n_dots":4.25,"target":"right","response":"left","rt":1002.2999999523,"correct":false,"confidence":-1},{"trial_n":19,"n_dots":4.35,"target":"right","response":"right","rt":806.29999995232,"correct":true,"confidence":-1},{"trial_n":20,"n_dots":4.35,"target":"right","response":"right","rt":1239.3999999762,"correct":true,"confidence":-1},{"trial_n":21,"n_dots":4.25,"target":"left","response":"right","rt":4355.2999999523,"correct":false,"confidence":-1},{"trial_n":22,"n_dots":4.35,"target":"left","response":"left","rt":1126.5,"correct":true,"confidence":-1},{"trial_n":23,"n_dots":4.35,"target":"right","response":"right","rt":813.70000004768,"correct":true,"confidence":-1},{"trial_n":24,"n_dots":4.25,"target":"left","response":"left","rt":853,"correct":true,"confidence":-1},{"trial_n":25,"n_dots":4.25,"target":"left","response":"left","rt":884.60000002384,"correct":true,"confidence":-1},{"trial_n":26,"n_dots":4.15,"target":"right","response":"left","rt":836.79999995232,"correct":false,"confidence":-1},{"trial_n":27,"n_dots":4.25,"target":"right","response":"right","rt":589.70000004768,"correct":true,"confidence":3},{"trial_n":28,"n_dots":4.25,"target":"right","response":"right","rt":1202.5,"correct":true,"confidence":4},{"trial_n":29,"n_dots":4.15,"target":"left","response":"left","rt":1442.8999999762,"correct":true,"confidence":4},{"trial_n":30,"n_dots":4.15,"target":"left","response":"right","rt":1709,"correct":false,"confidence":2},{"trial_n":31,"n_dots":4.25,"target":"right","response":"left","rt":2319.1000000238,"correct":false,"confidence":2},{"trial_n":32,"n_dots":4.35,"target":"right","response":"right","rt":1890.1000000238,"correct":true,"confidence":3},{"trial_n":33,"n_dots":4.35,"target":"left","response":"left","rt":1311.2000000477,"correct":true,"confidence":4},{"trial_n":34,"n_dots":4.25,"target":"left","response":"left","rt":1176.7000000477,"correct":true,"confidence":5},{"trial_n":35,"n_dots":4.25,"target":"right","response":"right","rt":904.10000002384,"correct":true,"confidence":4},{"trial_n":36,"n_dots":4.15,"target":"right","response":"right","rt":1635.6000000238,"correct":true,"confidence":3},{"trial_n":37,"n_dots":4.15,"target":"left","response":"left","rt":812.70000004768,"correct":true,"confidence":5},{"trial_n":38,"n_dots":4.05,"target":"right","response":"right","rt":862.09999990463,"correct":true,"confidence":4},{"trial_n":39,"n_dots":4.05,"target":"right","response":"right","rt":959.5,"correct":true,"confidence":4},{"trial_n":40,"n_dots":3.95,"target":"right","response":"right","rt":907.89999997616,"correct":true,"confidence":4},{"trial_n":41,"n_dots":3.95,"target":"right","response":"right","rt":1219.6999999285,"correct":true,"confidence":2},{"trial_n":42,"n_dots":3.85,"target":"right","response":"right","rt":1107.1999999285,"correct":true,"confidence":2},{"trial_n":43,"n_dots":3.85,"target":"right","response":"left","rt":1747,"correct":false,"confidence":1},{"trial_n":44,"n_dots":3.95,"target":"left","response":"left","rt":1067.2000000477,"correct":true,"confidence":2},{"trial_n":45,"n_dots":3.95,"target":"left","response":"right","rt":2266,"correct":false,"confidence":1},{"trial_n":46,"n_dots":4.05,"target":"left","response":"left","rt":1356.7000000477,"correct":true,"confidence":2},{"trial_n":47,"n_dots":4.05,"target":"right","response":"right","rt":1647.8999999762,"correct":true,"confidence":2},{"trial_n":48,"n_dots":3.95,"target":"right","response":"right","rt":2329.1000000238,"correct":true,"confidence":1},{"trial_n":49,"n_dots":3.95,"target":"right","response":"right","rt":1264,"correct":true,"confidence":2},{"trial_n":50,"n_dots":3.85,"target":"left","response":"left","rt":860.39999997616,"correct":true,"confidence":3},{"trial_n":51,"n_dots":3.85,"target":"right","response":"right","rt":1098.2999999523,"correct":true,"confidence":2},{"trial_n":52,"n_dots":3.75,"target":"right","response":"right","rt":1963.8999999762,"correct":true,"confidence":2},{"trial_n":53,"n_dots":3.75,"target":"left","response":"left","rt":2895.2999999523,"correct":true,"confidence":2},{"trial_n":54,"n_dots":3.65,"target":"right","response":"right","rt":1432.2000000477,"correct":true,"confidence":1},{"trial_n":55,"n_dots":3.65,"target":"right","response":"right","rt":1511.8999999762,"correct":true,"confidence":1},{"trial_n":56,"n_dots":3.55,"target":"left","response":"left","rt":1556.5,"correct":true,"confidence":1},{"trial_n":57,"n_dots":3.55,"target":"right","response":"left","rt":2172.2000000477,"correct":false,"confidence":1},{"trial_n":58,"n_dots":3.65,"target":"left","response":"right","rt":1793.2999999523,"correct":false,"confidence":1},{"trial_n":59,"n_dots":3.75,"target":"left","response":"right","rt":1503.7000000477,"correct":false,"confidence":1},{"trial_n":60,"n_dots":3.85,"target":"left","response":"left","rt":3159.7000000477,"correct":true,"confidence":1},{"trial_n":61,"n_dots":3.85,"target":"right","response":"right","rt":1187.7999999523,"correct":true,"confidence":2},{"trial_n":62,"n_dots":3.75,"target":"left","response":"left","rt":1154.6000000238,"correct":true,"confidence":2},{"trial_n":63,"n_dots":3.75,"target":"right","response":"right","rt":853.40000009537,"correct":true,"confidence":2},{"trial_n":64,"n_dots":3.65,"target":"left","response":"right","rt":2099.1000000238,"correct":false,"confidence":1},{"trial_n":65,"n_dots":3.75,"target":"left","response":"left","rt":863,"correct":true,"confidence":2},{"trial_n":66,"n_dots":3.75,"target":"right","response":"right","rt":792.79999995232,"correct":true,"confidence":2},{"trial_n":67,"n_dots":3.65,"target":"left","response":"left","rt":1963.6999999285,"correct":true,"confidence":1},{"trial_n":68,"n_dots":3.65,"target":"left","response":"left","rt":1184.6000000238,"correct":true,"confidence":1},{"trial_n":69,"n_dots":3.55,"target":"left","response":"left","rt":882.20000004768,"correct":true,"confidence":1},{"trial_n":70,"n_dots":3.55,"target":"left","response":"left","rt":982.20000004768,"correct":true,"confidence":1},{"trial_n":71,"n_dots":3.45,"target":"left","response":"left","rt":1631.7000000477,"correct":true,"confidence":1},{"trial_n":72,"n_dots":3.45,"target":"left","response":"right","rt":2041,"correct":false,"confidence":1},{"trial_n":73,"n_dots":3.55,"target":"right","response":"right","rt":996.10000002384,"correct":true,"confidence":2},{"trial_n":74,"n_dots":3.55,"target":"left","response":"left","rt":799.80000007153,"correct":true,"confidence":2},{"trial_n":75,"n_dots":3.45,"target":"left","response":"left","rt":1159.3000000715,"correct":true,"confidence":2},{"trial_n":76,"n_dots":3.45,"target":"right","response":"right","rt":8879.0999999046,"correct":true,"confidence":2},{"trial_n":77,"n_dots":3.35,"target":"left","response":"right","rt":8669.8999999762,"correct":false,"confidence":1},{"trial_n":78,"n_dots":3.45,"target":"left","response":"right","rt":1981,"correct":false,"confidence":2},{"trial_n":79,"n_dots":3.55,"target":"right","response":"left","rt":3424.6000000238,"correct":false,"confidence":2},{"trial_n":80,"n_dots":3.65,"target":"left","response":"right","rt":6080.3999999762,"correct":false,"confidence":1},{"trial_n":81,"n_dots":3.75,"target":"right","response":"left","rt":4019.7999999523,"correct":false,"confidence":1},{"trial_n":82,"n_dots":3.85,"target":"right","response":"right","rt":666.89999997616,"correct":true,"confidence":3},{"trial_n":83,"n_dots":3.85,"target":"right","response":"right","rt":637.30000007153,"correct":true,"confidence":3},{"trial_n":84,"n_dots":3.75,"target":"left","response":"left","rt":826.30000007153,"correct":true,"confidence":2},{"trial_n":85,"n_dots":3.75,"target":"left","response":"left","rt":636.30000007153,"correct":true,"confidence":3},{"trial_n":86,"n_dots":3.65,"target":"left","response":"left","rt":658.39999997616,"correct":true,"confidence":3},{"trial_n":87,"n_dots":3.65,"target":"right","response":"right","rt":1705,"correct":true,"confidence":3},{"trial_n":88,"n_dots":3.55,"target":"right","response":"left","rt":738.19999992847,"correct":false,"confidence":3},{"trial_n":89,"n_dots":3.65,"target":"left","response":"left","rt":1287.7000000477,"correct":true,"confidence":2},{"trial_n":90,"n_dots":3.65,"target":"right","response":"left","rt":2408,"correct":false,"confidence":1},{"trial_n":91,"n_dots":3.75,"target":"right","response":"right","rt":737.39999997616,"correct":true,"confidence":4},{"trial_n":92,"n_dots":3.75,"target":"right","response":"right","rt":739.10000002384,"correct":true,"confidence":3},{"trial_n":93,"n_dots":3.65,"target":"right","response":"right","rt":592,"correct":true,"confidence":3},{"trial_n":94,"n_dots":3.65,"target":"left","response":"left","rt":1376,"correct":true,"confidence":2},{"trial_n":95,"n_dots":3.55,"target":"left","response":"left","rt":2263.1000000238,"correct":true,"confidence":1},{"trial_n":96,"n_dots":3.55,"target":"left","response":"left","rt":910.5,"correct":true,"confidence":2},{"trial_n":97,"n_dots":3.45,"target":"left","response":"right","rt":1448.1000000238,"correct":false,"confidence":1},{"trial_n":98,"n_dots":3.55,"target":"right","response":"right","rt":1009.2000000477,"correct":true,"confidence":3},{"trial_n":99,"n_dots":3.55,"target":"left","response":"left","rt":1039.7999999523,"correct":true,"confidence":4},{"trial_n":100,"n_dots":3.45,"target":"left","response":"left","rt":1033.7000000477,"correct":true,"confidence":3},{"trial_n":101,"n_dots":3.45,"target":"right","response":"right","rt":1014.6000000238,"correct":true,"confidence":3},{"trial_n":102,"n_dots":3.35,"target":"left","response":"left","rt":1100.6999999285,"correct":true,"confidence":4},{"trial_n":103,"n_dots":3.35,"target":"right","response":"right","rt":1019.2000000477,"correct":true,"confidence":4},{"trial_n":104,"n_dots":3.25,"target":"right","response":"left","rt":1458.5999999046,"correct":false,"confidence":1},{"trial_n":105,"n_dots":3.35,"target":"left","response":"left","rt":1095.2999999523,"correct":true,"confidence":2},{"trial_n":106,"n_dots":3.35,"target":"right","response":"right","rt":963,"correct":true,"confidence":2},{"trial_n":107,"n_dots":3.25,"target":"left","response":"left","rt":1585.8999999762,"correct":true,"confidence":1},{"trial_n":108,"n_dots":3.25,"target":"right","response":"left","rt":1921.7000000477,"correct":false,"confidence":1},{"trial_n":109,"n_dots":3.35,"target":"right","response":"left","rt":2134.1000000238,"correct":false,"confidence":1},{"trial_n":110,"n_dots":3.45,"target":"left","response":"left","rt":1016.6000000238,"correct":true,"confidence":2},{"trial_n":111,"n_dots":3.45,"target":"right","response":"right","rt":1861.5,"correct":true,"confidence":1},{"trial_n":112,"n_dots":3.35,"target":"left","response":"right","rt":1110.2000000477,"correct":false,"confidence":1},{"trial_n":113,"n_dots":3.45,"target":"left","response":"left","rt":1003.0999999046,"correct":true,"confidence":2},{"trial_n":114,"n_dots":3.45,"target":"right","response":"left","rt":1057.2999999523,"correct":false,"confidence":2},{"trial_n":115,"n_dots":3.55,"target":"left","response":"left","rt":1152.6000000238,"correct":true,"confidence":1},{"trial_n":116,"n_dots":3.55,"target":"right","response":"left","rt":12558,"correct":false,"confidence":1},{"trial_n":117,"n_dots":3.65,"target":"left","response":"left","rt":783.20000004768,"correct":true,"confidence":2},{"trial_n":118,"n_dots":3.65,"target":"left","response":"left","rt":774.30000007153,"correct":true,"confidence":2},{"trial_n":119,"n_dots":3.55,"target":"right","response":"left","rt":742.39999997616,"correct":false,"confidence":1},{"trial_n":120,"n_dots":3.65,"target":"right","response":"right","rt":848.70000004768,"correct":true,"confidence":3},{"trial_n":121,"n_dots":3.65,"target":"left","response":"left","rt":599.10000002384,"correct":true,"confidence":3},{"trial_n":122,"n_dots":3.55,"target":"left","response":"left","rt":767.79999995232,"correct":true,"confidence":4},{"trial_n":123,"n_dots":3.55,"target":"right","response":"left","rt":1385.2999999523,"correct":false,"confidence":2},{"trial_n":124,"n_dots":3.65,"target":"left","response":"left","rt":775.09999990463,"correct":true,"confidence":2},{"trial_n":125,"n_dots":3.65,"target":"right","response":"right","rt":643,"correct":true,"confidence":3},{"trial_n":126,"n_dots":3.55,"target":"right","response":"right","rt":730.80000007153,"correct":true,"confidence":4},{"trial_n":127,"n_dots":3.55,"target":"right","response":"right","rt":659.70000004768,"correct":true,"confidence":5},{"trial_n":128,"n_dots":3.45,"target":"left","response":"left","rt":1104.3000000715,"correct":true,"confidence":2},{"trial_n":129,"n_dots":3.45,"target":"right","response":"right","rt":473,"correct":true,"confidence":3},{"trial_n":130,"n_dots":3.35,"target":"left","response":"right","rt":443.70000004768,"correct":false,"confidence":2},{"trial_n":131,"n_dots":3.45,"target":"left","response":"right","rt":1178.7000000477,"correct":false,"confidence":3},{"trial_n":132,"n_dots":3.55,"target":"right","response":"right","rt":1762.5,"correct":true,"confidence":3},{"trial_n":133,"n_dots":3.55,"target":"left","response":"right","rt":1767.0999999046,"correct":false,"confidence":2},{"trial_n":134,"n_dots":3.65,"target":"right","response":"right","rt":1643.6000000238,"correct":true,"confidence":1},{"trial_n":135,"n_dots":3.65,"target":"left","response":"left","rt":1653.1000000238,"correct":true,"confidence":3},{"trial_n":136,"n_dots":3.55,"target":"left","response":"right","rt":1712.3000000715,"correct":false,"confidence":1},{"trial_n":137,"n_dots":3.65,"target":"right","response":"right","rt":1850.5,"correct":true,"confidence":3},{"trial_n":138,"n_dots":3.65,"target":"right","response":"left","rt":2762.7999999523,"correct":false,"confidence":1},{"trial_n":139,"n_dots":3.75,"target":"right","response":"right","rt":1799.5,"correct":true,"confidence":1},{"trial_n":140,"n_dots":3.75,"target":"right","response":"right","rt":1687.3000000715,"correct":true,"confidence":2},{"trial_n":141,"n_dots":3.65,"target":"left","response":"left","rt":1792.5,"correct":true,"confidence":1},{"trial_n":142,"n_dots":3.65,"target":"left","response":"left","rt":1657.3000000715,"correct":true,"confidence":2},{"trial_n":143,"n_dots":3.55,"target":"right","response":"right","rt":1479.7000000477,"correct":true,"confidence":3},{"trial_n":144,"n_dots":3.55,"target":"right","response":"right","rt":1418.1000000238,"correct":true,"confidence":4},{"trial_n":145,"n_dots":3.45,"target":"left","response":"left","rt":1902.1000000238,"correct":true,"confidence":3},{"trial_n":146,"n_dots":3.45,"target":"left","response":"left","rt":1716.5,"correct":true,"confidence":3},{"trial_n":147,"n_dots":3.35,"target":"right","response":"left","rt":1825.3999999762,"correct":false,"confidence":2},{"trial_n":148,"n_dots":3.45,"target":"left","response":"left","rt":8033.1000000238,"correct":true,"confidence":1},{"trial_n":149,"n_dots":3.45,"target":"right","response":"right","rt":1526.6999999285,"correct":true,"confidence":3},{"trial_n":150,"n_dots":3.35,"target":"left","response":"right","rt":1665,"correct":false,"confidence":3},{"trial_n":151,"n_dots":3.45,"target":"left","response":"right","rt":1347,"correct":false,"confidence":5},{"trial_n":152,"n_dots":3.55,"target":"left","response":"left","rt":1457,"correct":true,"confidence":3},{"trial_n":153,"n_dots":3.55,"target":"right","response":"right","rt":1256.3999999762,"correct":true,"confidence":4},{"trial_n":154,"n_dots":3.45,"target":"right","response":"right","rt":1130.6999999285,"correct":true,"confidence":5},{"trial_n":155,"n_dots":3.45,"target":"right","response":"right","rt":1261.2999999523,"correct":true,"confidence":5},{"trial_n":156,"n_dots":3.35,"target":"left","response":"right","rt":1198.0999999046,"correct":false,"confidence":2},{"trial_n":157,"n_dots":3.45,"target":"right","response":"right","rt":1328.6000000238,"correct":true,"confidence":4},{"trial_n":158,"n_dots":3.45,"target":"left","response":"left","rt":1520,"correct":true,"confidence":3},{"trial_n":159,"n_dots":3.35,"target":"left","response":"left","rt":1442.2999999523,"correct":true,"confidence":2},{"trial_n":160,"n_dots":3.35,"target":"right","response":"right","rt":1399.8999999762,"correct":true,"confidence":3},{"trial_n":161,"n_dots":3.25,"target":"left","response":"left","rt":1431.7000000477,"correct":true,"confidence":4},{"trial_n":162,"n_dots":3.25,"target":"left","response":"left","rt":1540.1000000238,"correct":true,"confidence":2},{"trial_n":163,"n_dots":3.15,"target":"right","response":"right","rt":1313.7000000477,"correct":true,"confidence":1},{"trial_n":164,"n_dots":3.15,"target":"right","response":"left","rt":1385.1000000238,"correct":false,"confidence":2},{"trial_n":165,"n_dots":3.25,"target":"right","response":"right","rt":1630.1000000238,"correct":true,"confidence":2},{"trial_n":166,"n_dots":3.25,"target":"right","response":"right","rt":1472.8999999762,"correct":true,"confidence":1},{"trial_n":167,"n_dots":3.15,"target":"left","response":"right","rt":1569.6999999285,"correct":false,"confidence":1},{"trial_n":168,"n_dots":3.25,"target":"right","response":"right","rt":1295.8999999762,"correct":true,"confidence":1},{"trial_n":169,"n_dots":3.25,"target":"left","response":"left","rt":1442.8999999762,"correct":true,"confidence":1},{"trial_n":170,"n_dots":3.15,"target":"left","response":"left","rt":1554.8999999762,"correct":true,"confidence":1},{"trial_n":171,"n_dots":3.15,"target":"left","response":"left","rt":1599.3999999762,"correct":true,"confidence":1},{"trial_n":172,"n_dots":3.05,"target":"left","response":"right","rt":2853.5999999046,"correct":false,"confidence":1},{"trial_n":173,"n_dots":3.15,"target":"left","response":"left","rt":1952,"correct":true,"confidence":1},{"trial_n":174,"n_dots":3.15,"target":"right","response":"right","rt":7156.2999999523,"correct":true,"confidence":1},{"trial_n":175,"n_dots":3.05,"target":"left","response":"left","rt":1433.3999999762,"correct":true,"confidence":1},{"trial_n":176,"n_dots":3.05,"target":"left","response":"left","rt":639.90000009537,"correct":true,"confidence":2},{"trial_n":177,"n_dots":2.95,"target":"right","response":"left","rt":817.80000007153,"correct":false,"confidence":2},{"trial_n":178,"n_dots":3.05,"target":"left","response":"left","rt":806.20000004768,"correct":true,"confidence":2},{"trial_n":179,"n_dots":3.05,"target":"left","response":"right","rt":1582.5999999046,"correct":false,"confidence":1},{"trial_n":180,"n_dots":3.15,"target":"right","response":"left","rt":818.60000002384,"correct":false,"confidence":2},{"trial_n":181,"n_dots":3.25,"target":"left","response":"left","rt":1973.2999999523,"correct":true,"confidence":1},{"trial_n":182,"n_dots":3.25,"target":"left","response":"left","rt":710,"correct":true,"confidence":3},{"trial_n":183,"n_dots":3.15,"target":"right","response":"right","rt":922.70000004768,"correct":true,"confidence":1},{"trial_n":184,"n_dots":3.15,"target":"left","response":"left","rt":733.29999995232,"correct":true,"confidence":2},{"trial_n":185,"n_dots":3.05,"target":"right","response":"right","rt":673.10000002384,"correct":true,"confidence":1},{"trial_n":186,"n_dots":3.05,"target":"right","response":"left","rt":771.60000002384,"correct":false,"confidence":1},{"trial_n":187,"n_dots":3.15,"target":"right","response":"left","rt":1658.0999999046,"correct":false,"confidence":1},{"trial_n":188,"n_dots":3.25,"target":"right","response":"right","rt":2089.9000000954,"correct":true,"confidence":1},{"trial_n":189,"n_dots":3.25,"target":"right","response":"right","rt":1659.1000000238,"correct":true,"confidence":2},{"trial_n":190,"n_dots":3.15,"target":"right","response":"right","rt":1718.9000000954,"correct":true,"confidence":2},{"trial_n":191,"n_dots":3.15,"target":"right","response":"right","rt":2050,"correct":true,"confidence":3},{"trial_n":192,"n_dots":3.05,"target":"right","response":"left","rt":1973.8999999762,"correct":false,"confidence":1},{"trial_n":193,"n_dots":3.15,"target":"right","response":"right","rt":1170.5,"correct":true,"confidence":2},{"trial_n":194,"n_dots":3.15,"target":"left","response":"left","rt":1608.8999999762,"correct":true,"confidence":1}]