[{"trial_n":1,"n_dots":4.25,"target":"right","response":"left","rt":4224.8999999985,"correct":false,"confidence":-1},{"trial_n":2,"n_dots":4.25,"target":"right","response":"right","rt":1005.5,"correct":true,"confidence":-1},{"trial_n":3,"n_dots":4.25,"target":"right","response":"right","rt":644.80000000075,"correct":true,"confidence":-1},{"trial_n":4,"n_dots":3.85,"target":"right","response":"right","rt":521.60000000149,"correct":true,"confidence":-1},{"trial_n":5,"n_dots":3.85,"target":"right","response":"right","rt":616.69999999925,"correct":true,"confidence":-1},{"trial_n":6,"n_dots":3.45,"target":"right","response":"right","rt":590.39999999851,"correct":true,"confidence":-1},{"trial_n":7,"n_dots":3.45,"target":"right","response":"right","rt":700.39999999851,"correct":true,"confidence":-1},{"trial_n":8,"n_dots":3.25,"target":"left","response":"right","rt":599.19999999925,"correct":false,"confidence":-1},{"trial_n":9,"n_dots":3.45,"target":"left","response":"left","rt":752.69999999925,"correct":true,"confidence":-1},{"trial_n":10,"n_dots":3.45,"target":"right","response":"left","rt":657.80000000075,"correct":false,"confidence":-1},{"trial_n":11,"n_dots":3.65,"target":"left","response":"left","rt":678.89999999851,"correct":true,"confidence":-1},{"trial_n":12,"n_dots":3.65,"target":"right","response":"left","rt":1003.1000000015,"correct":false,"confidence":-1},{"trial_n":13,"n_dots":3.75,"target":"left","response":"left","rt":554.09999999776,"correct":true,"confidence":-1},{"trial_n":14,"n_dots":3.75,"target":"right","response":"left","rt":581.39999999851,"correct":false,"confidence":-1},{"trial_n":15,"n_dots":3.85,"target":"left","response":"right","rt":718.60000000149,"correct":false,"confidence":-1},{"trial_n":16,"n_dots":3.95,"target":"left","response":"left","rt":465,"correct":true,"confidence":-1},{"trial_n":17,"n_dots":3.95,"target":"right","response":"right","rt":725.69999999925,"correct":true,"confidence":-1},{"trial_n":18,"n_dots":3.85,"target":"right","response":"right","rt":560.80000000075,"correct":true,"confidence":-1},{"trial_n":19,"n_dots":3.85,"target":"left","response":"right","rt":602.5,"correct":false,"confidence":-1},{"trial_n":20,"n_dots":3.95,"target":"left","response":"right","rt":647,"correct":false,"confidence":-1},{"trial_n":21,"n_dots":4.05,"target":"left","response":"left","rt":550.19999999925,"correct":true,"confidence":-1},{"trial_n":22,"n_dots":4.05,"target":"left","response":"left","rt":715.60000000149,"correct":true,"confidence":-1},{"trial_n":23,"n_dots":3.95,"target":"right","response":"right","rt":596.39999999851,"correct":true,"confidence":-1},{"trial_n":24,"n_dots":3.95,"target":"left","response":"left","rt":562.90000000224,"correct":true,"confidence":-1},{"trial_n":25,"n_dots":3.85,"target":"left","response":"left","rt":636.89999999851,"correct":true,"confidence":-1},{"trial_n":26,"n_dots":3.85,"target":"left","response":"left","rt":569.69999999925,"correct":true,"confidence":-1},{"trial_n":27,"n_dots":3.75,"target":"right","response":"right","rt":585.80000000075,"correct":true,"confidence":3},{"trial_n":28,"n_dots":3.75,"target":"left","response":"left","rt":989.60000000149,"correct":true,"confidence":6},{"trial_n":29,"n_dots":3.65,"target":"left","response":"left","rt":640.80000000075,"correct":true,"confidence":5},{"trial_n":30,"n_dots":3.65,"target":"right","response":"right","rt":1279.3000000007,"correct":true,"confidence":3},{"trial_n":31,"n_dots":3.55,"target":"right","response":"right","rt":639.80000000075,"correct":true,"confidence":3},{"trial_n":32,"n_dots":3.55,"target":"left","response":"left","rt":1844.5,"correct":true,"confidence":2},{"trial_n":33,"n_dots":3.45,"target":"right","response":"left","rt":2808.8000000007,"correct":false,"confidence":2},{"trial_n":34,"n_dots":3.55,"target":"right","response":"right","rt":1017.3999999985,"correct":true,"confidence":2},{"trial_n":35,"n_dots":3.55,"target":"left","response":"left","rt":683,"correct":true,"confidence":4},{"trial_n":36,"n_dots":3.45,"target":"right","response":"right","rt":936.5,"correct":true,"confidence":3},{"trial_n":37,"n_dots":3.45,"target":"right","response":"left","rt":770.90000000224,"correct":false,"confidence":3},{"trial_n":38,"n_dots":3.55,"target":"left","response":"left","rt":660.59999999776,"correct":true,"confidence":3},{"trial_n":39,"n_dots":3.55,"target":"left","response":"left","rt":561,"correct":true,"confidence":4},{"trial_n":40,"n_dots":3.45,"target":"right","response":"right","rt":942.5,"correct":true,"confidence":4},{"trial_n":41,"n_dots":3.45,"target":"left","response":"right","rt":2049,"correct":false,"confidence":2},{"trial_n":42,"n_dots":3.55,"target":"left","response":"left","rt":675.90000000224,"correct":true,"confidence":3},{"trial_n":43,"n_dots":3.55,"target":"left","response":"left","rt":613.90000000224,"correct":true,"confidence":3},{"trial_n":44,"n_dots":3.45,"target":"right","response":"right","rt":1666.5,"correct":true,"confidence":3},{"trial_n":45,"n_dots":3.45,"target":"left","response":"left","rt":746.80000000075,"correct":true,"confidence":3},{"trial_n":46,"n_dots":3.35,"target":"left","response":"left","rt":860.89999999851,"correct":true,"confidence":2},{"trial_n":47,"n_dots":3.35,"target":"right","response":"left","rt":819.40000000224,"correct":false,"confidence":1},{"trial_n":48,"n_dots":3.45,"target":"right","response":"right","rt":929.19999999925,"correct":true,"confidence":2},{"trial_n":49,"n_dots":3.45,"target":"right","response":"right","rt":1411.0999999978,"correct":true,"confidence":3},{"trial_n":50,"n_dots":3.35,"target":"right","response":"right","rt":726.19999999925,"correct":true,"confidence":4},{"trial_n":51,"n_dots":3.35,"target":"left","response":"left","rt":850.69999999925,"correct":true,"confidence":5},{"trial_n":52,"n_dots":3.25,"target":"left","response":"right","rt":611.89999999851,"correct":false,"confidence":4},{"trial_n":53,"n_dots":3.35,"target":"right","response":"right","rt":833.59999999776,"correct":true,"confidence":3},{"trial_n":54,"n_dots":3.35,"target":"left","response":"left","rt":5346.1999999993,"correct":true,"confidence":2},{"trial_n":55,"n_dots":3.25,"target":"left","response":"left","rt":882.19999999925,"correct":true,"confidence":2},{"trial_n":56,"n_dots":3.25,"target":"left","response":"left","rt":637.29999999702,"correct":true,"confidence":4},{"trial_n":57,"n_dots":3.15,"target":"right","response":"right","rt":1666.1999999993,"correct":true,"confidence":4},{"trial_n":58,"n_dots":3.15,"target":"right","response":"right","rt":721.40000000224,"correct":true,"confidence":4},{"trial_n":59,"n_dots":3.05,"target":"right","response":"right","rt":685,"correct":true,"confidence":4},{"trial_n":60,"n_dots":3.05,"target":"left","response":"left","rt":617.5,"correct":true,"confidence":3},{"trial_n":61,"n_dots":2.95,"target":"right","response":"right","rt":731.69999999925,"correct":true,"confidence":3},{"trial_n":62,"n_dots":2.95,"target":"right","response":"right","rt":2097.1999999993,"correct":true,"confidence":2},{"trial_n":63,"n_dots":2.85,"target":"left","response":"left","rt":1872.5999999978,"correct":true,"confidence":1},{"trial_n":64,"n_dots":2.85,"target":"left","response":"left","rt":1580.6999999993,"correct":true,"confidence":2},{"trial_n":65,"n_dots":2.75,"target":"right","response":"right","rt":672.19999999925,"correct":true,"confidence":2},{"trial_n":66,"n_dots":2.75,"target":"left","response":"left","rt":1700.4000000022,"correct":true,"confidence":2},{"trial_n":67,"n_dots":2.65,"target":"left","response":"right","rt":1888.1999999993,"correct":false,"confidence":1},{"trial_n":68,"n_dots":2.75,"target":"left","response":"left","rt":623.10000000149,"correct":true,"confidence":3},{"trial_n":69,"n_dots":2.75,"target":"right","response":"left","rt":1494.799999997,"correct":false,"confidence":3},{"trial_n":70,"n_dots":2.85,"target":"left","response":"left","rt":780,"correct":true,"confidence":4},{"trial_n":71,"n_dots":2.85,"target":"left","response":"left","rt":1651.3999999985,"correct":true,"confidence":4},{"trial_n":72,"n_dots":2.75,"target":"right","response":"left","rt":915.19999999925,"correct":false,"confidence":4},{"trial_n":73,"n_dots":2.85,"target":"right","response":"left","rt":4730.6000000015,"correct":false,"confidence":2},{"trial_n":74,"n_dots":2.95,"target":"right","response":"right","rt":1034.3000000007,"correct":true,"confidence":4},{"trial_n":75,"n_dots":2.95,"target":"right","response":"right","rt":9340.0999999978,"correct":true,"confidence":2},{"trial_n":76,"n_dots":2.85,"target":"left","response":"left","rt":694.80000000075,"correct":true,"confidence":2},{"trial_n":77,"n_dots":2.85,"target":"right","response":"right","rt":719.60000000149,"correct":true,"confidence":2},{"trial_n":78,"n_dots":2.75,"target":"right","response":"left","rt":911.09999999776,"correct":false,"confidence":3},{"trial_n":79,"n_dots":2.85,"target":"right","response":"right","rt":795.30000000075,"correct":true,"confidence":2},{"trial_n":80,"n_dots":2.85,"target":"left","response":"left","rt":841.80000000075,"correct":true,"confidence":4},{"trial_n":81,"n_dots":2.75,"target":"right","response":"right","rt":4397.3000000007,"correct":true,"confidence":3},{"trial_n":82,"n_dots":2.75,"target":"left","response":"right","rt":1028.200000003,"correct":false,"confidence":1},{"trial_n":83,"n_dots":2.85,"target":"left","response":"right","rt":1487.8000000007,"correct":false,"confidence":2},{"trial_n":84,"n_dots":2.95,"target":"right","response":"right","rt":781.10000000149,"correct":true,"confidence":2},{"trial_n":85,"n_dots":2.95,"target":"left","response":"left","rt":536.40000000224,"correct":true,"confidence":3},{"trial_n":86,"n_dots":2.85,"target":"right","response":"right","rt":34554.600000001,"correct":true,"confidence":1},{"trial_n":87,"n_dots":2.85,"target":"right","response":"right","rt":643.20000000298,"correct":true,"confidence":3},{"trial_n":88,"n_dots":2.75,"target":"left","response":"right","rt":595.30000000075,"correct":false,"confidence":4},{"trial_n":89,"n_dots":2.85,"target":"left","response":"right","rt":476.60000000149,"correct":false,"confidence":4},{"trial_n":90,"n_dots":2.95,"target":"left","response":"right","rt":1234.5,"correct":false,"confidence":4},{"trial_n":91,"n_dots":3.05,"target":"right","response":"right","rt":850.69999999925,"correct":true,"confidence":4},{"trial_n":92,"n_dots":3.05,"target":"right","response":"right","rt":818.10000000149,"correct":true,"confidence":3},{"trial_n":93,"n_dots":2.95,"target":"left","response":"right","rt":745.90000000224,"correct":false,"confidence":2},{"trial_n":94,"n_dots":3.05,"target":"left","response":"right","rt":1438.4000000022,"correct":false,"confidence":2},{"trial_n":95,"n_dots":3.15,"target":"left","response":"left","rt":1653,"correct":true,"confidence":2},{"trial_n":96,"n_dots":3.15,"target":"left","response":"left","rt":623.39999999851,"correct":true,"confidence":4},{"trial_n":97,"n_dots":3.05,"target":"right","response":"right","rt":2379.3000000007,"correct":true,"confidence":3},{"trial_n":98,"n_dots":3.05,"target":"right","response":"right","rt":704.40000000224,"correct":true,"confidence":4},{"trial_n":99,"n_dots":2.95,"target":"left","response":"right","rt":545.59999999776,"correct":false,"confidence":5},{"trial_n":100,"n_dots":3.05,"target":"left","response":"left","rt":647.39999999851,"correct":true,"confidence":4},{"trial_n":101,"n_dots":3.05,"target":"left","response":"right","rt":1344.1000000015,"correct":false,"confidence":3},{"trial_n":102,"n_dots":3.15,"target":"left","response":"left","rt":552.69999999925,"correct":true,"confidence":3},{"trial_n":103,"n_dots":3.15,"target":"left","response":"left","rt":966.90000000224,"correct":true,"confidence":6},{"trial_n":104,"n_dots":3.05,"target":"left","response":"left","rt":3646.3999999985,"correct":true,"confidence":1},{"trial_n":105,"n_dots":3.05,"target":"right","response":"right","rt":1586.8000000007,"correct":true,"confidence":2},{"trial_n":106,"n_dots":2.95,"target":"right","response":"right","rt":672.39999999851,"correct":true,"confidence":3},{"trial_n":107,"n_dots":2.95,"target":"left","response":"left","rt":585.09999999776,"correct":true,"confidence":5},{"trial_n":108,"n_dots":2.85,"target":"right","response":"right","rt":562.30000000075,"correct":true,"confidence":5},{"trial_n":109,"n_dots":2.85,"target":"right","response":"right","rt":6864.700000003,"correct":true,"confidence":5},{"trial_n":110,"n_dots":2.75,"target":"right","response":"right","rt":653.89999999851,"correct":true,"confidence":4},{"trial_n":111,"n_dots":2.75,"target":"right","response":"right","rt":551.80000000075,"correct":true,"confidence":5},{"trial_n":112,"n_dots":2.65,"target":"left","response":"right","rt":667.30000000075,"correct":false,"confidence":5},{"trial_n":113,"n_dots":2.75,"target":"right","response":"right","rt":964.39999999851,"correct":true,"confidence":4},{"trial_n":114,"n_dots":2.75,"target":"left","response":"left","rt":526.19999999925,"correct":true,"confidence":6},{"trial_n":115,"n_dots":2.65,"target":"left","response":"left","rt":1117.1999999993,"correct":true,"confidence":4},{"trial_n":116,"n_dots":2.65,"target":"right","response":"right","rt":693.89999999851,"correct":true,"confidence":4},{"trial_n":117,"n_dots":2.55,"target":"left","response":"left","rt":2032.0999999978,"correct":true,"confidence":2},{"trial_n":118,"n_dots":2.55,"target":"left","response":"left","rt":629.69999999925,"correct":true,"confidence":4},{"trial_n":119,"n_dots":2.45,"target":"right","response":"right","rt":713.09999999776,"correct":true,"confidence":4},{"trial_n":120,"n_dots":2.45,"target":"right","response":"right","rt":2187.6000000015,"correct":true,"confidence":2},{"trial_n":121,"n_dots":2.35,"target":"right","response":"left","rt":857.90000000224,"correct":false,"confidence":4},{"trial_n":122,"n_dots":2.45,"target":"left","response":"right","rt":1634.8000000007,"correct":false,"confidence":2},{"trial_n":123,"n_dots":2.55,"target":"right","response":"right","rt":802.5,"correct":true,"confidence":3},{"trial_n":124,"n_dots":2.55,"target":"left","response":"left","rt":499.69999999925,"correct":true,"confidence":5},{"trial_n":125,"n_dots":2.45,"target":"left","response":"left","rt":1146.0999999978,"correct":true,"confidence":4},{"trial_n":126,"n_dots":2.45,"target":"left","response":"left","rt":516.69999999925,"correct":true,"confidence":5},{"trial_n":127,"n_dots":2.35,"target":"left","response":"left","rt":619.39999999851,"correct":true,"confidence":5},{"trial_n":128,"n_dots":2.35,"target":"left","response":"left","rt":979.5,"correct":true,"confidence":3},{"trial_n":129,"n_dots":2.25,"target":"left","response":"left","rt":638.5,"correct":true,"confidence":3},{"trial_n":130,"n_dots":2.25,"target":"right","response":"left","rt":2216.8000000007,"correct":false,"confidence":3},{"trial_n":131,"n_dots":2.35,"target":"left","response":"right","rt":1280.6999999993,"correct":false,"confidence":2},{"trial_n":132,"n_dots":2.45,"target":"right","response":"left","rt":741.19999999925,"correct":false,"confidence":4},{"trial_n":133,"n_dots":2.55,"target":"left","response":"right","rt":3771.6999999993,"correct":false,"confidence":1},{"trial_n":134,"n_dots":2.65,"target":"left","response":"right","rt":1031.6000000015,"correct":false,"confidence":1},{"trial_n":135,"n_dots":2.75,"target":"right","response":"right","rt":654.30000000075,"correct":true,"confidence":3},{"trial_n":136,"n_dots":2.75,"target":"left","response":"left","rt":555.10000000149,"correct":true,"confidence":5},{"trial_n":137,"n_dots":2.65,"target":"left","response":"right","rt":579.80000000075,"correct":false,"confidence":5},{"trial_n":138,"n_dots":2.75,"target":"left","response":"left","rt":582,"correct":true,"confidence":4},{"trial_n":139,"n_dots":2.75,"target":"right","response":"right","rt":933.19999999925,"correct":true,"confidence":2},{"trial_n":140,"n_dots":2.65,"target":"right","response":"right","rt":717.60000000149,"correct":true,"confidence":4},{"trial_n":141,"n_dots":2.65,"target":"left","response":"left","rt":504.69999999925,"correct":true,"confidence":5},{"trial_n":142,"n_dots":2.55,"target":"right","response":"left","rt":863.39999999851,"correct":false,"confidence":3},{"trial_n":143,"n_dots":2.65,"target":"right","response":"right","rt":639.79999999702,"correct":true,"confidence":5},{"trial_n":144,"n_dots":2.65,"target":"right","response":"right","rt":530.79999999702,"correct":true,"confidence":5},{"trial_n":145,"n_dots":2.55,"target":"right","response":"right","rt":2301.0999999978,"correct":true,"confidence":3},{"trial_n":146,"n_dots":2.55,"target":"right","response":"right","rt":1911.8999999985,"correct":true,"confidence":4},{"trial_n":147,"n_dots":2.45,"target":"right","response":"right","rt":769,"correct":true,"confidence":3},{"trial_n":148,"n_dots":2.45,"target":"left","response":"left","rt":11553.300000001,"correct":true,"confidence":5},{"trial_n":149,"n_dots":2.35,"target":"right","response":"right","rt":9397.9000000022,"correct":true,"confidence":2},{"trial_n":150,"n_dots":2.35,"target":"right","response":"left","rt":10580.300000001,"correct":false,"confidence":3},{"trial_n":151,"n_dots":2.45,"target":"left","response":"right","rt":7883.4000000022,"correct":false,"confidence":3},{"trial_n":152,"n_dots":2.55,"target":"left","response":"left","rt":1701.1000000015,"correct":true,"confidence":4},{"trial_n":153,"n_dots":2.55,"target":"right","response":"left","rt":722.39999999851,"correct":false,"confidence":4},{"trial_n":154,"n_dots":2.65,"target":"right","response":"right","rt":28001.5,"correct":true,"confidence":2},{"trial_n":155,"n_dots":2.65,"target":"right","response":"left","rt":2038,"correct":false,"confidence":3},{"trial_n":156,"n_dots":2.75,"target":"right","response":"left","rt":1444.1000000015,"correct":false,"confidence":4},{"trial_n":157,"n_dots":2.85,"target":"left","response":"right","rt":880.30000000075,"correct":false,"confidence":3},{"trial_n":158,"n_dots":2.95,"target":"left","response":"left","rt":527.80000000075,"correct":true,"confidence":5},{"trial_n":159,"n_dots":2.95,"target":"right","response":"right","rt":982.80000000075,"correct":true,"confidence":5},{"trial_n":160,"n_dots":2.85,"target":"left","response":"right","rt":1558.3000000007,"correct":false,"confidence":5},{"trial_n":161,"n_dots":2.95,"target":"left","response":"left","rt":3177.8000000007,"correct":true,"confidence":1},{"trial_n":162,"n_dots":2.95,"target":"left","response":"right","rt":730,"correct":false,"confidence":3},{"trial_n":163,"n_dots":3.05,"target":"right","response":"right","rt":1112.6000000015,"correct":true,"confidence":2},{"trial_n":164,"n_dots":3.05,"target":"left","response":"left","rt":1095.5,"correct":true,"confidence":4},{"trial_n":165,"n_dots":2.95,"target":"right","response":"right","rt":604.90000000224,"correct":true,"confidence":4},{"trial_n":166,"n_dots":2.95,"target":"right","response":"right","rt":805.59999999776,"correct":true,"confidence":4},{"trial_n":167,"n_dots":2.85,"target":"right","response":"right","rt":630.40000000224,"correct":true,"confidence":4},{"trial_n":168,"n_dots":2.85,"target":"left","response":"left","rt":587,"correct":true,"confidence":2},{"trial_n":169,"n_dots":2.75,"target":"right","response":"right","rt":687.20000000298,"correct":true,"confidence":3},{"trial_n":170,"n_dots":2.75,"target":"right","response":"right","rt":637.19999999925,"correct":true,"confidence":3},{"trial_n":171,"n_dots":2.65,"target":"left","response":"right","rt":856.19999999925,"correct":false,"confidence":4},{"trial_n":172,"n_dots":2.75,"target":"right","response":"left","rt":978.60000000149,"correct":false,"confidence":3},{"trial_n":173,"n_dots":2.85,"target":"right","response":"right","rt":811.5,"correct":true,"confidence":5},{"trial_n":174,"n_dots":2.85,"target":"left","response":"left","rt":898.80000000075,"correct":true,"confidence":5},{"trial_n":175,"n_dots":2.75,"target":"left","response":"left","rt":646.80000000075,"correct":true,"confidence":5},{"trial_n":176,"n_dots":2.75,"target":"right","response":"right","rt":642.80000000075,"correct":true,"confidence":5},{"trial_n":177,"n_dots":2.65,"target":"right","response":"right","rt":799.19999999925,"correct":true,"confidence":3},{"trial_n":178,"n_dots":2.65,"target":"left","response":"left","rt":925.30000000075,"correct":true,"confidence":2},{"trial_n":179,"n_dots":2.55,"target":"right","response":"right","rt":521.5,"correct":true,"confidence":4},{"trial_n":180,"n_dots":2.55,"target":"right","response":"right","rt":754.19999999925,"correct":true,"confidence":4},{"trial_n":181,"n_dots":2.45,"target":"left","response":"right","rt":1166.8000000007,"correct":false,"confidence":2},{"trial_n":182,"n_dots":2.55,"target":"left","response":"right","rt":2401.3000000007,"correct":false,"confidence":2},{"trial_n":183,"n_dots":2.65,"target":"left","response":"left","rt":832.80000000075,"correct":true,"confidence":3},{"trial_n":184,"n_dots":2.65,"target":"right","response":"right","rt":542.90000000224,"correct":true,"confidence":4},{"trial_n":185,"n_dots":2.55,"target":"left","response":"left","rt":1076,"correct":true,"confidence":4},{"trial_n":186,"n_dots":2.55,"target":"right","response":"left","rt":561.40000000224,"correct":false,"confidence":4},{"trial_n":187,"n_dots":2.65,"target":"right","response":"right","rt":707.19999999925,"correct":true,"confidence":2},{"trial_n":188,"n_dots":2.65,"target":"left","response":"left","rt":856.29999999702,"correct":true,"confidence":2},{"trial_n":189,"n_dots":2.55,"target":"left","response":"right","rt":544.40000000224,"correct":false,"confidence":3},{"trial_n":190,"n_dots":2.65,"target":"left","response":"left","rt":467.5,"correct":true,"confidence":3},{"trial_n":191,"n_dots":2.65,"target":"right","response":"right","rt":422.59999999776,"correct":true,"confidence":3},{"trial_n":192,"n_dots":2.55,"target":"right","response":"left","rt":602.39999999851,"correct":false,"confidence":2},{"trial_n":193,"n_dots":2.65,"target":"right","response":"right","rt":499.69999999925,"correct":true,"confidence":2},{"trial_n":194,"n_dots":2.65,"target":"left","response":"left","rt":673.29999999702,"correct":true,"confidence":3}]