[{"trial_n":1,"n_dots":4.25,"target":"right","response":"right","rt":2423.6999999881,"correct":true,"confidence":-1},{"trial_n":2,"n_dots":4.25,"target":"left","response":"left","rt":865.39999997616,"correct":true,"confidence":-1},{"trial_n":3,"n_dots":3.85,"target":"left","response":"left","rt":377.5,"correct":true,"confidence":-1},{"trial_n":4,"n_dots":3.85,"target":"left","response":"left","rt":247.69999998808,"correct":true,"confidence":-1},{"trial_n":5,"n_dots":3.45,"target":"left","response":"left","rt":277.80000001192,"correct":true,"confidence":-1},{"trial_n":6,"n_dots":3.45,"target":"right","response":"right","rt":350.5,"correct":true,"confidence":-1},{"trial_n":7,"n_dots":3.05,"target":"right","response":"right","rt":682.40000003576,"correct":true,"confidence":-1},{"trial_n":8,"n_dots":3.05,"target":"left","response":"left","rt":269.59999996424,"correct":true,"confidence":-1},{"trial_n":9,"n_dots":2.85,"target":"left","response":"left","rt":81.100000023842,"correct":true,"confidence":-1},{"trial_n":10,"n_dots":2.85,"target":"right","response":"left","rt":167.5,"correct":false,"confidence":-1},{"trial_n":11,"n_dots":3.05,"target":"left","response":"left","rt":294.5,"correct":true,"confidence":-1},{"trial_n":12,"n_dots":3.05,"target":"left","response":"left","rt":276.29999995232,"correct":true,"confidence":-1},{"trial_n":13,"n_dots":2.95,"target":"left","response":"left","rt":393.69999998808,"correct":true,"confidence":-1},{"trial_n":14,"n_dots":2.95,"target":"right","response":"right","rt":362.5,"correct":true,"confidence":-1},{"trial_n":15,"n_dots":2.85,"target":"left","response":"left","rt":343.39999997616,"correct":true,"confidence":-1},{"trial_n":16,"n_dots":2.85,"target":"left","response":"right","rt":892.19999998808,"correct":false,"confidence":-1},{"trial_n":17,"n_dots":2.95,"target":"left","response":"left","rt":207.40000003576,"correct":true,"confidence":-1},{"trial_n":18,"n_dots":2.95,"target":"right","response":"right","rt":257.39999997616,"correct":true,"confidence":-1},{"trial_n":19,"n_dots":2.85,"target":"left","response":"left","rt":17.600000023842,"correct":true,"confidence":-1},{"trial_n":20,"n_dots":2.85,"target":"right","response":"left","rt":352.10000002384,"correct":false,"confidence":-1},{"trial_n":21,"n_dots":2.95,"target":"left","response":"left","rt":672.39999997616,"correct":true,"confidence":-1},{"trial_n":22,"n_dots":2.95,"target":"left","response":"left","rt":309.80000001192,"correct":true,"confidence":-1},{"trial_n":23,"n_dots":2.85,"target":"right","response":"right","rt":464.70000004768,"correct":true,"confidence":-1},{"trial_n":24,"n_dots":2.85,"target":"left","response":"right","rt":410.10000002384,"correct":false,"confidence":-1},{"trial_n":25,"n_dots":2.95,"target":"right","response":"left","rt":442.80000001192,"correct":false,"confidence":-1},{"trial_n":26,"n_dots":3.05,"target":"right","response":"left","rt":339.5,"correct":false,"confidence":-1},{"trial_n":27,"n_dots":3.15,"target":"right","response":"left","rt":385.80000001192,"correct":false,"confidence":4},{"trial_n":28,"n_dots":3.25,"target":"left","response":"left","rt":822.60000002384,"correct":true,"confidence":4},{"trial_n":29,"n_dots":3.25,"target":"right","response":"right","rt":485.90000003576,"correct":true,"confidence":2},{"trial_n":30,"n_dots":3.15,"target":"left","response":"left","rt":334.69999998808,"correct":true,"confidence":4},{"trial_n":31,"n_dots":3.15,"target":"right","response":"left","rt":1026.1999999881,"correct":false,"confidence":1},{"trial_n":32,"n_dots":3.25,"target":"left","response":"left","rt":596.59999996424,"correct":true,"confidence":6},{"trial_n":33,"n_dots":3.25,"target":"left","response":"left","rt":413.70000004768,"correct":true,"confidence":5},{"trial_n":34,"n_dots":3.15,"target":"right","response":"left","rt":1076.4000000358,"correct":false,"confidence":4},{"trial_n":35,"n_dots":3.25,"target":"right","response":"left","rt":1793.3000000119,"correct":false,"confidence":2},{"trial_n":36,"n_dots":3.35,"target":"right","response":"right","rt":477.19999998808,"correct":true,"confidence":6},{"trial_n":37,"n_dots":3.35,"target":"right","response":"left","rt":840.40000003576,"correct":false,"confidence":3},{"trial_n":38,"n_dots":3.45,"target":"right","response":"right","rt":565.30000001192,"correct":true,"confidence":6},{"trial_n":39,"n_dots":3.45,"target":"left","response":"left","rt":946.19999998808,"correct":true,"confidence":4},{"trial_n":40,"n_dots":3.35,"target":"left","response":"left","rt":300.39999997616,"correct":true,"confidence":6},{"trial_n":41,"n_dots":3.35,"target":"right","response":"right","rt":444.19999998808,"correct":true,"confidence":5},{"trial_n":42,"n_dots":3.25,"target":"left","response":"left","rt":255,"correct":true,"confidence":5},{"trial_n":43,"n_dots":3.25,"target":"right","response":"right","rt":614.30000001192,"correct":true,"confidence":2},{"trial_n":44,"n_dots":3.15,"target":"left","response":"left","rt":334,"correct":true,"confidence":4},{"trial_n":45,"n_dots":3.15,"target":"left","response":"left","rt":434.5,"correct":true,"confidence":3},{"trial_n":46,"n_dots":3.05,"target":"right","response":"right","rt":788.70000004768,"correct":true,"confidence":2},{"trial_n":47,"n_dots":3.05,"target":"left","response":"left","rt":391.30000001192,"correct":true,"confidence":3},{"trial_n":48,"n_dots":2.95,"target":"right","response":"left","rt":598.29999995232,"correct":false,"confidence":2},{"trial_n":49,"n_dots":3.05,"target":"left","response":"left","rt":460.5,"correct":true,"confidence":3},{"trial_n":50,"n_dots":3.05,"target":"right","response":"left","rt":729.69999998808,"correct":false,"confidence":3},{"trial_n":51,"n_dots":3.15,"target":"left","response":"left","rt":513.30000001192,"correct":true,"confidence":4},{"trial_n":52,"n_dots":3.15,"target":"left","response":"left","rt":299.60000002384,"correct":true,"confidence":5},{"trial_n":53,"n_dots":3.05,"target":"right","response":"left","rt":994.30000001192,"correct":false,"confidence":2},{"trial_n":54,"n_dots":3.15,"target":"right","response":"right","rt":713.19999998808,"correct":true,"confidence":5},{"trial_n":55,"n_dots":3.15,"target":"right","response":"left","rt":787,"correct":false,"confidence":2},{"trial_n":56,"n_dots":3.25,"target":"left","response":"left","rt":542.09999996424,"correct":true,"confidence":3},{"trial_n":57,"n_dots":3.25,"target":"right","response":"right","rt":540.5,"correct":true,"confidence":6},{"trial_n":58,"n_dots":3.15,"target":"left","response":"left","rt":400.09999996424,"correct":true,"confidence":3},{"trial_n":59,"n_dots":3.15,"target":"left","response":"left","rt":834.5,"correct":true,"confidence":5},{"trial_n":60,"n_dots":3.05,"target":"right","response":"right","rt":637.30000001192,"correct":true,"confidence":2},{"trial_n":61,"n_dots":3.05,"target":"left","response":"left","rt":353,"correct":true,"confidence":5},{"trial_n":62,"n_dots":2.95,"target":"left","response":"left","rt":511.59999996424,"correct":true,"confidence":5},{"trial_n":63,"n_dots":2.95,"target":"left","response":"left","rt":299.19999998808,"correct":true,"confidence":5},{"trial_n":64,"n_dots":2.85,"target":"right","response":"left","rt":368.20000004768,"correct":false,"confidence":2},{"trial_n":65,"n_dots":2.95,"target":"right","response":"right","rt":353.59999996424,"correct":true,"confidence":2},{"trial_n":66,"n_dots":2.95,"target":"right","response":"left","rt":638.90000003576,"correct":false,"confidence":2},{"trial_n":67,"n_dots":3.05,"target":"left","response":"left","rt":437.60000002384,"correct":true,"confidence":5},{"trial_n":68,"n_dots":3.05,"target":"left","response":"left","rt":516.69999998808,"correct":true,"confidence":2},{"trial_n":69,"n_dots":2.95,"target":"left","response":"left","rt":562.59999996424,"correct":true,"confidence":3},{"trial_n":70,"n_dots":2.95,"target":"left","response":"left","rt":307.30000001192,"correct":true,"confidence":4},{"trial_n":71,"n_dots":2.85,"target":"left","response":"left","rt":281.89999997616,"correct":true,"confidence":4},{"trial_n":72,"n_dots":2.85,"target":"left","response":"left","rt":448.60000002384,"correct":true,"confidence":4},{"trial_n":73,"n_dots":2.75,"target":"left","response":"left","rt":634.89999997616,"correct":true,"confidence":4},{"trial_n":74,"n_dots":2.75,"target":"right","response":"right","rt":1015.1000000238,"correct":true,"confidence":2},{"trial_n":75,"n_dots":2.65,"target":"left","response":"left","rt":322.19999998808,"correct":true,"confidence":2},{"trial_n":76,"n_dots":2.65,"target":"right","response":"left","rt":468.60000002384,"correct":false,"confidence":2},{"trial_n":77,"n_dots":2.75,"target":"left","response":"left","rt":431.89999997616,"correct":true,"confidence":4},{"trial_n":78,"n_dots":2.75,"target":"right","response":"left","rt":1212.5,"correct":false,"confidence":2},{"trial_n":79,"n_dots":2.85,"target":"left","response":"left","rt":532.30000001192,"correct":true,"confidence":2},{"trial_n":80,"n_dots":2.85,"target":"right","response":"left","rt":584.19999998808,"correct":false,"confidence":4},{"trial_n":81,"n_dots":2.95,"target":"left","response":"left","rt":688,"correct":true,"confidence":6},{"trial_n":82,"n_dots":2.95,"target":"left","response":"left","rt":565.69999998808,"correct":true,"confidence":6},{"trial_n":83,"n_dots":2.85,"target":"right","response":"left","rt":513.80000001192,"correct":false,"confidence":6},{"trial_n":84,"n_dots":2.95,"target":"left","response":"left","rt":490.69999998808,"correct":true,"confidence":6},{"trial_n":85,"n_dots":2.95,"target":"left","response":"left","rt":376.30000001192,"correct":true,"confidence":6},{"trial_n":86,"n_dots":2.85,"target":"right","response":"left","rt":797.19999998808,"correct":false,"confidence":6},{"trial_n":87,"n_dots":2.95,"target":"right","response":"right","rt":592.89999997616,"correct":true,"confidence":4},{"trial_n":88,"n_dots":2.95,"target":"left","response":"left","rt":464.80000001192,"correct":true,"confidence":6},{"trial_n":89,"n_dots":2.85,"target":"right","response":"right","rt":743,"correct":true,"confidence":2},{"trial_n":90,"n_dots":2.85,"target":"right","response":"left","rt":1032.5,"correct":false,"confidence":2},{"trial_n":91,"n_dots":2.95,"target":"right","response":"right","rt":628.39999997616,"correct":true,"confidence":6},{"trial_n":92,"n_dots":2.95,"target":"right","response":"right","rt":690.60000002384,"correct":true,"confidence":5},{"trial_n":93,"n_dots":2.85,"target":"left","response":"left","rt":414.20000004768,"correct":true,"confidence":2},{"trial_n":94,"n_dots":2.85,"target":"right","response":"left","rt":611.30000001192,"correct":false,"confidence":4},{"trial_n":95,"n_dots":2.95,"target":"left","response":"left","rt":521.30000001192,"correct":true,"confidence":4},{"trial_n":96,"n_dots":2.95,"target":"right","response":"left","rt":409.10000002384,"correct":false,"confidence":2},{"trial_n":97,"n_dots":3.05,"target":"left","response":"left","rt":603,"correct":true,"confidence":4},{"trial_n":98,"n_dots":3.05,"target":"left","response":"left","rt":377.90000003576,"correct":true,"confidence":6},{"trial_n":99,"n_dots":2.95,"target":"left","response":"left","rt":529.19999998808,"correct":true,"confidence":6},{"trial_n":100,"n_dots":2.95,"target":"left","response":"left","rt":291,"correct":true,"confidence":6},{"trial_n":101,"n_dots":2.85,"target":"right","response":"left","rt":775,"correct":false,"confidence":4},{"trial_n":102,"n_dots":2.95,"target":"right","response":"left","rt":711.5,"correct":false,"confidence":4},{"trial_n":103,"n_dots":3.05,"target":"right","response":"left","rt":1326.5,"correct":false,"confidence":3},{"trial_n":104,"n_dots":3.15,"target":"left","response":"right","rt":946.19999998808,"correct":false,"confidence":2},{"trial_n":105,"n_dots":3.25,"target":"left","response":"left","rt":1521.5,"correct":true,"confidence":2},{"trial_n":106,"n_dots":3.25,"target":"right","response":"left","rt":760.40000003576,"correct":false,"confidence":5},{"trial_n":107,"n_dots":3.35,"target":"right","response":"left","rt":578.89999997616,"correct":false,"confidence":4},{"trial_n":108,"n_dots":3.45,"target":"right","response":"right","rt":510.30000001192,"correct":true,"confidence":5},{"trial_n":109,"n_dots":3.45,"target":"left","response":"left","rt":342.30000001192,"correct":true,"confidence":5},{"trial_n":110,"n_dots":3.35,"target":"left","response":"left","rt":7058.6999999881,"correct":true,"confidence":4},{"trial_n":111,"n_dots":3.35,"target":"right","response":"right","rt":437.5,"correct":true,"confidence":6},{"trial_n":112,"n_dots":3.25,"target":"right","response":"right","rt":716.39999997616,"correct":true,"confidence":4},{"trial_n":113,"n_dots":3.25,"target":"right","response":"right","rt":618.80000001192,"correct":true,"confidence":5},{"trial_n":114,"n_dots":3.15,"target":"right","response":"left","rt":1378.9000000358,"correct":false,"confidence":2},{"trial_n":115,"n_dots":3.25,"target":"right","response":"left","rt":1038.4000000358,"correct":false,"confidence":2},{"trial_n":116,"n_dots":3.35,"target":"right","response":"right","rt":552.90000003576,"correct":true,"confidence":5},{"trial_n":117,"n_dots":3.35,"target":"left","response":"left","rt":569,"correct":true,"confidence":3},{"trial_n":118,"n_dots":3.25,"target":"left","response":"left","rt":448.19999998808,"correct":true,"confidence":4},{"trial_n":119,"n_dots":3.25,"target":"right","response":"left","rt":844.80000001192,"correct":false,"confidence":2},{"trial_n":120,"n_dots":3.35,"target":"right","response":"right","rt":265.90000003576,"correct":true,"confidence":3},{"trial_n":121,"n_dots":3.35,"target":"left","response":"left","rt":242.69999998808,"correct":true,"confidence":6},{"trial_n":122,"n_dots":3.25,"target":"left","response":"left","rt":255.40000003576,"correct":true,"confidence":6},{"trial_n":123,"n_dots":3.25,"target":"left","response":"left","rt":272.10000002384,"correct":true,"confidence":6},{"trial_n":124,"n_dots":3.15,"target":"right","response":"left","rt":921.89999997616,"correct":false,"confidence":2},{"trial_n":125,"n_dots":3.25,"target":"right","response":"left","rt":601,"correct":false,"confidence":4},{"trial_n":126,"n_dots":3.35,"target":"left","response":"left","rt":405.5,"correct":true,"confidence":4},{"trial_n":127,"n_dots":3.35,"target":"left","response":"right","rt":515.19999998808,"correct":false,"confidence":2},{"trial_n":128,"n_dots":3.45,"target":"left","response":"left","rt":1028.1999999881,"correct":true,"confidence":6},{"trial_n":129,"n_dots":3.45,"target":"right","response":"right","rt":71.699999988079,"correct":true,"confidence":6},{"trial_n":130,"n_dots":3.35,"target":"right","response":"right","rt":290.10000002384,"correct":true,"confidence":6},{"trial_n":131,"n_dots":3.35,"target":"right","response":"right","rt":289.5,"correct":true,"confidence":6},{"trial_n":132,"n_dots":3.25,"target":"right","response":"right","rt":476.80000001192,"correct":true,"confidence":6},{"trial_n":133,"n_dots":3.25,"target":"right","response":"right","rt":574.80000001192,"correct":true,"confidence":6},{"trial_n":134,"n_dots":3.15,"target":"right","response":"left","rt":626.79999995232,"correct":false,"confidence":4},{"trial_n":135,"n_dots":3.25,"target":"left","response":"left","rt":320,"correct":true,"confidence":4},{"trial_n":136,"n_dots":3.25,"target":"right","response":"right","rt":197,"correct":true,"confidence":6},{"trial_n":137,"n_dots":3.15,"target":"left","response":"left","rt":164.10000002384,"correct":true,"confidence":5},{"trial_n":138,"n_dots":3.15,"target":"right","response":"left","rt":315.19999998808,"correct":false,"confidence":1},{"trial_n":139,"n_dots":3.25,"target":"right","response":"left","rt":766.30000001192,"correct":false,"confidence":1},{"trial_n":140,"n_dots":3.35,"target":"right","response":"left","rt":183.40000003576,"correct":false,"confidence":1},{"trial_n":141,"n_dots":3.45,"target":"right","response":"right","rt":200.20000004768,"correct":true,"confidence":6},{"trial_n":142,"n_dots":3.45,"target":"right","response":"right","rt":520,"correct":true,"confidence":6},{"trial_n":143,"n_dots":3.35,"target":"left","response":"right","rt":1378.9000000358,"correct":false,"confidence":4},{"trial_n":144,"n_dots":3.45,"target":"left","response":"left","rt":420.30000001192,"correct":true,"confidence":1},{"trial_n":145,"n_dots":3.45,"target":"right","response":"right","rt":384.5,"correct":true,"confidence":6},{"trial_n":146,"n_dots":3.35,"target":"left","response":"left","rt":201.10000002384,"correct":true,"confidence":4},{"trial_n":147,"n_dots":3.35,"target":"right","response":"left","rt":470.10000002384,"correct":false,"confidence":4},{"trial_n":148,"n_dots":3.45,"target":"right","response":"right","rt":430.5,"correct":true,"confidence":5},{"trial_n":149,"n_dots":3.45,"target":"left","response":"left","rt":174.89999997616,"correct":true,"confidence":5},{"trial_n":150,"n_dots":3.35,"target":"left","response":"left","rt":529.5,"correct":true,"confidence":5},{"trial_n":151,"n_dots":3.35,"target":"left","response":"left","rt":121.90000003576,"correct":true,"confidence":6},{"trial_n":152,"n_dots":3.25,"target":"right","response":"left","rt":427.09999996424,"correct":false,"confidence":5},{"trial_n":153,"n_dots":3.35,"target":"left","response":"left","rt":263.89999997616,"correct":true,"confidence":6},{"trial_n":154,"n_dots":3.35,"target":"left","response":"left","rt":162.80000001192,"correct":true,"confidence":6},{"trial_n":155,"n_dots":3.25,"target":"right","response":"left","rt":379.39999997616,"correct":false,"confidence":2},{"trial_n":156,"n_dots":3.35,"target":"right","response":"right","rt":715.39999997616,"correct":true,"confidence":5},{"trial_n":157,"n_dots":3.35,"target":"right","response":"right","rt":299.19999998808,"correct":true,"confidence":5},{"trial_n":158,"n_dots":3.25,"target":"right","response":"left","rt":543.59999996424,"correct":false,"confidence":4},{"trial_n":159,"n_dots":3.35,"target":"left","response":"left","rt":201.89999997616,"correct":true,"confidence":5},{"trial_n":160,"n_dots":3.35,"target":"right","response":"right","rt":434.5,"correct":true,"confidence":5},{"trial_n":161,"n_dots":3.25,"target":"left","response":"left","rt":330.60000002384,"correct":true,"confidence":5},{"trial_n":162,"n_dots":3.25,"target":"left","response":"left","rt":430.79999995232,"correct":true,"confidence":5},{"trial_n":163,"n_dots":3.15,"target":"left","response":"left","rt":619,"correct":true,"confidence":5},{"trial_n":164,"n_dots":3.15,"target":"left","response":"left","rt":852,"correct":true,"confidence":5},{"trial_n":165,"n_dots":3.05,"target":"right","response":"right","rt":1010.1000000238,"correct":true,"confidence":2},{"trial_n":166,"n_dots":3.05,"target":"left","response":"left","rt":5078.7999999523,"correct":true,"confidence":3},{"trial_n":167,"n_dots":2.95,"target":"left","response":"left","rt":294.40000003576,"correct":true,"confidence":6},{"trial_n":168,"n_dots":2.95,"target":"right","response":"right","rt":652.10000002384,"correct":true,"confidence":5},{"trial_n":169,"n_dots":2.85,"target":"right","response":"left","rt":275.39999997616,"correct":false,"confidence":1},{"trial_n":170,"n_dots":2.95,"target":"right","response":"right","rt":362.5,"correct":true,"confidence":5},{"trial_n":171,"n_dots":2.95,"target":"left","response":"left","rt":25.799999952316,"correct":true,"confidence":4},{"trial_n":172,"n_dots":2.85,"target":"right","response":"right","rt":95.100000023842,"correct":true,"confidence":5},{"trial_n":173,"n_dots":2.85,"target":"left","response":"left","rt":279.5,"correct":true,"confidence":4},{"trial_n":174,"n_dots":2.75,"target":"right","response":"right","rt":465.69999998808,"correct":true,"confidence":4},{"trial_n":175,"n_dots":2.75,"target":"right","response":"right","rt":434,"correct":true,"confidence":4},{"trial_n":176,"n_dots":2.65,"target":"right","response":"left","rt":282.5,"correct":false,"confidence":4},{"trial_n":177,"n_dots":2.75,"target":"right","response":"right","rt":327.90000003576,"correct":true,"confidence":2},{"trial_n":178,"n_dots":2.75,"target":"right","response":"right","rt":676.30000001192,"correct":true,"confidence":2},{"trial_n":179,"n_dots":2.65,"target":"left","response":"right","rt":294,"correct":false,"confidence":4},{"trial_n":180,"n_dots":2.75,"target":"left","response":"left","rt":114.70000004768,"correct":true,"confidence":2},{"trial_n":181,"n_dots":2.75,"target":"left","response":"left","rt":241.19999998808,"correct":true,"confidence":5},{"trial_n":182,"n_dots":2.65,"target":"left","response":"left","rt":367.09999996424,"correct":true,"confidence":4},{"trial_n":183,"n_dots":2.65,"target":"right","response":"right","rt":94.5,"correct":true,"confidence":4},{"trial_n":184,"n_dots":2.55,"target":"left","response":"right","rt":264.59999996424,"correct":false,"confidence":3},{"trial_n":185,"n_dots":2.65,"target":"left","response":"left","rt":339.5,"correct":true,"confidence":4},{"trial_n":186,"n_dots":2.65,"target":"right","response":"right","rt":247.69999998808,"correct":true,"confidence":4},{"trial_n":187,"n_dots":2.55,"target":"left","response":"left","rt":228.5,"correct":true,"confidence":2},{"trial_n":188,"n_dots":2.55,"target":"right","response":"right","rt":476.69999998808,"correct":true,"confidence":3},{"trial_n":189,"n_dots":2.45,"target":"left","response":"left","rt":337.30000001192,"correct":true,"confidence":4},{"trial_n":190,"n_dots":2.45,"target":"left","response":"right","rt":301.19999998808,"correct":false,"confidence":3},{"trial_n":191,"n_dots":2.55,"target":"right","response":"right","rt":783.59999996424,"correct":true,"confidence":5},{"trial_n":192,"n_dots":2.55,"target":"right","response":"right","rt":431.30000001192,"correct":true,"confidence":4},{"trial_n":193,"n_dots":2.45,"target":"left","response":"right","rt":338.90000003576,"correct":false,"confidence":2},{"trial_n":194,"n_dots":2.55,"target":"right","response":"right","rt":267.80000001192,"correct":true,"confidence":6}]