[{"trial_n":1,"n_dots":4.25,"target":"left","response":"left","rt":7994,"correct":true,"confidence":-1},{"trial_n":2,"n_dots":4.25,"target":"left","response":"left","rt":489,"correct":true,"confidence":-1},{"trial_n":3,"n_dots":3.85,"target":"left","response":"left","rt":588,"correct":true,"confidence":-1},{"trial_n":4,"n_dots":3.85,"target":"left","response":"left","rt":649,"correct":true,"confidence":-1},{"trial_n":5,"n_dots":3.45,"target":"right","response":"right","rt":308,"correct":true,"confidence":-1},{"trial_n":6,"n_dots":3.45,"target":"left","response":"left","rt":240,"correct":true,"confidence":-1},{"trial_n":7,"n_dots":3.05,"target":"left","response":"right","rt":3088,"correct":false,"confidence":-1},{"trial_n":8,"n_dots":3.25,"target":"left","response":"right","rt":528,"correct":false,"confidence":-1},{"trial_n":9,"n_dots":3.45,"target":"left","response":"left","rt":297,"correct":true,"confidence":-1},{"trial_n":10,"n_dots":3.45,"target":"left","response":"left","rt":345,"correct":true,"confidence":-1},{"trial_n":11,"n_dots":3.25,"target":"right","response":"left","rt":430,"correct":false,"confidence":-1},{"trial_n":12,"n_dots":3.45,"target":"left","response":"left","rt":302,"correct":true,"confidence":-1},{"trial_n":13,"n_dots":3.45,"target":"left","response":"left","rt":299,"correct":true,"confidence":-1},{"trial_n":14,"n_dots":3.35,"target":"left","response":"left","rt":712,"correct":true,"confidence":-1},{"trial_n":15,"n_dots":3.35,"target":"left","response":"left","rt":1040,"correct":true,"confidence":-1},{"trial_n":16,"n_dots":3.25,"target":"left","response":"left","rt":186,"correct":true,"confidence":-1},{"trial_n":17,"n_dots":3.25,"target":"right","response":"right","rt":294,"correct":true,"confidence":-1},{"trial_n":18,"n_dots":3.15,"target":"right","response":"right","rt":457,"correct":true,"confidence":-1},{"trial_n":19,"n_dots":3.15,"target":"right","response":"left","rt":278,"correct":false,"confidence":-1},{"trial_n":20,"n_dots":3.25,"target":"left","response":"right","rt":1235,"correct":false,"confidence":-1},{"trial_n":21,"n_dots":3.35,"target":"right","response":"right","rt":632,"correct":true,"confidence":-1},{"trial_n":22,"n_dots":3.35,"target":"right","response":"right","rt":481,"correct":true,"confidence":-1},{"trial_n":23,"n_dots":3.25,"target":"right","response":"right","rt":362,"correct":true,"confidence":-1},{"trial_n":24,"n_dots":3.25,"target":"left","response":"left","rt":336,"correct":true,"confidence":-1},{"trial_n":25,"n_dots":3.15,"target":"right","response":"right","rt":490,"correct":true,"confidence":-1},{"trial_n":26,"n_dots":3.15,"target":"right","response":"right","rt":486,"correct":true,"confidence":-1},{"trial_n":27,"n_dots":3.05,"target":"right","response":"right","rt":427,"correct":true,"confidence":2},{"trial_n":28,"n_dots":3.05,"target":"left","response":"left","rt":470,"correct":true,"confidence":4},{"trial_n":29,"n_dots":2.95,"target":"left","response":"left","rt":342,"correct":true,"confidence":5},{"trial_n":30,"n_dots":2.95,"target":"right","response":"right","rt":805,"correct":true,"confidence":1},{"trial_n":31,"n_dots":2.85,"target":"left","response":"left","rt":577,"correct":true,"confidence":4},{"trial_n":32,"n_dots":2.85,"target":"left","response":"left","rt":565,"correct":true,"confidence":5},{"trial_n":33,"n_dots":2.75,"target":"right","response":"right","rt":546,"correct":true,"confidence":2},{"trial_n":34,"n_dots":2.75,"target":"right","response":"right","rt":1728,"correct":true,"confidence":1},{"trial_n":35,"n_dots":2.65,"target":"right","response":"left","rt":1355,"correct":false,"confidence":2},{"trial_n":36,"n_dots":2.75,"target":"right","response":"left","rt":732,"correct":false,"confidence":3},{"trial_n":37,"n_dots":2.85,"target":"right","response":"left","rt":1772,"correct":false,"confidence":1},{"trial_n":38,"n_dots":2.95,"target":"left","response":"left","rt":586,"correct":true,"confidence":3},{"trial_n":39,"n_dots":2.95,"target":"right","response":"right","rt":644,"correct":true,"confidence":4},{"trial_n":40,"n_dots":2.85,"target":"right","response":"right","rt":550,"correct":true,"confidence":2},{"trial_n":41,"n_dots":2.85,"target":"right","response":"left","rt":473,"correct":false,"confidence":5},{"trial_n":42,"n_dots":2.95,"target":"right","response":"right","rt":462,"correct":true,"confidence":3},{"trial_n":43,"n_dots":2.95,"target":"right","response":"right","rt":475,"correct":true,"confidence":4},{"trial_n":44,"n_dots":2.85,"target":"right","response":"right","rt":390,"correct":true,"confidence":2},{"trial_n":45,"n_dots":2.85,"target":"left","response":"left","rt":738,"correct":true,"confidence":3},{"trial_n":46,"n_dots":2.75,"target":"right","response":"left","rt":282,"correct":false,"confidence":5},{"trial_n":47,"n_dots":2.85,"target":"right","response":"right","rt":403,"correct":true,"confidence":2},{"trial_n":48,"n_dots":2.85,"target":"left","response":"left","rt":243,"correct":true,"confidence":6},{"trial_n":49,"n_dots":2.75,"target":"left","response":"left","rt":318,"correct":true,"confidence":6},{"trial_n":50,"n_dots":2.75,"target":"right","response":"right","rt":785,"correct":true,"confidence":3},{"trial_n":51,"n_dots":2.65,"target":"right","response":"right","rt":453,"correct":true,"confidence":4},{"trial_n":52,"n_dots":2.65,"target":"left","response":"left","rt":356,"correct":true,"confidence":4},{"trial_n":53,"n_dots":2.55,"target":"left","response":"left","rt":801,"correct":true,"confidence":6},{"trial_n":54,"n_dots":2.55,"target":"right","response":"right","rt":1109,"correct":true,"confidence":2},{"trial_n":55,"n_dots":2.45,"target":"left","response":"left","rt":891,"correct":true,"confidence":4},{"trial_n":56,"n_dots":2.45,"target":"left","response":"left","rt":1721,"correct":true,"confidence":4},{"trial_n":57,"n_dots":2.35,"target":"right","response":"left","rt":698,"correct":false,"confidence":3},{"trial_n":58,"n_dots":2.45,"target":"right","response":"right","rt":1221,"correct":true,"confidence":2},{"trial_n":59,"n_dots":2.45,"target":"right","response":"left","rt":1033,"correct":false,"confidence":1},{"trial_n":60,"n_dots":2.55,"target":"right","response":"left","rt":689,"correct":false,"confidence":1},{"trial_n":61,"n_dots":2.65,"target":"right","response":"left","rt":1080,"correct":false,"confidence":3},{"trial_n":62,"n_dots":2.75,"target":"right","response":"right","rt":995,"correct":true,"confidence":1},{"trial_n":63,"n_dots":2.75,"target":"right","response":"right","rt":1630,"correct":true,"confidence":1},{"trial_n":64,"n_dots":2.65,"target":"left","response":"right","rt":3434,"correct":false,"confidence":1},{"trial_n":65,"n_dots":2.75,"target":"right","response":"left","rt":609,"correct":false,"confidence":3},{"trial_n":66,"n_dots":2.85,"target":"right","response":"left","rt":966,"correct":false,"confidence":2},{"trial_n":67,"n_dots":2.95,"target":"left","response":"left","rt":567,"correct":true,"confidence":2},{"trial_n":68,"n_dots":2.95,"target":"right","response":"left","rt":870,"correct":false,"confidence":1},{"trial_n":69,"n_dots":3.05,"target":"right","response":"left","rt":399,"correct":false,"confidence":1},{"trial_n":70,"n_dots":3.15,"target":"left","response":"left","rt":421,"correct":true,"confidence":3},{"trial_n":71,"n_dots":3.15,"target":"left","response":"left","rt":363,"correct":true,"confidence":4},{"trial_n":72,"n_dots":3.05,"target":"right","response":"left","rt":795,"correct":false,"confidence":3},{"trial_n":73,"n_dots":3.15,"target":"right","response":"right","rt":705,"correct":true,"confidence":3},{"trial_n":74,"n_dots":3.15,"target":"right","response":"right","rt":951,"correct":true,"confidence":3},{"trial_n":75,"n_dots":3.05,"target":"left","response":"left","rt":838,"correct":true,"confidence":4},{"trial_n":76,"n_dots":3.05,"target":"left","response":"left","rt":572,"correct":true,"confidence":5},{"trial_n":77,"n_dots":2.95,"target":"left","response":"left","rt":779,"correct":true,"confidence":4},{"trial_n":78,"n_dots":2.95,"target":"right","response":"right","rt":603,"correct":true,"confidence":3},{"trial_n":79,"n_dots":2.85,"target":"left","response":"right","rt":888,"correct":false,"confidence":3},{"trial_n":80,"n_dots":2.95,"target":"left","response":"left","rt":1491,"correct":true,"confidence":5},{"trial_n":81,"n_dots":2.95,"target":"left","response":"left","rt":619,"correct":true,"confidence":6},{"trial_n":82,"n_dots":2.85,"target":"right","response":"right","rt":722,"correct":true,"confidence":4},{"trial_n":83,"n_dots":2.85,"target":"right","response":"left","rt":1038,"correct":false,"confidence":4},{"trial_n":84,"n_dots":2.95,"target":"left","response":"left","rt":558,"correct":true,"confidence":3},{"trial_n":85,"n_dots":2.95,"target":"left","response":"left","rt":373,"correct":true,"confidence":6},{"trial_n":86,"n_dots":2.85,"target":"left","response":"left","rt":1487,"correct":true,"confidence":4},{"trial_n":87,"n_dots":2.85,"target":"right","response":"left","rt":748,"correct":false,"confidence":3},{"trial_n":88,"n_dots":2.95,"target":"right","response":"right","rt":370,"correct":true,"confidence":5},{"trial_n":89,"n_dots":2.95,"target":"right","response":"left","rt":6179,"correct":false,"confidence":5},{"trial_n":90,"n_dots":3.05,"target":"right","response":"left","rt":285,"correct":false,"confidence":5},{"trial_n":91,"n_dots":3.15,"target":"left","response":"left","rt":499,"correct":true,"confidence":4},{"trial_n":92,"n_dots":3.15,"target":"left","response":"left","rt":316,"correct":true,"confidence":6},{"trial_n":93,"n_dots":3.05,"target":"left","response":"left","rt":495,"correct":true,"confidence":5},{"trial_n":94,"n_dots":3.05,"target":"left","response":"left","rt":669,"correct":true,"confidence":5},{"trial_n":95,"n_dots":2.95,"target":"left","response":"left","rt":540,"correct":true,"confidence":6},{"trial_n":96,"n_dots":2.95,"target":"left","response":"left","rt":831,"correct":true,"confidence":6},{"trial_n":97,"n_dots":2.85,"target":"right","response":"left","rt":502,"correct":false,"confidence":3},{"trial_n":98,"n_dots":2.95,"target":"left","response":"left","rt":324,"correct":true,"confidence":3},{"trial_n":99,"n_dots":2.95,"target":"left","response":"left","rt":922,"correct":true,"confidence":5},{"trial_n":100,"n_dots":2.85,"target":"left","response":"left","rt":1281,"correct":true,"confidence":5},{"trial_n":101,"n_dots":2.85,"target":"right","response":"left","rt":11675,"correct":false,"confidence":1},{"trial_n":102,"n_dots":2.95,"target":"right","response":"left","rt":1933,"correct":false,"confidence":4},{"trial_n":103,"n_dots":3.05,"target":"left","response":"left","rt":499,"correct":true,"confidence":5},{"trial_n":104,"n_dots":3.05,"target":"left","response":"left","rt":581,"correct":true,"confidence":4},{"trial_n":105,"n_dots":2.95,"target":"left","response":"left","rt":311,"correct":true,"confidence":6},{"trial_n":106,"n_dots":2.95,"target":"right","response":"right","rt":1307,"correct":true,"confidence":5},{"trial_n":107,"n_dots":2.85,"target":"right","response":"left","rt":1295,"correct":false,"confidence":1},{"trial_n":108,"n_dots":2.95,"target":"right","response":"right","rt":720,"correct":true,"confidence":4},{"trial_n":109,"n_dots":2.95,"target":"left","response":"left","rt":453,"correct":true,"confidence":1},{"trial_n":110,"n_dots":2.85,"target":"right","response":"left","rt":440,"correct":false,"confidence":1},{"trial_n":111,"n_dots":2.95,"target":"right","response":"left","rt":2341,"correct":false,"confidence":1},{"trial_n":112,"n_dots":3.05,"target":"right","response":"right","rt":2714,"correct":true,"confidence":3},{"trial_n":113,"n_dots":3.05,"target":"left","response":"left","rt":276,"correct":true,"confidence":4},{"trial_n":114,"n_dots":2.95,"target":"right","response":"left","rt":231,"correct":false,"confidence":5},{"trial_n":115,"n_dots":3.05,"target":"left","response":"left","rt":252,"correct":true,"confidence":6},{"trial_n":116,"n_dots":3.05,"target":"left","response":"left","rt":311,"correct":true,"confidence":4},{"trial_n":117,"n_dots":2.95,"target":"right","response":"left","rt":275,"correct":false,"confidence":6},{"trial_n":118,"n_dots":3.05,"target":"left","response":"left","rt":305,"correct":true,"confidence":6},{"trial_n":119,"n_dots":3.05,"target":"left","response":"left","rt":123,"correct":true,"confidence":6},{"trial_n":120,"n_dots":2.95,"target":"left","response":"left","rt":910,"correct":true,"confidence":6},{"trial_n":121,"n_dots":2.95,"target":"left","response":"left","rt":130,"correct":true,"confidence":6},{"trial_n":122,"n_dots":2.85,"target":"right","response":"left","rt":530,"correct":false,"confidence":6},{"trial_n":123,"n_dots":2.95,"target":"left","response":"left","rt":333,"correct":true,"confidence":4},{"trial_n":124,"n_dots":2.95,"target":"right","response":"right","rt":846,"correct":true,"confidence":2},{"trial_n":125,"n_dots":2.85,"target":"left","response":"left","rt":325,"correct":true,"confidence":4},{"trial_n":126,"n_dots":2.85,"target":"right","response":"left","rt":329,"correct":false,"confidence":6},{"trial_n":127,"n_dots":2.95,"target":"left","response":"left","rt":316,"correct":true,"confidence":4},{"trial_n":128,"n_dots":2.95,"target":"left","response":"left","rt":343,"correct":true,"confidence":5},{"trial_n":129,"n_dots":2.85,"target":"left","response":"left","rt":373,"correct":true,"confidence":4},{"trial_n":130,"n_dots":2.85,"target":"left","response":"left","rt":264,"correct":true,"confidence":5},{"trial_n":131,"n_dots":2.75,"target":"left","response":"left","rt":673,"correct":true,"confidence":6},{"trial_n":132,"n_dots":2.75,"target":"right","response":"left","rt":490,"correct":false,"confidence":5},{"trial_n":133,"n_dots":2.85,"target":"left","response":"left","rt":372,"correct":true,"confidence":5},{"trial_n":134,"n_dots":2.85,"target":"right","response":"left","rt":299,"correct":false,"confidence":4},{"trial_n":135,"n_dots":2.95,"target":"left","response":"left","rt":447,"correct":true,"confidence":5},{"trial_n":136,"n_dots":2.95,"target":"left","response":"left","rt":483,"correct":true,"confidence":5},{"trial_n":137,"n_dots":2.85,"target":"left","response":"left","rt":391,"correct":true,"confidence":1},{"trial_n":138,"n_dots":2.85,"target":"right","response":"left","rt":644,"correct":false,"confidence":1},{"trial_n":139,"n_dots":2.95,"target":"left","response":"left","rt":131,"correct":true,"confidence":3},{"trial_n":140,"n_dots":2.95,"target":"left","response":"right","rt":1305,"correct":false,"confidence":2},{"trial_n":141,"n_dots":3.05,"target":"left","response":"left","rt":1256,"correct":true,"confidence":2},{"trial_n":142,"n_dots":3.05,"target":"right","response":"right","rt":1288,"correct":true,"confidence":4},{"trial_n":143,"n_dots":2.95,"target":"right","response":"right","rt":1524,"correct":true,"confidence":1},{"trial_n":144,"n_dots":2.95,"target":"left","response":"left","rt":290,"correct":true,"confidence":6},{"trial_n":145,"n_dots":2.85,"target":"left","response":"left","rt":525,"correct":true,"confidence":3},{"trial_n":146,"n_dots":2.85,"target":"left","response":"left","rt":98,"correct":true,"confidence":4},{"trial_n":147,"n_dots":2.75,"target":"right","response":"right","rt":764,"correct":true,"confidence":2},{"trial_n":148,"n_dots":2.75,"target":"right","response":"right","rt":872,"correct":true,"confidence":3},{"trial_n":149,"n_dots":2.65,"target":"left","response":"left","rt":286,"correct":true,"confidence":5},{"trial_n":150,"n_dots":2.65,"target":"right","response":"left","rt":1291,"correct":false,"confidence":3},{"trial_n":151,"n_dots":2.75,"target":"left","response":"left","rt":454,"correct":true,"confidence":4},{"trial_n":152,"n_dots":2.75,"target":"right","response":"left","rt":424,"correct":false,"confidence":5},{"trial_n":153,"n_dots":2.85,"target":"right","response":"left","rt":293,"correct":false,"confidence":4},{"trial_n":154,"n_dots":2.95,"target":"right","response":"left","rt":524,"correct":false,"confidence":4},{"trial_n":155,"n_dots":3.05,"target":"right","response":"right","rt":407,"correct":true,"confidence":2},{"trial_n":156,"n_dots":3.05,"target":"right","response":"right","rt":927,"correct":true,"confidence":1},{"trial_n":157,"n_dots":2.95,"target":"right","response":"right","rt":1653,"correct":true,"confidence":1},{"trial_n":158,"n_dots":2.95,"target":"left","response":"left","rt":286,"correct":true,"confidence":6},{"trial_n":159,"n_dots":2.85,"target":"right","response":"right","rt":601,"correct":true,"confidence":3},{"trial_n":160,"n_dots":2.85,"target":"left","response":"left","rt":422,"correct":true,"confidence":4},{"trial_n":161,"n_dots":2.75,"target":"right","response":"right","rt":452,"correct":true,"confidence":5},{"trial_n":162,"n_dots":2.75,"target":"right","response":"left","rt":300,"correct":false,"confidence":6},{"trial_n":163,"n_dots":2.85,"target":"left","response":"left","rt":481,"correct":true,"confidence":4},{"trial_n":164,"n_dots":2.85,"target":"right","response":"right","rt":308,"correct":true,"confidence":5},{"trial_n":165,"n_dots":2.75,"target":"left","response":"left","rt":278,"correct":true,"confidence":3},{"trial_n":166,"n_dots":2.75,"target":"left","response":"left","rt":43,"correct":true,"confidence":5},{"trial_n":167,"n_dots":2.65,"target":"left","response":"right","rt":502,"correct":false,"confidence":4},{"trial_n":168,"n_dots":2.75,"target":"left","response":"left","rt":374,"correct":true,"confidence":4},{"trial_n":169,"n_dots":2.75,"target":"right","response":"left","rt":1447,"correct":false,"confidence":2},{"trial_n":170,"n_dots":2.85,"target":"right","response":"right","rt":765,"correct":true,"confidence":2},{"trial_n":171,"n_dots":2.85,"target":"left","response":"left","rt":259,"correct":true,"confidence":4},{"trial_n":172,"n_dots":2.75,"target":"left","response":"left","rt":510,"correct":true,"confidence":5},{"trial_n":173,"n_dots":2.75,"target":"right","response":"left","rt":438,"correct":false,"confidence":5},{"trial_n":174,"n_dots":2.85,"target":"right","response":"left","rt":1132,"correct":false,"confidence":3},{"trial_n":175,"n_dots":2.95,"target":"left","response":"left","rt":458,"correct":true,"confidence":3},{"trial_n":176,"n_dots":2.95,"target":"left","response":"left","rt":334,"correct":true,"confidence":5},{"trial_n":177,"n_dots":2.85,"target":"right","response":"left","rt":441,"correct":false,"confidence":4},{"trial_n":178,"n_dots":2.95,"target":"left","response":"right","rt":1066,"correct":false,"confidence":2},{"trial_n":179,"n_dots":3.05,"target":"left","response":"left","rt":388,"correct":true,"confidence":5},{"trial_n":180,"n_dots":3.05,"target":"right","response":"right","rt":347,"correct":true,"confidence":5},{"trial_n":181,"n_dots":2.95,"target":"right","response":"right","rt":615,"correct":true,"confidence":2},{"trial_n":182,"n_dots":2.95,"target":"right","response":"right","rt":1390,"correct":true,"confidence":1},{"trial_n":183,"n_dots":2.85,"target":"right","response":"right","rt":1910,"correct":true,"confidence":1},{"trial_n":184,"n_dots":2.85,"target":"right","response":"right","rt":947,"correct":true,"confidence":1},{"trial_n":185,"n_dots":2.75,"target":"right","response":"left","rt":310,"correct":false,"confidence":3},{"trial_n":186,"n_dots":2.85,"target":"left","response":"left","rt":515,"correct":true,"confidence":5},{"trial_n":187,"n_dots":2.85,"target":"left","response":"left","rt":361,"correct":true,"confidence":4},{"trial_n":188,"n_dots":2.75,"target":"right","response":"left","rt":685,"correct":false,"confidence":3},{"trial_n":189,"n_dots":2.85,"target":"right","response":"right","rt":282,"correct":true,"confidence":4},{"trial_n":190,"n_dots":2.85,"target":"right","response":"left","rt":352,"correct":false,"confidence":5},{"trial_n":191,"n_dots":2.95,"target":"right","response":"left","rt":418,"correct":false,"confidence":5},{"trial_n":192,"n_dots":3.05,"target":"right","response":"left","rt":438,"correct":false,"confidence":4},{"trial_n":193,"n_dots":3.15,"target":"left","response":"left","rt":252,"correct":true,"confidence":6},{"trial_n":194,"n_dots":3.15,"target":"left","response":"left","rt":411,"correct":true,"confidence":6}]