[{"trial_n":1,"n_dots":4.25,"target":"left","response":"left","rt":16832.399999999,"correct":true,"confidence":-1},{"trial_n":2,"n_dots":4.25,"target":"right","response":"right","rt":1203.0999999978,"correct":true,"confidence":-1},{"trial_n":3,"n_dots":3.85,"target":"left","response":"left","rt":1183.299999997,"correct":true,"confidence":-1},{"trial_n":4,"n_dots":3.85,"target":"left","response":"left","rt":1154.8000000007,"correct":true,"confidence":-1},{"trial_n":5,"n_dots":3.45,"target":"right","response":"right","rt":1207.3999999985,"correct":true,"confidence":-1},{"trial_n":6,"n_dots":3.45,"target":"left","response":"left","rt":984.5,"correct":true,"confidence":-1},{"trial_n":7,"n_dots":3.05,"target":"right","response":"left","rt":1137.700000003,"correct":false,"confidence":-1},{"trial_n":8,"n_dots":3.25,"target":"left","response":"left","rt":997.29999999702,"correct":true,"confidence":-1},{"trial_n":9,"n_dots":3.25,"target":"right","response":"right","rt":1124.5,"correct":true,"confidence":-1},{"trial_n":10,"n_dots":3.05,"target":"left","response":"left","rt":1168.8000000007,"correct":true,"confidence":-1},{"trial_n":11,"n_dots":3.05,"target":"right","response":"left","rt":897.80000000075,"correct":false,"confidence":-1},{"trial_n":12,"n_dots":3.25,"target":"left","response":"right","rt":1666.3999999985,"correct":false,"confidence":-1},{"trial_n":13,"n_dots":3.35,"target":"left","response":"left","rt":1259.5,"correct":true,"confidence":-1},{"trial_n":14,"n_dots":3.35,"target":"left","response":"left","rt":2386.8000000007,"correct":true,"confidence":-1},{"trial_n":15,"n_dots":3.25,"target":"right","response":"right","rt":1050.3999999985,"correct":true,"confidence":-1},{"trial_n":16,"n_dots":3.25,"target":"right","response":"right","rt":1104.6000000015,"correct":true,"confidence":-1},{"trial_n":17,"n_dots":3.15,"target":"left","response":"left","rt":1641.1999999993,"correct":true,"confidence":-1},{"trial_n":18,"n_dots":3.15,"target":"left","response":"left","rt":2608.3000000007,"correct":true,"confidence":-1},{"trial_n":19,"n_dots":3.05,"target":"left","response":"left","rt":1293.6999999993,"correct":true,"confidence":-1},{"trial_n":20,"n_dots":3.05,"target":"left","response":"right","rt":782.19999999925,"correct":false,"confidence":-1},{"trial_n":21,"n_dots":3.15,"target":"left","response":"left","rt":492.39999999851,"correct":true,"confidence":-1},{"trial_n":22,"n_dots":3.15,"target":"right","response":"left","rt":587.19999999925,"correct":false,"confidence":-1},{"trial_n":23,"n_dots":3.25,"target":"left","response":"right","rt":1131.3000000007,"correct":false,"confidence":-1},{"trial_n":24,"n_dots":3.35,"target":"right","response":"left","rt":1141,"correct":false,"confidence":-1},{"trial_n":25,"n_dots":3.45,"target":"right","response":"right","rt":773.19999999925,"correct":true,"confidence":-1},{"trial_n":26,"n_dots":3.45,"target":"right","response":"right","rt":1037.6999999993,"correct":true,"confidence":-1},{"trial_n":27,"n_dots":3.35,"target":"right","response":"left","rt":12427.300000001,"correct":false,"confidence":1},{"trial_n":28,"n_dots":3.45,"target":"right","response":"left","rt":1081.3999999985,"correct":false,"confidence":3},{"trial_n":29,"n_dots":3.55,"target":"left","response":"left","rt":1491.6999999993,"correct":true,"confidence":1},{"trial_n":30,"n_dots":3.55,"target":"left","response":"left","rt":1118.5,"correct":true,"confidence":1},{"trial_n":31,"n_dots":3.45,"target":"left","response":"left","rt":2838.6000000015,"correct":true,"confidence":4},{"trial_n":32,"n_dots":3.45,"target":"right","response":"right","rt":2425.5,"correct":true,"confidence":3},{"trial_n":33,"n_dots":3.35,"target":"right","response":"left","rt":1100.8000000007,"correct":false,"confidence":1},{"trial_n":34,"n_dots":3.45,"target":"left","response":"left","rt":533.80000000075,"correct":true,"confidence":1},{"trial_n":35,"n_dots":3.45,"target":"left","response":"left","rt":1970.6000000015,"correct":true,"confidence":1},{"trial_n":36,"n_dots":3.35,"target":"right","response":"right","rt":1162.3000000007,"correct":true,"confidence":3},{"trial_n":37,"n_dots":3.35,"target":"right","response":"left","rt":2318,"correct":false,"confidence":1},{"trial_n":38,"n_dots":3.45,"target":"left","response":"right","rt":3479.8999999985,"correct":false,"confidence":1},{"trial_n":39,"n_dots":3.55,"target":"left","response":"left","rt":1145.1999999993,"correct":true,"confidence":5},{"trial_n":40,"n_dots":3.55,"target":"right","response":"right","rt":1231.5999999978,"correct":true,"confidence":5},{"trial_n":41,"n_dots":3.45,"target":"left","response":"left","rt":1533.6000000015,"correct":true,"confidence":3},{"trial_n":42,"n_dots":3.45,"target":"left","response":"left","rt":1211.5999999978,"correct":true,"confidence":3},{"trial_n":43,"n_dots":3.35,"target":"right","response":"right","rt":1199.9000000022,"correct":true,"confidence":5},{"trial_n":44,"n_dots":3.35,"target":"right","response":"right","rt":980.60000000149,"correct":true,"confidence":5},{"trial_n":45,"n_dots":3.25,"target":"right","response":"left","rt":1320.3000000007,"correct":false,"confidence":4},{"trial_n":46,"n_dots":3.35,"target":"left","response":"left","rt":901.5,"correct":true,"confidence":4},{"trial_n":47,"n_dots":3.35,"target":"left","response":"right","rt":1284.6000000015,"correct":false,"confidence":4},{"trial_n":48,"n_dots":3.45,"target":"right","response":"right","rt":1170.700000003,"correct":true,"confidence":3},{"trial_n":49,"n_dots":3.45,"target":"right","response":"right","rt":1183.3999999985,"correct":true,"confidence":4},{"trial_n":50,"n_dots":3.35,"target":"right","response":"right","rt":1250,"correct":true,"confidence":5},{"trial_n":51,"n_dots":3.35,"target":"right","response":"right","rt":1166.4000000022,"correct":true,"confidence":4},{"trial_n":52,"n_dots":3.25,"target":"right","response":"right","rt":1066.5999999978,"correct":true,"confidence":3},{"trial_n":53,"n_dots":3.25,"target":"left","response":"left","rt":1135.8999999985,"correct":true,"confidence":4},{"trial_n":54,"n_dots":3.15,"target":"left","response":"left","rt":1050.5999999978,"correct":true,"confidence":4},{"trial_n":55,"n_dots":3.15,"target":"right","response":"right","rt":1183.3999999985,"correct":true,"confidence":4},{"trial_n":56,"n_dots":3.05,"target":"left","response":"right","rt":1199.799999997,"correct":false,"confidence":3},{"trial_n":57,"n_dots":3.15,"target":"right","response":"right","rt":1158.5999999978,"correct":true,"confidence":4},{"trial_n":58,"n_dots":3.15,"target":"left","response":"left","rt":1035.6999999993,"correct":true,"confidence":4},{"trial_n":59,"n_dots":3.05,"target":"right","response":"right","rt":1265.3000000007,"correct":true,"confidence":3},{"trial_n":60,"n_dots":3.05,"target":"right","response":"right","rt":1218.200000003,"correct":true,"confidence":3},{"trial_n":61,"n_dots":2.95,"target":"right","response":"left","rt":1061.9000000022,"correct":false,"confidence":4},{"trial_n":62,"n_dots":3.05,"target":"right","response":"left","rt":1284.6999999993,"correct":false,"confidence":3},{"trial_n":63,"n_dots":3.15,"target":"left","response":"left","rt":1010.4000000022,"correct":true,"confidence":5},{"trial_n":64,"n_dots":3.15,"target":"right","response":"right","rt":1274.799999997,"correct":true,"confidence":1},{"trial_n":65,"n_dots":3.05,"target":"left","response":"left","rt":1696.6999999993,"correct":true,"confidence":4},{"trial_n":66,"n_dots":3.05,"target":"left","response":"left","rt":1242.5,"correct":true,"confidence":4},{"trial_n":67,"n_dots":2.95,"target":"right","response":"left","rt":1182.3999999985,"correct":false,"confidence":4},{"trial_n":68,"n_dots":3.05,"target":"left","response":"right","rt":1465.1999999993,"correct":false,"confidence":3},{"trial_n":69,"n_dots":3.15,"target":"right","response":"right","rt":1491.4000000022,"correct":true,"confidence":3},{"trial_n":70,"n_dots":3.15,"target":"right","response":"right","rt":1005.8000000007,"correct":true,"confidence":5},{"trial_n":71,"n_dots":3.05,"target":"left","response":"right","rt":1093,"correct":false,"confidence":3},{"trial_n":72,"n_dots":3.15,"target":"left","response":"left","rt":2272.9000000022,"correct":true,"confidence":2},{"trial_n":73,"n_dots":3.15,"target":"right","response":"right","rt":1074.3999999985,"correct":true,"confidence":4},{"trial_n":74,"n_dots":3.05,"target":"right","response":"right","rt":1076.6000000015,"correct":true,"confidence":4},{"trial_n":75,"n_dots":3.05,"target":"right","response":"right","rt":1327.4000000022,"correct":true,"confidence":4},{"trial_n":76,"n_dots":2.95,"target":"right","response":"right","rt":1062.299999997,"correct":true,"confidence":5},{"trial_n":77,"n_dots":2.95,"target":"left","response":"left","rt":1652.200000003,"correct":true,"confidence":3},{"trial_n":78,"n_dots":2.85,"target":"right","response":"left","rt":4195.5,"correct":false,"confidence":3},{"trial_n":79,"n_dots":2.95,"target":"left","response":"left","rt":1340.3000000007,"correct":true,"confidence":1},{"trial_n":80,"n_dots":2.95,"target":"right","response":"right","rt":1549.3999999985,"correct":true,"confidence":1},{"trial_n":81,"n_dots":2.85,"target":"left","response":"right","rt":1760.799999997,"correct":false,"confidence":3},{"trial_n":82,"n_dots":2.95,"target":"right","response":"right","rt":965.39999999851,"correct":true,"confidence":5},{"trial_n":83,"n_dots":2.95,"target":"right","response":"left","rt":752.69999999925,"correct":false,"confidence":4},{"trial_n":84,"n_dots":3.05,"target":"left","response":"left","rt":719.5,"correct":true,"confidence":5},{"trial_n":85,"n_dots":3.05,"target":"right","response":"right","rt":1081.1999999993,"correct":true,"confidence":3},{"trial_n":86,"n_dots":2.95,"target":"right","response":"right","rt":984.39999999851,"correct":true,"confidence":3},{"trial_n":87,"n_dots":2.95,"target":"left","response":"left","rt":1138.8000000007,"correct":true,"confidence":3},{"trial_n":88,"n_dots":2.85,"target":"right","response":"right","rt":1107,"correct":true,"confidence":3},{"trial_n":89,"n_dots":2.85,"target":"left","response":"right","rt":1179.9000000022,"correct":false,"confidence":1},{"trial_n":90,"n_dots":2.95,"target":"left","response":"right","rt":1290.299999997,"correct":false,"confidence":2},{"trial_n":91,"n_dots":3.05,"target":"right","response":"right","rt":985.09999999776,"correct":true,"confidence":2},{"trial_n":92,"n_dots":3.05,"target":"left","response":"left","rt":1496.8000000007,"correct":true,"confidence":4},{"trial_n":93,"n_dots":2.95,"target":"right","response":"right","rt":676.90000000224,"correct":true,"confidence":1},{"trial_n":94,"n_dots":2.95,"target":"right","response":"left","rt":2281.5,"correct":false,"confidence":2},{"trial_n":95,"n_dots":3.05,"target":"right","response":"left","rt":2526.5,"correct":false,"confidence":1},{"trial_n":96,"n_dots":3.15,"target":"right","response":"right","rt":1042.1000000015,"correct":true,"confidence":1},{"trial_n":97,"n_dots":3.15,"target":"left","response":"right","rt":1061.8000000007,"correct":false,"confidence":1},{"trial_n":98,"n_dots":3.25,"target":"right","response":"right","rt":1228.8999999985,"correct":true,"confidence":3},{"trial_n":99,"n_dots":3.25,"target":"left","response":"left","rt":571.30000000075,"correct":true,"confidence":4},{"trial_n":100,"n_dots":3.15,"target":"right","response":"right","rt":1132.6999999993,"correct":true,"confidence":3},{"trial_n":101,"n_dots":3.15,"target":"left","response":"right","rt":663.60000000149,"correct":false,"confidence":2},{"trial_n":102,"n_dots":3.25,"target":"right","response":"right","rt":931.39999999851,"correct":true,"confidence":2},{"trial_n":103,"n_dots":3.25,"target":"left","response":"left","rt":617.30000000075,"correct":true,"confidence":5},{"trial_n":104,"n_dots":3.15,"target":"left","response":"right","rt":1023.3000000007,"correct":false,"confidence":2},{"trial_n":105,"n_dots":3.25,"target":"left","response":"left","rt":764.19999999925,"correct":true,"confidence":2},{"trial_n":106,"n_dots":3.25,"target":"left","response":"left","rt":1278.5,"correct":true,"confidence":2},{"trial_n":107,"n_dots":3.15,"target":"right","response":"right","rt":1052.5,"correct":true,"confidence":2},{"trial_n":108,"n_dots":3.15,"target":"left","response":"left","rt":961.89999999851,"correct":true,"confidence":3},{"trial_n":109,"n_dots":3.05,"target":"right","response":"left","rt":620.19999999925,"correct":false,"confidence":3},{"trial_n":110,"n_dots":3.15,"target":"right","response":"right","rt":688.30000000075,"correct":true,"confidence":4},{"trial_n":111,"n_dots":3.15,"target":"left","response":"left","rt":919.80000000075,"correct":true,"confidence":3},{"trial_n":112,"n_dots":3.05,"target":"left","response":"left","rt":731.39999999851,"correct":true,"confidence":4},{"trial_n":113,"n_dots":3.05,"target":"right","response":"right","rt":701.29999999702,"correct":true,"confidence":4},{"trial_n":114,"n_dots":2.95,"target":"right","response":"right","rt":545.59999999776,"correct":true,"confidence":4},{"trial_n":115,"n_dots":2.95,"target":"left","response":"left","rt":637.89999999851,"correct":true,"confidence":2},{"trial_n":116,"n_dots":2.85,"target":"left","response":"left","rt":496.5,"correct":true,"confidence":4},{"trial_n":117,"n_dots":2.85,"target":"left","response":"left","rt":552.59999999776,"correct":true,"confidence":4},{"trial_n":118,"n_dots":2.75,"target":"left","response":"left","rt":650.69999999925,"correct":true,"confidence":4},{"trial_n":119,"n_dots":2.75,"target":"right","response":"right","rt":654.10000000149,"correct":true,"confidence":4},{"trial_n":120,"n_dots":2.65,"target":"left","response":"left","rt":1547.200000003,"correct":true,"confidence":1},{"trial_n":121,"n_dots":2.65,"target":"left","response":"left","rt":535.39999999851,"correct":true,"confidence":2},{"trial_n":122,"n_dots":2.55,"target":"right","response":"left","rt":699.30000000075,"correct":false,"confidence":5},{"trial_n":123,"n_dots":2.65,"target":"right","response":"left","rt":959.89999999851,"correct":false,"confidence":2},{"trial_n":124,"n_dots":2.75,"target":"right","response":"right","rt":933.39999999851,"correct":true,"confidence":4},{"trial_n":125,"n_dots":2.75,"target":"right","response":"right","rt":934.89999999851,"correct":true,"confidence":3},{"trial_n":126,"n_dots":2.65,"target":"right","response":"left","rt":939.70000000298,"correct":false,"confidence":2},{"trial_n":127,"n_dots":2.75,"target":"right","response":"right","rt":797.30000000075,"correct":true,"confidence":3},{"trial_n":128,"n_dots":2.75,"target":"right","response":"right","rt":966.19999999925,"correct":true,"confidence":2},{"trial_n":129,"n_dots":2.65,"target":"right","response":"right","rt":539.09999999776,"correct":true,"confidence":4},{"trial_n":130,"n_dots":2.65,"target":"right","response":"right","rt":586.80000000075,"correct":true,"confidence":4},{"trial_n":131,"n_dots":2.55,"target":"right","response":"right","rt":648.09999999776,"correct":true,"confidence":4},{"trial_n":132,"n_dots":2.55,"target":"left","response":"right","rt":486.90000000224,"correct":false,"confidence":4},{"trial_n":133,"n_dots":2.65,"target":"left","response":"right","rt":693.40000000224,"correct":false,"confidence":4},{"trial_n":134,"n_dots":2.75,"target":"right","response":"right","rt":579.19999999925,"correct":true,"confidence":4},{"trial_n":135,"n_dots":2.75,"target":"right","response":"right","rt":356.89999999851,"correct":true,"confidence":4},{"trial_n":136,"n_dots":2.65,"target":"right","response":"left","rt":605.19999999925,"correct":false,"confidence":2},{"trial_n":137,"n_dots":2.75,"target":"right","response":"right","rt":797.80000000075,"correct":true,"confidence":2},{"trial_n":138,"n_dots":2.75,"target":"left","response":"right","rt":612.39999999851,"correct":false,"confidence":2},{"trial_n":139,"n_dots":2.85,"target":"left","response":"left","rt":1064.6999999993,"correct":true,"confidence":2},{"trial_n":140,"n_dots":2.85,"target":"right","response":"left","rt":969.80000000075,"correct":false,"confidence":1},{"trial_n":141,"n_dots":2.95,"target":"right","response":"right","rt":709.80000000075,"correct":true,"confidence":1},{"trial_n":142,"n_dots":2.95,"target":"left","response":"left","rt":647.5,"correct":true,"confidence":2},{"trial_n":143,"n_dots":2.85,"target":"left","response":"left","rt":683.69999999925,"correct":true,"confidence":3},{"trial_n":144,"n_dots":2.85,"target":"left","response":"left","rt":648.39999999851,"correct":true,"confidence":2},{"trial_n":145,"n_dots":2.75,"target":"left","response":"left","rt":906.80000000075,"correct":true,"confidence":1},{"trial_n":146,"n_dots":2.75,"target":"left","response":"left","rt":1811,"correct":true,"confidence":1},{"trial_n":147,"n_dots":2.65,"target":"right","response":"right","rt":554.19999999925,"correct":true,"confidence":2},{"trial_n":148,"n_dots":2.65,"target":"left","response":"left","rt":690.69999999925,"correct":true,"confidence":1},{"trial_n":149,"n_dots":2.55,"target":"right","response":"left","rt":702.60000000149,"correct":false,"confidence":1},{"trial_n":150,"n_dots":2.65,"target":"left","response":"left","rt":610.40000000224,"correct":true,"confidence":2},{"trial_n":151,"n_dots":2.65,"target":"right","response":"right","rt":776.30000000075,"correct":true,"confidence":3},{"trial_n":152,"n_dots":2.55,"target":"right","response":"right","rt":589.30000000075,"correct":true,"confidence":4},{"trial_n":153,"n_dots":2.55,"target":"left","response":"left","rt":711,"correct":true,"confidence":2},{"trial_n":154,"n_dots":2.45,"target":"left","response":"left","rt":866,"correct":true,"confidence":1},{"trial_n":155,"n_dots":2.45,"target":"left","response":"left","rt":1524.8000000007,"correct":true,"confidence":1},{"trial_n":156,"n_dots":2.35,"target":"left","response":"left","rt":765.09999999776,"correct":true,"confidence":3},{"trial_n":157,"n_dots":2.35,"target":"right","response":"right","rt":668.39999999851,"correct":true,"confidence":4},{"trial_n":158,"n_dots":2.25,"target":"left","response":"right","rt":668.89999999851,"correct":false,"confidence":4},{"trial_n":159,"n_dots":2.35,"target":"left","response":"right","rt":304.39999999851,"correct":false,"confidence":4},{"trial_n":160,"n_dots":2.45,"target":"left","response":"left","rt":530.80000000075,"correct":true,"confidence":3},{"trial_n":161,"n_dots":2.45,"target":"left","response":"left","rt":655.69999999925,"correct":true,"confidence":3},{"trial_n":162,"n_dots":2.35,"target":"right","response":"left","rt":1069.299999997,"correct":false,"confidence":3},{"trial_n":163,"n_dots":2.45,"target":"left","response":"right","rt":747.29999999702,"correct":false,"confidence":2},{"trial_n":164,"n_dots":2.55,"target":"right","response":"left","rt":738,"correct":false,"confidence":1},{"trial_n":165,"n_dots":2.65,"target":"left","response":"right","rt":740.59999999776,"correct":false,"confidence":4},{"trial_n":166,"n_dots":2.75,"target":"left","response":"left","rt":877.89999999851,"correct":true,"confidence":4},{"trial_n":167,"n_dots":2.75,"target":"left","response":"right","rt":1670.700000003,"correct":false,"confidence":2},{"trial_n":168,"n_dots":2.85,"target":"left","response":"left","rt":724.40000000224,"correct":true,"confidence":4},{"trial_n":169,"n_dots":2.85,"target":"right","response":"right","rt":1046,"correct":true,"confidence":4},{"trial_n":170,"n_dots":2.75,"target":"right","response":"right","rt":619.40000000224,"correct":true,"confidence":5},{"trial_n":171,"n_dots":2.75,"target":"right","response":"left","rt":1535.4000000022,"correct":false,"confidence":1},{"trial_n":172,"n_dots":2.85,"target":"right","response":"left","rt":1032.5,"correct":false,"confidence":1},{"trial_n":173,"n_dots":2.95,"target":"right","response":"right","rt":814.59999999776,"correct":true,"confidence":2},{"trial_n":174,"n_dots":2.95,"target":"left","response":"right","rt":744,"correct":false,"confidence":1},{"trial_n":175,"n_dots":3.05,"target":"left","response":"left","rt":602.80000000075,"correct":true,"confidence":3},{"trial_n":176,"n_dots":3.05,"target":"right","response":"left","rt":752.39999999851,"correct":false,"confidence":4},{"trial_n":177,"n_dots":3.15,"target":"left","response":"right","rt":1466.5999999978,"correct":false,"confidence":1},{"trial_n":178,"n_dots":3.25,"target":"left","response":"left","rt":609.5,"correct":true,"confidence":3},{"trial_n":179,"n_dots":3.25,"target":"right","response":"right","rt":713.90000000224,"correct":true,"confidence":3},{"trial_n":180,"n_dots":3.15,"target":"left","response":"left","rt":1100.1999999993,"correct":true,"confidence":2},{"trial_n":181,"n_dots":3.15,"target":"right","response":"left","rt":1233.799999997,"correct":false,"confidence":1},{"trial_n":182,"n_dots":3.25,"target":"left","response":"left","rt":717.69999999925,"correct":true,"confidence":3},{"trial_n":183,"n_dots":3.25,"target":"left","response":"left","rt":730.89999999851,"correct":true,"confidence":3},{"trial_n":184,"n_dots":3.15,"target":"right","response":"right","rt":672.09999999776,"correct":true,"confidence":4},{"trial_n":185,"n_dots":3.15,"target":"left","response":"right","rt":1127.799999997,"correct":false,"confidence":3},{"trial_n":186,"n_dots":3.25,"target":"left","response":"right","rt":895.19999999925,"correct":false,"confidence":2},{"trial_n":187,"n_dots":3.35,"target":"right","response":"right","rt":477.19999999925,"correct":true,"confidence":3},{"trial_n":188,"n_dots":3.35,"target":"right","response":"right","rt":698.60000000149,"correct":true,"confidence":4},{"trial_n":189,"n_dots":3.25,"target":"right","response":"right","rt":701.60000000149,"correct":true,"confidence":3},{"trial_n":190,"n_dots":3.25,"target":"left","response":"left","rt":741.80000000075,"correct":true,"confidence":3},{"trial_n":191,"n_dots":3.15,"target":"left","response":"right","rt":1078.3999999985,"correct":false,"confidence":1},{"trial_n":192,"n_dots":3.25,"target":"right","response":"right","rt":1061.5,"correct":true,"confidence":1},{"trial_n":193,"n_dots":3.25,"target":"left","response":"right","rt":584.29999999702,"correct":false,"confidence":2},{"trial_n":194,"n_dots":3.35,"target":"left","response":"right","rt":697.39999999851,"correct":false,"confidence":2}]