[{"trial_n":1,"n_dots":4.25,"target":"left","response":"right","rt":2444,"correct":false,"confidence":-1},{"trial_n":2,"n_dots":4.25,"target":"left","response":"right","rt":140,"correct":false,"confidence":-1},{"trial_n":3,"n_dots":4.65,"target":"right","response":"right","rt":53,"correct":true,"confidence":-1},{"trial_n":4,"n_dots":4.65,"target":"right","response":"right","rt":20,"correct":true,"confidence":-1},{"trial_n":5,"n_dots":4.25,"target":"left","response":"left","rt":839,"correct":true,"confidence":-1},{"trial_n":6,"n_dots":4.25,"target":"right","response":"right","rt":149,"correct":true,"confidence":-1},{"trial_n":7,"n_dots":3.85,"target":"left","response":"right","rt":146,"correct":false,"confidence":-1},{"trial_n":8,"n_dots":4.05,"target":"right","response":"right","rt":267,"correct":true,"confidence":-1},{"trial_n":9,"n_dots":4.05,"target":"left","response":"left","rt":398,"correct":true,"confidence":-1},{"trial_n":10,"n_dots":3.85,"target":"left","response":"right","rt":399,"correct":false,"confidence":-1},{"trial_n":11,"n_dots":4.05,"target":"left","response":"left","rt":229,"correct":true,"confidence":-1},{"trial_n":12,"n_dots":4.05,"target":"left","response":"left","rt":879,"correct":true,"confidence":-1},{"trial_n":13,"n_dots":3.95,"target":"right","response":"left","rt":391,"correct":false,"confidence":-1},{"trial_n":14,"n_dots":4.05,"target":"left","response":"left","rt":605,"correct":true,"confidence":-1},{"trial_n":15,"n_dots":4.05,"target":"left","response":"left","rt":386,"correct":true,"confidence":-1},{"trial_n":16,"n_dots":3.95,"target":"left","response":"left","rt":476,"correct":true,"confidence":-1},{"trial_n":17,"n_dots":3.95,"target":"left","response":"left","rt":686,"correct":true,"confidence":-1},{"trial_n":18,"n_dots":3.85,"target":"right","response":"right","rt":218,"correct":true,"confidence":-1},{"trial_n":19,"n_dots":3.85,"target":"right","response":"right","rt":316,"correct":true,"confidence":-1},{"trial_n":20,"n_dots":3.75,"target":"left","response":"left","rt":430,"correct":true,"confidence":-1},{"trial_n":21,"n_dots":3.75,"target":"left","response":"left","rt":550,"correct":true,"confidence":-1},{"trial_n":22,"n_dots":3.65,"target":"right","response":"right","rt":63,"correct":true,"confidence":-1},{"trial_n":23,"n_dots":3.65,"target":"left","response":"left","rt":686,"correct":true,"confidence":-1},{"trial_n":24,"n_dots":3.55,"target":"left","response":"left","rt":669,"correct":true,"confidence":-1},{"trial_n":25,"n_dots":3.55,"target":"right","response":"right","rt":614,"correct":true,"confidence":-1},{"trial_n":26,"n_dots":3.45,"target":"right","response":"right","rt":322,"correct":true,"confidence":-1},{"trial_n":27,"n_dots":3.45,"target":"right","response":"right","rt":4135,"correct":true,"confidence":0},{"trial_n":28,"n_dots":3.35,"target":"right","response":"right","rt":823,"correct":true,"confidence":10},{"trial_n":29,"n_dots":3.35,"target":"right","response":"right","rt":388,"correct":true,"confidence":50},{"trial_n":30,"n_dots":3.25,"target":"left","response":"left","rt":692,"correct":true,"confidence":10},{"trial_n":31,"n_dots":3.25,"target":"right","response":"right","rt":1089,"correct":true,"confidence":0},{"trial_n":32,"n_dots":3.15,"target":"right","response":"left","rt":546,"correct":false,"confidence":20},{"trial_n":33,"n_dots":3.25,"target":"left","response":"right","rt":442,"correct":false,"confidence":40},{"trial_n":34,"n_dots":3.35,"target":"right","response":"right","rt":452,"correct":true,"confidence":70},{"trial_n":35,"n_dots":3.35,"target":"left","response":"left","rt":421,"correct":true,"confidence":20},{"trial_n":36,"n_dots":3.25,"target":"left","response":"left","rt":429,"correct":true,"confidence":20},{"trial_n":37,"n_dots":3.25,"target":"left","response":"right","rt":398,"correct":false,"confidence":30},{"trial_n":38,"n_dots":3.35,"target":"right","response":"right","rt":395,"correct":true,"confidence":90},{"trial_n":39,"n_dots":3.35,"target":"left","response":"left","rt":390,"correct":true,"confidence":30},{"trial_n":40,"n_dots":3.25,"target":"right","response":"right","rt":176,"correct":true,"confidence":30},{"trial_n":41,"n_dots":3.25,"target":"right","response":"right","rt":265,"correct":true,"confidence":100},{"trial_n":42,"n_dots":3.15,"target":"left","response":"left","rt":491,"correct":true,"confidence":60},{"trial_n":43,"n_dots":3.15,"target":"right","response":"right","rt":535,"correct":true,"confidence":70},{"trial_n":44,"n_dots":3.05,"target":"left","response":"left","rt":497,"correct":true,"confidence":10},{"trial_n":45,"n_dots":3.05,"target":"right","response":"right","rt":415,"correct":true,"confidence":10},{"trial_n":46,"n_dots":2.95,"target":"right","response":"right","rt":259,"correct":true,"confidence":30},{"trial_n":47,"n_dots":2.95,"target":"right","response":"right","rt":558,"correct":true,"confidence":30},{"trial_n":48,"n_dots":2.85,"target":"right","response":"right","rt":358,"correct":true,"confidence":50},{"trial_n":49,"n_dots":2.85,"target":"left","response":"left","rt":408,"correct":true,"confidence":40},{"trial_n":50,"n_dots":2.75,"target":"left","response":"left","rt":528,"correct":true,"confidence":50},{"trial_n":51,"n_dots":2.75,"target":"left","response":"left","rt":336,"correct":true,"confidence":40},{"trial_n":52,"n_dots":2.65,"target":"right","response":"right","rt":446,"correct":true,"confidence":40},{"trial_n":53,"n_dots":2.65,"target":"right","response":"right","rt":457,"correct":true,"confidence":50},{"trial_n":54,"n_dots":2.55,"target":"left","response":"right","rt":336,"correct":false,"confidence":10},{"trial_n":55,"n_dots":2.65,"target":"left","response":"left","rt":645,"correct":true,"confidence":0},{"trial_n":56,"n_dots":2.65,"target":"right","response":"left","rt":600,"correct":false,"confidence":0},{"trial_n":57,"n_dots":2.75,"target":"left","response":"right","rt":559,"correct":false,"confidence":20},{"trial_n":58,"n_dots":2.85,"target":"left","response":"right","rt":477,"correct":false,"confidence":20},{"trial_n":59,"n_dots":2.95,"target":"left","response":"left","rt":464,"correct":true,"confidence":20},{"trial_n":60,"n_dots":2.95,"target":"left","response":"right","rt":417,"correct":false,"confidence":0},{"trial_n":61,"n_dots":3.05,"target":"right","response":"left","rt":534,"correct":false,"confidence":30},{"trial_n":62,"n_dots":3.15,"target":"left","response":"left","rt":535,"correct":true,"confidence":50},{"trial_n":63,"n_dots":3.15,"target":"left","response":"left","rt":370,"correct":true,"confidence":40},{"trial_n":64,"n_dots":3.05,"target":"left","response":"left","rt":921,"correct":true,"confidence":30},{"trial_n":65,"n_dots":3.05,"target":"left","response":"left","rt":565,"correct":true,"confidence":60},{"trial_n":66,"n_dots":2.95,"target":"left","response":"right","rt":705,"correct":false,"confidence":30},{"trial_n":67,"n_dots":3.05,"target":"right","response":"right","rt":402,"correct":true,"confidence":60},{"trial_n":68,"n_dots":3.05,"target":"right","response":"left","rt":472,"correct":false,"confidence":60},{"trial_n":69,"n_dots":3.15,"target":"left","response":"left","rt":586,"correct":true,"confidence":60},{"trial_n":70,"n_dots":3.15,"target":"left","response":"right","rt":605,"correct":false,"confidence":20},{"trial_n":71,"n_dots":3.25,"target":"left","response":"left","rt":390,"correct":true,"confidence":20},{"trial_n":72,"n_dots":3.25,"target":"right","response":"right","rt":517,"correct":true,"confidence":40},{"trial_n":73,"n_dots":3.15,"target":"left","response":"left","rt":509,"correct":true,"confidence":50},{"trial_n":74,"n_dots":3.15,"target":"right","response":"right","rt":1190,"correct":true,"confidence":0},{"trial_n":75,"n_dots":3.05,"target":"left","response":"right","rt":2230,"correct":false,"confidence":30},{"trial_n":76,"n_dots":3.15,"target":"right","response":"right","rt":537,"correct":true,"confidence":20},{"trial_n":77,"n_dots":3.15,"target":"right","response":"right","rt":638,"correct":true,"confidence":90},{"trial_n":78,"n_dots":3.05,"target":"right","response":"right","rt":674,"correct":true,"confidence":30},{"trial_n":79,"n_dots":3.05,"target":"right","response":"left","rt":8453,"correct":false,"confidence":0},{"trial_n":80,"n_dots":3.15,"target":"left","response":"right","rt":10790,"correct":false,"confidence":40},{"trial_n":81,"n_dots":3.25,"target":"left","response":"left","rt":660,"correct":true,"confidence":50},{"trial_n":82,"n_dots":3.25,"target":"right","response":"right","rt":848,"correct":true,"confidence":30},{"trial_n":83,"n_dots":3.15,"target":"right","response":"left","rt":2694,"correct":false,"confidence":0},{"trial_n":84,"n_dots":3.25,"target":"right","response":"right","rt":1274,"correct":true,"confidence":30},{"trial_n":85,"n_dots":3.25,"target":"right","response":"right","rt":1845,"correct":true,"confidence":30},{"trial_n":86,"n_dots":3.15,"target":"left","response":"left","rt":599,"correct":true,"confidence":50},{"trial_n":87,"n_dots":3.15,"target":"left","response":"right","rt":919,"correct":false,"confidence":20},{"trial_n":88,"n_dots":3.25,"target":"left","response":"left","rt":1270,"correct":true,"confidence":70},{"trial_n":89,"n_dots":3.25,"target":"right","response":"right","rt":1973,"correct":true,"confidence":20},{"trial_n":90,"n_dots":3.15,"target":"left","response":"right","rt":616,"correct":false,"confidence":0},{"trial_n":91,"n_dots":3.25,"target":"right","response":"right","rt":449,"correct":true,"confidence":0},{"trial_n":92,"n_dots":3.25,"target":"left","response":"left","rt":670,"correct":true,"confidence":10},{"trial_n":93,"n_dots":3.15,"target":"left","response":"right","rt":406,"correct":false,"confidence":30},{"trial_n":94,"n_dots":3.25,"target":"right","response":"right","rt":66,"correct":true,"confidence":30},{"trial_n":95,"n_dots":3.25,"target":"left","response":"right","rt":349,"correct":false,"confidence":30},{"trial_n":96,"n_dots":3.35,"target":"right","response":"left","rt":208,"correct":false,"confidence":50},{"trial_n":97,"n_dots":3.45,"target":"right","response":"left","rt":429,"correct":false,"confidence":40},{"trial_n":98,"n_dots":3.55,"target":"right","response":"right","rt":885,"correct":true,"confidence":10},{"trial_n":99,"n_dots":3.55,"target":"right","response":"left","rt":472,"correct":false,"confidence":60},{"trial_n":100,"n_dots":3.65,"target":"right","response":"right","rt":376,"correct":true,"confidence":40},{"trial_n":101,"n_dots":3.65,"target":"left","response":"left","rt":467,"correct":true,"confidence":60},{"trial_n":102,"n_dots":3.55,"target":"right","response":"right","rt":669,"correct":true,"confidence":50},{"trial_n":103,"n_dots":3.55,"target":"left","response":"left","rt":441,"correct":true,"confidence":70},{"trial_n":104,"n_dots":3.45,"target":"left","response":"left","rt":373,"correct":true,"confidence":40},{"trial_n":105,"n_dots":3.45,"target":"right","response":"right","rt":285,"correct":true,"confidence":60},{"trial_n":106,"n_dots":3.35,"target":"right","response":"right","rt":542,"correct":true,"confidence":60},{"trial_n":107,"n_dots":3.35,"target":"left","response":"left","rt":348,"correct":true,"confidence":100},{"trial_n":108,"n_dots":3.25,"target":"right","response":"left","rt":578,"correct":false,"confidence":0},{"trial_n":109,"n_dots":3.35,"target":"left","response":"left","rt":1132,"correct":true,"confidence":70},{"trial_n":110,"n_dots":3.35,"target":"right","response":"right","rt":1177,"correct":true,"confidence":0},{"trial_n":111,"n_dots":3.25,"target":"left","response":"left","rt":462,"correct":true,"confidence":40},{"trial_n":112,"n_dots":3.25,"target":"right","response":"right","rt":338,"correct":true,"confidence":40},{"trial_n":113,"n_dots":3.15,"target":"left","response":"left","rt":525,"correct":true,"confidence":90},{"trial_n":114,"n_dots":3.15,"target":"left","response":"left","rt":431,"correct":true,"confidence":80},{"trial_n":115,"n_dots":3.05,"target":"right","response":"left","rt":806,"correct":false,"confidence":90},{"trial_n":116,"n_dots":3.15,"target":"right","response":"right","rt":499,"correct":true,"confidence":30},{"trial_n":117,"n_dots":3.15,"target":"right","response":"right","rt":763,"correct":true,"confidence":50},{"trial_n":118,"n_dots":3.05,"target":"left","response":"left","rt":456,"correct":true,"confidence":80},{"trial_n":119,"n_dots":3.05,"target":"left","response":"right","rt":435,"correct":false,"confidence":100},{"trial_n":120,"n_dots":3.15,"target":"left","response":"left","rt":749,"correct":true,"confidence":100},{"trial_n":121,"n_dots":3.15,"target":"right","response":"right","rt":577,"correct":true,"confidence":100},{"trial_n":122,"n_dots":3.05,"target":"right","response":"left","rt":539,"correct":false,"confidence":100},{"trial_n":123,"n_dots":3.15,"target":"right","response":"right","rt":455,"correct":true,"confidence":100},{"trial_n":124,"n_dots":3.15,"target":"right","response":"right","rt":366,"correct":true,"confidence":100},{"trial_n":125,"n_dots":3.05,"target":"right","response":"right","rt":719,"correct":true,"confidence":100},{"trial_n":126,"n_dots":3.05,"target":"right","response":"right","rt":292,"correct":true,"confidence":100},{"trial_n":127,"n_dots":2.95,"target":"right","response":"left","rt":467,"correct":false,"confidence":30},{"trial_n":128,"n_dots":3.05,"target":"right","response":"right","rt":318,"correct":true,"confidence":60},{"trial_n":129,"n_dots":3.05,"target":"right","response":"left","rt":358,"correct":false,"confidence":80},{"trial_n":130,"n_dots":3.15,"target":"right","response":"left","rt":370,"correct":false,"confidence":100},{"trial_n":131,"n_dots":3.25,"target":"right","response":"right","rt":370,"correct":true,"confidence":100},{"trial_n":132,"n_dots":3.25,"target":"right","response":"left","rt":475,"correct":false,"confidence":40},{"trial_n":133,"n_dots":3.35,"target":"left","response":"right","rt":279,"correct":false,"confidence":0},{"trial_n":134,"n_dots":3.45,"target":"left","response":"left","rt":345,"correct":true,"confidence":0},{"trial_n":135,"n_dots":3.45,"target":"left","response":"right","rt":41,"correct":false,"confidence":0},{"trial_n":136,"n_dots":3.55,"target":"left","response":"left","rt":651,"correct":true,"confidence":100},{"trial_n":137,"n_dots":3.55,"target":"left","response":"left","rt":795,"correct":true,"confidence":100},{"trial_n":138,"n_dots":3.45,"target":"left","response":"right","rt":403,"correct":false,"confidence":100},{"trial_n":139,"n_dots":3.55,"target":"left","response":"left","rt":418,"correct":true,"confidence":60},{"trial_n":140,"n_dots":3.55,"target":"left","response":"right","rt":168,"correct":false,"confidence":0},{"trial_n":141,"n_dots":3.65,"target":"left","response":"left","rt":320,"correct":true,"confidence":60},{"trial_n":142,"n_dots":3.65,"target":"left","response":"left","rt":417,"correct":true,"confidence":100},{"trial_n":143,"n_dots":3.55,"target":"right","response":"right","rt":516,"correct":true,"confidence":100},{"trial_n":144,"n_dots":3.55,"target":"right","response":"left","rt":251,"correct":false,"confidence":40},{"trial_n":145,"n_dots":3.65,"target":"left","response":"left","rt":404,"correct":true,"confidence":0},{"trial_n":146,"n_dots":3.65,"target":"left","response":"left","rt":406,"correct":true,"confidence":90},{"trial_n":147,"n_dots":3.55,"target":"right","response":"right","rt":212,"correct":true,"confidence":70},{"trial_n":148,"n_dots":3.55,"target":"right","response":"right","rt":387,"correct":true,"confidence":100},{"trial_n":149,"n_dots":3.45,"target":"left","response":"left","rt":826,"correct":true,"confidence":100},{"trial_n":150,"n_dots":3.45,"target":"left","response":"right","rt":1269,"correct":false,"confidence":90},{"trial_n":151,"n_dots":3.55,"target":"left","response":"left","rt":225,"correct":true,"confidence":60},{"trial_n":152,"n_dots":3.55,"target":"left","response":"left","rt":349,"correct":true,"confidence":0},{"trial_n":153,"n_dots":3.45,"target":"right","response":"right","rt":141,"correct":true,"confidence":50},{"trial_n":154,"n_dots":3.45,"target":"right","response":"left","rt":240,"correct":false,"confidence":0},{"trial_n":155,"n_dots":3.55,"target":"left","response":"left","rt":284,"correct":true,"confidence":50},{"trial_n":156,"n_dots":3.55,"target":"left","response":"left","rt":456,"correct":true,"confidence":80},{"trial_n":157,"n_dots":3.45,"target":"right","response":"right","rt":467,"correct":true,"confidence":60},{"trial_n":158,"n_dots":3.45,"target":"right","response":"right","rt":186,"correct":true,"confidence":40},{"trial_n":159,"n_dots":3.35,"target":"right","response":"right","rt":645,"correct":true,"confidence":100},{"trial_n":160,"n_dots":3.35,"target":"right","response":"right","rt":627,"correct":true,"confidence":100},{"trial_n":161,"n_dots":3.25,"target":"right","response":"left","rt":399,"correct":false,"confidence":100},{"trial_n":162,"n_dots":3.35,"target":"left","response":"left","rt":368,"correct":true,"confidence":100},{"trial_n":163,"n_dots":3.35,"target":"left","response":"right","rt":598,"correct":false,"confidence":100},{"trial_n":164,"n_dots":3.45,"target":"right","response":"right","rt":646,"correct":true,"confidence":40},{"trial_n":165,"n_dots":3.45,"target":"left","response":"left","rt":388,"correct":true,"confidence":20},{"trial_n":166,"n_dots":3.35,"target":"left","response":"right","rt":224,"correct":false,"confidence":0},{"trial_n":167,"n_dots":3.45,"target":"right","response":"left","rt":406,"correct":false,"confidence":20},{"trial_n":168,"n_dots":3.55,"target":"left","response":"right","rt":232,"correct":false,"confidence":60},{"trial_n":169,"n_dots":3.65,"target":"left","response":"right","rt":427,"correct":false,"confidence":70},{"trial_n":170,"n_dots":3.75,"target":"right","response":"right","rt":265,"correct":true,"confidence":60},{"trial_n":171,"n_dots":3.75,"target":"right","response":"left","rt":346,"correct":false,"confidence":100},{"trial_n":172,"n_dots":3.85,"target":"right","response":"left","rt":549,"correct":false,"confidence":50},{"trial_n":173,"n_dots":3.95,"target":"left","response":"left","rt":507,"correct":true,"confidence":60},{"trial_n":174,"n_dots":3.95,"target":"left","response":"left","rt":380,"correct":true,"confidence":100},{"trial_n":175,"n_dots":3.85,"target":"left","response":"left","rt":133,"correct":true,"confidence":80},{"trial_n":176,"n_dots":3.85,"target":"right","response":"right","rt":150,"correct":true,"confidence":100},{"trial_n":177,"n_dots":3.75,"target":"right","response":"right","rt":385,"correct":true,"confidence":100},{"trial_n":178,"n_dots":3.75,"target":"left","response":"left","rt":164,"correct":true,"confidence":100},{"trial_n":179,"n_dots":3.65,"target":"right","response":"right","rt":232,"correct":true,"confidence":100},{"trial_n":180,"n_dots":3.65,"target":"right","response":"left","rt":120,"correct":false,"confidence":0},{"trial_n":181,"n_dots":3.75,"target":"right","response":"right","rt":244,"correct":true,"confidence":100},{"trial_n":182,"n_dots":3.75,"target":"left","response":"left","rt":642,"correct":true,"confidence":70},{"trial_n":183,"n_dots":3.65,"target":"right","response":"right","rt":198,"correct":true,"confidence":60},{"trial_n":184,"n_dots":3.65,"target":"left","response":"left","rt":496,"correct":true,"confidence":100},{"trial_n":185,"n_dots":3.55,"target":"left","response":"left","rt":377,"correct":true,"confidence":20},{"trial_n":186,"n_dots":3.55,"target":"right","response":"right","rt":93,"correct":true,"confidence":100},{"trial_n":187,"n_dots":3.45,"target":"right","response":"right","rt":115,"correct":true,"confidence":70},{"trial_n":188,"n_dots":3.45,"target":"right","response":"right","rt":226,"correct":true,"confidence":70},{"trial_n":189,"n_dots":3.35,"target":"right","response":"right","rt":416,"correct":true,"confidence":60},{"trial_n":190,"n_dots":3.35,"target":"right","response":"right","rt":105,"correct":true,"confidence":60},{"trial_n":191,"n_dots":3.25,"target":"left","response":"right","rt":113,"correct":false,"confidence":0},{"trial_n":192,"n_dots":3.35,"target":"left","response":"left","rt":518,"correct":true,"confidence":0},{"trial_n":193,"n_dots":3.35,"target":"left","response":"right","rt":639,"correct":false,"confidence":20},{"trial_n":194,"n_dots":3.45,"target":"right","response":"right","rt":176,"correct":true,"confidence":50}]