[{"trial_n":1,"n_dots":4.25,"target":"right","response":"right","rt":1311.3999999762,"correct":true,"confidence":-1},{"trial_n":2,"n_dots":4.25,"target":"left","response":"right","rt":3170.2000000477,"correct":false,"confidence":-1},{"trial_n":3,"n_dots":4.65,"target":"left","response":"left","rt":878.40000009537,"correct":true,"confidence":-1},{"trial_n":4,"n_dots":4.65,"target":"right","response":"right","rt":563,"correct":true,"confidence":-1},{"trial_n":5,"n_dots":4.25,"target":"left","response":"left","rt":835.5,"correct":true,"confidence":-1},{"trial_n":6,"n_dots":4.25,"target":"right","response":"right","rt":746.69999992847,"correct":true,"confidence":-1},{"trial_n":7,"n_dots":3.85,"target":"left","response":"left","rt":940.19999992847,"correct":true,"confidence":-1},{"trial_n":8,"n_dots":3.85,"target":"right","response":"right","rt":585.70000004768,"correct":true,"confidence":-1},{"trial_n":9,"n_dots":3.65,"target":"right","response":"right","rt":685.19999992847,"correct":true,"confidence":-1},{"trial_n":10,"n_dots":3.65,"target":"left","response":"left","rt":714.29999995232,"correct":true,"confidence":-1},{"trial_n":11,"n_dots":3.45,"target":"right","response":"right","rt":776.89999997616,"correct":true,"confidence":-1},{"trial_n":12,"n_dots":3.45,"target":"right","response":"right","rt":808.89999997616,"correct":true,"confidence":-1},{"trial_n":13,"n_dots":3.35,"target":"left","response":"left","rt":732.10000002384,"correct":true,"confidence":-1},{"trial_n":14,"n_dots":3.35,"target":"left","response":"left","rt":878.20000004768,"correct":true,"confidence":-1},{"trial_n":15,"n_dots":3.25,"target":"left","response":"left","rt":779.60000002384,"correct":true,"confidence":-1},{"trial_n":16,"n_dots":3.25,"target":"right","response":"right","rt":757.39999997616,"correct":true,"confidence":-1},{"trial_n":17,"n_dots":3.15,"target":"right","response":"right","rt":676.39999997616,"correct":true,"confidence":-1},{"trial_n":18,"n_dots":3.15,"target":"right","response":"right","rt":579.89999997616,"correct":true,"confidence":-1},{"trial_n":19,"n_dots":3.05,"target":"right","response":"right","rt":764.39999997616,"correct":true,"confidence":-1},{"trial_n":20,"n_dots":3.05,"target":"right","response":"right","rt":630.79999995232,"correct":true,"confidence":-1},{"trial_n":21,"n_dots":2.95,"target":"right","response":"right","rt":876.79999995232,"correct":true,"confidence":-1},{"trial_n":22,"n_dots":2.95,"target":"right","response":"right","rt":542.30000007153,"correct":true,"confidence":-1},{"trial_n":23,"n_dots":2.85,"target":"right","response":"right","rt":603.10000002384,"correct":true,"confidence":-1},{"trial_n":24,"n_dots":2.85,"target":"right","response":"right","rt":565.70000004768,"correct":true,"confidence":-1},{"trial_n":25,"n_dots":2.75,"target":"left","response":"left","rt":1924.2000000477,"correct":true,"confidence":-1},{"trial_n":26,"n_dots":2.75,"target":"left","response":"left","rt":899.10000002384,"correct":true,"confidence":-1},{"trial_n":27,"n_dots":2.65,"target":"right","response":"right","rt":689.09999990463,"correct":true,"confidence":6},{"trial_n":28,"n_dots":2.65,"target":"left","response":"right","rt":1209.1000000238,"correct":false,"confidence":5},{"trial_n":29,"n_dots":2.75,"target":"right","response":"right","rt":513.89999997616,"correct":true,"confidence":6},{"trial_n":30,"n_dots":2.75,"target":"right","response":"right","rt":497.40000009537,"correct":true,"confidence":6},{"trial_n":31,"n_dots":2.65,"target":"left","response":"right","rt":634.90000009537,"correct":false,"confidence":5},{"trial_n":32,"n_dots":2.75,"target":"left","response":"left","rt":1888.3000000715,"correct":true,"confidence":4},{"trial_n":33,"n_dots":2.75,"target":"right","response":"right","rt":610,"correct":true,"confidence":6},{"trial_n":34,"n_dots":2.65,"target":"right","response":"right","rt":504.19999992847,"correct":true,"confidence":6},{"trial_n":35,"n_dots":2.65,"target":"left","response":"right","rt":657.89999997616,"correct":false,"confidence":6},{"trial_n":36,"n_dots":2.75,"target":"right","response":"right","rt":785.5,"correct":true,"confidence":4},{"trial_n":37,"n_dots":2.75,"target":"right","response":"right","rt":944.5,"correct":true,"confidence":6},{"trial_n":38,"n_dots":2.65,"target":"left","response":"left","rt":1057.6000000238,"correct":true,"confidence":3},{"trial_n":39,"n_dots":2.65,"target":"left","response":"left","rt":3818.5999999046,"correct":true,"confidence":3},{"trial_n":40,"n_dots":2.55,"target":"right","response":"right","rt":491,"correct":true,"confidence":6},{"trial_n":41,"n_dots":2.55,"target":"right","response":"right","rt":577.30000007153,"correct":true,"confidence":6},{"trial_n":42,"n_dots":2.45,"target":"left","response":"right","rt":459.20000004768,"correct":false,"confidence":6},{"trial_n":43,"n_dots":2.55,"target":"right","response":"left","rt":1153.2999999523,"correct":false,"confidence":4},{"trial_n":44,"n_dots":2.65,"target":"right","response":"right","rt":998.19999992847,"correct":true,"confidence":4},{"trial_n":45,"n_dots":2.65,"target":"right","response":"right","rt":696.89999997616,"correct":true,"confidence":5},{"trial_n":46,"n_dots":2.55,"target":"right","response":"left","rt":754.09999990463,"correct":false,"confidence":5},{"trial_n":47,"n_dots":2.65,"target":"left","response":"left","rt":961.20000004768,"correct":true,"confidence":4},{"trial_n":48,"n_dots":2.65,"target":"right","response":"right","rt":808.79999995232,"correct":true,"confidence":5},{"trial_n":49,"n_dots":2.55,"target":"left","response":"left","rt":769,"correct":true,"confidence":5},{"trial_n":50,"n_dots":2.55,"target":"left","response":"right","rt":665.39999997616,"correct":false,"confidence":5},{"trial_n":51,"n_dots":2.65,"target":"left","response":"left","rt":690.79999995232,"correct":true,"confidence":4},{"trial_n":52,"n_dots":2.65,"target":"left","response":"left","rt":1417.6999999285,"correct":true,"confidence":4},{"trial_n":53,"n_dots":2.55,"target":"right","response":"right","rt":746,"correct":true,"confidence":4},{"trial_n":54,"n_dots":2.55,"target":"right","response":"right","rt":610.10000002384,"correct":true,"confidence":4},{"trial_n":55,"n_dots":2.45,"target":"left","response":"right","rt":483.19999992847,"correct":false,"confidence":4},{"trial_n":56,"n_dots":2.55,"target":"left","response":"right","rt":618.5,"correct":false,"confidence":5},{"trial_n":57,"n_dots":2.65,"target":"right","response":"left","rt":1137.3000000715,"correct":false,"confidence":4},{"trial_n":58,"n_dots":2.75,"target":"left","response":"left","rt":1016.6000000238,"correct":true,"confidence":4},{"trial_n":59,"n_dots":2.75,"target":"left","response":"left","rt":666.79999995232,"correct":true,"confidence":4},{"trial_n":60,"n_dots":2.65,"target":"right","response":"left","rt":1969,"correct":false,"confidence":4},{"trial_n":61,"n_dots":2.75,"target":"left","response":"left","rt":825,"correct":true,"confidence":4},{"trial_n":62,"n_dots":2.75,"target":"left","response":"left","rt":1880.3000000715,"correct":true,"confidence":4},{"trial_n":63,"n_dots":2.65,"target":"right","response":"right","rt":857.69999992847,"correct":true,"confidence":5},{"trial_n":64,"n_dots":2.65,"target":"left","response":"left","rt":3823.6000000238,"correct":true,"confidence":4},{"trial_n":65,"n_dots":2.55,"target":"right","response":"left","rt":1950.9000000954,"correct":false,"confidence":4},{"trial_n":66,"n_dots":2.65,"target":"left","response":"left","rt":843.10000002384,"correct":true,"confidence":5},{"trial_n":67,"n_dots":2.65,"target":"left","response":"left","rt":641.60000002384,"correct":true,"confidence":6},{"trial_n":68,"n_dots":2.55,"target":"left","response":"left","rt":616.5,"correct":true,"confidence":5},{"trial_n":69,"n_dots":2.55,"target":"right","response":"right","rt":523.10000002384,"correct":true,"confidence":5},{"trial_n":70,"n_dots":2.45,"target":"right","response":"right","rt":673.5,"correct":true,"confidence":4},{"trial_n":71,"n_dots":2.45,"target":"right","response":"left","rt":97210.800000072,"correct":false,"confidence":1},{"trial_n":72,"n_dots":2.55,"target":"left","response":"left","rt":2235.0999999046,"correct":true,"confidence":4},{"trial_n":73,"n_dots":2.55,"target":"left","response":"left","rt":1547.1999999285,"correct":true,"confidence":4},{"trial_n":74,"n_dots":2.45,"target":"left","response":"left","rt":833.89999997616,"correct":true,"confidence":4},{"trial_n":75,"n_dots":2.45,"target":"right","response":"right","rt":673,"correct":true,"confidence":4},{"trial_n":76,"n_dots":2.35,"target":"left","response":"right","rt":722.70000004768,"correct":false,"confidence":5},{"trial_n":77,"n_dots":2.45,"target":"left","response":"left","rt":1002.6000000238,"correct":true,"confidence":5},{"trial_n":78,"n_dots":2.45,"target":"left","response":"right","rt":1601.5,"correct":false,"confidence":4},{"trial_n":79,"n_dots":2.55,"target":"left","response":"left","rt":853.19999992847,"correct":true,"confidence":6},{"trial_n":80,"n_dots":2.55,"target":"left","response":"left","rt":660.60000002384,"correct":true,"confidence":6},{"trial_n":81,"n_dots":2.45,"target":"right","response":"right","rt":642.19999992847,"correct":true,"confidence":4},{"trial_n":82,"n_dots":2.45,"target":"left","response":"right","rt":676.10000002384,"correct":false,"confidence":4},{"trial_n":83,"n_dots":2.55,"target":"right","response":"right","rt":526.19999992847,"correct":true,"confidence":4},{"trial_n":84,"n_dots":2.55,"target":"left","response":"right","rt":534.70000004768,"correct":false,"confidence":5},{"trial_n":85,"n_dots":2.65,"target":"right","response":"right","rt":707.10000002384,"correct":true,"confidence":4},{"trial_n":86,"n_dots":2.65,"target":"right","response":"right","rt":585.5,"correct":true,"confidence":5},{"trial_n":87,"n_dots":2.55,"target":"right","response":"right","rt":712,"correct":true,"confidence":5},{"trial_n":88,"n_dots":2.55,"target":"right","response":"left","rt":1012.2000000477,"correct":false,"confidence":5},{"trial_n":89,"n_dots":2.65,"target":"left","response":"right","rt":625.89999997616,"correct":false,"confidence":5},{"trial_n":90,"n_dots":2.75,"target":"left","response":"left","rt":587.29999995232,"correct":true,"confidence":5},{"trial_n":91,"n_dots":2.75,"target":"right","response":"right","rt":531.39999997616,"correct":true,"confidence":5},{"trial_n":92,"n_dots":2.65,"target":"right","response":"right","rt":458.5,"correct":true,"confidence":4},{"trial_n":93,"n_dots":2.65,"target":"right","response":"right","rt":673,"correct":true,"confidence":5},{"trial_n":94,"n_dots":2.55,"target":"right","response":"right","rt":607.89999997616,"correct":true,"confidence":4},{"trial_n":95,"n_dots":2.55,"target":"left","response":"right","rt":466.60000002384,"correct":false,"confidence":4},{"trial_n":96,"n_dots":2.65,"target":"left","response":"right","rt":474.89999997616,"correct":false,"confidence":5},{"trial_n":97,"n_dots":2.75,"target":"left","response":"left","rt":802.20000004768,"correct":true,"confidence":4},{"trial_n":98,"n_dots":2.75,"target":"right","response":"right","rt":473,"correct":true,"confidence":5},{"trial_n":99,"n_dots":2.65,"target":"left","response":"left","rt":1385.3999999762,"correct":true,"confidence":2},{"trial_n":100,"n_dots":2.65,"target":"right","response":"right","rt":600.60000002384,"correct":true,"confidence":6},{"trial_n":101,"n_dots":2.55,"target":"right","response":"right","rt":575.5,"correct":true,"confidence":6},{"trial_n":102,"n_dots":2.55,"target":"right","response":"right","rt":427.20000004768,"correct":true,"confidence":6},{"trial_n":103,"n_dots":2.45,"target":"right","response":"right","rt":528.70000004768,"correct":true,"confidence":6},{"trial_n":104,"n_dots":2.45,"target":"left","response":"left","rt":840,"correct":true,"confidence":5},{"trial_n":105,"n_dots":2.35,"target":"right","response":"right","rt":544.70000004768,"correct":true,"confidence":5},{"trial_n":106,"n_dots":2.35,"target":"right","response":"right","rt":674.79999995232,"correct":true,"confidence":5},{"trial_n":107,"n_dots":2.25,"target":"right","response":"right","rt":434,"correct":true,"confidence":5},{"trial_n":108,"n_dots":2.25,"target":"right","response":"right","rt":530.70000004768,"correct":true,"confidence":5},{"trial_n":109,"n_dots":2.15,"target":"right","response":"right","rt":434.10000002384,"correct":true,"confidence":5},{"trial_n":110,"n_dots":2.15,"target":"right","response":"right","rt":928.40000009537,"correct":true,"confidence":5},{"trial_n":111,"n_dots":2.05,"target":"left","response":"right","rt":849.60000002384,"correct":false,"confidence":4},{"trial_n":112,"n_dots":2.15,"target":"right","response":"right","rt":358.10000002384,"correct":true,"confidence":5},{"trial_n":113,"n_dots":2.15,"target":"left","response":"right","rt":530.5,"correct":false,"confidence":5},{"trial_n":114,"n_dots":2.25,"target":"right","response":"right","rt":522,"correct":true,"confidence":5},{"trial_n":115,"n_dots":2.25,"target":"right","response":"left","rt":2378,"correct":false,"confidence":5},{"trial_n":116,"n_dots":2.35,"target":"left","response":"right","rt":509.09999990463,"correct":false,"confidence":5},{"trial_n":117,"n_dots":2.45,"target":"right","response":"right","rt":421.5,"correct":true,"confidence":5},{"trial_n":118,"n_dots":2.45,"target":"left","response":"right","rt":642.39999997616,"correct":false,"confidence":5},{"trial_n":119,"n_dots":2.55,"target":"left","response":"left","rt":236.10000002384,"correct":true,"confidence":5},{"trial_n":120,"n_dots":2.55,"target":"left","response":"left","rt":589.09999990463,"correct":true,"confidence":5},{"trial_n":121,"n_dots":2.45,"target":"left","response":"left","rt":507.09999990463,"correct":true,"confidence":5},{"trial_n":122,"n_dots":2.45,"target":"left","response":"left","rt":641.70000004768,"correct":true,"confidence":5},{"trial_n":123,"n_dots":2.35,"target":"right","response":"left","rt":618.89999997616,"correct":false,"confidence":5},{"trial_n":124,"n_dots":2.45,"target":"left","response":"right","rt":507.10000002384,"correct":false,"confidence":5},{"trial_n":125,"n_dots":2.55,"target":"right","response":"right","rt":278.30000007153,"correct":true,"confidence":5},{"trial_n":126,"n_dots":2.55,"target":"left","response":"left","rt":591.89999997616,"correct":true,"confidence":5},{"trial_n":127,"n_dots":2.45,"target":"right","response":"right","rt":647.10000002384,"correct":true,"confidence":5},{"trial_n":128,"n_dots":2.45,"target":"right","response":"right","rt":1175,"correct":true,"confidence":5},{"trial_n":129,"n_dots":2.35,"target":"right","response":"left","rt":655.30000007153,"correct":false,"confidence":5},{"trial_n":130,"n_dots":2.45,"target":"right","response":"right","rt":463.70000004768,"correct":true,"confidence":5},{"trial_n":131,"n_dots":2.45,"target":"left","response":"left","rt":641.20000004768,"correct":true,"confidence":5},{"trial_n":132,"n_dots":2.35,"target":"right","response":"right","rt":310.20000004768,"correct":true,"confidence":5},{"trial_n":133,"n_dots":2.35,"target":"right","response":"right","rt":131.30000007153,"correct":true,"confidence":5},{"trial_n":134,"n_dots":2.25,"target":"left","response":"right","rt":437.09999990463,"correct":false,"confidence":5},{"trial_n":135,"n_dots":2.35,"target":"right","response":"right","rt":231.10000002384,"correct":true,"confidence":5},{"trial_n":136,"n_dots":2.35,"target":"left","response":"right","rt":557.10000002384,"correct":false,"confidence":5},{"trial_n":137,"n_dots":2.45,"target":"right","response":"right","rt":775.40000009537,"correct":true,"confidence":5},{"trial_n":138,"n_dots":2.45,"target":"right","response":"right","rt":450.5,"correct":true,"confidence":5},{"trial_n":139,"n_dots":2.35,"target":"left","response":"right","rt":732,"correct":false,"confidence":5},{"trial_n":140,"n_dots":2.45,"target":"right","response":"right","rt":568.89999997616,"correct":true,"confidence":5},{"trial_n":141,"n_dots":2.45,"target":"right","response":"right","rt":577.10000002384,"correct":true,"confidence":5},{"trial_n":142,"n_dots":2.35,"target":"right","response":"left","rt":1033.8999999762,"correct":false,"confidence":5},{"trial_n":143,"n_dots":2.45,"target":"left","response":"left","rt":577.20000004768,"correct":true,"confidence":5},{"trial_n":144,"n_dots":2.45,"target":"left","response":"right","rt":787.89999997616,"correct":false,"confidence":5},{"trial_n":145,"n_dots":2.55,"target":"right","response":"right","rt":537.60000002384,"correct":true,"confidence":5},{"trial_n":146,"n_dots":2.55,"target":"left","response":"right","rt":466.89999997616,"correct":false,"confidence":6},{"trial_n":147,"n_dots":2.65,"target":"right","response":"right","rt":733,"correct":true,"confidence":5},{"trial_n":148,"n_dots":2.65,"target":"left","response":"left","rt":465.39999997616,"correct":true,"confidence":5},{"trial_n":149,"n_dots":2.55,"target":"left","response":"left","rt":971.89999997616,"correct":true,"confidence":5},{"trial_n":150,"n_dots":2.55,"target":"left","response":"left","rt":657.89999997616,"correct":true,"confidence":5},{"trial_n":151,"n_dots":2.45,"target":"left","response":"left","rt":619.90000009537,"correct":true,"confidence":5},{"trial_n":152,"n_dots":2.45,"target":"right","response":"right","rt":410.79999995232,"correct":true,"confidence":5},{"trial_n":153,"n_dots":2.35,"target":"left","response":"right","rt":362.89999997616,"correct":false,"confidence":5},{"trial_n":154,"n_dots":2.45,"target":"right","response":"right","rt":451.39999997616,"correct":true,"confidence":5},{"trial_n":155,"n_dots":2.45,"target":"left","response":"left","rt":572.79999995232,"correct":true,"confidence":5},{"trial_n":156,"n_dots":2.35,"target":"left","response":"left","rt":573.20000004768,"correct":true,"confidence":5},{"trial_n":157,"n_dots":2.35,"target":"left","response":"left","rt":642.40000009537,"correct":true,"confidence":5},{"trial_n":158,"n_dots":2.25,"target":"right","response":"left","rt":619.39999997616,"correct":false,"confidence":5},{"trial_n":159,"n_dots":2.35,"target":"right","response":"left","rt":805.89999997616,"correct":false,"confidence":4},{"trial_n":160,"n_dots":2.45,"target":"left","response":"left","rt":661.20000004768,"correct":true,"confidence":4},{"trial_n":161,"n_dots":2.45,"target":"left","response":"right","rt":600.89999997616,"correct":false,"confidence":4},{"trial_n":162,"n_dots":2.55,"target":"left","response":"right","rt":1034.2999999523,"correct":false,"confidence":4},{"trial_n":163,"n_dots":2.65,"target":"left","response":"right","rt":447.70000004768,"correct":false,"confidence":4},{"trial_n":164,"n_dots":2.75,"target":"right","response":"right","rt":407.10000002384,"correct":true,"confidence":4},{"trial_n":165,"n_dots":2.75,"target":"right","response":"right","rt":226.79999995232,"correct":true,"confidence":4},{"trial_n":166,"n_dots":2.65,"target":"left","response":"left","rt":762.79999995232,"correct":true,"confidence":4},{"trial_n":167,"n_dots":2.65,"target":"left","response":"left","rt":820,"correct":true,"confidence":5},{"trial_n":168,"n_dots":2.55,"target":"right","response":"right","rt":493.39999997616,"correct":true,"confidence":4},{"trial_n":169,"n_dots":2.55,"target":"right","response":"right","rt":454.40000009537,"correct":true,"confidence":5},{"trial_n":170,"n_dots":2.45,"target":"right","response":"left","rt":863.40000009537,"correct":false,"confidence":4},{"trial_n":171,"n_dots":2.55,"target":"left","response":"right","rt":15178.300000072,"correct":false,"confidence":1},{"trial_n":172,"n_dots":2.65,"target":"right","response":"right","rt":482.10000002384,"correct":true,"confidence":5},{"trial_n":173,"n_dots":2.65,"target":"left","response":"right","rt":425.90000009537,"correct":false,"confidence":5},{"trial_n":174,"n_dots":2.75,"target":"right","response":"right","rt":471.90000009537,"correct":true,"confidence":5},{"trial_n":175,"n_dots":2.75,"target":"left","response":"left","rt":762.19999992847,"correct":true,"confidence":5},{"trial_n":176,"n_dots":2.65,"target":"left","response":"left","rt":642.70000004768,"correct":true,"confidence":5},{"trial_n":177,"n_dots":2.65,"target":"left","response":"right","rt":315.29999995232,"correct":false,"confidence":5},{"trial_n":178,"n_dots":2.75,"target":"left","response":"left","rt":491.70000004768,"correct":true,"confidence":5},{"trial_n":179,"n_dots":2.75,"target":"left","response":"left","rt":466.40000009537,"correct":true,"confidence":5},{"trial_n":180,"n_dots":2.65,"target":"left","response":"left","rt":460,"correct":true,"confidence":5},{"trial_n":181,"n_dots":2.65,"target":"left","response":"right","rt":572.90000009537,"correct":false,"confidence":5},{"trial_n":182,"n_dots":2.75,"target":"left","response":"left","rt":389.39999997616,"correct":true,"confidence":5},{"trial_n":183,"n_dots":2.75,"target":"left","response":"left","rt":466.60000002384,"correct":true,"confidence":5},{"trial_n":184,"n_dots":2.65,"target":"right","response":"right","rt":441,"correct":true,"confidence":5},{"trial_n":185,"n_dots":2.65,"target":"left","response":"right","rt":531,"correct":false,"confidence":5},{"trial_n":186,"n_dots":2.75,"target":"right","response":"right","rt":731.20000004768,"correct":true,"confidence":5},{"trial_n":187,"n_dots":2.75,"target":"left","response":"left","rt":206.39999997616,"correct":true,"confidence":5},{"trial_n":188,"n_dots":2.65,"target":"left","response":"right","rt":845.09999990463,"correct":false,"confidence":5},{"trial_n":189,"n_dots":2.75,"target":"left","response":"left","rt":530.70000004768,"correct":true,"confidence":5},{"trial_n":190,"n_dots":2.75,"target":"left","response":"left","rt":571.10000002384,"correct":true,"confidence":5},{"trial_n":191,"n_dots":2.65,"target":"right","response":"right","rt":530.70000004768,"correct":true,"confidence":3},{"trial_n":192,"n_dots":2.65,"target":"right","response":"right","rt":1002.6999999285,"correct":true,"confidence":3},{"trial_n":193,"n_dots":2.55,"target":"right","response":"right","rt":490.20000004768,"correct":true,"confidence":4},{"trial_n":194,"n_dots":2.55,"target":"left","response":"left","rt":481.60000002384,"correct":true,"confidence":4}]