[{"trial_n":1,"n_dots":4.25,"target":"right","response":"right","rt":2407.700000003,"correct":true,"confidence":-1},{"trial_n":2,"n_dots":4.25,"target":"left","response":"left","rt":546.40000000224,"correct":true,"confidence":-1},{"trial_n":3,"n_dots":3.85,"target":"left","response":"left","rt":481,"correct":true,"confidence":-1},{"trial_n":4,"n_dots":3.85,"target":"left","response":"left","rt":742.59999999776,"correct":true,"confidence":-1},{"trial_n":5,"n_dots":3.45,"target":"right","response":"right","rt":454,"correct":true,"confidence":-1},{"trial_n":6,"n_dots":3.45,"target":"right","response":"right","rt":473.80000000075,"correct":true,"confidence":-1},{"trial_n":7,"n_dots":3.05,"target":"right","response":"right","rt":486.69999999925,"correct":true,"confidence":-1},{"trial_n":8,"n_dots":3.05,"target":"right","response":"right","rt":840.80000000075,"correct":true,"confidence":-1},{"trial_n":9,"n_dots":2.85,"target":"left","response":"right","rt":701,"correct":false,"confidence":-1},{"trial_n":10,"n_dots":3.05,"target":"left","response":"left","rt":600.60000000149,"correct":true,"confidence":-1},{"trial_n":11,"n_dots":3.05,"target":"right","response":"right","rt":445.5,"correct":true,"confidence":-1},{"trial_n":12,"n_dots":2.85,"target":"right","response":"right","rt":471,"correct":true,"confidence":-1},{"trial_n":13,"n_dots":2.85,"target":"right","response":"right","rt":429.80000000075,"correct":true,"confidence":-1},{"trial_n":14,"n_dots":2.75,"target":"left","response":"left","rt":386.80000000075,"correct":true,"confidence":-1},{"trial_n":15,"n_dots":2.75,"target":"right","response":"left","rt":698.70000000298,"correct":false,"confidence":-1},{"trial_n":16,"n_dots":2.85,"target":"left","response":"right","rt":533.30000000075,"correct":false,"confidence":-1},{"trial_n":17,"n_dots":2.95,"target":"left","response":"right","rt":384.90000000224,"correct":false,"confidence":-1},{"trial_n":18,"n_dots":3.05,"target":"right","response":"right","rt":432.30000000075,"correct":true,"confidence":-1},{"trial_n":19,"n_dots":3.05,"target":"right","response":"left","rt":461.39999999851,"correct":false,"confidence":-1},{"trial_n":20,"n_dots":3.15,"target":"right","response":"right","rt":424.39999999851,"correct":true,"confidence":-1},{"trial_n":21,"n_dots":3.15,"target":"left","response":"left","rt":348.80000000075,"correct":true,"confidence":-1},{"trial_n":22,"n_dots":3.05,"target":"left","response":"left","rt":337.19999999925,"correct":true,"confidence":-1},{"trial_n":23,"n_dots":3.05,"target":"right","response":"left","rt":378.5,"correct":false,"confidence":-1},{"trial_n":24,"n_dots":3.15,"target":"right","response":"right","rt":388.90000000224,"correct":true,"confidence":-1},{"trial_n":25,"n_dots":3.15,"target":"left","response":"left","rt":392.5,"correct":true,"confidence":-1},{"trial_n":26,"n_dots":3.05,"target":"left","response":"left","rt":527.39999999851,"correct":true,"confidence":-1},{"trial_n":27,"n_dots":3.05,"target":"right","response":"right","rt":349.30000000075,"correct":true,"confidence":6},{"trial_n":28,"n_dots":2.95,"target":"left","response":"left","rt":1378.299999997,"correct":true,"confidence":3},{"trial_n":29,"n_dots":2.95,"target":"left","response":"left","rt":422.59999999776,"correct":true,"confidence":6},{"trial_n":30,"n_dots":2.85,"target":"left","response":"right","rt":1595.5,"correct":false,"confidence":6},{"trial_n":31,"n_dots":2.95,"target":"right","response":"left","rt":775.69999999925,"correct":false,"confidence":6},{"trial_n":32,"n_dots":3.05,"target":"left","response":"left","rt":728.69999999925,"correct":true,"confidence":6},{"trial_n":33,"n_dots":3.05,"target":"right","response":"right","rt":558.30000000075,"correct":true,"confidence":4},{"trial_n":34,"n_dots":2.95,"target":"left","response":"right","rt":742,"correct":false,"confidence":5},{"trial_n":35,"n_dots":3.05,"target":"right","response":"left","rt":519.59999999776,"correct":false,"confidence":6},{"trial_n":36,"n_dots":3.15,"target":"left","response":"left","rt":797.69999999925,"correct":true,"confidence":3},{"trial_n":37,"n_dots":3.15,"target":"right","response":"right","rt":1435.0999999978,"correct":true,"confidence":6},{"trial_n":38,"n_dots":3.05,"target":"left","response":"left","rt":1545.4000000022,"correct":true,"confidence":1},{"trial_n":39,"n_dots":3.05,"target":"right","response":"left","rt":686.30000000075,"correct":false,"confidence":5},{"trial_n":40,"n_dots":3.15,"target":"right","response":"right","rt":425.90000000224,"correct":true,"confidence":6},{"trial_n":41,"n_dots":3.15,"target":"left","response":"left","rt":449.30000000075,"correct":true,"confidence":6},{"trial_n":42,"n_dots":3.05,"target":"right","response":"right","rt":770.89999999851,"correct":true,"confidence":4},{"trial_n":43,"n_dots":3.05,"target":"left","response":"left","rt":1014.8999999985,"correct":true,"confidence":4},{"trial_n":44,"n_dots":2.95,"target":"left","response":"left","rt":879.89999999851,"correct":true,"confidence":5},{"trial_n":45,"n_dots":2.95,"target":"left","response":"left","rt":519.69999999925,"correct":true,"confidence":5},{"trial_n":46,"n_dots":2.85,"target":"right","response":"right","rt":1620.8999999985,"correct":true,"confidence":2},{"trial_n":47,"n_dots":2.85,"target":"left","response":"left","rt":1025.799999997,"correct":true,"confidence":5},{"trial_n":48,"n_dots":2.75,"target":"right","response":"right","rt":803.10000000149,"correct":true,"confidence":4},{"trial_n":49,"n_dots":2.75,"target":"right","response":"right","rt":523.5,"correct":true,"confidence":5},{"trial_n":50,"n_dots":2.65,"target":"right","response":"left","rt":1689.6000000015,"correct":false,"confidence":4},{"trial_n":51,"n_dots":2.75,"target":"right","response":"right","rt":1727.0999999978,"correct":true,"confidence":5},{"trial_n":52,"n_dots":2.75,"target":"right","response":"left","rt":754.30000000075,"correct":false,"confidence":3},{"trial_n":53,"n_dots":2.85,"target":"left","response":"left","rt":504.69999999925,"correct":true,"confidence":4},{"trial_n":54,"n_dots":2.85,"target":"right","response":"left","rt":388.69999999925,"correct":false,"confidence":5},{"trial_n":55,"n_dots":2.95,"target":"left","response":"left","rt":607.80000000075,"correct":true,"confidence":5},{"trial_n":56,"n_dots":2.95,"target":"right","response":"right","rt":871.30000000075,"correct":true,"confidence":5},{"trial_n":57,"n_dots":2.85,"target":"left","response":"left","rt":640.90000000224,"correct":true,"confidence":4},{"trial_n":58,"n_dots":2.85,"target":"left","response":"right","rt":710.29999999702,"correct":false,"confidence":4},{"trial_n":59,"n_dots":2.95,"target":"left","response":"left","rt":645.79999999702,"correct":true,"confidence":4},{"trial_n":60,"n_dots":2.95,"target":"left","response":"left","rt":483.60000000149,"correct":true,"confidence":4},{"trial_n":61,"n_dots":2.85,"target":"right","response":"right","rt":424.5,"correct":true,"confidence":5},{"trial_n":62,"n_dots":2.85,"target":"right","response":"right","rt":425.80000000075,"correct":true,"confidence":6},{"trial_n":63,"n_dots":2.75,"target":"left","response":"left","rt":368.60000000149,"correct":true,"confidence":6},{"trial_n":64,"n_dots":2.75,"target":"right","response":"left","rt":757.69999999925,"correct":false,"confidence":1},{"trial_n":65,"n_dots":2.85,"target":"right","response":"right","rt":430.19999999925,"correct":true,"confidence":5},{"trial_n":66,"n_dots":2.85,"target":"left","response":"left","rt":393,"correct":true,"confidence":4},{"trial_n":67,"n_dots":2.75,"target":"left","response":"left","rt":374.19999999925,"correct":true,"confidence":6},{"trial_n":68,"n_dots":2.75,"target":"right","response":"left","rt":417.30000000075,"correct":false,"confidence":4},{"trial_n":69,"n_dots":2.85,"target":"right","response":"left","rt":587,"correct":false,"confidence":4},{"trial_n":70,"n_dots":2.95,"target":"left","response":"left","rt":653.80000000075,"correct":true,"confidence":3},{"trial_n":71,"n_dots":2.95,"target":"right","response":"right","rt":592.10000000149,"correct":true,"confidence":5},{"trial_n":72,"n_dots":2.85,"target":"left","response":"left","rt":395.5,"correct":true,"confidence":4},{"trial_n":73,"n_dots":2.85,"target":"right","response":"right","rt":383.10000000149,"correct":true,"confidence":6},{"trial_n":74,"n_dots":2.75,"target":"right","response":"right","rt":562.79999999702,"correct":true,"confidence":4},{"trial_n":75,"n_dots":2.75,"target":"right","response":"left","rt":507,"correct":false,"confidence":4},{"trial_n":76,"n_dots":2.85,"target":"left","response":"left","rt":475.19999999925,"correct":true,"confidence":2},{"trial_n":77,"n_dots":2.85,"target":"right","response":"left","rt":452.60000000149,"correct":false,"confidence":2},{"trial_n":78,"n_dots":2.95,"target":"right","response":"left","rt":541,"correct":false,"confidence":5},{"trial_n":79,"n_dots":3.05,"target":"right","response":"left","rt":520.40000000224,"correct":false,"confidence":4},{"trial_n":80,"n_dots":3.15,"target":"right","response":"left","rt":618,"correct":false,"confidence":4},{"trial_n":81,"n_dots":3.25,"target":"left","response":"left","rt":725,"correct":true,"confidence":3},{"trial_n":82,"n_dots":3.25,"target":"right","response":"right","rt":2152.1999999993,"correct":true,"confidence":1},{"trial_n":83,"n_dots":3.15,"target":"right","response":"left","rt":620.39999999851,"correct":false,"confidence":4},{"trial_n":84,"n_dots":3.25,"target":"right","response":"right","rt":1257.200000003,"correct":true,"confidence":2},{"trial_n":85,"n_dots":3.25,"target":"right","response":"right","rt":933.5,"correct":true,"confidence":5},{"trial_n":86,"n_dots":3.15,"target":"left","response":"left","rt":544.60000000149,"correct":true,"confidence":4},{"trial_n":87,"n_dots":3.15,"target":"right","response":"left","rt":647,"correct":false,"confidence":5},{"trial_n":88,"n_dots":3.25,"target":"right","response":"right","rt":429,"correct":true,"confidence":6},{"trial_n":89,"n_dots":3.25,"target":"left","response":"left","rt":442.5,"correct":true,"confidence":6},{"trial_n":90,"n_dots":3.15,"target":"left","response":"left","rt":664.90000000224,"correct":true,"confidence":5},{"trial_n":91,"n_dots":3.15,"target":"right","response":"left","rt":614.69999999925,"correct":false,"confidence":5},{"trial_n":92,"n_dots":3.25,"target":"right","response":"left","rt":447.5,"correct":false,"confidence":4},{"trial_n":93,"n_dots":3.35,"target":"left","response":"left","rt":539.10000000149,"correct":true,"confidence":2},{"trial_n":94,"n_dots":3.35,"target":"right","response":"right","rt":377.10000000149,"correct":true,"confidence":6},{"trial_n":95,"n_dots":3.25,"target":"right","response":"left","rt":1312.8999999985,"correct":false,"confidence":5},{"trial_n":96,"n_dots":3.35,"target":"left","response":"left","rt":528.39999999851,"correct":true,"confidence":5},{"trial_n":97,"n_dots":3.35,"target":"left","response":"right","rt":935.40000000224,"correct":false,"confidence":5},{"trial_n":98,"n_dots":3.45,"target":"left","response":"left","rt":404.5,"correct":true,"confidence":5},{"trial_n":99,"n_dots":3.45,"target":"right","response":"right","rt":469.5,"correct":true,"confidence":6},{"trial_n":100,"n_dots":3.35,"target":"left","response":"left","rt":601.60000000149,"correct":true,"confidence":4},{"trial_n":101,"n_dots":3.35,"target":"right","response":"right","rt":425.10000000149,"correct":true,"confidence":6},{"trial_n":102,"n_dots":3.25,"target":"left","response":"left","rt":431.09999999776,"correct":true,"confidence":4},{"trial_n":103,"n_dots":3.25,"target":"left","response":"left","rt":375,"correct":true,"confidence":4},{"trial_n":104,"n_dots":3.15,"target":"left","response":"left","rt":498,"correct":true,"confidence":4},{"trial_n":105,"n_dots":3.15,"target":"left","response":"left","rt":509,"correct":true,"confidence":5},{"trial_n":106,"n_dots":3.05,"target":"right","response":"right","rt":474.60000000149,"correct":true,"confidence":6},{"trial_n":107,"n_dots":3.05,"target":"left","response":"left","rt":477.89999999851,"correct":true,"confidence":1},{"trial_n":108,"n_dots":2.95,"target":"left","response":"right","rt":456.19999999925,"correct":false,"confidence":5},{"trial_n":109,"n_dots":3.05,"target":"right","response":"left","rt":394.90000000224,"correct":false,"confidence":5},{"trial_n":110,"n_dots":3.15,"target":"right","response":"right","rt":444.60000000149,"correct":true,"confidence":5},{"trial_n":111,"n_dots":3.15,"target":"left","response":"left","rt":357.69999999925,"correct":true,"confidence":4},{"trial_n":112,"n_dots":3.05,"target":"left","response":"left","rt":465.79999999702,"correct":true,"confidence":4},{"trial_n":113,"n_dots":3.05,"target":"left","response":"right","rt":459,"correct":false,"confidence":5},{"trial_n":114,"n_dots":3.15,"target":"right","response":"left","rt":462.39999999851,"correct":false,"confidence":5},{"trial_n":115,"n_dots":3.25,"target":"left","response":"left","rt":381.39999999851,"correct":true,"confidence":5},{"trial_n":116,"n_dots":3.25,"target":"left","response":"left","rt":409.09999999776,"correct":true,"confidence":6},{"trial_n":117,"n_dots":3.15,"target":"right","response":"left","rt":447.09999999776,"correct":false,"confidence":6},{"trial_n":118,"n_dots":3.25,"target":"right","response":"left","rt":344.10000000149,"correct":false,"confidence":5},{"trial_n":119,"n_dots":3.35,"target":"left","response":"right","rt":425.5,"correct":false,"confidence":6},{"trial_n":120,"n_dots":3.45,"target":"right","response":"left","rt":450.5,"correct":false,"confidence":5},{"trial_n":121,"n_dots":3.55,"target":"left","response":"left","rt":389.40000000224,"correct":true,"confidence":6},{"trial_n":122,"n_dots":3.55,"target":"right","response":"right","rt":404.89999999851,"correct":true,"confidence":4},{"trial_n":123,"n_dots":3.45,"target":"right","response":"left","rt":415,"correct":false,"confidence":5},{"trial_n":124,"n_dots":3.55,"target":"right","response":"left","rt":437.39999999851,"correct":false,"confidence":5},{"trial_n":125,"n_dots":3.65,"target":"right","response":"right","rt":576.89999999851,"correct":true,"confidence":5},{"trial_n":126,"n_dots":3.65,"target":"left","response":"left","rt":463.19999999925,"correct":true,"confidence":5},{"trial_n":127,"n_dots":3.55,"target":"right","response":"right","rt":401.59999999776,"correct":true,"confidence":5},{"trial_n":128,"n_dots":3.55,"target":"right","response":"left","rt":621.59999999776,"correct":false,"confidence":1},{"trial_n":129,"n_dots":3.65,"target":"left","response":"left","rt":484.59999999776,"correct":true,"confidence":1},{"trial_n":130,"n_dots":3.65,"target":"left","response":"left","rt":501.89999999851,"correct":true,"confidence":5},{"trial_n":131,"n_dots":3.55,"target":"left","response":"left","rt":464.10000000149,"correct":true,"confidence":5},{"trial_n":132,"n_dots":3.55,"target":"right","response":"right","rt":599,"correct":true,"confidence":1},{"trial_n":133,"n_dots":3.45,"target":"left","response":"left","rt":356.89999999851,"correct":true,"confidence":6},{"trial_n":134,"n_dots":3.45,"target":"right","response":"right","rt":348.20000000298,"correct":true,"confidence":6},{"trial_n":135,"n_dots":3.35,"target":"right","response":"left","rt":395.39999999851,"correct":false,"confidence":5},{"trial_n":136,"n_dots":3.45,"target":"left","response":"left","rt":452.5,"correct":true,"confidence":2},{"trial_n":137,"n_dots":3.45,"target":"left","response":"right","rt":462,"correct":false,"confidence":1},{"trial_n":138,"n_dots":3.55,"target":"left","response":"left","rt":358.60000000149,"correct":true,"confidence":4},{"trial_n":139,"n_dots":3.55,"target":"left","response":"left","rt":410.20000000298,"correct":true,"confidence":4},{"trial_n":140,"n_dots":3.45,"target":"left","response":"left","rt":380.59999999776,"correct":true,"confidence":6},{"trial_n":141,"n_dots":3.45,"target":"right","response":"left","rt":550.5,"correct":false,"confidence":2},{"trial_n":142,"n_dots":3.55,"target":"left","response":"left","rt":457.10000000149,"correct":true,"confidence":6},{"trial_n":143,"n_dots":3.55,"target":"right","response":"right","rt":514.5,"correct":true,"confidence":3},{"trial_n":144,"n_dots":3.45,"target":"right","response":"left","rt":400.89999999851,"correct":false,"confidence":5},{"trial_n":145,"n_dots":3.55,"target":"left","response":"left","rt":344.09999999776,"correct":true,"confidence":6},{"trial_n":146,"n_dots":3.55,"target":"right","response":"left","rt":456,"correct":false,"confidence":6},{"trial_n":147,"n_dots":3.65,"target":"left","response":"right","rt":381.90000000224,"correct":false,"confidence":5},{"trial_n":148,"n_dots":3.75,"target":"right","response":"right","rt":348,"correct":true,"confidence":6},{"trial_n":149,"n_dots":3.75,"target":"left","response":"left","rt":338.10000000149,"correct":true,"confidence":6},{"trial_n":150,"n_dots":3.65,"target":"left","response":"left","rt":274,"correct":true,"confidence":6},{"trial_n":151,"n_dots":3.65,"target":"right","response":"right","rt":320.30000000075,"correct":true,"confidence":6},{"trial_n":152,"n_dots":3.55,"target":"left","response":"left","rt":325.10000000149,"correct":true,"confidence":6},{"trial_n":153,"n_dots":3.55,"target":"right","response":"right","rt":394.40000000224,"correct":true,"confidence":4},{"trial_n":154,"n_dots":3.45,"target":"left","response":"left","rt":436.20000000298,"correct":true,"confidence":5},{"trial_n":155,"n_dots":3.45,"target":"right","response":"right","rt":362.20000000298,"correct":true,"confidence":6},{"trial_n":156,"n_dots":3.35,"target":"left","response":"left","rt":426.5,"correct":true,"confidence":5},{"trial_n":157,"n_dots":3.35,"target":"right","response":"left","rt":634.10000000149,"correct":false,"confidence":4},{"trial_n":158,"n_dots":3.45,"target":"right","response":"right","rt":462.60000000149,"correct":true,"confidence":4},{"trial_n":159,"n_dots":3.45,"target":"left","response":"left","rt":428.89999999851,"correct":true,"confidence":5},{"trial_n":160,"n_dots":3.35,"target":"right","response":"left","rt":1730.200000003,"correct":false,"confidence":1},{"trial_n":161,"n_dots":3.45,"target":"left","response":"left","rt":405.5,"correct":true,"confidence":3},{"trial_n":162,"n_dots":3.45,"target":"right","response":"right","rt":445.60000000149,"correct":true,"confidence":3},{"trial_n":163,"n_dots":3.35,"target":"left","response":"left","rt":371.79999999702,"correct":true,"confidence":3},{"trial_n":164,"n_dots":3.35,"target":"left","response":"left","rt":403.5,"correct":true,"confidence":6},{"trial_n":165,"n_dots":3.25,"target":"left","response":"left","rt":330.79999999702,"correct":true,"confidence":6},{"trial_n":166,"n_dots":3.25,"target":"left","response":"left","rt":385.30000000075,"correct":true,"confidence":3},{"trial_n":167,"n_dots":3.15,"target":"left","response":"left","rt":360.69999999925,"correct":true,"confidence":4},{"trial_n":168,"n_dots":3.15,"target":"left","response":"left","rt":440.5,"correct":true,"confidence":6},{"trial_n":169,"n_dots":3.05,"target":"left","response":"right","rt":694,"correct":false,"confidence":3},{"trial_n":170,"n_dots":3.15,"target":"left","response":"right","rt":577.40000000224,"correct":false,"confidence":6},{"trial_n":171,"n_dots":3.25,"target":"left","response":"left","rt":464.40000000224,"correct":true,"confidence":5},{"trial_n":172,"n_dots":3.25,"target":"left","response":"left","rt":889.59999999776,"correct":true,"confidence":6},{"trial_n":173,"n_dots":3.15,"target":"left","response":"left","rt":824.39999999851,"correct":true,"confidence":5},{"trial_n":174,"n_dots":3.15,"target":"left","response":"left","rt":1322.3999999985,"correct":true,"confidence":4},{"trial_n":175,"n_dots":3.05,"target":"right","response":"right","rt":469.09999999776,"correct":true,"confidence":6},{"trial_n":176,"n_dots":3.05,"target":"left","response":"left","rt":336.69999999925,"correct":true,"confidence":6},{"trial_n":177,"n_dots":2.95,"target":"right","response":"right","rt":318,"correct":true,"confidence":6},{"trial_n":178,"n_dots":2.95,"target":"left","response":"left","rt":357.80000000075,"correct":true,"confidence":1},{"trial_n":179,"n_dots":2.85,"target":"right","response":"right","rt":329.69999999925,"correct":true,"confidence":6},{"trial_n":180,"n_dots":2.85,"target":"right","response":"right","rt":439.80000000075,"correct":true,"confidence":4},{"trial_n":181,"n_dots":2.75,"target":"right","response":"right","rt":333.80000000075,"correct":true,"confidence":4},{"trial_n":182,"n_dots":2.75,"target":"right","response":"right","rt":248.69999999925,"correct":true,"confidence":4},{"trial_n":183,"n_dots":2.65,"target":"right","response":"left","rt":370.30000000075,"correct":false,"confidence":1},{"trial_n":184,"n_dots":2.75,"target":"right","response":"right","rt":860.79999999702,"correct":true,"confidence":6},{"trial_n":185,"n_dots":2.75,"target":"right","response":"right","rt":303.30000000075,"correct":true,"confidence":5},{"trial_n":186,"n_dots":2.65,"target":"left","response":"right","rt":265.40000000224,"correct":false,"confidence":6},{"trial_n":187,"n_dots":2.75,"target":"right","response":"right","rt":288.39999999851,"correct":true,"confidence":6},{"trial_n":188,"n_dots":2.75,"target":"left","response":"right","rt":322.80000000075,"correct":false,"confidence":6},{"trial_n":189,"n_dots":2.85,"target":"right","response":"right","rt":2.6000000014901,"correct":true,"confidence":6},{"trial_n":190,"n_dots":2.85,"target":"right","response":"left","rt":35.60000000149,"correct":false,"confidence":6},{"trial_n":191,"n_dots":2.95,"target":"left","response":"right","rt":545.40000000224,"correct":false,"confidence":6},{"trial_n":192,"n_dots":3.05,"target":"left","response":"left","rt":410.09999999776,"correct":true,"confidence":5},{"trial_n":193,"n_dots":3.05,"target":"right","response":"right","rt":357.29999999702,"correct":true,"confidence":5},{"trial_n":194,"n_dots":2.95,"target":"left","response":"left","rt":324.29999999702,"correct":true,"confidence":1}]