[{"trial_n":1,"n_dots":4.25,"target":"right","response":"left","rt":11803.399999976,"correct":false,"confidence":-1},{"trial_n":2,"n_dots":4.25,"target":"right","response":"right","rt":2055.3000000715,"correct":true,"confidence":-1},{"trial_n":3,"n_dots":4.25,"target":"right","response":"right","rt":1206.1000000238,"correct":true,"confidence":-1},{"trial_n":4,"n_dots":3.85,"target":"right","response":"right","rt":1032.6000000238,"correct":true,"confidence":-1},{"trial_n":5,"n_dots":3.85,"target":"left","response":"right","rt":1593.8999999762,"correct":false,"confidence":-1},{"trial_n":6,"n_dots":4.25,"target":"right","response":"left","rt":8266.7999999523,"correct":false,"confidence":-1},{"trial_n":7,"n_dots":4.65,"target":"left","response":"left","rt":2120.8999999762,"correct":true,"confidence":-1},{"trial_n":8,"n_dots":4.65,"target":"left","response":"left","rt":1863,"correct":true,"confidence":-1},{"trial_n":9,"n_dots":4.45,"target":"right","response":"right","rt":956.5,"correct":true,"confidence":-1},{"trial_n":10,"n_dots":4.45,"target":"right","response":"right","rt":691,"correct":true,"confidence":-1},{"trial_n":11,"n_dots":4.25,"target":"right","response":"left","rt":1845.5,"correct":false,"confidence":-1},{"trial_n":12,"n_dots":4.45,"target":"right","response":"right","rt":779.5,"correct":true,"confidence":-1},{"trial_n":13,"n_dots":4.45,"target":"left","response":"left","rt":519.39999997616,"correct":true,"confidence":-1},{"trial_n":14,"n_dots":4.35,"target":"left","response":"right","rt":642,"correct":false,"confidence":-1},{"trial_n":15,"n_dots":4.45,"target":"left","response":"left","rt":650.19999992847,"correct":true,"confidence":-1},{"trial_n":16,"n_dots":4.45,"target":"right","response":"right","rt":645.89999997616,"correct":true,"confidence":-1},{"trial_n":17,"n_dots":4.35,"target":"right","response":"right","rt":672.79999995232,"correct":true,"confidence":-1},{"trial_n":18,"n_dots":4.35,"target":"right","response":"right","rt":394.29999995232,"correct":true,"confidence":-1},{"trial_n":19,"n_dots":4.25,"target":"right","response":"left","rt":560,"correct":false,"confidence":-1},{"trial_n":20,"n_dots":4.35,"target":"left","response":"left","rt":636.60000002384,"correct":true,"confidence":-1},{"trial_n":21,"n_dots":4.35,"target":"left","response":"right","rt":1248,"correct":false,"confidence":-1},{"trial_n":22,"n_dots":4.45,"target":"right","response":"right","rt":755.40000009537,"correct":true,"confidence":-1},{"trial_n":23,"n_dots":4.45,"target":"right","response":"right","rt":702,"correct":true,"confidence":-1},{"trial_n":24,"n_dots":4.35,"target":"left","response":"right","rt":1100.1000000238,"correct":false,"confidence":-1},{"trial_n":25,"n_dots":4.45,"target":"left","response":"left","rt":645.79999995232,"correct":true,"confidence":-1},{"trial_n":26,"n_dots":4.45,"target":"left","response":"left","rt":930.60000002384,"correct":true,"confidence":-1},{"trial_n":27,"n_dots":4.35,"target":"left","response":"right","rt":1396.6000000238,"correct":false,"confidence":4},{"trial_n":28,"n_dots":4.45,"target":"right","response":"right","rt":1140.2000000477,"correct":true,"confidence":4},{"trial_n":29,"n_dots":4.45,"target":"right","response":"right","rt":760.40000009537,"correct":true,"confidence":4},{"trial_n":30,"n_dots":4.35,"target":"right","response":"right","rt":643.20000004768,"correct":true,"confidence":6},{"trial_n":31,"n_dots":4.35,"target":"right","response":"right","rt":706.89999997616,"correct":true,"confidence":6},{"trial_n":32,"n_dots":4.25,"target":"right","response":"right","rt":1057.7000000477,"correct":true,"confidence":6},{"trial_n":33,"n_dots":4.25,"target":"right","response":"right","rt":959.10000002384,"correct":true,"confidence":6},{"trial_n":34,"n_dots":4.15,"target":"left","response":"left","rt":954.70000004768,"correct":true,"confidence":4},{"trial_n":35,"n_dots":4.15,"target":"left","response":"left","rt":1012.7999999523,"correct":true,"confidence":4},{"trial_n":36,"n_dots":4.05,"target":"right","response":"right","rt":1088.3999999762,"correct":true,"confidence":5},{"trial_n":37,"n_dots":4.05,"target":"left","response":"left","rt":1275.1000000238,"correct":true,"confidence":4},{"trial_n":38,"n_dots":3.95,"target":"left","response":"left","rt":1148.7000000477,"correct":true,"confidence":4},{"trial_n":39,"n_dots":3.95,"target":"left","response":"right","rt":984.79999995232,"correct":false,"confidence":4},{"trial_n":40,"n_dots":4.05,"target":"right","response":"right","rt":579.89999997616,"correct":true,"confidence":5},{"trial_n":41,"n_dots":4.05,"target":"left","response":"left","rt":1753.7000000477,"correct":true,"confidence":4},{"trial_n":42,"n_dots":3.95,"target":"left","response":"left","rt":917.90000009537,"correct":true,"confidence":4},{"trial_n":43,"n_dots":3.95,"target":"left","response":"left","rt":1071.6999999285,"correct":true,"confidence":4},{"trial_n":44,"n_dots":3.85,"target":"left","response":"left","rt":3853.3000000715,"correct":true,"confidence":4},{"trial_n":45,"n_dots":3.85,"target":"left","response":"left","rt":1253.6000000238,"correct":true,"confidence":4},{"trial_n":46,"n_dots":3.75,"target":"right","response":"right","rt":1084.2999999523,"correct":true,"confidence":5},{"trial_n":47,"n_dots":3.75,"target":"left","response":"right","rt":1146.7999999523,"correct":false,"confidence":5},{"trial_n":48,"n_dots":3.85,"target":"right","response":"right","rt":3146.8999999762,"correct":true,"confidence":5},{"trial_n":49,"n_dots":3.85,"target":"left","response":"left","rt":1145.5,"correct":true,"confidence":4},{"trial_n":50,"n_dots":3.75,"target":"left","response":"left","rt":1051.2999999523,"correct":true,"confidence":5},{"trial_n":51,"n_dots":3.75,"target":"right","response":"right","rt":2425.7000000477,"correct":true,"confidence":4},{"trial_n":52,"n_dots":3.65,"target":"right","response":"right","rt":855.20000004768,"correct":true,"confidence":5},{"trial_n":53,"n_dots":3.65,"target":"left","response":"left","rt":1240.7999999523,"correct":true,"confidence":4},{"trial_n":54,"n_dots":3.55,"target":"left","response":"left","rt":1451.7000000477,"correct":true,"confidence":4},{"trial_n":55,"n_dots":3.55,"target":"left","response":"left","rt":1055.8999999762,"correct":true,"confidence":4},{"trial_n":56,"n_dots":3.45,"target":"right","response":"right","rt":1240.8000000715,"correct":true,"confidence":4},{"trial_n":57,"n_dots":3.45,"target":"left","response":"right","rt":1767.2000000477,"correct":false,"confidence":5},{"trial_n":58,"n_dots":3.55,"target":"right","response":"right","rt":856.30000007153,"correct":true,"confidence":5},{"trial_n":59,"n_dots":3.55,"target":"left","response":"right","rt":1026.2000000477,"correct":false,"confidence":4},{"trial_n":60,"n_dots":3.65,"target":"right","response":"right","rt":1080.3999999762,"correct":true,"confidence":5},{"trial_n":61,"n_dots":3.65,"target":"left","response":"left","rt":1161.7000000477,"correct":true,"confidence":4},{"trial_n":62,"n_dots":3.55,"target":"left","response":"left","rt":774.60000002384,"correct":true,"confidence":4},{"trial_n":63,"n_dots":3.55,"target":"right","response":"left","rt":1080.8000000715,"correct":false,"confidence":4},{"trial_n":64,"n_dots":3.65,"target":"right","response":"right","rt":1498.3000000715,"correct":true,"confidence":5},{"trial_n":65,"n_dots":3.65,"target":"right","response":"right","rt":1092.2000000477,"correct":true,"confidence":4},{"trial_n":66,"n_dots":3.55,"target":"right","response":"right","rt":872.79999995232,"correct":true,"confidence":4},{"trial_n":67,"n_dots":3.55,"target":"right","response":"right","rt":958.89999997616,"correct":true,"confidence":6},{"trial_n":68,"n_dots":3.45,"target":"right","response":"left","rt":1348.1999999285,"correct":false,"confidence":5},{"trial_n":69,"n_dots":3.55,"target":"left","response":"left","rt":3377.2999999523,"correct":true,"confidence":1},{"trial_n":70,"n_dots":3.55,"target":"right","response":"right","rt":729.20000004768,"correct":true,"confidence":6},{"trial_n":71,"n_dots":3.45,"target":"right","response":"right","rt":803.09999990463,"correct":true,"confidence":1},{"trial_n":72,"n_dots":3.45,"target":"right","response":"right","rt":1080.6000000238,"correct":true,"confidence":6},{"trial_n":73,"n_dots":3.35,"target":"left","response":"left","rt":2493,"correct":true,"confidence":3},{"trial_n":74,"n_dots":3.35,"target":"right","response":"right","rt":913.5,"correct":true,"confidence":5},{"trial_n":75,"n_dots":3.25,"target":"right","response":"right","rt":2022.6000000238,"correct":true,"confidence":3},{"trial_n":76,"n_dots":3.25,"target":"left","response":"left","rt":927.19999992847,"correct":true,"confidence":5},{"trial_n":77,"n_dots":3.15,"target":"right","response":"right","rt":1411.3999999762,"correct":true,"confidence":3},{"trial_n":78,"n_dots":3.15,"target":"left","response":"right","rt":930.10000002384,"correct":false,"confidence":5},{"trial_n":79,"n_dots":3.25,"target":"left","response":"left","rt":1148.6000000238,"correct":true,"confidence":5},{"trial_n":80,"n_dots":3.25,"target":"right","response":"left","rt":1259.7000000477,"correct":false,"confidence":4},{"trial_n":81,"n_dots":3.35,"target":"left","response":"right","rt":1733.6999999285,"correct":false,"confidence":3},{"trial_n":82,"n_dots":3.45,"target":"right","response":"right","rt":849.19999992847,"correct":true,"confidence":4},{"trial_n":83,"n_dots":3.45,"target":"left","response":"right","rt":1004.6000000238,"correct":false,"confidence":4},{"trial_n":84,"n_dots":3.55,"target":"left","response":"right","rt":2091.5,"correct":false,"confidence":3},{"trial_n":85,"n_dots":3.65,"target":"left","response":"right","rt":1383.3999999762,"correct":false,"confidence":1},{"trial_n":86,"n_dots":3.75,"target":"left","response":"left","rt":915.29999995232,"correct":true,"confidence":5},{"trial_n":87,"n_dots":3.75,"target":"right","response":"right","rt":2471.8999999762,"correct":true,"confidence":3},{"trial_n":88,"n_dots":3.65,"target":"right","response":"left","rt":1962.6000000238,"correct":false,"confidence":4},{"trial_n":89,"n_dots":3.75,"target":"left","response":"left","rt":697.70000004768,"correct":true,"confidence":4},{"trial_n":90,"n_dots":3.75,"target":"right","response":"right","rt":1519.7999999523,"correct":true,"confidence":4},{"trial_n":91,"n_dots":3.65,"target":"left","response":"left","rt":1068,"correct":true,"confidence":4},{"trial_n":92,"n_dots":3.65,"target":"right","response":"right","rt":1025.3999999762,"correct":true,"confidence":4},{"trial_n":93,"n_dots":3.55,"target":"right","response":"right","rt":881.29999995232,"correct":true,"confidence":4},{"trial_n":94,"n_dots":3.55,"target":"left","response":"left","rt":1070.3000000715,"correct":true,"confidence":3},{"trial_n":95,"n_dots":3.45,"target":"left","response":"right","rt":1749.2999999523,"correct":false,"confidence":4},{"trial_n":96,"n_dots":3.55,"target":"left","response":"left","rt":1101.6999999285,"correct":true,"confidence":4},{"trial_n":97,"n_dots":3.55,"target":"right","response":"right","rt":821.09999990463,"correct":true,"confidence":5},{"trial_n":98,"n_dots":3.45,"target":"left","response":"left","rt":1707.2999999523,"correct":true,"confidence":4},{"trial_n":99,"n_dots":3.45,"target":"left","response":"right","rt":1473.3999999762,"correct":false,"confidence":4},{"trial_n":100,"n_dots":3.55,"target":"left","response":"left","rt":2012.9000000954,"correct":true,"confidence":4},{"trial_n":101,"n_dots":3.55,"target":"right","response":"right","rt":1059.5,"correct":true,"confidence":4},{"trial_n":102,"n_dots":3.45,"target":"left","response":"left","rt":1163.1000000238,"correct":true,"confidence":4},{"trial_n":103,"n_dots":3.45,"target":"left","response":"right","rt":1194,"correct":false,"confidence":4},{"trial_n":104,"n_dots":3.55,"target":"right","response":"right","rt":1107.6000000238,"correct":true,"confidence":4},{"trial_n":105,"n_dots":3.55,"target":"left","response":"left","rt":975,"correct":true,"confidence":3},{"trial_n":106,"n_dots":3.45,"target":"right","response":"right","rt":882.89999997616,"correct":true,"confidence":5},{"trial_n":107,"n_dots":3.45,"target":"left","response":"right","rt":1044.1000000238,"correct":false,"confidence":4},{"trial_n":108,"n_dots":3.55,"target":"left","response":"right","rt":943.39999997616,"correct":false,"confidence":5},{"trial_n":109,"n_dots":3.65,"target":"right","response":"right","rt":1006.5,"correct":true,"confidence":4},{"trial_n":110,"n_dots":3.65,"target":"right","response":"left","rt":1096.2999999523,"correct":false,"confidence":4},{"trial_n":111,"n_dots":3.75,"target":"right","response":"right","rt":879.60000002384,"correct":true,"confidence":4},{"trial_n":112,"n_dots":3.75,"target":"left","response":"left","rt":865.80000007153,"correct":true,"confidence":4},{"trial_n":113,"n_dots":3.65,"target":"right","response":"right","rt":960.29999995232,"correct":true,"confidence":4},{"trial_n":114,"n_dots":3.65,"target":"right","response":"right","rt":1364.6999999285,"correct":true,"confidence":1},{"trial_n":115,"n_dots":3.55,"target":"left","response":"left","rt":689.30000007153,"correct":true,"confidence":5},{"trial_n":116,"n_dots":3.55,"target":"right","response":"right","rt":1265.6000000238,"correct":true,"confidence":5},{"trial_n":117,"n_dots":3.45,"target":"left","response":"right","rt":1069.8999999762,"correct":false,"confidence":5},{"trial_n":118,"n_dots":3.55,"target":"right","response":"left","rt":1268.7999999523,"correct":false,"confidence":5},{"trial_n":119,"n_dots":3.65,"target":"left","response":"right","rt":1158.1000000238,"correct":false,"confidence":4},{"trial_n":120,"n_dots":3.75,"target":"left","response":"left","rt":1026.2000000477,"correct":true,"confidence":5},{"trial_n":121,"n_dots":3.75,"target":"right","response":"right","rt":1408.7000000477,"correct":true,"confidence":4},{"trial_n":122,"n_dots":3.65,"target":"left","response":"left","rt":805.80000007153,"correct":true,"confidence":4},{"trial_n":123,"n_dots":3.65,"target":"left","response":"left","rt":1307.5999999046,"correct":true,"confidence":4},{"trial_n":124,"n_dots":3.55,"target":"right","response":"right","rt":867.90000009537,"correct":true,"confidence":4},{"trial_n":125,"n_dots":3.55,"target":"left","response":"left","rt":990.30000007153,"correct":true,"confidence":5},{"trial_n":126,"n_dots":3.45,"target":"right","response":"right","rt":898.89999997616,"correct":true,"confidence":4},{"trial_n":127,"n_dots":3.45,"target":"right","response":"left","rt":1837.6000000238,"correct":false,"confidence":4},{"trial_n":128,"n_dots":3.55,"target":"right","response":"right","rt":835.60000002384,"correct":true,"confidence":4},{"trial_n":129,"n_dots":3.55,"target":"left","response":"left","rt":928,"correct":true,"confidence":4},{"trial_n":130,"n_dots":3.45,"target":"right","response":"left","rt":1054,"correct":false,"confidence":4},{"trial_n":131,"n_dots":3.55,"target":"left","response":"left","rt":1007.3000000715,"correct":true,"confidence":1},{"trial_n":132,"n_dots":3.55,"target":"right","response":"right","rt":961.10000002384,"correct":true,"confidence":4},{"trial_n":133,"n_dots":3.45,"target":"left","response":"left","rt":790.79999995232,"correct":true,"confidence":4},{"trial_n":134,"n_dots":3.45,"target":"left","response":"left","rt":913.60000002384,"correct":true,"confidence":4},{"trial_n":135,"n_dots":3.35,"target":"right","response":"right","rt":1085.8999999762,"correct":true,"confidence":4},{"trial_n":136,"n_dots":3.35,"target":"left","response":"left","rt":780.19999992847,"correct":true,"confidence":4},{"trial_n":137,"n_dots":3.25,"target":"right","response":"right","rt":2081.1000000238,"correct":true,"confidence":1},{"trial_n":138,"n_dots":3.25,"target":"left","response":"left","rt":1147.2000000477,"correct":true,"confidence":4},{"trial_n":139,"n_dots":3.15,"target":"right","response":"left","rt":1104.2000000477,"correct":false,"confidence":4},{"trial_n":140,"n_dots":3.25,"target":"left","response":"left","rt":901.19999992847,"correct":true,"confidence":4},{"trial_n":141,"n_dots":3.25,"target":"left","response":"right","rt":3007.6999999285,"correct":false,"confidence":1},{"trial_n":142,"n_dots":3.35,"target":"left","response":"left","rt":927.59999990463,"correct":true,"confidence":4},{"trial_n":143,"n_dots":3.35,"target":"left","response":"left","rt":1113.5,"correct":true,"confidence":4},{"trial_n":144,"n_dots":3.25,"target":"left","response":"left","rt":1029.6000000238,"correct":true,"confidence":4},{"trial_n":145,"n_dots":3.25,"target":"left","response":"left","rt":1327.1000000238,"correct":true,"confidence":4},{"trial_n":146,"n_dots":3.15,"target":"left","response":"left","rt":2546.7999999523,"correct":true,"confidence":4},{"trial_n":147,"n_dots":3.15,"target":"left","response":"left","rt":1276,"correct":true,"confidence":4},{"trial_n":148,"n_dots":3.05,"target":"left","response":"right","rt":960,"correct":false,"confidence":4},{"trial_n":149,"n_dots":3.15,"target":"left","response":"left","rt":1184.8999999762,"correct":true,"confidence":4},{"trial_n":150,"n_dots":3.15,"target":"right","response":"right","rt":1099.5,"correct":true,"confidence":4},{"trial_n":151,"n_dots":3.05,"target":"right","response":"right","rt":1152.6000000238,"correct":true,"confidence":4},{"trial_n":152,"n_dots":3.05,"target":"left","response":"left","rt":2272.3999999762,"correct":true,"confidence":4},{"trial_n":153,"n_dots":2.95,"target":"right","response":"right","rt":886.80000007153,"correct":true,"confidence":4},{"trial_n":154,"n_dots":2.95,"target":"left","response":"left","rt":931.90000009537,"correct":true,"confidence":4},{"trial_n":155,"n_dots":2.85,"target":"left","response":"left","rt":1246.2999999523,"correct":true,"confidence":4},{"trial_n":156,"n_dots":2.85,"target":"right","response":"left","rt":1638.7999999523,"correct":false,"confidence":4},{"trial_n":157,"n_dots":2.95,"target":"right","response":"left","rt":1830.1999999285,"correct":false,"confidence":4},{"trial_n":158,"n_dots":3.05,"target":"right","response":"left","rt":1348.3999999762,"correct":false,"confidence":4},{"trial_n":159,"n_dots":3.15,"target":"right","response":"left","rt":1582.4000000954,"correct":false,"confidence":3},{"trial_n":160,"n_dots":3.25,"target":"right","response":"right","rt":1241.5,"correct":true,"confidence":5},{"trial_n":161,"n_dots":3.25,"target":"right","response":"right","rt":1074.1999999285,"correct":true,"confidence":5},{"trial_n":162,"n_dots":3.15,"target":"right","response":"right","rt":1118.2999999523,"correct":true,"confidence":5},{"trial_n":163,"n_dots":3.15,"target":"right","response":"right","rt":1621.5999999046,"correct":true,"confidence":4},{"trial_n":164,"n_dots":3.05,"target":"right","response":"right","rt":1515.6000000238,"correct":true,"confidence":1},{"trial_n":165,"n_dots":3.05,"target":"left","response":"left","rt":933,"correct":true,"confidence":5},{"trial_n":166,"n_dots":2.95,"target":"left","response":"left","rt":914.10000002384,"correct":true,"confidence":5},{"trial_n":167,"n_dots":2.95,"target":"left","response":"right","rt":1288.8999999762,"correct":false,"confidence":4},{"trial_n":168,"n_dots":3.05,"target":"left","response":"right","rt":976.89999997616,"correct":false,"confidence":4},{"trial_n":169,"n_dots":3.15,"target":"right","response":"right","rt":1015.6000000238,"correct":true,"confidence":4},{"trial_n":170,"n_dots":3.15,"target":"right","response":"right","rt":1209.7000000477,"correct":true,"confidence":3},{"trial_n":171,"n_dots":3.05,"target":"left","response":"right","rt":994.70000004768,"correct":false,"confidence":4},{"trial_n":172,"n_dots":3.15,"target":"left","response":"left","rt":1036.8999999762,"correct":true,"confidence":4},{"trial_n":173,"n_dots":3.15,"target":"left","response":"right","rt":900.70000004768,"correct":false,"confidence":5},{"trial_n":174,"n_dots":3.25,"target":"left","response":"right","rt":1031.8000000715,"correct":false,"confidence":4},{"trial_n":175,"n_dots":3.35,"target":"left","response":"right","rt":867,"correct":false,"confidence":5},{"trial_n":176,"n_dots":3.45,"target":"right","response":"right","rt":850.70000004768,"correct":true,"confidence":4},{"trial_n":177,"n_dots":3.45,"target":"right","response":"right","rt":1266,"correct":true,"confidence":4},{"trial_n":178,"n_dots":3.35,"target":"right","response":"right","rt":1315.8000000715,"correct":true,"confidence":4},{"trial_n":179,"n_dots":3.35,"target":"left","response":"left","rt":1137.6000000238,"correct":true,"confidence":5},{"trial_n":180,"n_dots":3.25,"target":"left","response":"left","rt":863.80000007153,"correct":true,"confidence":6},{"trial_n":181,"n_dots":3.25,"target":"right","response":"right","rt":1171.2000000477,"correct":true,"confidence":4},{"trial_n":182,"n_dots":3.15,"target":"left","response":"left","rt":681.90000009537,"correct":true,"confidence":6},{"trial_n":183,"n_dots":3.15,"target":"right","response":"left","rt":1020.8999999762,"correct":false,"confidence":5},{"trial_n":184,"n_dots":3.25,"target":"right","response":"left","rt":1406.2000000477,"correct":false,"confidence":5},{"trial_n":185,"n_dots":3.35,"target":"right","response":"right","rt":866.39999997616,"correct":true,"confidence":5},{"trial_n":186,"n_dots":3.35,"target":"left","response":"left","rt":728.90000009537,"correct":true,"confidence":5},{"trial_n":187,"n_dots":3.25,"target":"right","response":"right","rt":1083.2000000477,"correct":true,"confidence":5},{"trial_n":188,"n_dots":3.25,"target":"left","response":"left","rt":8342.1000000238,"correct":true,"confidence":4},{"trial_n":189,"n_dots":3.15,"target":"right","response":"right","rt":822.70000004768,"correct":true,"confidence":4},{"trial_n":190,"n_dots":3.15,"target":"right","response":"left","rt":847.39999997616,"correct":false,"confidence":4},{"trial_n":191,"n_dots":3.25,"target":"right","response":"right","rt":1066.2000000477,"correct":true,"confidence":5},{"trial_n":192,"n_dots":3.25,"target":"left","response":"left","rt":849.80000007153,"correct":true,"confidence":5},{"trial_n":193,"n_dots":3.15,"target":"right","response":"left","rt":931.39999997616,"correct":false,"confidence":5},{"trial_n":194,"n_dots":3.25,"target":"right","response":"right","rt":1304.3000000715,"correct":true,"confidence":4}]