[{"trial_n":1,"n_dots":4.25,"target":"left","response":"left","rt":2119.9000000954,"correct":true,"confidence":-1},{"trial_n":2,"n_dots":4.25,"target":"right","response":"right","rt":575.59999990463,"correct":true,"confidence":-1},{"trial_n":3,"n_dots":3.85,"target":"right","response":"right","rt":123.09999990463,"correct":true,"confidence":-1},{"trial_n":4,"n_dots":3.85,"target":"right","response":"left","rt":6670.7000000477,"correct":false,"confidence":-1},{"trial_n":5,"n_dots":4.25,"target":"right","response":"left","rt":683.5,"correct":false,"confidence":-1},{"trial_n":6,"n_dots":4.65,"target":"left","response":"left","rt":176.89999985695,"correct":true,"confidence":-1},{"trial_n":7,"n_dots":4.65,"target":"left","response":"left","rt":25.5,"correct":true,"confidence":-1},{"trial_n":8,"n_dots":4.45,"target":"left","response":"left","rt":177.5,"correct":true,"confidence":-1},{"trial_n":9,"n_dots":4.45,"target":"left","response":"left","rt":5,"correct":true,"confidence":-1},{"trial_n":10,"n_dots":4.25,"target":"right","response":"right","rt":618.5,"correct":true,"confidence":-1},{"trial_n":11,"n_dots":4.25,"target":"right","response":"right","rt":27.299999952316,"correct":true,"confidence":-1},{"trial_n":12,"n_dots":4.05,"target":"right","response":"right","rt":587,"correct":true,"confidence":-1},{"trial_n":13,"n_dots":4.05,"target":"right","response":"right","rt":132.70000004768,"correct":true,"confidence":-1},{"trial_n":14,"n_dots":3.95,"target":"right","response":"right","rt":142.90000009537,"correct":true,"confidence":-1},{"trial_n":15,"n_dots":3.95,"target":"left","response":"left","rt":139.40000009537,"correct":true,"confidence":-1},{"trial_n":16,"n_dots":3.85,"target":"left","response":"left","rt":385.59999990463,"correct":true,"confidence":-1},{"trial_n":17,"n_dots":3.85,"target":"left","response":"left","rt":10.600000143051,"correct":true,"confidence":-1},{"trial_n":18,"n_dots":3.75,"target":"left","response":"left","rt":724.79999995232,"correct":true,"confidence":-1},{"trial_n":19,"n_dots":3.75,"target":"right","response":"left","rt":725.5,"correct":false,"confidence":-1},{"trial_n":20,"n_dots":3.85,"target":"left","response":"right","rt":121.70000004768,"correct":false,"confidence":-1},{"trial_n":21,"n_dots":3.95,"target":"left","response":"left","rt":442.19999980927,"correct":true,"confidence":-1},{"trial_n":22,"n_dots":3.95,"target":"left","response":"right","rt":123.20000004768,"correct":false,"confidence":-1},{"trial_n":23,"n_dots":4.05,"target":"right","response":"left","rt":58.400000095367,"correct":false,"confidence":-1},{"trial_n":24,"n_dots":4.15,"target":"left","response":"left","rt":325.80000019073,"correct":true,"confidence":-1},{"trial_n":25,"n_dots":4.15,"target":"left","response":"left","rt":48.099999904633,"correct":true,"confidence":-1},{"trial_n":26,"n_dots":4.05,"target":"right","response":"right","rt":135.20000004768,"correct":true,"confidence":-1},{"trial_n":27,"n_dots":4.05,"target":"left","response":"left","rt":943.29999995232,"correct":true,"confidence":3},{"trial_n":28,"n_dots":3.95,"target":"right","response":"right","rt":580.89999985695,"correct":true,"confidence":4},{"trial_n":29,"n_dots":3.95,"target":"right","response":"right","rt":278.29999995232,"correct":true,"confidence":4},{"trial_n":30,"n_dots":3.85,"target":"left","response":"left","rt":258.29999995232,"correct":true,"confidence":6},{"trial_n":31,"n_dots":3.85,"target":"left","response":"right","rt":1205.5,"correct":false,"confidence":2},{"trial_n":32,"n_dots":3.95,"target":"left","response":"left","rt":489.59999990463,"correct":true,"confidence":4},{"trial_n":33,"n_dots":3.95,"target":"left","response":"left","rt":1080.2999999523,"correct":true,"confidence":4},{"trial_n":34,"n_dots":3.85,"target":"right","response":"right","rt":493,"correct":true,"confidence":4},{"trial_n":35,"n_dots":3.85,"target":"left","response":"left","rt":1980.4000000954,"correct":true,"confidence":4},{"trial_n":36,"n_dots":3.75,"target":"left","response":"left","rt":255.59999990463,"correct":true,"confidence":4},{"trial_n":37,"n_dots":3.75,"target":"right","response":"right","rt":439,"correct":true,"confidence":4},{"trial_n":38,"n_dots":3.65,"target":"left","response":"left","rt":202,"correct":true,"confidence":4},{"trial_n":39,"n_dots":3.65,"target":"right","response":"left","rt":50,"correct":false,"confidence":3},{"trial_n":40,"n_dots":3.75,"target":"right","response":"right","rt":251.10000014305,"correct":true,"confidence":5},{"trial_n":41,"n_dots":3.75,"target":"right","response":"left","rt":200.20000004768,"correct":false,"confidence":4},{"trial_n":42,"n_dots":3.85,"target":"left","response":"left","rt":166.59999990463,"correct":true,"confidence":4},{"trial_n":43,"n_dots":3.85,"target":"left","response":"left","rt":476.20000004768,"correct":true,"confidence":4},{"trial_n":44,"n_dots":3.75,"target":"left","response":"left","rt":916.90000009537,"correct":true,"confidence":4},{"trial_n":45,"n_dots":3.75,"target":"left","response":"left","rt":1156.7999999523,"correct":true,"confidence":4},{"trial_n":46,"n_dots":3.65,"target":"right","response":"right","rt":283.39999985695,"correct":true,"confidence":5},{"trial_n":47,"n_dots":3.65,"target":"right","response":"right","rt":380.20000004768,"correct":true,"confidence":5},{"trial_n":48,"n_dots":3.55,"target":"right","response":"right","rt":290.70000004768,"correct":true,"confidence":5},{"trial_n":49,"n_dots":3.55,"target":"right","response":"left","rt":761.29999995232,"correct":false,"confidence":4},{"trial_n":50,"n_dots":3.65,"target":"right","response":"right","rt":232.10000014305,"correct":true,"confidence":5},{"trial_n":51,"n_dots":3.65,"target":"right","response":"right","rt":250.59999990463,"correct":true,"confidence":4},{"trial_n":52,"n_dots":3.55,"target":"right","response":"right","rt":748.5,"correct":true,"confidence":5},{"trial_n":53,"n_dots":3.55,"target":"right","response":"left","rt":185.90000009537,"correct":false,"confidence":4},{"trial_n":54,"n_dots":3.65,"target":"left","response":"left","rt":347.19999980927,"correct":true,"confidence":5},{"trial_n":55,"n_dots":3.65,"target":"left","response":"left","rt":376,"correct":true,"confidence":4},{"trial_n":56,"n_dots":3.55,"target":"left","response":"left","rt":534.39999985695,"correct":true,"confidence":5},{"trial_n":57,"n_dots":3.55,"target":"right","response":"right","rt":315.30000019073,"correct":true,"confidence":4},{"trial_n":58,"n_dots":3.45,"target":"right","response":"right","rt":301.20000004768,"correct":true,"confidence":5},{"trial_n":59,"n_dots":3.45,"target":"left","response":"right","rt":169.80000019073,"correct":false,"confidence":5},{"trial_n":60,"n_dots":3.55,"target":"left","response":"left","rt":731.10000014305,"correct":true,"confidence":5},{"trial_n":61,"n_dots":3.55,"target":"right","response":"left","rt":743.20000004768,"correct":false,"confidence":4},{"trial_n":62,"n_dots":3.65,"target":"right","response":"right","rt":461.5,"correct":true,"confidence":5},{"trial_n":63,"n_dots":3.65,"target":"left","response":"left","rt":301.40000009537,"correct":true,"confidence":1},{"trial_n":64,"n_dots":3.55,"target":"left","response":"left","rt":182.40000009537,"correct":true,"confidence":4},{"trial_n":65,"n_dots":3.55,"target":"left","response":"right","rt":289.60000014305,"correct":false,"confidence":1},{"trial_n":66,"n_dots":3.65,"target":"right","response":"left","rt":0.5,"correct":false,"confidence":1},{"trial_n":67,"n_dots":3.75,"target":"left","response":"left","rt":390.90000009537,"correct":true,"confidence":4},{"trial_n":68,"n_dots":3.75,"target":"left","response":"right","rt":473.70000004768,"correct":false,"confidence":4},{"trial_n":69,"n_dots":3.85,"target":"right","response":"left","rt":315.29999995232,"correct":false,"confidence":4},{"trial_n":70,"n_dots":3.95,"target":"right","response":"right","rt":427.20000004768,"correct":true,"confidence":4},{"trial_n":71,"n_dots":3.95,"target":"left","response":"left","rt":393.39999985695,"correct":true,"confidence":4},{"trial_n":72,"n_dots":3.85,"target":"right","response":"left","rt":263.70000004768,"correct":false,"confidence":4},{"trial_n":73,"n_dots":3.95,"target":"right","response":"right","rt":1000.5999999046,"correct":true,"confidence":4},{"trial_n":74,"n_dots":3.95,"target":"left","response":"left","rt":154.40000009537,"correct":true,"confidence":3},{"trial_n":75,"n_dots":3.85,"target":"left","response":"left","rt":18,"correct":true,"confidence":4},{"trial_n":76,"n_dots":3.85,"target":"right","response":"left","rt":166.70000004768,"correct":false,"confidence":4},{"trial_n":77,"n_dots":3.95,"target":"left","response":"left","rt":184.89999985695,"correct":true,"confidence":5},{"trial_n":78,"n_dots":3.95,"target":"right","response":"right","rt":209.29999995232,"correct":true,"confidence":4},{"trial_n":79,"n_dots":3.85,"target":"right","response":"left","rt":149.79999995232,"correct":false,"confidence":4},{"trial_n":80,"n_dots":3.95,"target":"right","response":"right","rt":343.39999985695,"correct":true,"confidence":4},{"trial_n":81,"n_dots":3.95,"target":"right","response":"right","rt":394.90000009537,"correct":true,"confidence":4},{"trial_n":82,"n_dots":3.85,"target":"left","response":"left","rt":488,"correct":true,"confidence":4},{"trial_n":83,"n_dots":3.85,"target":"left","response":"left","rt":271.59999990463,"correct":true,"confidence":1},{"trial_n":84,"n_dots":3.75,"target":"right","response":"left","rt":0.79999995231628,"correct":false,"confidence":4},{"trial_n":85,"n_dots":3.85,"target":"left","response":"left","rt":350,"correct":true,"confidence":4},{"trial_n":86,"n_dots":3.85,"target":"left","response":"left","rt":208.10000014305,"correct":true,"confidence":4},{"trial_n":87,"n_dots":3.75,"target":"left","response":"right","rt":817.20000004768,"correct":false,"confidence":4},{"trial_n":88,"n_dots":3.85,"target":"left","response":"left","rt":68,"correct":true,"confidence":3},{"trial_n":89,"n_dots":3.85,"target":"left","response":"left","rt":86.799999952316,"correct":true,"confidence":4},{"trial_n":90,"n_dots":3.75,"target":"right","response":"right","rt":719.29999995232,"correct":true,"confidence":4},{"trial_n":91,"n_dots":3.75,"target":"left","response":"left","rt":99.599999904633,"correct":true,"confidence":3},{"trial_n":92,"n_dots":3.65,"target":"right","response":"right","rt":217.90000009537,"correct":true,"confidence":3},{"trial_n":93,"n_dots":3.65,"target":"left","response":"right","rt":264.70000004768,"correct":false,"confidence":3},{"trial_n":94,"n_dots":3.75,"target":"left","response":"left","rt":531.60000014305,"correct":true,"confidence":4},{"trial_n":95,"n_dots":3.75,"target":"right","response":"right","rt":320.09999990463,"correct":true,"confidence":4},{"trial_n":96,"n_dots":3.65,"target":"right","response":"right","rt":277.59999990463,"correct":true,"confidence":4},{"trial_n":97,"n_dots":3.65,"target":"left","response":"left","rt":242,"correct":true,"confidence":4},{"trial_n":98,"n_dots":3.55,"target":"left","response":"right","rt":282.70000004768,"correct":false,"confidence":4},{"trial_n":99,"n_dots":3.65,"target":"right","response":"right","rt":210.40000009537,"correct":true,"confidence":4},{"trial_n":100,"n_dots":3.65,"target":"right","response":"left","rt":452.59999990463,"correct":false,"confidence":4},{"trial_n":101,"n_dots":3.75,"target":"left","response":"left","rt":194.40000009537,"correct":true,"confidence":4},{"trial_n":102,"n_dots":3.75,"target":"right","response":"right","rt":765,"correct":true,"confidence":3},{"trial_n":103,"n_dots":3.65,"target":"left","response":"left","rt":1510.5,"correct":true,"confidence":1},{"trial_n":104,"n_dots":3.65,"target":"right","response":"right","rt":216.59999990463,"correct":true,"confidence":4},{"trial_n":105,"n_dots":3.55,"target":"left","response":"left","rt":427.79999995232,"correct":true,"confidence":3},{"trial_n":106,"n_dots":3.55,"target":"right","response":"left","rt":257,"correct":false,"confidence":4},{"trial_n":107,"n_dots":3.65,"target":"left","response":"left","rt":420.70000004768,"correct":true,"confidence":4},{"trial_n":108,"n_dots":3.65,"target":"right","response":"right","rt":1057.0999999046,"correct":true,"confidence":2},{"trial_n":109,"n_dots":3.55,"target":"left","response":"left","rt":965.80000019073,"correct":true,"confidence":3},{"trial_n":110,"n_dots":3.55,"target":"right","response":"right","rt":1938.5999999046,"correct":true,"confidence":3},{"trial_n":111,"n_dots":3.45,"target":"right","response":"right","rt":920,"correct":true,"confidence":2},{"trial_n":112,"n_dots":3.45,"target":"right","response":"left","rt":1563.4000000954,"correct":false,"confidence":1},{"trial_n":113,"n_dots":3.55,"target":"left","response":"right","rt":679.20000004768,"correct":false,"confidence":4},{"trial_n":114,"n_dots":3.65,"target":"left","response":"left","rt":585.09999990463,"correct":true,"confidence":4},{"trial_n":115,"n_dots":3.65,"target":"left","response":"left","rt":774.29999995232,"correct":true,"confidence":3},{"trial_n":116,"n_dots":3.55,"target":"right","response":"left","rt":1011.9000000954,"correct":false,"confidence":3},{"trial_n":117,"n_dots":3.65,"target":"right","response":"right","rt":552.20000004768,"correct":true,"confidence":5},{"trial_n":118,"n_dots":3.65,"target":"left","response":"left","rt":741,"correct":true,"confidence":4},{"trial_n":119,"n_dots":3.55,"target":"left","response":"left","rt":451.59999990463,"correct":true,"confidence":2},{"trial_n":120,"n_dots":3.55,"target":"left","response":"left","rt":677.70000004768,"correct":true,"confidence":3},{"trial_n":121,"n_dots":3.45,"target":"right","response":"right","rt":772.70000004768,"correct":true,"confidence":5},{"trial_n":122,"n_dots":3.45,"target":"left","response":"left","rt":913.79999995232,"correct":true,"confidence":3},{"trial_n":123,"n_dots":3.35,"target":"left","response":"left","rt":551.70000004768,"correct":true,"confidence":4},{"trial_n":124,"n_dots":3.35,"target":"left","response":"left","rt":198,"correct":true,"confidence":3},{"trial_n":125,"n_dots":3.25,"target":"right","response":"right","rt":3613.8000001907,"correct":true,"confidence":1},{"trial_n":126,"n_dots":3.25,"target":"right","response":"right","rt":689.10000014305,"correct":true,"confidence":3},{"trial_n":127,"n_dots":3.15,"target":"left","response":"left","rt":542.20000004768,"correct":true,"confidence":3},{"trial_n":128,"n_dots":3.15,"target":"right","response":"left","rt":378,"correct":false,"confidence":3},{"trial_n":129,"n_dots":3.25,"target":"right","response":"right","rt":149.29999995232,"correct":true,"confidence":3},{"trial_n":130,"n_dots":3.25,"target":"left","response":"left","rt":378.29999995232,"correct":true,"confidence":4},{"trial_n":131,"n_dots":3.15,"target":"right","response":"left","rt":502.10000014305,"correct":false,"confidence":4},{"trial_n":132,"n_dots":3.25,"target":"right","response":"left","rt":829.29999995232,"correct":false,"confidence":3},{"trial_n":133,"n_dots":3.35,"target":"left","response":"left","rt":705.90000009537,"correct":true,"confidence":3},{"trial_n":134,"n_dots":3.35,"target":"right","response":"left","rt":654.80000019073,"correct":false,"confidence":3},{"trial_n":135,"n_dots":3.45,"target":"right","response":"right","rt":592.20000004768,"correct":true,"confidence":3},{"trial_n":136,"n_dots":3.45,"target":"left","response":"left","rt":106.59999990463,"correct":true,"confidence":3},{"trial_n":137,"n_dots":3.35,"target":"left","response":"left","rt":271.59999990463,"correct":true,"confidence":3},{"trial_n":138,"n_dots":3.35,"target":"right","response":"right","rt":577.90000009537,"correct":true,"confidence":2},{"trial_n":139,"n_dots":3.25,"target":"left","response":"left","rt":1947.5,"correct":true,"confidence":3},{"trial_n":140,"n_dots":3.25,"target":"left","response":"left","rt":298.90000009537,"correct":true,"confidence":5},{"trial_n":141,"n_dots":3.15,"target":"right","response":"right","rt":588.90000009537,"correct":true,"confidence":3},{"trial_n":142,"n_dots":3.15,"target":"left","response":"left","rt":460.70000004768,"correct":true,"confidence":3},{"trial_n":143,"n_dots":3.05,"target":"right","response":"right","rt":628.5,"correct":true,"confidence":2},{"trial_n":144,"n_dots":3.05,"target":"left","response":"left","rt":201.29999995232,"correct":true,"confidence":3},{"trial_n":145,"n_dots":2.95,"target":"left","response":"right","rt":68.699999809265,"correct":false,"confidence":2},{"trial_n":146,"n_dots":3.05,"target":"right","response":"right","rt":414.19999980927,"correct":true,"confidence":4},{"trial_n":147,"n_dots":3.05,"target":"right","response":"right","rt":352.5,"correct":true,"confidence":3},{"trial_n":148,"n_dots":2.95,"target":"left","response":"left","rt":189.90000009537,"correct":true,"confidence":4},{"trial_n":149,"n_dots":2.95,"target":"left","response":"left","rt":105.40000009537,"correct":true,"confidence":3},{"trial_n":150,"n_dots":2.85,"target":"right","response":"right","rt":963.29999995232,"correct":true,"confidence":3},{"trial_n":151,"n_dots":2.85,"target":"right","response":"left","rt":262,"correct":false,"confidence":2},{"trial_n":152,"n_dots":2.95,"target":"right","response":"left","rt":393.40000009537,"correct":false,"confidence":2},{"trial_n":153,"n_dots":3.05,"target":"left","response":"left","rt":282.89999985695,"correct":true,"confidence":3},{"trial_n":154,"n_dots":3.05,"target":"right","response":"right","rt":558.5,"correct":true,"confidence":3},{"trial_n":155,"n_dots":2.95,"target":"left","response":"left","rt":566.40000009537,"correct":true,"confidence":4},{"trial_n":156,"n_dots":2.95,"target":"left","response":"left","rt":562.70000004768,"correct":true,"confidence":3},{"trial_n":157,"n_dots":2.85,"target":"left","response":"left","rt":196.09999990463,"correct":true,"confidence":5},{"trial_n":158,"n_dots":2.85,"target":"left","response":"left","rt":398.5,"correct":true,"confidence":4},{"trial_n":159,"n_dots":2.75,"target":"right","response":"right","rt":513.79999995232,"correct":true,"confidence":1},{"trial_n":160,"n_dots":2.75,"target":"left","response":"left","rt":36.200000047684,"correct":true,"confidence":5},{"trial_n":161,"n_dots":2.65,"target":"right","response":"right","rt":551.70000004768,"correct":true,"confidence":4},{"trial_n":162,"n_dots":2.65,"target":"right","response":"right","rt":441,"correct":true,"confidence":3},{"trial_n":163,"n_dots":2.55,"target":"left","response":"left","rt":291.89999985695,"correct":true,"confidence":5},{"trial_n":164,"n_dots":2.55,"target":"right","response":"left","rt":499.09999990463,"correct":false,"confidence":4},{"trial_n":165,"n_dots":2.65,"target":"left","response":"left","rt":1112.8999998569,"correct":true,"confidence":3},{"trial_n":166,"n_dots":2.65,"target":"right","response":"left","rt":704.89999985695,"correct":false,"confidence":3},{"trial_n":167,"n_dots":2.75,"target":"right","response":"left","rt":589.29999995232,"correct":false,"confidence":3},{"trial_n":168,"n_dots":2.85,"target":"left","response":"left","rt":618.69999980927,"correct":true,"confidence":2},{"trial_n":169,"n_dots":2.85,"target":"left","response":"left","rt":404.79999995232,"correct":true,"confidence":4},{"trial_n":170,"n_dots":2.75,"target":"left","response":"right","rt":1487.9000000954,"correct":false,"confidence":2},{"trial_n":171,"n_dots":2.85,"target":"right","response":"right","rt":605.29999995232,"correct":true,"confidence":2},{"trial_n":172,"n_dots":2.85,"target":"right","response":"left","rt":593.5,"correct":false,"confidence":2},{"trial_n":173,"n_dots":2.95,"target":"right","response":"right","rt":704.20000004768,"correct":true,"confidence":3},{"trial_n":174,"n_dots":2.95,"target":"right","response":"right","rt":644.5,"correct":true,"confidence":2},{"trial_n":175,"n_dots":2.85,"target":"left","response":"left","rt":265.59999990463,"correct":true,"confidence":4},{"trial_n":176,"n_dots":2.85,"target":"right","response":"right","rt":263.10000014305,"correct":true,"confidence":3},{"trial_n":177,"n_dots":2.75,"target":"right","response":"left","rt":473.5,"correct":false,"confidence":5},{"trial_n":178,"n_dots":2.85,"target":"right","response":"right","rt":496.39999985695,"correct":true,"confidence":3},{"trial_n":179,"n_dots":2.85,"target":"right","response":"right","rt":564.70000004768,"correct":true,"confidence":4},{"trial_n":180,"n_dots":2.75,"target":"right","response":"right","rt":649,"correct":true,"confidence":3},{"trial_n":181,"n_dots":2.75,"target":"left","response":"left","rt":214.5,"correct":true,"confidence":4},{"trial_n":182,"n_dots":2.65,"target":"left","response":"left","rt":564.5,"correct":true,"confidence":5},{"trial_n":183,"n_dots":2.65,"target":"right","response":"left","rt":360.89999985695,"correct":false,"confidence":4},{"trial_n":184,"n_dots":2.75,"target":"right","response":"right","rt":522.79999995232,"correct":true,"confidence":2},{"trial_n":185,"n_dots":2.75,"target":"right","response":"left","rt":886.29999995232,"correct":false,"confidence":5},{"trial_n":186,"n_dots":2.85,"target":"left","response":"left","rt":527.40000009537,"correct":true,"confidence":5},{"trial_n":187,"n_dots":2.85,"target":"left","response":"left","rt":229.59999990463,"correct":true,"confidence":5},{"trial_n":188,"n_dots":2.75,"target":"left","response":"left","rt":650.70000004768,"correct":true,"confidence":4},{"trial_n":189,"n_dots":2.75,"target":"right","response":"right","rt":471.20000004768,"correct":true,"confidence":3},{"trial_n":190,"n_dots":2.65,"target":"left","response":"left","rt":602.59999990463,"correct":true,"confidence":1},{"trial_n":191,"n_dots":2.65,"target":"right","response":"right","rt":564.5,"correct":true,"confidence":4},{"trial_n":192,"n_dots":2.55,"target":"right","response":"right","rt":1312.7000000477,"correct":true,"confidence":2},{"trial_n":193,"n_dots":2.55,"target":"left","response":"left","rt":485.5,"correct":true,"confidence":2},{"trial_n":194,"n_dots":2.45,"target":"right","response":"right","rt":598.89999985695,"correct":true,"confidence":3}]