[{"trial_n":1,"n_dots":4.25,"target":"right","response":"right","rt":4968.1999999955,"correct":true,"confidence":-1},{"trial_n":2,"n_dots":4.25,"target":"right","response":"right","rt":973.20000000298,"correct":true,"confidence":-1},{"trial_n":3,"n_dots":3.85,"target":"left","response":"left","rt":1788.099999994,"correct":true,"confidence":-1},{"trial_n":4,"n_dots":3.85,"target":"left","response":"left","rt":917.20000000298,"correct":true,"confidence":-1},{"trial_n":5,"n_dots":3.45,"target":"right","response":"right","rt":1066.400000006,"correct":true,"confidence":-1},{"trial_n":6,"n_dots":3.45,"target":"right","response":"left","rt":771.79999999702,"correct":false,"confidence":-1},{"trial_n":7,"n_dots":3.85,"target":"left","response":"right","rt":835.89999999851,"correct":false,"confidence":-1},{"trial_n":8,"n_dots":4.05,"target":"right","response":"right","rt":706.70000000298,"correct":true,"confidence":-1},{"trial_n":9,"n_dots":4.05,"target":"right","response":"right","rt":624.89999999851,"correct":true,"confidence":-1},{"trial_n":10,"n_dots":3.85,"target":"left","response":"left","rt":885.10000000149,"correct":true,"confidence":-1},{"trial_n":11,"n_dots":3.85,"target":"right","response":"right","rt":677,"correct":true,"confidence":-1},{"trial_n":12,"n_dots":3.65,"target":"left","response":"left","rt":492.30000000447,"correct":true,"confidence":-1},{"trial_n":13,"n_dots":3.65,"target":"left","response":"left","rt":325.60000000149,"correct":true,"confidence":-1},{"trial_n":14,"n_dots":3.55,"target":"right","response":"left","rt":188.60000000149,"correct":false,"confidence":-1},{"trial_n":15,"n_dots":3.65,"target":"right","response":"right","rt":196.30000000447,"correct":true,"confidence":-1},{"trial_n":16,"n_dots":3.65,"target":"right","response":"left","rt":626,"correct":false,"confidence":-1},{"trial_n":17,"n_dots":3.75,"target":"right","response":"right","rt":248.70000000298,"correct":true,"confidence":-1},{"trial_n":18,"n_dots":3.75,"target":"left","response":"right","rt":619.39999999851,"correct":false,"confidence":-1},{"trial_n":19,"n_dots":3.85,"target":"right","response":"right","rt":472.29999999702,"correct":true,"confidence":-1},{"trial_n":20,"n_dots":3.85,"target":"left","response":"left","rt":816.5,"correct":true,"confidence":-1},{"trial_n":21,"n_dots":3.75,"target":"left","response":"left","rt":355.79999999702,"correct":true,"confidence":-1},{"trial_n":22,"n_dots":3.75,"target":"right","response":"right","rt":260.20000000298,"correct":true,"confidence":-1},{"trial_n":23,"n_dots":3.65,"target":"right","response":"right","rt":388.20000000298,"correct":true,"confidence":-1},{"trial_n":24,"n_dots":3.65,"target":"left","response":"left","rt":282.70000000298,"correct":true,"confidence":-1},{"trial_n":25,"n_dots":3.55,"target":"left","response":"left","rt":180.39999999851,"correct":true,"confidence":-1},{"trial_n":26,"n_dots":3.55,"target":"right","response":"right","rt":264.79999999702,"correct":true,"confidence":-1},{"trial_n":27,"n_dots":3.45,"target":"right","response":"right","rt":596.59999999404,"correct":true,"confidence":4},{"trial_n":28,"n_dots":3.45,"target":"left","response":"left","rt":199.40000000596,"correct":true,"confidence":5},{"trial_n":29,"n_dots":3.35,"target":"left","response":"left","rt":305.30000000447,"correct":true,"confidence":5},{"trial_n":30,"n_dots":3.35,"target":"right","response":"left","rt":456.70000000298,"correct":false,"confidence":3},{"trial_n":31,"n_dots":3.45,"target":"left","response":"left","rt":492.90000000596,"correct":true,"confidence":2},{"trial_n":32,"n_dots":3.45,"target":"left","response":"left","rt":497,"correct":true,"confidence":5},{"trial_n":33,"n_dots":3.35,"target":"left","response":"left","rt":194.39999999851,"correct":true,"confidence":5},{"trial_n":34,"n_dots":3.35,"target":"right","response":"left","rt":48.39999999851,"correct":false,"confidence":2},{"trial_n":35,"n_dots":3.45,"target":"right","response":"left","rt":245.19999999553,"correct":false,"confidence":2},{"trial_n":36,"n_dots":3.55,"target":"right","response":"right","rt":447.20000000298,"correct":true,"confidence":2},{"trial_n":37,"n_dots":3.55,"target":"right","response":"left","rt":432.69999999553,"correct":false,"confidence":1},{"trial_n":38,"n_dots":3.65,"target":"left","response":"left","rt":359.39999999851,"correct":true,"confidence":2},{"trial_n":39,"n_dots":3.65,"target":"right","response":"right","rt":750.30000000447,"correct":true,"confidence":2},{"trial_n":40,"n_dots":3.55,"target":"right","response":"left","rt":857,"correct":false,"confidence":2},{"trial_n":41,"n_dots":3.65,"target":"left","response":"left","rt":386,"correct":true,"confidence":2},{"trial_n":42,"n_dots":3.65,"target":"left","response":"left","rt":656.89999999851,"correct":true,"confidence":1},{"trial_n":43,"n_dots":3.55,"target":"left","response":"left","rt":176.39999999851,"correct":true,"confidence":3},{"trial_n":44,"n_dots":3.55,"target":"right","response":"left","rt":258.30000000447,"correct":false,"confidence":2},{"trial_n":45,"n_dots":3.65,"target":"right","response":"right","rt":510.30000000447,"correct":true,"confidence":2},{"trial_n":46,"n_dots":3.65,"target":"right","response":"left","rt":1493.6000000015,"correct":false,"confidence":1},{"trial_n":47,"n_dots":3.75,"target":"right","response":"left","rt":461.29999999702,"correct":false,"confidence":1},{"trial_n":48,"n_dots":3.85,"target":"left","response":"left","rt":162.60000000149,"correct":true,"confidence":4},{"trial_n":49,"n_dots":3.85,"target":"right","response":"right","rt":392.60000000149,"correct":true,"confidence":3},{"trial_n":50,"n_dots":3.75,"target":"left","response":"left","rt":354.79999999702,"correct":true,"confidence":3},{"trial_n":51,"n_dots":3.75,"target":"left","response":"left","rt":165.19999999553,"correct":true,"confidence":3},{"trial_n":52,"n_dots":3.65,"target":"left","response":"left","rt":150.10000000149,"correct":true,"confidence":3},{"trial_n":53,"n_dots":3.65,"target":"left","response":"left","rt":303.60000000149,"correct":true,"confidence":4},{"trial_n":54,"n_dots":3.55,"target":"right","response":"left","rt":94.40000000596,"correct":false,"confidence":4},{"trial_n":55,"n_dots":3.65,"target":"left","response":"left","rt":70.30000000447,"correct":true,"confidence":4},{"trial_n":56,"n_dots":3.65,"target":"right","response":"right","rt":419.89999999851,"correct":true,"confidence":4},{"trial_n":57,"n_dots":3.55,"target":"right","response":"right","rt":413.69999999553,"correct":true,"confidence":4},{"trial_n":58,"n_dots":3.55,"target":"right","response":"right","rt":123.70000000298,"correct":true,"confidence":4},{"trial_n":59,"n_dots":3.45,"target":"right","response":"right","rt":193.70000000298,"correct":true,"confidence":4},{"trial_n":60,"n_dots":3.45,"target":"right","response":"right","rt":154.79999999702,"correct":true,"confidence":5},{"trial_n":61,"n_dots":3.35,"target":"left","response":"left","rt":260.39999999851,"correct":true,"confidence":5},{"trial_n":62,"n_dots":3.35,"target":"right","response":"right","rt":97.60000000149,"correct":true,"confidence":4},{"trial_n":63,"n_dots":3.25,"target":"left","response":"left","rt":514.29999999702,"correct":true,"confidence":4},{"trial_n":64,"n_dots":3.25,"target":"right","response":"right","rt":284.5,"correct":true,"confidence":3},{"trial_n":65,"n_dots":3.15,"target":"right","response":"right","rt":634.40000000596,"correct":true,"confidence":2},{"trial_n":66,"n_dots":3.15,"target":"right","response":"right","rt":747.90000000596,"correct":true,"confidence":2},{"trial_n":67,"n_dots":3.05,"target":"left","response":"left","rt":227.5,"correct":true,"confidence":2},{"trial_n":68,"n_dots":3.05,"target":"left","response":"left","rt":101.70000000298,"correct":true,"confidence":4},{"trial_n":69,"n_dots":2.95,"target":"right","response":"right","rt":222.30000000447,"correct":true,"confidence":4},{"trial_n":70,"n_dots":2.95,"target":"left","response":"left","rt":159.39999999851,"correct":true,"confidence":3},{"trial_n":71,"n_dots":2.85,"target":"right","response":"right","rt":43.59999999404,"correct":true,"confidence":3},{"trial_n":72,"n_dots":2.85,"target":"right","response":"left","rt":136.19999999553,"correct":false,"confidence":3},{"trial_n":73,"n_dots":2.95,"target":"left","response":"right","rt":558.79999999702,"correct":false,"confidence":2},{"trial_n":74,"n_dots":3.05,"target":"right","response":"right","rt":333.70000000298,"correct":true,"confidence":3},{"trial_n":75,"n_dots":3.05,"target":"left","response":"left","rt":187.39999999851,"correct":true,"confidence":5},{"trial_n":76,"n_dots":2.95,"target":"right","response":"left","rt":2153.799999997,"correct":false,"confidence":2},{"trial_n":77,"n_dots":3.05,"target":"left","response":"left","rt":174.69999999553,"correct":true,"confidence":4},{"trial_n":78,"n_dots":3.05,"target":"right","response":"left","rt":1763.6000000015,"correct":false,"confidence":1},{"trial_n":79,"n_dots":3.15,"target":"left","response":"left","rt":363.20000000298,"correct":true,"confidence":2},{"trial_n":80,"n_dots":3.15,"target":"left","response":"right","rt":461.29999999702,"correct":false,"confidence":1},{"trial_n":81,"n_dots":3.25,"target":"left","response":"left","rt":228.90000000596,"correct":true,"confidence":4},{"trial_n":82,"n_dots":3.25,"target":"right","response":"left","rt":423.30000000447,"correct":false,"confidence":2},{"trial_n":83,"n_dots":3.35,"target":"left","response":"left","rt":430,"correct":true,"confidence":2},{"trial_n":84,"n_dots":3.35,"target":"right","response":"left","rt":141,"correct":false,"confidence":1},{"trial_n":85,"n_dots":3.45,"target":"left","response":"right","rt":181.20000000298,"correct":false,"confidence":1},{"trial_n":86,"n_dots":3.55,"target":"right","response":"left","rt":462.29999999702,"correct":false,"confidence":1},{"trial_n":87,"n_dots":3.65,"target":"right","response":"left","rt":635.29999999702,"correct":false,"confidence":2},{"trial_n":88,"n_dots":3.75,"target":"left","response":"left","rt":292,"correct":true,"confidence":2},{"trial_n":89,"n_dots":3.75,"target":"right","response":"left","rt":295.79999999702,"correct":false,"confidence":1},{"trial_n":90,"n_dots":3.85,"target":"right","response":"right","rt":263.79999999702,"correct":true,"confidence":2},{"trial_n":91,"n_dots":3.85,"target":"right","response":"right","rt":290.5,"correct":true,"confidence":1},{"trial_n":92,"n_dots":3.75,"target":"left","response":"left","rt":543.69999999553,"correct":true,"confidence":1},{"trial_n":93,"n_dots":3.75,"target":"right","response":"right","rt":263.89999999851,"correct":true,"confidence":3},{"trial_n":94,"n_dots":3.65,"target":"right","response":"right","rt":179.80000000447,"correct":true,"confidence":2},{"trial_n":95,"n_dots":3.65,"target":"right","response":"right","rt":21,"correct":true,"confidence":2},{"trial_n":96,"n_dots":3.55,"target":"left","response":"left","rt":239.60000000149,"correct":true,"confidence":2},{"trial_n":97,"n_dots":3.55,"target":"right","response":"right","rt":195.70000000298,"correct":true,"confidence":3},{"trial_n":98,"n_dots":3.45,"target":"left","response":"left","rt":361.5,"correct":true,"confidence":3},{"trial_n":99,"n_dots":3.45,"target":"right","response":"left","rt":135.89999999851,"correct":false,"confidence":1},{"trial_n":100,"n_dots":3.55,"target":"right","response":"right","rt":1113.5,"correct":true,"confidence":4},{"trial_n":101,"n_dots":3.55,"target":"left","response":"left","rt":654.29999999702,"correct":true,"confidence":4},{"trial_n":102,"n_dots":3.45,"target":"left","response":"left","rt":444.39999999851,"correct":true,"confidence":2},{"trial_n":103,"n_dots":3.45,"target":"left","response":"left","rt":75.60000000149,"correct":true,"confidence":4},{"trial_n":104,"n_dots":3.35,"target":"right","response":"right","rt":233.89999999851,"correct":true,"confidence":3},{"trial_n":105,"n_dots":3.35,"target":"left","response":"left","rt":147.89999999851,"correct":true,"confidence":3},{"trial_n":106,"n_dots":3.25,"target":"left","response":"left","rt":70,"correct":true,"confidence":3},{"trial_n":107,"n_dots":3.25,"target":"right","response":"right","rt":30.80000000447,"correct":true,"confidence":4},{"trial_n":108,"n_dots":3.15,"target":"right","response":"right","rt":58.60000000149,"correct":true,"confidence":3},{"trial_n":109,"n_dots":3.15,"target":"right","response":"right","rt":83.79999999702,"correct":true,"confidence":4},{"trial_n":110,"n_dots":3.05,"target":"left","response":"left","rt":248.10000000149,"correct":true,"confidence":3},{"trial_n":111,"n_dots":3.05,"target":"left","response":"left","rt":168,"correct":true,"confidence":2},{"trial_n":112,"n_dots":2.95,"target":"left","response":"left","rt":83.5,"correct":true,"confidence":2},{"trial_n":113,"n_dots":2.95,"target":"left","response":"left","rt":337.89999999851,"correct":true,"confidence":1},{"trial_n":114,"n_dots":2.85,"target":"left","response":"left","rt":317.30000000447,"correct":true,"confidence":1},{"trial_n":115,"n_dots":2.85,"target":"right","response":"right","rt":647.70000000298,"correct":true,"confidence":1},{"trial_n":116,"n_dots":2.75,"target":"left","response":"left","rt":361.89999999851,"correct":true,"confidence":1},{"trial_n":117,"n_dots":2.75,"target":"right","response":"left","rt":266.29999999702,"correct":false,"confidence":2},{"trial_n":118,"n_dots":2.85,"target":"right","response":"right","rt":16,"correct":true,"confidence":1},{"trial_n":119,"n_dots":2.85,"target":"left","response":"left","rt":143.80000000447,"correct":true,"confidence":3},{"trial_n":120,"n_dots":2.75,"target":"left","response":"left","rt":134.29999999702,"correct":true,"confidence":2},{"trial_n":121,"n_dots":2.75,"target":"left","response":"left","rt":167.60000000149,"correct":true,"confidence":1},{"trial_n":122,"n_dots":2.65,"target":"right","response":"right","rt":282.79999999702,"correct":true,"confidence":2},{"trial_n":123,"n_dots":2.65,"target":"right","response":"right","rt":414.5,"correct":true,"confidence":2},{"trial_n":124,"n_dots":2.55,"target":"left","response":"right","rt":84.89999999851,"correct":false,"confidence":2},{"trial_n":125,"n_dots":2.65,"target":"right","response":"right","rt":288.10000000149,"correct":true,"confidence":2},{"trial_n":126,"n_dots":2.65,"target":"left","response":"left","rt":244.20000000298,"correct":true,"confidence":3},{"trial_n":127,"n_dots":2.55,"target":"left","response":"left","rt":541.39999999851,"correct":true,"confidence":1},{"trial_n":128,"n_dots":2.55,"target":"left","response":"right","rt":56.79999999702,"correct":false,"confidence":1},{"trial_n":129,"n_dots":2.65,"target":"left","response":"right","rt":364.10000000149,"correct":false,"confidence":2},{"trial_n":130,"n_dots":2.75,"target":"left","response":"left","rt":252.60000000149,"correct":true,"confidence":3},{"trial_n":131,"n_dots":2.75,"target":"left","response":"left","rt":500.69999999553,"correct":true,"confidence":3},{"trial_n":132,"n_dots":2.65,"target":"left","response":"left","rt":564.5,"correct":true,"confidence":3},{"trial_n":133,"n_dots":2.65,"target":"left","response":"left","rt":72.70000000298,"correct":true,"confidence":2},{"trial_n":134,"n_dots":2.55,"target":"right","response":"right","rt":-0.69999999552965,"correct":true,"confidence":3},{"trial_n":135,"n_dots":2.55,"target":"right","response":"right","rt":54.89999999851,"correct":true,"confidence":2},{"trial_n":136,"n_dots":2.45,"target":"right","response":"right","rt":68.80000000447,"correct":true,"confidence":2},{"trial_n":137,"n_dots":2.45,"target":"left","response":"right","rt":718.80000000447,"correct":false,"confidence":2},{"trial_n":138,"n_dots":2.55,"target":"left","response":"left","rt":135.40000000596,"correct":true,"confidence":1},{"trial_n":139,"n_dots":2.55,"target":"left","response":"left","rt":276.19999999553,"correct":true,"confidence":1},{"trial_n":140,"n_dots":2.45,"target":"right","response":"left","rt":144.89999999851,"correct":false,"confidence":1},{"trial_n":141,"n_dots":2.55,"target":"right","response":"right","rt":583.59999999404,"correct":true,"confidence":3},{"trial_n":142,"n_dots":2.55,"target":"left","response":"right","rt":8364,"correct":false,"confidence":1},{"trial_n":143,"n_dots":2.65,"target":"right","response":"left","rt":81.89999999851,"correct":false,"confidence":1},{"trial_n":144,"n_dots":2.75,"target":"left","response":"left","rt":275,"correct":true,"confidence":3},{"trial_n":145,"n_dots":2.75,"target":"right","response":"right","rt":41.5,"correct":true,"confidence":2},{"trial_n":146,"n_dots":2.65,"target":"left","response":"left","rt":375.59999999404,"correct":true,"confidence":1},{"trial_n":147,"n_dots":2.65,"target":"left","response":"left","rt":46.70000000298,"correct":true,"confidence":3},{"trial_n":148,"n_dots":2.55,"target":"left","response":"left","rt":281.10000000149,"correct":true,"confidence":4},{"trial_n":149,"n_dots":2.55,"target":"left","response":"left","rt":112.69999999553,"correct":true,"confidence":4},{"trial_n":150,"n_dots":2.45,"target":"right","response":"left","rt":347.39999999851,"correct":false,"confidence":3},{"trial_n":151,"n_dots":2.55,"target":"right","response":"left","rt":281,"correct":false,"confidence":1},{"trial_n":152,"n_dots":2.65,"target":"left","response":"left","rt":134.70000000298,"correct":true,"confidence":4},{"trial_n":153,"n_dots":2.65,"target":"right","response":"left","rt":1128.599999994,"correct":false,"confidence":1},{"trial_n":154,"n_dots":2.75,"target":"right","response":"left","rt":672.19999999553,"correct":false,"confidence":3},{"trial_n":155,"n_dots":2.85,"target":"left","response":"left","rt":202.20000000298,"correct":true,"confidence":3},{"trial_n":156,"n_dots":2.85,"target":"left","response":"left","rt":259.79999999702,"correct":true,"confidence":4},{"trial_n":157,"n_dots":2.75,"target":"right","response":"right","rt":1057.700000003,"correct":true,"confidence":1},{"trial_n":158,"n_dots":2.75,"target":"left","response":"left","rt":307.89999999851,"correct":true,"confidence":3},{"trial_n":159,"n_dots":2.65,"target":"right","response":"left","rt":561.79999999702,"correct":false,"confidence":1},{"trial_n":160,"n_dots":2.75,"target":"right","response":"left","rt":168,"correct":false,"confidence":4},{"trial_n":161,"n_dots":2.85,"target":"right","response":"left","rt":381.30000000447,"correct":false,"confidence":3},{"trial_n":162,"n_dots":2.95,"target":"right","response":"left","rt":76.79999999702,"correct":false,"confidence":3},{"trial_n":163,"n_dots":3.05,"target":"right","response":"left","rt":107.5,"correct":false,"confidence":1},{"trial_n":164,"n_dots":3.15,"target":"left","response":"left","rt":56,"correct":true,"confidence":3},{"trial_n":165,"n_dots":3.15,"target":"right","response":"left","rt":416.39999999851,"correct":false,"confidence":1},{"trial_n":166,"n_dots":3.25,"target":"left","response":"left","rt":49.10000000149,"correct":true,"confidence":3},{"trial_n":167,"n_dots":3.25,"target":"right","response":"left","rt":63,"correct":false,"confidence":1},{"trial_n":168,"n_dots":3.35,"target":"right","response":"right","rt":200.60000000149,"correct":true,"confidence":1},{"trial_n":169,"n_dots":3.35,"target":"left","response":"left","rt":226.5,"correct":true,"confidence":3},{"trial_n":170,"n_dots":3.25,"target":"left","response":"left","rt":19.10000000149,"correct":true,"confidence":4},{"trial_n":171,"n_dots":3.25,"target":"right","response":"right","rt":215.69999999553,"correct":true,"confidence":3},{"trial_n":172,"n_dots":3.15,"target":"left","response":"left","rt":381.19999999553,"correct":true,"confidence":1},{"trial_n":173,"n_dots":3.15,"target":"left","response":"left","rt":11.60000000149,"correct":true,"confidence":3},{"trial_n":174,"n_dots":3.05,"target":"left","response":"left","rt":179.39999999851,"correct":true,"confidence":2},{"trial_n":175,"n_dots":3.05,"target":"left","response":"left","rt":258.29999999702,"correct":true,"confidence":2},{"trial_n":176,"n_dots":2.95,"target":"left","response":"left","rt":49.59999999404,"correct":true,"confidence":1},{"trial_n":177,"n_dots":2.95,"target":"right","response":"right","rt":651.5,"correct":true,"confidence":2},{"trial_n":178,"n_dots":2.85,"target":"left","response":"left","rt":56.30000000447,"correct":true,"confidence":3},{"trial_n":179,"n_dots":2.85,"target":"right","response":"right","rt":1284.3000000045,"correct":true,"confidence":1},{"trial_n":180,"n_dots":2.75,"target":"left","response":"left","rt":119.69999999553,"correct":true,"confidence":1},{"trial_n":181,"n_dots":2.75,"target":"left","response":"right","rt":293.69999999553,"correct":false,"confidence":1},{"trial_n":182,"n_dots":2.85,"target":"left","response":"left","rt":249.30000000447,"correct":true,"confidence":2},{"trial_n":183,"n_dots":2.85,"target":"right","response":"left","rt":512.39999999851,"correct":false,"confidence":2},{"trial_n":184,"n_dots":2.95,"target":"right","response":"left","rt":43,"correct":false,"confidence":1},{"trial_n":185,"n_dots":3.05,"target":"left","response":"left","rt":414.39999999851,"correct":true,"confidence":2},{"trial_n":186,"n_dots":3.05,"target":"left","response":"left","rt":144.30000000447,"correct":true,"confidence":1},{"trial_n":187,"n_dots":2.95,"target":"left","response":"left","rt":64,"correct":true,"confidence":1},{"trial_n":188,"n_dots":2.95,"target":"left","response":"left","rt":611.60000000149,"correct":true,"confidence":2},{"trial_n":189,"n_dots":2.85,"target":"right","response":"left","rt":573.79999999702,"correct":false,"confidence":1},{"trial_n":190,"n_dots":2.95,"target":"right","response":"right","rt":733.39999999851,"correct":true,"confidence":1},{"trial_n":191,"n_dots":2.95,"target":"right","response":"left","rt":603.5,"correct":false,"confidence":2},{"trial_n":192,"n_dots":3.05,"target":"right","response":"right","rt":248.5,"correct":true,"confidence":2},{"trial_n":193,"n_dots":3.05,"target":"left","response":"left","rt":603.69999999553,"correct":true,"confidence":2},{"trial_n":194,"n_dots":2.95,"target":"right","response":"right","rt":588.60000000149,"correct":true,"confidence":1}]