[{"trial_n":1,"n_dots":4.25,"target":"right","response":"left","rt":10231,"correct":false,"confidence":-1},{"trial_n":2,"n_dots":4.25,"target":"left","response":"right","rt":458,"correct":false,"confidence":-1},{"trial_n":3,"n_dots":4.65,"target":"left","response":"left","rt":258,"correct":true,"confidence":-1},{"trial_n":4,"n_dots":4.65,"target":"right","response":"right","rt":486,"correct":true,"confidence":-1},{"trial_n":5,"n_dots":4.25,"target":"right","response":"right","rt":370,"correct":true,"confidence":-1},{"trial_n":6,"n_dots":4.25,"target":"left","response":"right","rt":111,"correct":false,"confidence":-1},{"trial_n":7,"n_dots":4.65,"target":"left","response":"left","rt":566,"correct":true,"confidence":-1},{"trial_n":8,"n_dots":4.65,"target":"left","response":"left","rt":265,"correct":true,"confidence":-1},{"trial_n":9,"n_dots":4.45,"target":"left","response":"left","rt":127,"correct":true,"confidence":-1},{"trial_n":10,"n_dots":4.45,"target":"right","response":"right","rt":240,"correct":true,"confidence":-1},{"trial_n":11,"n_dots":4.25,"target":"left","response":"left","rt":286,"correct":true,"confidence":-1},{"trial_n":12,"n_dots":4.25,"target":"right","response":"right","rt":221,"correct":true,"confidence":-1},{"trial_n":13,"n_dots":4.15,"target":"right","response":"right","rt":370,"correct":true,"confidence":-1},{"trial_n":14,"n_dots":4.15,"target":"left","response":"left","rt":240,"correct":true,"confidence":-1},{"trial_n":15,"n_dots":4.05,"target":"left","response":"left","rt":360,"correct":true,"confidence":-1},{"trial_n":16,"n_dots":4.05,"target":"right","response":"right","rt":308,"correct":true,"confidence":-1},{"trial_n":17,"n_dots":3.95,"target":"left","response":"left","rt":279,"correct":true,"confidence":-1},{"trial_n":18,"n_dots":3.95,"target":"left","response":"left","rt":251,"correct":true,"confidence":-1},{"trial_n":19,"n_dots":3.85,"target":"right","response":"right","rt":259,"correct":true,"confidence":-1},{"trial_n":20,"n_dots":3.85,"target":"right","response":"right","rt":311,"correct":true,"confidence":-1},{"trial_n":21,"n_dots":3.75,"target":"right","response":"right","rt":328,"correct":true,"confidence":-1},{"trial_n":22,"n_dots":3.75,"target":"left","response":"left","rt":294,"correct":true,"confidence":-1},{"trial_n":23,"n_dots":3.65,"target":"right","response":"right","rt":288,"correct":true,"confidence":-1},{"trial_n":24,"n_dots":3.65,"target":"right","response":"right","rt":347,"correct":true,"confidence":-1},{"trial_n":25,"n_dots":3.55,"target":"right","response":"right","rt":293,"correct":true,"confidence":-1},{"trial_n":26,"n_dots":3.55,"target":"left","response":"left","rt":260,"correct":true,"confidence":-1},{"trial_n":27,"n_dots":3.45,"target":"right","response":"right","rt":259,"correct":true,"confidence":2},{"trial_n":28,"n_dots":3.45,"target":"right","response":"right","rt":394,"correct":true,"confidence":4},{"trial_n":29,"n_dots":3.35,"target":"right","response":"right","rt":317,"correct":true,"confidence":5},{"trial_n":30,"n_dots":3.35,"target":"left","response":"left","rt":278,"correct":true,"confidence":6},{"trial_n":31,"n_dots":3.25,"target":"left","response":"left","rt":405,"correct":true,"confidence":4},{"trial_n":32,"n_dots":3.25,"target":"left","response":"left","rt":286,"correct":true,"confidence":6},{"trial_n":33,"n_dots":3.15,"target":"right","response":"right","rt":396,"correct":true,"confidence":4},{"trial_n":34,"n_dots":3.15,"target":"left","response":"left","rt":680,"correct":true,"confidence":1},{"trial_n":35,"n_dots":3.05,"target":"left","response":"left","rt":322,"correct":true,"confidence":6},{"trial_n":36,"n_dots":3.05,"target":"left","response":"left","rt":319,"correct":true,"confidence":6},{"trial_n":37,"n_dots":2.95,"target":"left","response":"left","rt":1351,"correct":true,"confidence":3},{"trial_n":38,"n_dots":2.95,"target":"left","response":"left","rt":377,"correct":true,"confidence":3},{"trial_n":39,"n_dots":2.85,"target":"right","response":"left","rt":397,"correct":false,"confidence":4},{"trial_n":40,"n_dots":2.95,"target":"right","response":"left","rt":952,"correct":false,"confidence":3},{"trial_n":41,"n_dots":3.05,"target":"left","response":"left","rt":452,"correct":true,"confidence":5},{"trial_n":42,"n_dots":3.05,"target":"left","response":"left","rt":256,"correct":true,"confidence":6},{"trial_n":43,"n_dots":2.95,"target":"left","response":"left","rt":637,"correct":true,"confidence":6},{"trial_n":44,"n_dots":2.95,"target":"right","response":"left","rt":415,"correct":false,"confidence":6},{"trial_n":45,"n_dots":3.05,"target":"right","response":"left","rt":456,"correct":false,"confidence":3},{"trial_n":46,"n_dots":3.15,"target":"left","response":"left","rt":354,"correct":true,"confidence":6},{"trial_n":47,"n_dots":3.15,"target":"left","response":"left","rt":435,"correct":true,"confidence":6},{"trial_n":48,"n_dots":3.05,"target":"right","response":"left","rt":621,"correct":false,"confidence":6},{"trial_n":49,"n_dots":3.15,"target":"right","response":"left","rt":943,"correct":false,"confidence":3},{"trial_n":50,"n_dots":3.25,"target":"left","response":"left","rt":538,"correct":true,"confidence":4},{"trial_n":51,"n_dots":3.25,"target":"left","response":"left","rt":462,"correct":true,"confidence":5},{"trial_n":52,"n_dots":3.15,"target":"left","response":"left","rt":323,"correct":true,"confidence":6},{"trial_n":53,"n_dots":3.15,"target":"right","response":"left","rt":451,"correct":false,"confidence":4},{"trial_n":54,"n_dots":3.25,"target":"right","response":"left","rt":1066,"correct":false,"confidence":2},{"trial_n":55,"n_dots":3.35,"target":"left","response":"left","rt":623,"correct":true,"confidence":6},{"trial_n":56,"n_dots":3.35,"target":"left","response":"left","rt":305,"correct":true,"confidence":6},{"trial_n":57,"n_dots":3.25,"target":"right","response":"left","rt":2338,"correct":false,"confidence":1},{"trial_n":58,"n_dots":3.35,"target":"right","response":"left","rt":1130,"correct":false,"confidence":1},{"trial_n":59,"n_dots":3.45,"target":"left","response":"left","rt":746,"correct":true,"confidence":6},{"trial_n":60,"n_dots":3.45,"target":"right","response":"left","rt":398,"correct":false,"confidence":5},{"trial_n":61,"n_dots":3.55,"target":"right","response":"left","rt":1594,"correct":false,"confidence":2},{"trial_n":62,"n_dots":3.65,"target":"right","response":"left","rt":949,"correct":false,"confidence":5},{"trial_n":63,"n_dots":3.75,"target":"left","response":"left","rt":319,"correct":true,"confidence":6},{"trial_n":64,"n_dots":3.75,"target":"right","response":"right","rt":344,"correct":true,"confidence":4},{"trial_n":65,"n_dots":3.65,"target":"right","response":"left","rt":958,"correct":false,"confidence":2},{"trial_n":66,"n_dots":3.75,"target":"left","response":"right","rt":365,"correct":false,"confidence":1},{"trial_n":67,"n_dots":3.85,"target":"right","response":"left","rt":1740,"correct":false,"confidence":1},{"trial_n":68,"n_dots":3.95,"target":"left","response":"left","rt":550,"correct":true,"confidence":6},{"trial_n":69,"n_dots":3.95,"target":"left","response":"left","rt":555,"correct":true,"confidence":6},{"trial_n":70,"n_dots":3.85,"target":"left","response":"left","rt":451,"correct":true,"confidence":6},{"trial_n":71,"n_dots":3.85,"target":"left","response":"left","rt":437,"correct":true,"confidence":6},{"trial_n":72,"n_dots":3.75,"target":"left","response":"left","rt":579,"correct":true,"confidence":6},{"trial_n":73,"n_dots":3.75,"target":"left","response":"left","rt":521,"correct":true,"confidence":6},{"trial_n":74,"n_dots":3.65,"target":"left","response":"left","rt":930,"correct":true,"confidence":5},{"trial_n":75,"n_dots":3.65,"target":"left","response":"left","rt":506,"correct":true,"confidence":5},{"trial_n":76,"n_dots":3.55,"target":"right","response":"right","rt":363,"correct":true,"confidence":5},{"trial_n":77,"n_dots":3.55,"target":"right","response":"right","rt":367,"correct":true,"confidence":4},{"trial_n":78,"n_dots":3.45,"target":"right","response":"right","rt":420,"correct":true,"confidence":4},{"trial_n":79,"n_dots":3.45,"target":"left","response":"left","rt":340,"correct":true,"confidence":4},{"trial_n":80,"n_dots":3.35,"target":"left","response":"left","rt":1842,"correct":true,"confidence":1},{"trial_n":81,"n_dots":3.35,"target":"left","response":"left","rt":461,"correct":true,"confidence":1},{"trial_n":82,"n_dots":3.25,"target":"left","response":"left","rt":1036,"correct":true,"confidence":2},{"trial_n":83,"n_dots":3.25,"target":"right","response":"left","rt":1404,"correct":false,"confidence":1},{"trial_n":84,"n_dots":3.35,"target":"right","response":"right","rt":860,"correct":true,"confidence":1},{"trial_n":85,"n_dots":3.35,"target":"right","response":"right","rt":740,"correct":true,"confidence":1},{"trial_n":86,"n_dots":3.25,"target":"right","response":"left","rt":1767,"correct":false,"confidence":1},{"trial_n":87,"n_dots":3.35,"target":"right","response":"left","rt":1056,"correct":false,"confidence":1},{"trial_n":88,"n_dots":3.45,"target":"left","response":"left","rt":1092,"correct":true,"confidence":1},{"trial_n":89,"n_dots":3.45,"target":"left","response":"left","rt":526,"correct":true,"confidence":1},{"trial_n":90,"n_dots":3.35,"target":"right","response":"right","rt":410,"correct":true,"confidence":2},{"trial_n":91,"n_dots":3.35,"target":"right","response":"right","rt":531,"correct":true,"confidence":3},{"trial_n":92,"n_dots":3.25,"target":"right","response":"right","rt":451,"correct":true,"confidence":4},{"trial_n":93,"n_dots":3.25,"target":"right","response":"left","rt":469,"correct":false,"confidence":1},{"trial_n":94,"n_dots":3.35,"target":"left","response":"left","rt":1723,"correct":true,"confidence":1},{"trial_n":95,"n_dots":3.35,"target":"right","response":"left","rt":1639,"correct":false,"confidence":1},{"trial_n":96,"n_dots":3.45,"target":"right","response":"left","rt":625,"correct":false,"confidence":1},{"trial_n":97,"n_dots":3.55,"target":"left","response":"left","rt":2560,"correct":true,"confidence":4},{"trial_n":98,"n_dots":3.55,"target":"right","response":"right","rt":1039,"correct":true,"confidence":4},{"trial_n":99,"n_dots":3.45,"target":"right","response":"right","rt":2187,"correct":true,"confidence":1},{"trial_n":100,"n_dots":3.45,"target":"right","response":"right","rt":598,"correct":true,"confidence":1},{"trial_n":101,"n_dots":3.35,"target":"right","response":"right","rt":578,"correct":true,"confidence":1},{"trial_n":102,"n_dots":3.35,"target":"left","response":"left","rt":336,"correct":true,"confidence":6},{"trial_n":103,"n_dots":3.25,"target":"right","response":"left","rt":362,"correct":false,"confidence":6},{"trial_n":104,"n_dots":3.35,"target":"left","response":"left","rt":349,"correct":true,"confidence":6},{"trial_n":105,"n_dots":3.35,"target":"left","response":"left","rt":544,"correct":true,"confidence":2},{"trial_n":106,"n_dots":3.25,"target":"left","response":"left","rt":403,"correct":true,"confidence":5},{"trial_n":107,"n_dots":3.25,"target":"right","response":"left","rt":545,"correct":false,"confidence":1},{"trial_n":108,"n_dots":3.35,"target":"left","response":"right","rt":721,"correct":false,"confidence":1},{"trial_n":109,"n_dots":3.45,"target":"right","response":"right","rt":218,"correct":true,"confidence":4},{"trial_n":110,"n_dots":3.45,"target":"left","response":"left","rt":36,"correct":true,"confidence":6},{"trial_n":111,"n_dots":3.35,"target":"right","response":"left","rt":2515,"correct":false,"confidence":1},{"trial_n":112,"n_dots":3.45,"target":"right","response":"right","rt":329,"correct":true,"confidence":6},{"trial_n":113,"n_dots":3.45,"target":"left","response":"left","rt":328,"correct":true,"confidence":6},{"trial_n":114,"n_dots":3.35,"target":"left","response":"left","rt":446,"correct":true,"confidence":6},{"trial_n":115,"n_dots":3.35,"target":"right","response":"left","rt":1020,"correct":false,"confidence":1},{"trial_n":116,"n_dots":3.45,"target":"left","response":"left","rt":316,"correct":true,"confidence":5},{"trial_n":117,"n_dots":3.45,"target":"right","response":"left","rt":763,"correct":false,"confidence":6},{"trial_n":118,"n_dots":3.55,"target":"left","response":"left","rt":702,"correct":true,"confidence":6},{"trial_n":119,"n_dots":3.55,"target":"right","response":"left","rt":1512,"correct":false,"confidence":4},{"trial_n":120,"n_dots":3.65,"target":"left","response":"right","rt":330,"correct":false,"confidence":1},{"trial_n":121,"n_dots":3.75,"target":"right","response":"left","rt":763,"correct":false,"confidence":4},{"trial_n":122,"n_dots":3.85,"target":"right","response":"left","rt":946,"correct":false,"confidence":1},{"trial_n":123,"n_dots":3.95,"target":"right","response":"right","rt":629,"correct":true,"confidence":4},{"trial_n":124,"n_dots":3.95,"target":"right","response":"left","rt":719,"correct":false,"confidence":4},{"trial_n":125,"n_dots":4.05,"target":"right","response":"right","rt":445,"correct":true,"confidence":4},{"trial_n":126,"n_dots":4.05,"target":"left","response":"left","rt":311,"correct":true,"confidence":5},{"trial_n":127,"n_dots":3.95,"target":"right","response":"right","rt":545,"correct":true,"confidence":2},{"trial_n":128,"n_dots":3.95,"target":"left","response":"left","rt":288,"correct":true,"confidence":6},{"trial_n":129,"n_dots":3.85,"target":"left","response":"left","rt":2071,"correct":true,"confidence":2},{"trial_n":130,"n_dots":3.85,"target":"right","response":"right","rt":311,"correct":true,"confidence":4},{"trial_n":131,"n_dots":3.75,"target":"right","response":"right","rt":665,"correct":true,"confidence":2},{"trial_n":132,"n_dots":3.75,"target":"left","response":"left","rt":266,"correct":true,"confidence":6},{"trial_n":133,"n_dots":3.65,"target":"left","response":"left","rt":1873,"correct":true,"confidence":2},{"trial_n":134,"n_dots":3.65,"target":"left","response":"left","rt":962,"correct":true,"confidence":2},{"trial_n":135,"n_dots":3.55,"target":"right","response":"left","rt":3274,"correct":false,"confidence":4},{"trial_n":136,"n_dots":3.65,"target":"right","response":"left","rt":934,"correct":false,"confidence":4},{"trial_n":137,"n_dots":3.75,"target":"right","response":"left","rt":2639,"correct":false,"confidence":1},{"trial_n":138,"n_dots":3.85,"target":"right","response":"right","rt":1587,"correct":true,"confidence":1},{"trial_n":139,"n_dots":3.85,"target":"left","response":"left","rt":1325,"correct":true,"confidence":5},{"trial_n":140,"n_dots":3.75,"target":"left","response":"left","rt":1373,"correct":true,"confidence":6},{"trial_n":141,"n_dots":3.75,"target":"right","response":"right","rt":1722,"correct":true,"confidence":2},{"trial_n":142,"n_dots":3.65,"target":"left","response":"left","rt":1260,"correct":true,"confidence":6},{"trial_n":143,"n_dots":3.65,"target":"left","response":"left","rt":1674,"correct":true,"confidence":2},{"trial_n":144,"n_dots":3.55,"target":"right","response":"right","rt":1511,"correct":true,"confidence":3},{"trial_n":145,"n_dots":3.55,"target":"left","response":"left","rt":779,"correct":true,"confidence":3},{"trial_n":146,"n_dots":3.45,"target":"left","response":"left","rt":801,"correct":true,"confidence":4},{"trial_n":147,"n_dots":3.45,"target":"left","response":"left","rt":1024,"correct":true,"confidence":5},{"trial_n":148,"n_dots":3.35,"target":"left","response":"left","rt":1235,"correct":true,"confidence":5},{"trial_n":149,"n_dots":3.35,"target":"left","response":"left","rt":1659,"correct":true,"confidence":5},{"trial_n":150,"n_dots":3.25,"target":"right","response":"right","rt":1476,"correct":true,"confidence":4},{"trial_n":151,"n_dots":3.25,"target":"right","response":"left","rt":963,"correct":false,"confidence":4},{"trial_n":152,"n_dots":3.35,"target":"left","response":"left","rt":615,"correct":true,"confidence":4},{"trial_n":153,"n_dots":3.35,"target":"right","response":"right","rt":877,"correct":true,"confidence":3},{"trial_n":154,"n_dots":3.25,"target":"right","response":"left","rt":1025,"correct":false,"confidence":2},{"trial_n":155,"n_dots":3.35,"target":"right","response":"right","rt":2547,"correct":true,"confidence":2},{"trial_n":156,"n_dots":3.35,"target":"left","response":"left","rt":966,"correct":true,"confidence":4},{"trial_n":157,"n_dots":3.25,"target":"right","response":"left","rt":1112,"correct":false,"confidence":4},{"trial_n":158,"n_dots":3.35,"target":"right","response":"right","rt":1075,"correct":true,"confidence":2},{"trial_n":159,"n_dots":3.35,"target":"right","response":"right","rt":972,"correct":true,"confidence":1},{"trial_n":160,"n_dots":3.25,"target":"right","response":"right","rt":2338,"correct":true,"confidence":1},{"trial_n":161,"n_dots":3.25,"target":"right","response":"right","rt":1582,"correct":true,"confidence":1},{"trial_n":162,"n_dots":3.15,"target":"left","response":"left","rt":1275,"correct":true,"confidence":1},{"trial_n":163,"n_dots":3.15,"target":"right","response":"right","rt":1659,"correct":true,"confidence":1},{"trial_n":164,"n_dots":3.05,"target":"left","response":"left","rt":2676,"correct":true,"confidence":1},{"trial_n":165,"n_dots":3.05,"target":"left","response":"left","rt":1097,"correct":true,"confidence":1},{"trial_n":166,"n_dots":2.95,"target":"left","response":"left","rt":982,"correct":true,"confidence":1},{"trial_n":167,"n_dots":2.95,"target":"right","response":"right","rt":1143,"correct":true,"confidence":2},{"trial_n":168,"n_dots":2.85,"target":"left","response":"left","rt":1473,"correct":true,"confidence":1},{"trial_n":169,"n_dots":2.85,"target":"left","response":"left","rt":630,"correct":true,"confidence":4},{"trial_n":170,"n_dots":2.75,"target":"right","response":"left","rt":1526,"correct":false,"confidence":1},{"trial_n":171,"n_dots":2.85,"target":"left","response":"left","rt":1356,"correct":true,"confidence":4},{"trial_n":172,"n_dots":2.85,"target":"right","response":"left","rt":717,"correct":false,"confidence":4},{"trial_n":173,"n_dots":2.95,"target":"right","response":"left","rt":1273,"correct":false,"confidence":5},{"trial_n":174,"n_dots":3.05,"target":"left","response":"left","rt":1109,"correct":true,"confidence":2},{"trial_n":175,"n_dots":3.05,"target":"left","response":"left","rt":1578,"correct":true,"confidence":1},{"trial_n":176,"n_dots":2.95,"target":"right","response":"right","rt":1239,"correct":true,"confidence":3},{"trial_n":177,"n_dots":2.95,"target":"left","response":"right","rt":2161,"correct":false,"confidence":2},{"trial_n":178,"n_dots":3.05,"target":"left","response":"left","rt":993,"correct":true,"confidence":2},{"trial_n":179,"n_dots":3.05,"target":"right","response":"left","rt":2759,"correct":false,"confidence":2},{"trial_n":180,"n_dots":3.15,"target":"right","response":"right","rt":1127,"correct":true,"confidence":1},{"trial_n":181,"n_dots":3.15,"target":"left","response":"left","rt":2269,"correct":true,"confidence":1},{"trial_n":182,"n_dots":3.05,"target":"left","response":"left","rt":917,"correct":true,"confidence":1},{"trial_n":183,"n_dots":3.05,"target":"right","response":"left","rt":4262,"correct":false,"confidence":1},{"trial_n":184,"n_dots":3.15,"target":"right","response":"left","rt":2224,"correct":false,"confidence":1},{"trial_n":185,"n_dots":3.25,"target":"left","response":"left","rt":748,"correct":true,"confidence":4},{"trial_n":186,"n_dots":3.25,"target":"left","response":"left","rt":899,"correct":true,"confidence":4},{"trial_n":187,"n_dots":3.15,"target":"right","response":"left","rt":920,"correct":false,"confidence":5},{"trial_n":188,"n_dots":3.25,"target":"left","response":"left","rt":866,"correct":true,"confidence":5},{"trial_n":189,"n_dots":3.25,"target":"left","response":"left","rt":1734,"correct":true,"confidence":4},{"trial_n":190,"n_dots":3.15,"target":"left","response":"left","rt":920,"correct":true,"confidence":6},{"trial_n":191,"n_dots":3.15,"target":"right","response":"right","rt":1379,"correct":true,"confidence":2},{"trial_n":192,"n_dots":3.05,"target":"right","response":"left","rt":1237,"correct":false,"confidence":1},{"trial_n":193,"n_dots":3.15,"target":"right","response":"left","rt":896,"correct":false,"confidence":4},{"trial_n":194,"n_dots":3.25,"target":"left","response":"left","rt":929,"correct":true,"confidence":1}]