[{"trial_n":1,"n_dots":4.25,"target":"right","response":"left","rt":2101.599999994,"correct":false,"confidence":-1},{"trial_n":2,"n_dots":4.25,"target":"left","response":"right","rt":1045.1999999881,"correct":false,"confidence":-1},{"trial_n":3,"n_dots":4.65,"target":"left","response":"right","rt":367,"correct":false,"confidence":-1},{"trial_n":4,"n_dots":5.05,"target":"left","response":"right","rt":1360.5,"correct":false,"confidence":-1},{"trial_n":5,"n_dots":5.45,"target":"left","response":"left","rt":1059.6999999881,"correct":true,"confidence":-1},{"trial_n":6,"n_dots":5.45,"target":"left","response":"left","rt":4784.7000000179,"correct":true,"confidence":-1},{"trial_n":7,"n_dots":5.05,"target":"left","response":"right","rt":215.5,"correct":false,"confidence":-1},{"trial_n":8,"n_dots":5.25,"target":"right","response":"right","rt":1204.099999994,"correct":true,"confidence":-1},{"trial_n":9,"n_dots":5.25,"target":"left","response":"right","rt":774.69999998808,"correct":false,"confidence":-1},{"trial_n":10,"n_dots":5.45,"target":"left","response":"right","rt":149.40000000596,"correct":false,"confidence":-1},{"trial_n":11,"n_dots":5.65,"target":"left","response":"right","rt":810,"correct":false,"confidence":-1},{"trial_n":12,"n_dots":5.743,"target":"left","response":"right","rt":788.09999999404,"correct":false,"confidence":-1},{"trial_n":13,"n_dots":5.743,"target":"right","response":"left","rt":73.299999982119,"correct":false,"confidence":-1},{"trial_n":14,"n_dots":5.743,"target":"left","response":"right","rt":2093.099999994,"correct":false,"confidence":-1},{"trial_n":15,"n_dots":5.743,"target":"right","response":"left","rt":29.59999999404,"correct":false,"confidence":-1},{"trial_n":16,"n_dots":5.743,"target":"left","response":"left","rt":5595.400000006,"correct":true,"confidence":-1},{"trial_n":17,"n_dots":5.743,"target":"right","response":"right","rt":100.69999998808,"correct":true,"confidence":-1},{"trial_n":18,"n_dots":5.643,"target":"right","response":"right","rt":572,"correct":true,"confidence":-1},{"trial_n":19,"n_dots":5.643,"target":"left","response":"left","rt":546.40000000596,"correct":true,"confidence":-1},{"trial_n":20,"n_dots":5.543,"target":"left","response":"left","rt":462.09999999404,"correct":true,"confidence":-1},{"trial_n":21,"n_dots":5.543,"target":"right","response":"right","rt":64.40000000596,"correct":true,"confidence":-1},{"trial_n":22,"n_dots":5.443,"target":"right","response":"right","rt":89.09999999404,"correct":true,"confidence":-1},{"trial_n":23,"n_dots":5.443,"target":"left","response":"left","rt":12.700000017881,"correct":true,"confidence":-1},{"trial_n":24,"n_dots":5.343,"target":"right","response":"right","rt":36.199999988079,"correct":true,"confidence":-1},{"trial_n":25,"n_dots":5.343,"target":"right","response":"right","rt":47.199999988079,"correct":true,"confidence":-1},{"trial_n":26,"n_dots":5.243,"target":"left","response":"left","rt":321.80000001192,"correct":true,"confidence":-1},{"trial_n":27,"n_dots":5.243,"target":"left","response":"left","rt":845.09999999404,"correct":true,"confidence":4},{"trial_n":28,"n_dots":5.143,"target":"right","response":"right","rt":336.10000002384,"correct":true,"confidence":4},{"trial_n":29,"n_dots":5.143,"target":"right","response":"right","rt":612.09999999404,"correct":true,"confidence":4},{"trial_n":30,"n_dots":5.043,"target":"right","response":"left","rt":410.79999998212,"correct":false,"confidence":3},{"trial_n":31,"n_dots":5.143,"target":"right","response":"left","rt":550.90000000596,"correct":false,"confidence":5},{"trial_n":32,"n_dots":5.243,"target":"left","response":"right","rt":109.5,"correct":false,"confidence":2},{"trial_n":33,"n_dots":5.343,"target":"right","response":"right","rt":108.5,"correct":true,"confidence":2},{"trial_n":34,"n_dots":5.343,"target":"right","response":"left","rt":3965.7999999821,"correct":false,"confidence":4},{"trial_n":35,"n_dots":5.443,"target":"left","response":"right","rt":159.70000001788,"correct":false,"confidence":2},{"trial_n":36,"n_dots":5.543,"target":"right","response":"right","rt":5866.3000000119,"correct":true,"confidence":2},{"trial_n":37,"n_dots":5.543,"target":"right","response":"left","rt":1277.8000000119,"correct":false,"confidence":5},{"trial_n":38,"n_dots":5.643,"target":"right","response":"right","rt":269.89999997616,"correct":true,"confidence":2},{"trial_n":39,"n_dots":5.643,"target":"right","response":"left","rt":1777.099999994,"correct":false,"confidence":6},{"trial_n":40,"n_dots":5.743,"target":"left","response":"left","rt":1888.2000000179,"correct":true,"confidence":3},{"trial_n":41,"n_dots":5.743,"target":"right","response":"right","rt":1216.6999999881,"correct":true,"confidence":5},{"trial_n":42,"n_dots":5.643,"target":"left","response":"right","rt":357.5,"correct":false,"confidence":4},{"trial_n":43,"n_dots":5.743,"target":"left","response":"right","rt":599.70000001788,"correct":false,"confidence":5},{"trial_n":44,"n_dots":5.743,"target":"left","response":"left","rt":440,"correct":true,"confidence":5},{"trial_n":45,"n_dots":5.743,"target":"left","response":"left","rt":1673.1999999881,"correct":true,"confidence":4},{"trial_n":46,"n_dots":5.643,"target":"right","response":"left","rt":1110.2000000179,"correct":false,"confidence":4},{"trial_n":47,"n_dots":5.743,"target":"left","response":"right","rt":328.20000001788,"correct":false,"confidence":5},{"trial_n":48,"n_dots":5.743,"target":"right","response":"left","rt":885.79999998212,"correct":false,"confidence":4},{"trial_n":49,"n_dots":5.743,"target":"left","response":"left","rt":1266.3000000119,"correct":true,"confidence":4},{"trial_n":50,"n_dots":5.743,"target":"left","response":"right","rt":1263.099999994,"correct":false,"confidence":3},{"trial_n":51,"n_dots":5.743,"target":"left","response":"right","rt":346.80000001192,"correct":false,"confidence":4},{"trial_n":52,"n_dots":5.743,"target":"right","response":"left","rt":284.5,"correct":false,"confidence":5},{"trial_n":53,"n_dots":5.743,"target":"left","response":"right","rt":241.20000001788,"correct":false,"confidence":4},{"trial_n":54,"n_dots":5.743,"target":"left","response":"right","rt":95.40000000596,"correct":false,"confidence":3},{"trial_n":55,"n_dots":5.743,"target":"right","response":"left","rt":970,"correct":false,"confidence":3},{"trial_n":56,"n_dots":5.743,"target":"left","response":"right","rt":57.399999976158,"correct":false,"confidence":5},{"trial_n":57,"n_dots":5.743,"target":"left","response":"right","rt":165,"correct":false,"confidence":4},{"trial_n":58,"n_dots":5.743,"target":"right","response":"left","rt":285.09999999404,"correct":false,"confidence":4},{"trial_n":59,"n_dots":5.743,"target":"left","response":"right","rt":224.20000001788,"correct":false,"confidence":3},{"trial_n":60,"n_dots":5.743,"target":"right","response":"left","rt":316.19999998808,"correct":false,"confidence":5},{"trial_n":61,"n_dots":5.743,"target":"right","response":"right","rt":5073.6000000238,"correct":true,"confidence":4},{"trial_n":62,"n_dots":5.743,"target":"left","response":"right","rt":1297,"correct":false,"confidence":3},{"trial_n":63,"n_dots":5.743,"target":"left","response":"right","rt":144.20000001788,"correct":false,"confidence":3},{"trial_n":64,"n_dots":5.743,"target":"right","response":"left","rt":93.09999999404,"correct":false,"confidence":5},{"trial_n":65,"n_dots":5.743,"target":"left","response":"right","rt":188,"correct":false,"confidence":4},{"trial_n":66,"n_dots":5.743,"target":"right","response":"left","rt":121,"correct":false,"confidence":4},{"trial_n":67,"n_dots":5.743,"target":"left","response":"right","rt":811.79999998212,"correct":false,"confidence":3},{"trial_n":68,"n_dots":5.743,"target":"left","response":"right","rt":818.59999999404,"correct":false,"confidence":6},{"trial_n":69,"n_dots":5.743,"target":"left","response":"right","rt":122,"correct":false,"confidence":6},{"trial_n":70,"n_dots":5.743,"target":"left","response":"right","rt":29.5,"correct":false,"confidence":6},{"trial_n":71,"n_dots":5.743,"target":"left","response":"right","rt":5754.400000006,"correct":false,"confidence":4},{"trial_n":72,"n_dots":5.743,"target":"right","response":"left","rt":137.5,"correct":false,"confidence":4},{"trial_n":73,"n_dots":5.743,"target":"right","response":"left","rt":54.600000023842,"correct":false,"confidence":4},{"trial_n":74,"n_dots":5.743,"target":"right","response":"left","rt":715.09999999404,"correct":false,"confidence":4},{"trial_n":75,"n_dots":5.743,"target":"right","response":"left","rt":681.40000000596,"correct":false,"confidence":4},{"trial_n":76,"n_dots":5.743,"target":"left","response":"right","rt":229.60000002384,"correct":false,"confidence":6},{"trial_n":77,"n_dots":5.743,"target":"left","response":"right","rt":249.79999998212,"correct":false,"confidence":6},{"trial_n":78,"n_dots":5.743,"target":"left","response":"right","rt":204.40000000596,"correct":false,"confidence":1},{"trial_n":79,"n_dots":5.743,"target":"right","response":"left","rt":502.29999998212,"correct":false,"confidence":6},{"trial_n":80,"n_dots":5.743,"target":"right","response":"left","rt":7408.599999994,"correct":false,"confidence":4},{"trial_n":81,"n_dots":5.743,"target":"right","response":"left","rt":148.90000000596,"correct":false,"confidence":4},{"trial_n":82,"n_dots":5.743,"target":"right","response":"left","rt":242.09999999404,"correct":false,"confidence":5},{"trial_n":83,"n_dots":5.743,"target":"right","response":"left","rt":4317.2999999821,"correct":false,"confidence":4},{"trial_n":84,"n_dots":5.743,"target":"left","response":"right","rt":265.90000000596,"correct":false,"confidence":5},{"trial_n":85,"n_dots":5.743,"target":"right","response":"left","rt":237.89999997616,"correct":false,"confidence":1},{"trial_n":86,"n_dots":5.743,"target":"left","response":"left","rt":170.39999997616,"correct":true,"confidence":1},{"trial_n":87,"n_dots":5.743,"target":"left","response":"right","rt":526.30000001192,"correct":false,"confidence":1},{"trial_n":88,"n_dots":5.743,"target":"right","response":"left","rt":489.09999999404,"correct":false,"confidence":1},{"trial_n":89,"n_dots":5.743,"target":"right","response":"left","rt":41.200000017881,"correct":false,"confidence":1},{"trial_n":90,"n_dots":5.743,"target":"left","response":"right","rt":299.09999999404,"correct":false,"confidence":1},{"trial_n":91,"n_dots":5.743,"target":"right","response":"right","rt":593.5,"correct":true,"confidence":1},{"trial_n":92,"n_dots":5.743,"target":"right","response":"left","rt":2405.7999999821,"correct":false,"confidence":4},{"trial_n":93,"n_dots":5.743,"target":"left","response":"left","rt":533.20000001788,"correct":true,"confidence":1},{"trial_n":94,"n_dots":5.743,"target":"left","response":"right","rt":190,"correct":false,"confidence":1},{"trial_n":95,"n_dots":5.743,"target":"left","response":"right","rt":246.90000000596,"correct":false,"confidence":1},{"trial_n":96,"n_dots":5.743,"target":"right","response":"right","rt":795.90000000596,"correct":true,"confidence":1},{"trial_n":97,"n_dots":5.743,"target":"right","response":"right","rt":686.59999999404,"correct":true,"confidence":1},{"trial_n":98,"n_dots":5.643,"target":"right","response":"left","rt":3650.3000000119,"correct":false,"confidence":3},{"trial_n":99,"n_dots":5.743,"target":"right","response":"left","rt":75.800000011921,"correct":false,"confidence":5},{"trial_n":100,"n_dots":5.743,"target":"left","response":"left","rt":49.5,"correct":true,"confidence":1},{"trial_n":101,"n_dots":5.743,"target":"left","response":"left","rt":43,"correct":true,"confidence":1},{"trial_n":102,"n_dots":5.643,"target":"right","response":"left","rt":148.90000000596,"correct":false,"confidence":1},{"trial_n":103,"n_dots":5.743,"target":"left","response":"right","rt":322.79999998212,"correct":false,"confidence":1},{"trial_n":104,"n_dots":5.743,"target":"right","response":"left","rt":28.699999988079,"correct":false,"confidence":1},{"trial_n":105,"n_dots":5.743,"target":"right","response":"left","rt":322.39999997616,"correct":false,"confidence":1},{"trial_n":106,"n_dots":5.743,"target":"right","response":"left","rt":138.09999999404,"correct":false,"confidence":1},{"trial_n":107,"n_dots":5.743,"target":"left","response":"right","rt":256,"correct":false,"confidence":1},{"trial_n":108,"n_dots":5.743,"target":"right","response":"left","rt":1862.8000000119,"correct":false,"confidence":2},{"trial_n":109,"n_dots":5.743,"target":"left","response":"right","rt":15.899999976158,"correct":false,"confidence":5},{"trial_n":110,"n_dots":5.743,"target":"left","response":"right","rt":1244.1999999881,"correct":false,"confidence":1},{"trial_n":111,"n_dots":5.743,"target":"right","response":"left","rt":554.5,"correct":false,"confidence":4},{"trial_n":112,"n_dots":5.743,"target":"right","response":"right","rt":236.80000001192,"correct":true,"confidence":1},{"trial_n":113,"n_dots":5.743,"target":"left","response":"left","rt":775.39999997616,"correct":true,"confidence":1},{"trial_n":114,"n_dots":5.643,"target":"left","response":"right","rt":280.30000001192,"correct":false,"confidence":1},{"trial_n":115,"n_dots":5.743,"target":"right","response":"right","rt":503.59999999404,"correct":true,"confidence":1},{"trial_n":116,"n_dots":5.743,"target":"left","response":"left","rt":17,"correct":true,"confidence":1},{"trial_n":117,"n_dots":5.643,"target":"left","response":"right","rt":325.59999999404,"correct":false,"confidence":1},{"trial_n":118,"n_dots":5.743,"target":"right","response":"left","rt":1063.1000000238,"correct":false,"confidence":1},{"trial_n":119,"n_dots":5.743,"target":"left","response":"right","rt":142.70000001788,"correct":false,"confidence":1},{"trial_n":120,"n_dots":5.743,"target":"right","response":"right","rt":228.70000001788,"correct":true,"confidence":1},{"trial_n":121,"n_dots":5.743,"target":"left","response":"right","rt":508.40000000596,"correct":false,"confidence":1},{"trial_n":122,"n_dots":5.743,"target":"right","response":"left","rt":470.59999999404,"correct":false,"confidence":1},{"trial_n":123,"n_dots":5.743,"target":"right","response":"left","rt":606.90000000596,"correct":false,"confidence":5},{"trial_n":124,"n_dots":5.743,"target":"right","response":"left","rt":153.09999999404,"correct":false,"confidence":5},{"trial_n":125,"n_dots":5.743,"target":"right","response":"left","rt":85.299999982119,"correct":false,"confidence":1},{"trial_n":126,"n_dots":5.743,"target":"right","response":"left","rt":64.09999999404,"correct":false,"confidence":4},{"trial_n":127,"n_dots":5.743,"target":"left","response":"right","rt":380.29999998212,"correct":false,"confidence":4},{"trial_n":128,"n_dots":5.743,"target":"right","response":"left","rt":402.5,"correct":false,"confidence":6},{"trial_n":129,"n_dots":5.743,"target":"right","response":"left","rt":462.5,"correct":false,"confidence":4},{"trial_n":130,"n_dots":5.743,"target":"right","response":"left","rt":27.40000000596,"correct":false,"confidence":5},{"trial_n":131,"n_dots":5.743,"target":"left","response":"right","rt":410.29999998212,"correct":false,"confidence":4},{"trial_n":132,"n_dots":5.743,"target":"left","response":"right","rt":213.80000001192,"correct":false,"confidence":3},{"trial_n":133,"n_dots":5.743,"target":"left","response":"right","rt":164.40000000596,"correct":false,"confidence":4},{"trial_n":134,"n_dots":5.743,"target":"left","response":"right","rt":2448.3000000119,"correct":false,"confidence":4},{"trial_n":135,"n_dots":5.743,"target":"right","response":"left","rt":553.59999999404,"correct":false,"confidence":5},{"trial_n":136,"n_dots":5.743,"target":"left","response":"right","rt":1881.7000000179,"correct":false,"confidence":5},{"trial_n":137,"n_dots":5.743,"target":"right","response":"left","rt":408.90000000596,"correct":false,"confidence":4},{"trial_n":138,"n_dots":5.743,"target":"right","response":"left","rt":186.5,"correct":false,"confidence":3},{"trial_n":139,"n_dots":5.743,"target":"right","response":"left","rt":109.70000001788,"correct":false,"confidence":4},{"trial_n":140,"n_dots":5.743,"target":"left","response":"right","rt":531.80000001192,"correct":false,"confidence":5},{"trial_n":141,"n_dots":5.743,"target":"right","response":"left","rt":166.10000002384,"correct":false,"confidence":1},{"trial_n":142,"n_dots":5.743,"target":"left","response":"right","rt":86.90000000596,"correct":false,"confidence":1},{"trial_n":143,"n_dots":5.743,"target":"right","response":"left","rt":567.09999999404,"correct":false,"confidence":1},{"trial_n":144,"n_dots":5.743,"target":"left","response":"right","rt":90.40000000596,"correct":false,"confidence":1},{"trial_n":145,"n_dots":5.743,"target":"right","response":"left","rt":92.40000000596,"correct":false,"confidence":1},{"trial_n":146,"n_dots":5.743,"target":"right","response":"left","rt":96.09999999404,"correct":false,"confidence":1},{"trial_n":147,"n_dots":5.743,"target":"right","response":"left","rt":632.09999999404,"correct":false,"confidence":1},{"trial_n":148,"n_dots":5.743,"target":"left","response":"right","rt":379.70000001788,"correct":false,"confidence":1},{"trial_n":149,"n_dots":5.743,"target":"left","response":"left","rt":46.09999999404,"correct":true,"confidence":1},{"trial_n":150,"n_dots":5.743,"target":"right","response":"right","rt":34.59999999404,"correct":true,"confidence":1},{"trial_n":151,"n_dots":5.643,"target":"right","response":"left","rt":40.800000011921,"correct":false,"confidence":1},{"trial_n":152,"n_dots":5.743,"target":"right","response":"right","rt":149.39999997616,"correct":true,"confidence":1},{"trial_n":153,"n_dots":5.743,"target":"right","response":"left","rt":2.5999999940395,"correct":false,"confidence":1},{"trial_n":154,"n_dots":5.743,"target":"left","response":"right","rt":445.70000001788,"correct":false,"confidence":4},{"trial_n":155,"n_dots":5.743,"target":"left","response":"right","rt":166,"correct":false,"confidence":4},{"trial_n":156,"n_dots":5.743,"target":"right","response":"left","rt":47.40000000596,"correct":false,"confidence":1},{"trial_n":157,"n_dots":5.743,"target":"right","response":"right","rt":179.69999998808,"correct":true,"confidence":1},{"trial_n":158,"n_dots":5.743,"target":"left","response":"left","rt":108.89999997616,"correct":true,"confidence":1},{"trial_n":159,"n_dots":5.643,"target":"right","response":"right","rt":8.4000000059605,"correct":true,"confidence":2},{"trial_n":160,"n_dots":5.643,"target":"left","response":"right","rt":264.09999999404,"correct":false,"confidence":1},{"trial_n":161,"n_dots":5.743,"target":"left","response":"right","rt":77.399999976158,"correct":false,"confidence":1},{"trial_n":162,"n_dots":5.743,"target":"left","response":"left","rt":284.30000001192,"correct":true,"confidence":1},{"trial_n":163,"n_dots":5.743,"target":"left","response":"right","rt":62.59999999404,"correct":false,"confidence":4},{"trial_n":164,"n_dots":5.743,"target":"left","response":"right","rt":58.799999982119,"correct":false,"confidence":1},{"trial_n":165,"n_dots":5.743,"target":"right","response":"left","rt":114,"correct":false,"confidence":1},{"trial_n":166,"n_dots":5.743,"target":"left","response":"right","rt":62.299999982119,"correct":false,"confidence":1},{"trial_n":167,"n_dots":5.743,"target":"left","response":"right","rt":-0.59999999403954,"correct":false,"confidence":1},{"trial_n":168,"n_dots":5.743,"target":"left","response":"left","rt":68.699999988079,"correct":true,"confidence":1},{"trial_n":169,"n_dots":5.743,"target":"left","response":"right","rt":68.800000011921,"correct":false,"confidence":1},{"trial_n":170,"n_dots":5.743,"target":"right","response":"left","rt":169.40000000596,"correct":false,"confidence":1},{"trial_n":171,"n_dots":5.743,"target":"right","response":"right","rt":60.100000023842,"correct":true,"confidence":4},{"trial_n":172,"n_dots":5.743,"target":"left","response":"right","rt":176.5,"correct":false,"confidence":1},{"trial_n":173,"n_dots":5.743,"target":"left","response":"left","rt":102.20000001788,"correct":true,"confidence":1},{"trial_n":174,"n_dots":5.743,"target":"right","response":"left","rt":73.800000011921,"correct":false,"confidence":1},{"trial_n":175,"n_dots":5.743,"target":"left","response":"right","rt":78.600000023842,"correct":false,"confidence":5},{"trial_n":176,"n_dots":5.743,"target":"left","response":"right","rt":349.40000000596,"correct":false,"confidence":1},{"trial_n":177,"n_dots":5.743,"target":"right","response":"right","rt":154.5,"correct":true,"confidence":4},{"trial_n":178,"n_dots":5.743,"target":"right","response":"right","rt":70,"correct":true,"confidence":1},{"trial_n":179,"n_dots":5.643,"target":"left","response":"right","rt":44.799999982119,"correct":false,"confidence":1},{"trial_n":180,"n_dots":5.743,"target":"right","response":"left","rt":142.80000001192,"correct":false,"confidence":1},{"trial_n":181,"n_dots":5.743,"target":"left","response":"left","rt":156.5,"correct":true,"confidence":1},{"trial_n":182,"n_dots":5.743,"target":"left","response":"right","rt":115.90000000596,"correct":false,"confidence":4},{"trial_n":183,"n_dots":5.743,"target":"left","response":"right","rt":45.299999982119,"correct":false,"confidence":4},{"trial_n":184,"n_dots":5.743,"target":"right","response":"left","rt":94.59999999404,"correct":false,"confidence":1},{"trial_n":185,"n_dots":5.743,"target":"left","response":"left","rt":66.90000000596,"correct":true,"confidence":1},{"trial_n":186,"n_dots":5.743,"target":"right","response":"right","rt":9.5,"correct":true,"confidence":1},{"trial_n":187,"n_dots":5.643,"target":"right","response":"left","rt":162.5,"correct":false,"confidence":1},{"trial_n":188,"n_dots":5.743,"target":"right","response":"right","rt":121.79999998212,"correct":true,"confidence":4},{"trial_n":189,"n_dots":5.743,"target":"right","response":"left","rt":176.69999998808,"correct":false,"confidence":1},{"trial_n":190,"n_dots":5.743,"target":"right","response":"right","rt":41.90000000596,"correct":true,"confidence":5},{"trial_n":191,"n_dots":5.743,"target":"right","response":"left","rt":97.59999999404,"correct":false,"confidence":1},{"trial_n":192,"n_dots":5.743,"target":"left","response":"right","rt":32.800000011921,"correct":false,"confidence":1},{"trial_n":193,"n_dots":5.743,"target":"right","response":"left","rt":38.5,"correct":false,"confidence":1},{"trial_n":194,"n_dots":5.743,"target":"left","response":"right","rt":85,"correct":false,"confidence":1}]