[{"trial_n":1,"n_dots":4.25,"target":"right","response":"left","rt":1792,"correct":false,"confidence":-1},{"trial_n":2,"n_dots":4.25,"target":"left","response":"right","rt":502,"correct":false,"confidence":-1},{"trial_n":3,"n_dots":4.65,"target":"left","response":"right","rt":490.99999999999,"correct":false,"confidence":-1},{"trial_n":4,"n_dots":5.05,"target":"right","response":"right","rt":431,"correct":true,"confidence":-1},{"trial_n":5,"n_dots":5.05,"target":"left","response":"left","rt":602.00000000001,"correct":true,"confidence":-1},{"trial_n":6,"n_dots":4.65,"target":"left","response":"left","rt":559.99999999999,"correct":true,"confidence":-1},{"trial_n":7,"n_dots":4.65,"target":"left","response":"left","rt":365,"correct":true,"confidence":-1},{"trial_n":8,"n_dots":4.45,"target":"left","response":"left","rt":350,"correct":true,"confidence":-1},{"trial_n":9,"n_dots":4.45,"target":"right","response":"right","rt":415,"correct":true,"confidence":-1},{"trial_n":10,"n_dots":4.25,"target":"right","response":"right","rt":528.00000000001,"correct":true,"confidence":-1},{"trial_n":11,"n_dots":4.25,"target":"right","response":"left","rt":628,"correct":false,"confidence":-1},{"trial_n":12,"n_dots":4.45,"target":"right","response":"right","rt":479,"correct":true,"confidence":-1},{"trial_n":13,"n_dots":4.45,"target":"left","response":"left","rt":537,"correct":true,"confidence":-1},{"trial_n":14,"n_dots":4.35,"target":"right","response":"right","rt":512,"correct":true,"confidence":-1},{"trial_n":15,"n_dots":4.35,"target":"left","response":"left","rt":634,"correct":true,"confidence":-1},{"trial_n":16,"n_dots":4.25,"target":"right","response":"right","rt":343,"correct":true,"confidence":-1},{"trial_n":17,"n_dots":4.25,"target":"right","response":"left","rt":700.99999999999,"correct":false,"confidence":-1},{"trial_n":18,"n_dots":4.35,"target":"left","response":"right","rt":774,"correct":false,"confidence":-1},{"trial_n":19,"n_dots":4.45,"target":"left","response":"left","rt":570,"correct":true,"confidence":-1},{"trial_n":20,"n_dots":4.45,"target":"right","response":"right","rt":391,"correct":true,"confidence":-1},{"trial_n":21,"n_dots":4.35,"target":"left","response":"left","rt":521,"correct":true,"confidence":-1},{"trial_n":22,"n_dots":4.35,"target":"left","response":"left","rt":341,"correct":true,"confidence":-1},{"trial_n":23,"n_dots":4.25,"target":"left","response":"left","rt":390.99999999999,"correct":true,"confidence":-1},{"trial_n":24,"n_dots":4.25,"target":"left","response":"left","rt":130,"correct":true,"confidence":-1},{"trial_n":25,"n_dots":4.15,"target":"left","response":"left","rt":211.99999999999,"correct":true,"confidence":-1},{"trial_n":26,"n_dots":4.15,"target":"left","response":"left","rt":172,"correct":true,"confidence":-1},{"trial_n":27,"n_dots":4.05,"target":"right","response":"right","rt":673,"correct":true,"confidence":3},{"trial_n":28,"n_dots":4.05,"target":"left","response":"left","rt":383,"correct":true,"confidence":3},{"trial_n":29,"n_dots":3.95,"target":"right","response":"right","rt":360,"correct":true,"confidence":5},{"trial_n":30,"n_dots":3.95,"target":"left","response":"left","rt":463,"correct":true,"confidence":3},{"trial_n":31,"n_dots":3.85,"target":"right","response":"right","rt":417,"correct":true,"confidence":3},{"trial_n":32,"n_dots":3.85,"target":"left","response":"left","rt":21,"correct":true,"confidence":3},{"trial_n":33,"n_dots":3.75,"target":"right","response":"right","rt":547,"correct":true,"confidence":4},{"trial_n":34,"n_dots":3.75,"target":"right","response":"right","rt":157,"correct":true,"confidence":4},{"trial_n":35,"n_dots":3.65,"target":"right","response":"right","rt":330,"correct":true,"confidence":3},{"trial_n":36,"n_dots":3.65,"target":"right","response":"left","rt":516,"correct":false,"confidence":3},{"trial_n":37,"n_dots":3.75,"target":"right","response":"right","rt":315,"correct":true,"confidence":1},{"trial_n":38,"n_dots":3.75,"target":"left","response":"left","rt":314,"correct":true,"confidence":2},{"trial_n":39,"n_dots":3.65,"target":"right","response":"right","rt":469,"correct":true,"confidence":1},{"trial_n":40,"n_dots":3.65,"target":"right","response":"left","rt":118.00000000006,"correct":false,"confidence":4},{"trial_n":41,"n_dots":3.75,"target":"right","response":"right","rt":12,"correct":true,"confidence":4},{"trial_n":42,"n_dots":3.75,"target":"left","response":"right","rt":541,"correct":false,"confidence":4},{"trial_n":43,"n_dots":3.85,"target":"right","response":"right","rt":505,"correct":true,"confidence":3},{"trial_n":44,"n_dots":3.85,"target":"left","response":"left","rt":10.999999999942,"correct":true,"confidence":3},{"trial_n":45,"n_dots":3.75,"target":"left","response":"right","rt":736,"correct":false,"confidence":3},{"trial_n":46,"n_dots":3.85,"target":"left","response":"left","rt":360,"correct":true,"confidence":3},{"trial_n":47,"n_dots":3.85,"target":"left","response":"right","rt":154,"correct":false,"confidence":1},{"trial_n":48,"n_dots":3.95,"target":"left","response":"left","rt":484,"correct":true,"confidence":4},{"trial_n":49,"n_dots":3.95,"target":"left","response":"right","rt":515.99999999994,"correct":false,"confidence":3},{"trial_n":50,"n_dots":4.05,"target":"right","response":"right","rt":1162.9999999999,"correct":true,"confidence":4},{"trial_n":51,"n_dots":4.05,"target":"right","response":"left","rt":526,"correct":false,"confidence":3},{"trial_n":52,"n_dots":4.15,"target":"right","response":"right","rt":480,"correct":true,"confidence":3},{"trial_n":53,"n_dots":4.15,"target":"right","response":"right","rt":521,"correct":true,"confidence":3},{"trial_n":54,"n_dots":4.05,"target":"right","response":"left","rt":27.999999999942,"correct":false,"confidence":3},{"trial_n":55,"n_dots":4.15,"target":"right","response":"right","rt":426,"correct":true,"confidence":3},{"trial_n":56,"n_dots":4.15,"target":"left","response":"left","rt":31,"correct":true,"confidence":2},{"trial_n":57,"n_dots":4.05,"target":"left","response":"right","rt":450.99999999994,"correct":false,"confidence":3},{"trial_n":58,"n_dots":4.15,"target":"left","response":"left","rt":13,"correct":true,"confidence":3},{"trial_n":59,"n_dots":4.15,"target":"right","response":"right","rt":1097,"correct":true,"confidence":4},{"trial_n":60,"n_dots":4.05,"target":"left","response":"left","rt":204.99999999994,"correct":true,"confidence":3},{"trial_n":61,"n_dots":4.05,"target":"left","response":"right","rt":4,"correct":false,"confidence":3},{"trial_n":62,"n_dots":4.15,"target":"left","response":"left","rt":458,"correct":true,"confidence":3},{"trial_n":63,"n_dots":4.15,"target":"left","response":"right","rt":520.99999999994,"correct":false,"confidence":3},{"trial_n":64,"n_dots":4.25,"target":"right","response":"left","rt":490.99999999994,"correct":false,"confidence":3},{"trial_n":65,"n_dots":4.35,"target":"right","response":"right","rt":377,"correct":true,"confidence":3},{"trial_n":66,"n_dots":4.35,"target":"right","response":"left","rt":452,"correct":false,"confidence":3},{"trial_n":67,"n_dots":4.45,"target":"left","response":"right","rt":441,"correct":false,"confidence":3},{"trial_n":68,"n_dots":4.55,"target":"left","response":"left","rt":32,"correct":true,"confidence":3},{"trial_n":69,"n_dots":4.55,"target":"left","response":"right","rt":483,"correct":false,"confidence":3},{"trial_n":70,"n_dots":4.65,"target":"right","response":"left","rt":35,"correct":false,"confidence":4},{"trial_n":71,"n_dots":4.75,"target":"left","response":"right","rt":100.00000000006,"correct":false,"confidence":3},{"trial_n":72,"n_dots":4.85,"target":"right","response":"left","rt":476,"correct":false,"confidence":3},{"trial_n":73,"n_dots":4.95,"target":"left","response":"left","rt":557,"correct":true,"confidence":5},{"trial_n":74,"n_dots":4.95,"target":"left","response":"left","rt":458,"correct":true,"confidence":6},{"trial_n":75,"n_dots":4.85,"target":"right","response":"right","rt":30,"correct":true,"confidence":3},{"trial_n":76,"n_dots":4.85,"target":"right","response":"left","rt":702,"correct":false,"confidence":1},{"trial_n":77,"n_dots":4.95,"target":"left","response":"left","rt":328,"correct":true,"confidence":5},{"trial_n":78,"n_dots":4.95,"target":"right","response":"right","rt":478,"correct":true,"confidence":3},{"trial_n":79,"n_dots":4.85,"target":"left","response":"left","rt":651,"correct":true,"confidence":4},{"trial_n":80,"n_dots":4.85,"target":"left","response":"left","rt":435,"correct":true,"confidence":4},{"trial_n":81,"n_dots":4.75,"target":"right","response":"right","rt":668,"correct":true,"confidence":3},{"trial_n":82,"n_dots":4.75,"target":"right","response":"right","rt":743,"correct":true,"confidence":4},{"trial_n":83,"n_dots":4.65,"target":"left","response":"left","rt":336.99999999994,"correct":true,"confidence":3},{"trial_n":84,"n_dots":4.65,"target":"left","response":"left","rt":441,"correct":true,"confidence":4},{"trial_n":85,"n_dots":4.55,"target":"right","response":"right","rt":38.000000000058,"correct":true,"confidence":4},{"trial_n":86,"n_dots":4.55,"target":"left","response":"left","rt":142.99999999994,"correct":true,"confidence":4},{"trial_n":87,"n_dots":4.45,"target":"right","response":"left","rt":5836,"correct":false,"confidence":4},{"trial_n":88,"n_dots":4.55,"target":"right","response":"right","rt":378,"correct":true,"confidence":4},{"trial_n":89,"n_dots":4.55,"target":"left","response":"right","rt":500,"correct":false,"confidence":1},{"trial_n":90,"n_dots":4.65,"target":"right","response":"left","rt":606,"correct":false,"confidence":2},{"trial_n":91,"n_dots":4.75,"target":"left","response":"left","rt":362,"correct":true,"confidence":3},{"trial_n":92,"n_dots":4.75,"target":"right","response":"right","rt":120,"correct":true,"confidence":3},{"trial_n":93,"n_dots":4.65,"target":"right","response":"right","rt":436.00000000006,"correct":true,"confidence":3},{"trial_n":94,"n_dots":4.65,"target":"right","response":"right","rt":501,"correct":true,"confidence":3},{"trial_n":95,"n_dots":4.55,"target":"left","response":"left","rt":513,"correct":true,"confidence":3},{"trial_n":96,"n_dots":4.55,"target":"right","response":"right","rt":217,"correct":true,"confidence":3},{"trial_n":97,"n_dots":4.45,"target":"left","response":"left","rt":387,"correct":true,"confidence":3},{"trial_n":98,"n_dots":4.45,"target":"right","response":"left","rt":1330.9999999999,"correct":false,"confidence":3},{"trial_n":99,"n_dots":4.55,"target":"right","response":"right","rt":216,"correct":true,"confidence":3},{"trial_n":100,"n_dots":4.55,"target":"left","response":"left","rt":516.00000000012,"correct":true,"confidence":3},{"trial_n":101,"n_dots":4.45,"target":"right","response":"right","rt":487.00000000012,"correct":true,"confidence":3},{"trial_n":102,"n_dots":4.45,"target":"left","response":"left","rt":183,"correct":true,"confidence":3},{"trial_n":103,"n_dots":4.35,"target":"left","response":"left","rt":514,"correct":true,"confidence":3},{"trial_n":104,"n_dots":4.35,"target":"right","response":"right","rt":704,"correct":true,"confidence":2},{"trial_n":105,"n_dots":4.25,"target":"right","response":"right","rt":518.00000000012,"correct":true,"confidence":3},{"trial_n":106,"n_dots":4.25,"target":"right","response":"right","rt":508,"correct":true,"confidence":3},{"trial_n":107,"n_dots":4.15,"target":"right","response":"right","rt":160,"correct":true,"confidence":3},{"trial_n":108,"n_dots":4.15,"target":"right","response":"right","rt":389,"correct":true,"confidence":3},{"trial_n":109,"n_dots":4.05,"target":"right","response":"right","rt":620,"correct":true,"confidence":3},{"trial_n":110,"n_dots":4.05,"target":"right","response":"right","rt":833,"correct":true,"confidence":3},{"trial_n":111,"n_dots":3.95,"target":"right","response":"left","rt":429,"correct":false,"confidence":3},{"trial_n":112,"n_dots":4.05,"target":"left","response":"right","rt":421.99999999988,"correct":false,"confidence":3},{"trial_n":113,"n_dots":4.15,"target":"right","response":"left","rt":275,"correct":false,"confidence":2},{"trial_n":114,"n_dots":4.25,"target":"right","response":"left","rt":439,"correct":false,"confidence":3},{"trial_n":115,"n_dots":4.35,"target":"left","response":"right","rt":323,"correct":false,"confidence":2},{"trial_n":116,"n_dots":4.45,"target":"right","response":"right","rt":30.000000000116,"correct":true,"confidence":3},{"trial_n":117,"n_dots":4.45,"target":"right","response":"right","rt":411,"correct":true,"confidence":3},{"trial_n":118,"n_dots":4.35,"target":"right","response":"right","rt":462,"correct":true,"confidence":3},{"trial_n":119,"n_dots":4.35,"target":"right","response":"left","rt":114,"correct":false,"confidence":2},{"trial_n":120,"n_dots":4.45,"target":"right","response":"right","rt":372,"correct":true,"confidence":4},{"trial_n":121,"n_dots":4.45,"target":"right","response":"right","rt":31,"correct":true,"confidence":4},{"trial_n":122,"n_dots":4.35,"target":"right","response":"right","rt":69,"correct":true,"confidence":4},{"trial_n":123,"n_dots":4.35,"target":"left","response":"left","rt":143,"correct":true,"confidence":2},{"trial_n":124,"n_dots":4.25,"target":"left","response":"left","rt":478.00000000012,"correct":true,"confidence":3},{"trial_n":125,"n_dots":4.25,"target":"right","response":"left","rt":324.00000000012,"correct":false,"confidence":3},{"trial_n":126,"n_dots":4.35,"target":"left","response":"right","rt":417.99999999988,"correct":false,"confidence":3},{"trial_n":127,"n_dots":4.45,"target":"left","response":"left","rt":15,"correct":true,"confidence":3},{"trial_n":128,"n_dots":4.45,"target":"right","response":"right","rt":501,"correct":true,"confidence":3},{"trial_n":129,"n_dots":4.35,"target":"right","response":"right","rt":488,"correct":true,"confidence":3},{"trial_n":130,"n_dots":4.35,"target":"left","response":"right","rt":613,"correct":false,"confidence":3},{"trial_n":131,"n_dots":4.45,"target":"left","response":"left","rt":2877,"correct":true,"confidence":2},{"trial_n":132,"n_dots":4.45,"target":"right","response":"right","rt":299,"correct":true,"confidence":4},{"trial_n":133,"n_dots":4.35,"target":"left","response":"left","rt":462,"correct":true,"confidence":3},{"trial_n":134,"n_dots":4.35,"target":"right","response":"right","rt":601,"correct":true,"confidence":3},{"trial_n":135,"n_dots":4.25,"target":"right","response":"left","rt":416,"correct":false,"confidence":3},{"trial_n":136,"n_dots":4.35,"target":"left","response":"left","rt":1386,"correct":true,"confidence":3},{"trial_n":137,"n_dots":4.35,"target":"left","response":"left","rt":355,"correct":true,"confidence":3},{"trial_n":138,"n_dots":4.25,"target":"left","response":"left","rt":33,"correct":true,"confidence":3},{"trial_n":139,"n_dots":4.25,"target":"right","response":"right","rt":207,"correct":true,"confidence":3},{"trial_n":140,"n_dots":4.15,"target":"left","response":"left","rt":535,"correct":true,"confidence":3},{"trial_n":141,"n_dots":4.15,"target":"right","response":"left","rt":707,"correct":false,"confidence":3},{"trial_n":142,"n_dots":4.25,"target":"right","response":"left","rt":430,"correct":false,"confidence":3},{"trial_n":143,"n_dots":4.35,"target":"left","response":"left","rt":348,"correct":true,"confidence":3},{"trial_n":144,"n_dots":4.35,"target":"left","response":"left","rt":355.99999999988,"correct":true,"confidence":3},{"trial_n":145,"n_dots":4.25,"target":"left","response":"right","rt":39,"correct":false,"confidence":1},{"trial_n":146,"n_dots":4.35,"target":"right","response":"right","rt":202,"correct":true,"confidence":3},{"trial_n":147,"n_dots":4.35,"target":"right","response":"left","rt":478.99999999988,"correct":false,"confidence":3},{"trial_n":148,"n_dots":4.45,"target":"left","response":"left","rt":711,"correct":true,"confidence":3},{"trial_n":149,"n_dots":4.45,"target":"right","response":"right","rt":407,"correct":true,"confidence":3},{"trial_n":150,"n_dots":4.35,"target":"right","response":"right","rt":583,"correct":true,"confidence":3},{"trial_n":151,"n_dots":4.35,"target":"left","response":"left","rt":566,"correct":true,"confidence":1},{"trial_n":152,"n_dots":4.25,"target":"left","response":"left","rt":355.99999999988,"correct":true,"confidence":3},{"trial_n":153,"n_dots":4.25,"target":"right","response":"right","rt":183,"correct":true,"confidence":4},{"trial_n":154,"n_dots":4.15,"target":"left","response":"left","rt":616.99999999988,"correct":true,"confidence":3},{"trial_n":155,"n_dots":4.15,"target":"left","response":"left","rt":365,"correct":true,"confidence":3},{"trial_n":156,"n_dots":4.05,"target":"left","response":"left","rt":359,"correct":true,"confidence":3},{"trial_n":157,"n_dots":4.05,"target":"right","response":"right","rt":616.00000000012,"correct":true,"confidence":3},{"trial_n":158,"n_dots":3.95,"target":"left","response":"left","rt":511,"correct":true,"confidence":3},{"trial_n":159,"n_dots":3.95,"target":"right","response":"right","rt":593,"correct":true,"confidence":3},{"trial_n":160,"n_dots":3.85,"target":"right","response":"right","rt":462,"correct":true,"confidence":3},{"trial_n":161,"n_dots":3.85,"target":"left","response":"left","rt":1553,"correct":true,"confidence":3},{"trial_n":162,"n_dots":3.75,"target":"left","response":"left","rt":616,"correct":true,"confidence":3},{"trial_n":163,"n_dots":3.75,"target":"right","response":"left","rt":675,"correct":false,"confidence":3},{"trial_n":164,"n_dots":3.85,"target":"left","response":"left","rt":446,"correct":true,"confidence":3},{"trial_n":165,"n_dots":3.85,"target":"right","response":"left","rt":876.99999999988,"correct":false,"confidence":3},{"trial_n":166,"n_dots":3.95,"target":"left","response":"left","rt":503,"correct":true,"confidence":3},{"trial_n":167,"n_dots":3.95,"target":"left","response":"left","rt":50,"correct":true,"confidence":3},{"trial_n":168,"n_dots":3.85,"target":"right","response":"left","rt":24,"correct":false,"confidence":3},{"trial_n":169,"n_dots":3.95,"target":"left","response":"left","rt":512,"correct":true,"confidence":3},{"trial_n":170,"n_dots":3.95,"target":"right","response":"right","rt":876.00000000012,"correct":true,"confidence":3},{"trial_n":171,"n_dots":3.85,"target":"right","response":"right","rt":372,"correct":true,"confidence":3},{"trial_n":172,"n_dots":3.85,"target":"left","response":"left","rt":567.99999999988,"correct":true,"confidence":3},{"trial_n":173,"n_dots":3.75,"target":"left","response":"right","rt":548,"correct":false,"confidence":3},{"trial_n":174,"n_dots":3.85,"target":"right","response":"left","rt":530,"correct":false,"confidence":3},{"trial_n":175,"n_dots":3.95,"target":"right","response":"right","rt":161.99999999988,"correct":true,"confidence":4},{"trial_n":176,"n_dots":3.95,"target":"left","response":"left","rt":316.00000000012,"correct":true,"confidence":3},{"trial_n":177,"n_dots":3.85,"target":"left","response":"left","rt":12776,"correct":true,"confidence":3},{"trial_n":178,"n_dots":3.85,"target":"right","response":"right","rt":17.000000000116,"correct":true,"confidence":3},{"trial_n":179,"n_dots":3.75,"target":"left","response":"left","rt":99.000000000116,"correct":true,"confidence":3},{"trial_n":180,"n_dots":3.75,"target":"right","response":"right","rt":172.00000000012,"correct":true,"confidence":3},{"trial_n":181,"n_dots":3.65,"target":"right","response":"left","rt":302,"correct":false,"confidence":3},{"trial_n":182,"n_dots":3.75,"target":"left","response":"right","rt":519,"correct":false,"confidence":3},{"trial_n":183,"n_dots":3.85,"target":"left","response":"left","rt":205.99999999988,"correct":true,"confidence":3},{"trial_n":184,"n_dots":3.85,"target":"left","response":"right","rt":49,"correct":false,"confidence":3},{"trial_n":185,"n_dots":3.95,"target":"right","response":"left","rt":397,"correct":false,"confidence":3},{"trial_n":186,"n_dots":4.05,"target":"left","response":"left","rt":381.00000000012,"correct":true,"confidence":3},{"trial_n":187,"n_dots":4.05,"target":"left","response":"left","rt":458,"correct":true,"confidence":3},{"trial_n":188,"n_dots":3.95,"target":"left","response":"left","rt":417,"correct":true,"confidence":4},{"trial_n":189,"n_dots":3.95,"target":"right","response":"right","rt":506.00000000012,"correct":true,"confidence":4},{"trial_n":190,"n_dots":3.85,"target":"left","response":"left","rt":34,"correct":true,"confidence":3},{"trial_n":191,"n_dots":3.85,"target":"left","response":"right","rt":227,"correct":false,"confidence":4},{"trial_n":192,"n_dots":3.95,"target":"left","response":"left","rt":1607,"correct":true,"confidence":3},{"trial_n":193,"n_dots":3.95,"target":"right","response":"right","rt":497,"correct":true,"confidence":3},{"trial_n":194,"n_dots":3.85,"target":"left","response":"left","rt":529.99999999988,"correct":true,"confidence":3}]