[{"trial_n":1,"n_dots":4.25,"target":"right","response":"right","rt":2123.0999999046,"correct":true,"confidence":-1},{"trial_n":2,"n_dots":4.25,"target":"right","response":"right","rt":710.40000009537,"correct":true,"confidence":-1},{"trial_n":3,"n_dots":3.85,"target":"right","response":"right","rt":703.09999990463,"correct":true,"confidence":-1},{"trial_n":4,"n_dots":3.85,"target":"right","response":"right","rt":452.2999997139,"correct":true,"confidence":-1},{"trial_n":5,"n_dots":3.45,"target":"left","response":"left","rt":442.90000009537,"correct":true,"confidence":-1},{"trial_n":6,"n_dots":3.45,"target":"left","response":"left","rt":460.90000009537,"correct":true,"confidence":-1},{"trial_n":7,"n_dots":3.05,"target":"right","response":"right","rt":306.40000009537,"correct":true,"confidence":-1},{"trial_n":8,"n_dots":3.05,"target":"left","response":"left","rt":463.19999980927,"correct":true,"confidence":-1},{"trial_n":9,"n_dots":2.85,"target":"left","response":"left","rt":241.30000019073,"correct":true,"confidence":-1},{"trial_n":10,"n_dots":2.85,"target":"left","response":"left","rt":209.39999961853,"correct":true,"confidence":-1},{"trial_n":11,"n_dots":2.65,"target":"right","response":"right","rt":1006.2000002861,"correct":true,"confidence":-1},{"trial_n":12,"n_dots":2.65,"target":"left","response":"right","rt":350.60000038147,"correct":false,"confidence":-1},{"trial_n":13,"n_dots":2.75,"target":"right","response":"left","rt":428.7999997139,"correct":false,"confidence":-1},{"trial_n":14,"n_dots":2.85,"target":"left","response":"left","rt":701.89999961853,"correct":true,"confidence":-1},{"trial_n":15,"n_dots":2.85,"target":"left","response":"left","rt":524.5,"correct":true,"confidence":-1},{"trial_n":16,"n_dots":2.75,"target":"left","response":"left","rt":376.7999997139,"correct":true,"confidence":-1},{"trial_n":17,"n_dots":2.75,"target":"left","response":"left","rt":282.5,"correct":true,"confidence":-1},{"trial_n":18,"n_dots":2.65,"target":"right","response":"right","rt":297.7000002861,"correct":true,"confidence":-1},{"trial_n":19,"n_dots":2.65,"target":"right","response":"left","rt":248,"correct":false,"confidence":-1},{"trial_n":20,"n_dots":2.75,"target":"left","response":"left","rt":302.10000038147,"correct":true,"confidence":-1},{"trial_n":21,"n_dots":2.75,"target":"right","response":"right","rt":326.5,"correct":true,"confidence":-1},{"trial_n":22,"n_dots":2.65,"target":"left","response":"left","rt":594.5,"correct":true,"confidence":-1},{"trial_n":23,"n_dots":2.65,"target":"left","response":"left","rt":293.59999990463,"correct":true,"confidence":-1},{"trial_n":24,"n_dots":2.55,"target":"right","response":"right","rt":1122.8999996185,"correct":true,"confidence":-1},{"trial_n":25,"n_dots":2.55,"target":"right","response":"left","rt":346.69999980927,"correct":false,"confidence":-1},{"trial_n":26,"n_dots":2.65,"target":"right","response":"right","rt":453.40000009537,"correct":true,"confidence":-1},{"trial_n":27,"n_dots":2.65,"target":"left","response":"left","rt":362.09999990463,"correct":true,"confidence":3},{"trial_n":28,"n_dots":2.55,"target":"left","response":"left","rt":486.90000009537,"correct":true,"confidence":5},{"trial_n":29,"n_dots":2.55,"target":"right","response":"right","rt":993.69999980927,"correct":true,"confidence":3},{"trial_n":30,"n_dots":2.45,"target":"right","response":"left","rt":238,"correct":false,"confidence":5},{"trial_n":31,"n_dots":2.55,"target":"left","response":"left","rt":284.7000002861,"correct":true,"confidence":4},{"trial_n":32,"n_dots":2.55,"target":"right","response":"left","rt":248.90000009537,"correct":false,"confidence":5},{"trial_n":33,"n_dots":2.65,"target":"left","response":"left","rt":1285.3000001907,"correct":true,"confidence":3},{"trial_n":34,"n_dots":2.65,"target":"left","response":"left","rt":307.2000002861,"correct":true,"confidence":4},{"trial_n":35,"n_dots":2.55,"target":"left","response":"left","rt":276.5,"correct":true,"confidence":3},{"trial_n":36,"n_dots":2.55,"target":"right","response":"left","rt":472.2999997139,"correct":false,"confidence":4},{"trial_n":37,"n_dots":2.65,"target":"right","response":"right","rt":187.10000038147,"correct":true,"confidence":3},{"trial_n":38,"n_dots":2.65,"target":"right","response":"left","rt":426.19999980927,"correct":false,"confidence":4},{"trial_n":39,"n_dots":2.75,"target":"right","response":"right","rt":569,"correct":true,"confidence":3},{"trial_n":40,"n_dots":2.75,"target":"right","response":"left","rt":309,"correct":false,"confidence":4},{"trial_n":41,"n_dots":2.85,"target":"left","response":"left","rt":26.900000095367,"correct":true,"confidence":5},{"trial_n":42,"n_dots":2.85,"target":"left","response":"left","rt":524.30000019073,"correct":true,"confidence":4},{"trial_n":43,"n_dots":2.75,"target":"left","response":"left","rt":232.59999990463,"correct":true,"confidence":5},{"trial_n":44,"n_dots":2.75,"target":"left","response":"left","rt":349.19999980927,"correct":true,"confidence":6},{"trial_n":45,"n_dots":2.65,"target":"right","response":"left","rt":929,"correct":false,"confidence":3},{"trial_n":46,"n_dots":2.75,"target":"right","response":"left","rt":1716.8000001907,"correct":false,"confidence":2},{"trial_n":47,"n_dots":2.85,"target":"left","response":"left","rt":403.80000019073,"correct":true,"confidence":3},{"trial_n":48,"n_dots":2.85,"target":"left","response":"right","rt":108.59999990463,"correct":false,"confidence":4},{"trial_n":49,"n_dots":2.95,"target":"left","response":"left","rt":211.5,"correct":true,"confidence":6},{"trial_n":50,"n_dots":2.95,"target":"right","response":"right","rt":245.5,"correct":true,"confidence":4},{"trial_n":51,"n_dots":2.85,"target":"right","response":"left","rt":275.5,"correct":false,"confidence":4},{"trial_n":52,"n_dots":2.95,"target":"right","response":"right","rt":256.2000002861,"correct":true,"confidence":4},{"trial_n":53,"n_dots":2.95,"target":"left","response":"left","rt":295.7999997139,"correct":true,"confidence":5},{"trial_n":54,"n_dots":2.85,"target":"left","response":"left","rt":226.5,"correct":true,"confidence":5},{"trial_n":55,"n_dots":2.85,"target":"right","response":"left","rt":344.69999980927,"correct":false,"confidence":3},{"trial_n":56,"n_dots":2.95,"target":"left","response":"left","rt":2014.8000001907,"correct":true,"confidence":2},{"trial_n":57,"n_dots":2.95,"target":"right","response":"right","rt":212.7999997139,"correct":true,"confidence":4},{"trial_n":58,"n_dots":2.85,"target":"left","response":"left","rt":451.30000019073,"correct":true,"confidence":3},{"trial_n":59,"n_dots":2.85,"target":"left","response":"left","rt":352.19999980927,"correct":true,"confidence":3},{"trial_n":60,"n_dots":2.75,"target":"right","response":"left","rt":3604.8000001907,"correct":false,"confidence":3},{"trial_n":61,"n_dots":2.85,"target":"left","response":"right","rt":319.60000038147,"correct":false,"confidence":3},{"trial_n":62,"n_dots":2.95,"target":"right","response":"left","rt":219.2000002861,"correct":false,"confidence":4},{"trial_n":63,"n_dots":3.05,"target":"left","response":"left","rt":246.09999990463,"correct":true,"confidence":4},{"trial_n":64,"n_dots":3.05,"target":"right","response":"right","rt":285.30000019073,"correct":true,"confidence":3},{"trial_n":65,"n_dots":2.95,"target":"right","response":"left","rt":2057.2000002861,"correct":false,"confidence":2},{"trial_n":66,"n_dots":3.05,"target":"left","response":"left","rt":307.09999990463,"correct":true,"confidence":3},{"trial_n":67,"n_dots":3.05,"target":"left","response":"left","rt":483.5,"correct":true,"confidence":3},{"trial_n":68,"n_dots":2.95,"target":"left","response":"left","rt":3459.5,"correct":true,"confidence":1},{"trial_n":69,"n_dots":2.95,"target":"left","response":"left","rt":264.59999990463,"correct":true,"confidence":4},{"trial_n":70,"n_dots":2.85,"target":"left","response":"left","rt":228.10000038147,"correct":true,"confidence":3},{"trial_n":71,"n_dots":2.85,"target":"right","response":"left","rt":113.7999997139,"correct":false,"confidence":5},{"trial_n":72,"n_dots":2.95,"target":"left","response":"left","rt":305.09999990463,"correct":true,"confidence":3},{"trial_n":73,"n_dots":2.95,"target":"left","response":"left","rt":605.10000038147,"correct":true,"confidence":4},{"trial_n":74,"n_dots":2.85,"target":"right","response":"right","rt":616.2999997139,"correct":true,"confidence":3},{"trial_n":75,"n_dots":2.85,"target":"left","response":"left","rt":251,"correct":true,"confidence":4},{"trial_n":76,"n_dots":2.75,"target":"right","response":"left","rt":276.40000009537,"correct":false,"confidence":4},{"trial_n":77,"n_dots":2.85,"target":"left","response":"left","rt":386.69999980927,"correct":true,"confidence":3},{"trial_n":78,"n_dots":2.85,"target":"right","response":"right","rt":324.40000009537,"correct":true,"confidence":3},{"trial_n":79,"n_dots":2.75,"target":"right","response":"right","rt":587.80000019073,"correct":true,"confidence":3},{"trial_n":80,"n_dots":2.75,"target":"right","response":"left","rt":363.60000038147,"correct":false,"confidence":2},{"trial_n":81,"n_dots":2.85,"target":"left","response":"left","rt":260.2999997139,"correct":true,"confidence":4},{"trial_n":82,"n_dots":2.85,"target":"left","response":"right","rt":422.7999997139,"correct":false,"confidence":3},{"trial_n":83,"n_dots":2.95,"target":"left","response":"left","rt":298,"correct":true,"confidence":4},{"trial_n":84,"n_dots":2.95,"target":"left","response":"left","rt":310.5,"correct":true,"confidence":3},{"trial_n":85,"n_dots":2.85,"target":"left","response":"right","rt":1857.3000001907,"correct":false,"confidence":2},{"trial_n":86,"n_dots":2.95,"target":"left","response":"left","rt":234,"correct":true,"confidence":3},{"trial_n":87,"n_dots":2.95,"target":"right","response":"left","rt":264.90000009537,"correct":false,"confidence":3},{"trial_n":88,"n_dots":3.05,"target":"left","response":"left","rt":1253.9000000954,"correct":true,"confidence":3},{"trial_n":89,"n_dots":3.05,"target":"right","response":"right","rt":242.5,"correct":true,"confidence":5},{"trial_n":90,"n_dots":2.95,"target":"right","response":"right","rt":1804.2999997139,"correct":true,"confidence":2},{"trial_n":91,"n_dots":2.95,"target":"right","response":"right","rt":696.2000002861,"correct":true,"confidence":3},{"trial_n":92,"n_dots":2.85,"target":"right","response":"left","rt":261.30000019073,"correct":false,"confidence":3},{"trial_n":93,"n_dots":2.95,"target":"left","response":"left","rt":560.19999980927,"correct":true,"confidence":3},{"trial_n":94,"n_dots":2.95,"target":"right","response":"right","rt":271.09999990463,"correct":true,"confidence":4},{"trial_n":95,"n_dots":2.85,"target":"left","response":"left","rt":266.40000009537,"correct":true,"confidence":4},{"trial_n":96,"n_dots":2.85,"target":"right","response":"right","rt":319.09999990463,"correct":true,"confidence":2},{"trial_n":97,"n_dots":2.75,"target":"left","response":"left","rt":255.5,"correct":true,"confidence":4},{"trial_n":98,"n_dots":2.75,"target":"left","response":"left","rt":311.2000002861,"correct":true,"confidence":5},{"trial_n":99,"n_dots":2.65,"target":"left","response":"left","rt":2768.6999998093,"correct":true,"confidence":2},{"trial_n":100,"n_dots":2.65,"target":"left","response":"left","rt":1708.2000002861,"correct":true,"confidence":2},{"trial_n":101,"n_dots":2.55,"target":"right","response":"right","rt":2299,"correct":true,"confidence":3},{"trial_n":102,"n_dots":2.55,"target":"right","response":"left","rt":2441.1999998093,"correct":false,"confidence":2},{"trial_n":103,"n_dots":2.65,"target":"right","response":"left","rt":861.2000002861,"correct":false,"confidence":2},{"trial_n":104,"n_dots":2.75,"target":"right","response":"right","rt":271,"correct":true,"confidence":3},{"trial_n":105,"n_dots":2.75,"target":"left","response":"left","rt":202.59999990463,"correct":true,"confidence":4},{"trial_n":106,"n_dots":2.65,"target":"right","response":"right","rt":226.40000009537,"correct":true,"confidence":3},{"trial_n":107,"n_dots":2.65,"target":"right","response":"right","rt":198.7999997139,"correct":true,"confidence":3},{"trial_n":108,"n_dots":2.55,"target":"left","response":"left","rt":251.09999990463,"correct":true,"confidence":4},{"trial_n":109,"n_dots":2.55,"target":"left","response":"left","rt":263.80000019073,"correct":true,"confidence":4},{"trial_n":110,"n_dots":2.45,"target":"right","response":"right","rt":545.40000009537,"correct":true,"confidence":3},{"trial_n":111,"n_dots":2.45,"target":"left","response":"left","rt":616.59999990463,"correct":true,"confidence":3},{"trial_n":112,"n_dots":2.35,"target":"right","response":"left","rt":278.30000019073,"correct":false,"confidence":4},{"trial_n":113,"n_dots":2.45,"target":"left","response":"left","rt":346.19999980927,"correct":true,"confidence":3},{"trial_n":114,"n_dots":2.45,"target":"right","response":"right","rt":42.800000190735,"correct":true,"confidence":4},{"trial_n":115,"n_dots":2.35,"target":"right","response":"right","rt":265.39999961853,"correct":true,"confidence":4},{"trial_n":116,"n_dots":2.35,"target":"right","response":"right","rt":1309.8000001907,"correct":true,"confidence":3},{"trial_n":117,"n_dots":2.25,"target":"right","response":"left","rt":312.30000019073,"correct":false,"confidence":4},{"trial_n":118,"n_dots":2.35,"target":"right","response":"left","rt":440.39999961853,"correct":false,"confidence":4},{"trial_n":119,"n_dots":2.45,"target":"right","response":"right","rt":798.59999990463,"correct":true,"confidence":2},{"trial_n":120,"n_dots":2.45,"target":"left","response":"left","rt":268.69999980927,"correct":true,"confidence":3},{"trial_n":121,"n_dots":2.35,"target":"left","response":"left","rt":220.80000019073,"correct":true,"confidence":4},{"trial_n":122,"n_dots":2.35,"target":"left","response":"left","rt":185.09999990463,"correct":true,"confidence":4},{"trial_n":123,"n_dots":2.25,"target":"right","response":"left","rt":338.5,"correct":false,"confidence":4},{"trial_n":124,"n_dots":2.35,"target":"right","response":"right","rt":273.5,"correct":true,"confidence":3},{"trial_n":125,"n_dots":2.35,"target":"left","response":"left","rt":138.30000019073,"correct":true,"confidence":4},{"trial_n":126,"n_dots":2.25,"target":"right","response":"right","rt":270,"correct":true,"confidence":4},{"trial_n":127,"n_dots":2.25,"target":"right","response":"left","rt":609.7999997139,"correct":false,"confidence":3},{"trial_n":128,"n_dots":2.35,"target":"left","response":"left","rt":275,"correct":true,"confidence":3},{"trial_n":129,"n_dots":2.35,"target":"left","response":"left","rt":349,"correct":true,"confidence":2},{"trial_n":130,"n_dots":2.25,"target":"left","response":"left","rt":355.89999961853,"correct":true,"confidence":3},{"trial_n":131,"n_dots":2.25,"target":"right","response":"left","rt":358.2000002861,"correct":false,"confidence":3},{"trial_n":132,"n_dots":2.35,"target":"left","response":"left","rt":1689.2000002861,"correct":true,"confidence":2},{"trial_n":133,"n_dots":2.35,"target":"right","response":"right","rt":328.90000009537,"correct":true,"confidence":3},{"trial_n":134,"n_dots":2.25,"target":"right","response":"left","rt":237.19999980927,"correct":false,"confidence":4},{"trial_n":135,"n_dots":2.35,"target":"left","response":"left","rt":500.80000019073,"correct":true,"confidence":3},{"trial_n":136,"n_dots":2.35,"target":"right","response":"right","rt":452.40000009537,"correct":true,"confidence":3},{"trial_n":137,"n_dots":2.25,"target":"left","response":"left","rt":260.2999997139,"correct":true,"confidence":3},{"trial_n":138,"n_dots":2.25,"target":"left","response":"left","rt":306.59999990463,"correct":true,"confidence":3},{"trial_n":139,"n_dots":2.15,"target":"right","response":"right","rt":387.7999997139,"correct":true,"confidence":3},{"trial_n":140,"n_dots":2.15,"target":"left","response":"left","rt":227.69999980927,"correct":true,"confidence":2},{"trial_n":141,"n_dots":2.05,"target":"right","response":"right","rt":5403.3000001907,"correct":true,"confidence":2},{"trial_n":142,"n_dots":2.05,"target":"right","response":"left","rt":483.7000002861,"correct":false,"confidence":3},{"trial_n":143,"n_dots":2.15,"target":"left","response":"left","rt":343.90000009537,"correct":true,"confidence":3},{"trial_n":144,"n_dots":2.15,"target":"left","response":"left","rt":294.5,"correct":true,"confidence":4},{"trial_n":145,"n_dots":2.05,"target":"left","response":"left","rt":4152.3000001907,"correct":true,"confidence":2},{"trial_n":146,"n_dots":2.05,"target":"right","response":"left","rt":1339.0999999046,"correct":false,"confidence":3},{"trial_n":147,"n_dots":2.15,"target":"right","response":"left","rt":742.40000009537,"correct":false,"confidence":2},{"trial_n":148,"n_dots":2.25,"target":"left","response":"right","rt":3082.5,"correct":false,"confidence":2},{"trial_n":149,"n_dots":2.35,"target":"left","response":"left","rt":391.2000002861,"correct":true,"confidence":2},{"trial_n":150,"n_dots":2.35,"target":"right","response":"right","rt":2659.8000001907,"correct":true,"confidence":2},{"trial_n":151,"n_dots":2.25,"target":"left","response":"left","rt":453.7999997139,"correct":true,"confidence":2},{"trial_n":152,"n_dots":2.25,"target":"right","response":"right","rt":386.59999990463,"correct":true,"confidence":3},{"trial_n":153,"n_dots":2.15,"target":"left","response":"left","rt":588.7000002861,"correct":true,"confidence":3},{"trial_n":154,"n_dots":2.15,"target":"right","response":"right","rt":845.40000009537,"correct":true,"confidence":3},{"trial_n":155,"n_dots":2.05,"target":"left","response":"left","rt":265.7000002861,"correct":true,"confidence":3},{"trial_n":156,"n_dots":2.05,"target":"right","response":"left","rt":2219,"correct":false,"confidence":3},{"trial_n":157,"n_dots":2.15,"target":"right","response":"left","rt":318.09999990463,"correct":false,"confidence":4},{"trial_n":158,"n_dots":2.25,"target":"right","response":"left","rt":638.5,"correct":false,"confidence":3},{"trial_n":159,"n_dots":2.35,"target":"right","response":"left","rt":575.7999997139,"correct":false,"confidence":3},{"trial_n":160,"n_dots":2.45,"target":"left","response":"right","rt":199.7999997139,"correct":false,"confidence":3},{"trial_n":161,"n_dots":2.55,"target":"left","response":"right","rt":763,"correct":false,"confidence":3},{"trial_n":162,"n_dots":2.65,"target":"left","response":"right","rt":285.69999980927,"correct":false,"confidence":4},{"trial_n":163,"n_dots":2.75,"target":"left","response":"left","rt":283.09999990463,"correct":true,"confidence":4},{"trial_n":164,"n_dots":2.75,"target":"left","response":"left","rt":288.40000009537,"correct":true,"confidence":3},{"trial_n":165,"n_dots":2.65,"target":"right","response":"right","rt":279.7999997139,"correct":true,"confidence":4},{"trial_n":166,"n_dots":2.65,"target":"right","response":"right","rt":2803.8000001907,"correct":true,"confidence":2},{"trial_n":167,"n_dots":2.55,"target":"left","response":"left","rt":393.7000002861,"correct":true,"confidence":2},{"trial_n":168,"n_dots":2.55,"target":"left","response":"right","rt":414.2999997139,"correct":false,"confidence":3},{"trial_n":169,"n_dots":2.65,"target":"left","response":"left","rt":273.5,"correct":true,"confidence":3},{"trial_n":170,"n_dots":2.65,"target":"right","response":"right","rt":265.7000002861,"correct":true,"confidence":3},{"trial_n":171,"n_dots":2.55,"target":"left","response":"left","rt":219.10000038147,"correct":true,"confidence":4},{"trial_n":172,"n_dots":2.55,"target":"right","response":"left","rt":305.90000009537,"correct":false,"confidence":4},{"trial_n":173,"n_dots":2.65,"target":"left","response":"left","rt":356.2000002861,"correct":true,"confidence":3},{"trial_n":174,"n_dots":2.65,"target":"right","response":"left","rt":375.40000009537,"correct":false,"confidence":4},{"trial_n":175,"n_dots":2.75,"target":"left","response":"left","rt":219.19999980927,"correct":true,"confidence":4},{"trial_n":176,"n_dots":2.75,"target":"right","response":"right","rt":1372.5999999046,"correct":true,"confidence":2},{"trial_n":177,"n_dots":2.65,"target":"right","response":"left","rt":287.80000019073,"correct":false,"confidence":3},{"trial_n":178,"n_dots":2.75,"target":"left","response":"left","rt":141.2999997139,"correct":true,"confidence":4},{"trial_n":179,"n_dots":2.75,"target":"left","response":"left","rt":294.5,"correct":true,"confidence":3},{"trial_n":180,"n_dots":2.65,"target":"left","response":"left","rt":270,"correct":true,"confidence":4},{"trial_n":181,"n_dots":2.65,"target":"right","response":"right","rt":337.5,"correct":true,"confidence":3},{"trial_n":182,"n_dots":2.55,"target":"right","response":"left","rt":430.40000009537,"correct":false,"confidence":4},{"trial_n":183,"n_dots":2.65,"target":"left","response":"left","rt":295.59999990463,"correct":true,"confidence":3},{"trial_n":184,"n_dots":2.65,"target":"right","response":"right","rt":355.59999990463,"correct":true,"confidence":4},{"trial_n":185,"n_dots":2.55,"target":"left","response":"left","rt":286.59999990463,"correct":true,"confidence":4},{"trial_n":186,"n_dots":2.55,"target":"right","response":"left","rt":1288.6999998093,"correct":false,"confidence":2},{"trial_n":187,"n_dots":2.65,"target":"right","response":"left","rt":373.30000019073,"correct":false,"confidence":3},{"trial_n":188,"n_dots":2.75,"target":"left","response":"left","rt":430.09999990463,"correct":true,"confidence":3},{"trial_n":189,"n_dots":2.75,"target":"right","response":"left","rt":878.19999980927,"correct":false,"confidence":4},{"trial_n":190,"n_dots":2.85,"target":"right","response":"right","rt":111.60000038147,"correct":true,"confidence":4},{"trial_n":191,"n_dots":2.85,"target":"right","response":"left","rt":413.2000002861,"correct":false,"confidence":4},{"trial_n":192,"n_dots":2.95,"target":"right","response":"left","rt":315,"correct":false,"confidence":5},{"trial_n":193,"n_dots":3.05,"target":"right","response":"right","rt":461,"correct":true,"confidence":4},{"trial_n":194,"n_dots":3.05,"target":"right","response":"left","rt":1531.0999999046,"correct":false,"confidence":2}]