[{"trial_n":1,"n_dots":4.25,"target":"right","response":"right","rt":5131.5999999046,"correct":true,"confidence":-1},{"trial_n":2,"n_dots":4.25,"target":"left","response":"left","rt":1986.2999999523,"correct":true,"confidence":-1},{"trial_n":3,"n_dots":3.85,"target":"right","response":"right","rt":984.60000002384,"correct":true,"confidence":-1},{"trial_n":4,"n_dots":3.85,"target":"left","response":"right","rt":1110.2000000477,"correct":false,"confidence":-1},{"trial_n":5,"n_dots":4.25,"target":"left","response":"right","rt":1230.1000000238,"correct":false,"confidence":-1},{"trial_n":6,"n_dots":4.65,"target":"right","response":"right","rt":372.70000004768,"correct":true,"confidence":-1},{"trial_n":7,"n_dots":4.65,"target":"left","response":"left","rt":577,"correct":true,"confidence":-1},{"trial_n":8,"n_dots":4.45,"target":"left","response":"left","rt":819.5,"correct":true,"confidence":-1},{"trial_n":9,"n_dots":4.45,"target":"left","response":"left","rt":435.30000007153,"correct":true,"confidence":-1},{"trial_n":10,"n_dots":4.25,"target":"left","response":"left","rt":926.19999992847,"correct":true,"confidence":-1},{"trial_n":11,"n_dots":4.25,"target":"right","response":"right","rt":509.20000004768,"correct":true,"confidence":-1},{"trial_n":12,"n_dots":4.05,"target":"right","response":"right","rt":584.29999995232,"correct":true,"confidence":-1},{"trial_n":13,"n_dots":4.05,"target":"right","response":"right","rt":617,"correct":true,"confidence":-1},{"trial_n":14,"n_dots":3.95,"target":"right","response":"right","rt":431,"correct":true,"confidence":-1},{"trial_n":15,"n_dots":3.95,"target":"left","response":"left","rt":823,"correct":true,"confidence":-1},{"trial_n":16,"n_dots":3.85,"target":"right","response":"right","rt":308.39999997616,"correct":true,"confidence":-1},{"trial_n":17,"n_dots":3.85,"target":"right","response":"right","rt":908.80000007153,"correct":true,"confidence":-1},{"trial_n":18,"n_dots":3.75,"target":"right","response":"right","rt":875.80000007153,"correct":true,"confidence":-1},{"trial_n":19,"n_dots":3.75,"target":"right","response":"left","rt":309.69999992847,"correct":false,"confidence":-1},{"trial_n":20,"n_dots":3.85,"target":"right","response":"left","rt":1386.1000000238,"correct":false,"confidence":-1},{"trial_n":21,"n_dots":3.95,"target":"right","response":"right","rt":455.39999997616,"correct":true,"confidence":-1},{"trial_n":22,"n_dots":3.95,"target":"right","response":"right","rt":1082,"correct":true,"confidence":-1},{"trial_n":23,"n_dots":3.85,"target":"right","response":"left","rt":362.79999995232,"correct":false,"confidence":-1},{"trial_n":24,"n_dots":3.95,"target":"left","response":"left","rt":586.20000004768,"correct":true,"confidence":-1},{"trial_n":25,"n_dots":3.95,"target":"left","response":"left","rt":355.60000002384,"correct":true,"confidence":-1},{"trial_n":26,"n_dots":3.85,"target":"left","response":"left","rt":731,"correct":true,"confidence":-1},{"trial_n":27,"n_dots":3.85,"target":"right","response":"left","rt":3682.6000000238,"correct":false,"confidence":4},{"trial_n":28,"n_dots":3.95,"target":"left","response":"left","rt":1194.9000000954,"correct":true,"confidence":5},{"trial_n":29,"n_dots":3.95,"target":"left","response":"left","rt":745.79999995232,"correct":true,"confidence":5},{"trial_n":30,"n_dots":3.85,"target":"right","response":"right","rt":1259.6000000238,"correct":true,"confidence":3},{"trial_n":31,"n_dots":3.85,"target":"left","response":"left","rt":712.89999997616,"correct":true,"confidence":4},{"trial_n":32,"n_dots":3.75,"target":"left","response":"left","rt":736.30000007153,"correct":true,"confidence":5},{"trial_n":33,"n_dots":3.75,"target":"left","response":"left","rt":428.10000002384,"correct":true,"confidence":6},{"trial_n":34,"n_dots":3.65,"target":"left","response":"left","rt":904,"correct":true,"confidence":6},{"trial_n":35,"n_dots":3.65,"target":"right","response":"left","rt":1571.6000000238,"correct":false,"confidence":4},{"trial_n":36,"n_dots":3.75,"target":"right","response":"right","rt":953.80000007153,"correct":true,"confidence":3},{"trial_n":37,"n_dots":3.75,"target":"right","response":"right","rt":605.79999995232,"correct":true,"confidence":5},{"trial_n":38,"n_dots":3.65,"target":"right","response":"right","rt":701.5,"correct":true,"confidence":3},{"trial_n":39,"n_dots":3.65,"target":"left","response":"left","rt":355.70000004768,"correct":true,"confidence":5},{"trial_n":40,"n_dots":3.55,"target":"right","response":"right","rt":1803.2999999523,"correct":true,"confidence":2},{"trial_n":41,"n_dots":3.55,"target":"right","response":"right","rt":952,"correct":true,"confidence":3},{"trial_n":42,"n_dots":3.45,"target":"right","response":"right","rt":809.60000002384,"correct":true,"confidence":3},{"trial_n":43,"n_dots":3.45,"target":"right","response":"right","rt":862.40000009537,"correct":true,"confidence":4},{"trial_n":44,"n_dots":3.35,"target":"right","response":"right","rt":881.89999997616,"correct":true,"confidence":4},{"trial_n":45,"n_dots":3.35,"target":"left","response":"left","rt":488.40000009537,"correct":true,"confidence":3},{"trial_n":46,"n_dots":3.25,"target":"left","response":"left","rt":404.70000004768,"correct":true,"confidence":5},{"trial_n":47,"n_dots":3.25,"target":"left","response":"left","rt":341.10000002384,"correct":true,"confidence":4},{"trial_n":48,"n_dots":3.15,"target":"left","response":"left","rt":325.09999990463,"correct":true,"confidence":5},{"trial_n":49,"n_dots":3.15,"target":"right","response":"left","rt":1705.7999999523,"correct":false,"confidence":3},{"trial_n":50,"n_dots":3.25,"target":"left","response":"left","rt":303.10000002384,"correct":true,"confidence":5},{"trial_n":51,"n_dots":3.25,"target":"right","response":"left","rt":320,"correct":false,"confidence":5},{"trial_n":52,"n_dots":3.35,"target":"left","response":"left","rt":680.60000002384,"correct":true,"confidence":4},{"trial_n":53,"n_dots":3.35,"target":"right","response":"right","rt":571.20000004768,"correct":true,"confidence":4},{"trial_n":54,"n_dots":3.25,"target":"left","response":"right","rt":1355.3999999762,"correct":false,"confidence":2},{"trial_n":55,"n_dots":3.35,"target":"right","response":"right","rt":360,"correct":true,"confidence":3},{"trial_n":56,"n_dots":3.35,"target":"right","response":"right","rt":319.79999995232,"correct":true,"confidence":3},{"trial_n":57,"n_dots":3.25,"target":"left","response":"left","rt":273.39999997616,"correct":true,"confidence":6},{"trial_n":58,"n_dots":3.25,"target":"right","response":"left","rt":1227.8999999762,"correct":false,"confidence":5},{"trial_n":59,"n_dots":3.35,"target":"right","response":"right","rt":1056.1000000238,"correct":true,"confidence":3},{"trial_n":60,"n_dots":3.35,"target":"right","response":"left","rt":338.60000002384,"correct":false,"confidence":5},{"trial_n":61,"n_dots":3.45,"target":"right","response":"left","rt":886.5,"correct":false,"confidence":3},{"trial_n":62,"n_dots":3.55,"target":"left","response":"left","rt":254.60000002384,"correct":true,"confidence":5},{"trial_n":63,"n_dots":3.55,"target":"right","response":"right","rt":463.20000004768,"correct":true,"confidence":5},{"trial_n":64,"n_dots":3.45,"target":"right","response":"right","rt":284.40000009537,"correct":true,"confidence":6},{"trial_n":65,"n_dots":3.45,"target":"right","response":"right","rt":286.29999995232,"correct":true,"confidence":5},{"trial_n":66,"n_dots":3.35,"target":"left","response":"left","rt":281.5,"correct":true,"confidence":4},{"trial_n":67,"n_dots":3.35,"target":"right","response":"right","rt":277.59999990463,"correct":true,"confidence":5},{"trial_n":68,"n_dots":3.25,"target":"right","response":"right","rt":320.79999995232,"correct":true,"confidence":5},{"trial_n":69,"n_dots":3.25,"target":"left","response":"left","rt":268.69999992847,"correct":true,"confidence":5},{"trial_n":70,"n_dots":3.15,"target":"right","response":"right","rt":322.39999997616,"correct":true,"confidence":6},{"trial_n":71,"n_dots":3.15,"target":"left","response":"left","rt":327.69999992847,"correct":true,"confidence":4},{"trial_n":72,"n_dots":3.05,"target":"right","response":"right","rt":634.60000002384,"correct":true,"confidence":5},{"trial_n":73,"n_dots":3.05,"target":"left","response":"left","rt":258.09999990463,"correct":true,"confidence":5},{"trial_n":74,"n_dots":2.95,"target":"left","response":"right","rt":353.89999997616,"correct":false,"confidence":5},{"trial_n":75,"n_dots":3.05,"target":"left","response":"left","rt":356.30000007153,"correct":true,"confidence":6},{"trial_n":76,"n_dots":3.05,"target":"right","response":"right","rt":1471,"correct":true,"confidence":3},{"trial_n":77,"n_dots":2.95,"target":"left","response":"left","rt":914.69999992847,"correct":true,"confidence":4},{"trial_n":78,"n_dots":2.95,"target":"right","response":"right","rt":464.69999992847,"correct":true,"confidence":4},{"trial_n":79,"n_dots":2.85,"target":"left","response":"right","rt":1737.1999999285,"correct":false,"confidence":3},{"trial_n":80,"n_dots":2.95,"target":"left","response":"left","rt":552,"correct":true,"confidence":3},{"trial_n":81,"n_dots":2.95,"target":"left","response":"right","rt":2193.1000000238,"correct":false,"confidence":2},{"trial_n":82,"n_dots":3.05,"target":"left","response":"left","rt":713.80000007153,"correct":true,"confidence":2},{"trial_n":83,"n_dots":3.05,"target":"right","response":"right","rt":879.5,"correct":true,"confidence":3},{"trial_n":84,"n_dots":2.95,"target":"right","response":"right","rt":298.19999992847,"correct":true,"confidence":4},{"trial_n":85,"n_dots":2.95,"target":"right","response":"right","rt":296.80000007153,"correct":true,"confidence":4},{"trial_n":86,"n_dots":2.85,"target":"left","response":"right","rt":1654.7000000477,"correct":false,"confidence":4},{"trial_n":87,"n_dots":2.95,"target":"right","response":"left","rt":877.40000009537,"correct":false,"confidence":3},{"trial_n":88,"n_dots":3.05,"target":"left","response":"left","rt":2801.1000000238,"correct":true,"confidence":3},{"trial_n":89,"n_dots":3.05,"target":"left","response":"left","rt":351.10000002384,"correct":true,"confidence":5},{"trial_n":90,"n_dots":2.95,"target":"left","response":"right","rt":984.09999990463,"correct":false,"confidence":5},{"trial_n":91,"n_dots":3.05,"target":"right","response":"right","rt":620.5,"correct":true,"confidence":5},{"trial_n":92,"n_dots":3.05,"target":"left","response":"right","rt":797.80000007153,"correct":false,"confidence":3},{"trial_n":93,"n_dots":3.15,"target":"left","response":"left","rt":335.19999992847,"correct":true,"confidence":5},{"trial_n":94,"n_dots":3.15,"target":"right","response":"right","rt":1082.6000000238,"correct":true,"confidence":4},{"trial_n":95,"n_dots":3.05,"target":"left","response":"left","rt":357.30000007153,"correct":true,"confidence":4},{"trial_n":96,"n_dots":3.05,"target":"right","response":"right","rt":613.89999997616,"correct":true,"confidence":4},{"trial_n":97,"n_dots":2.95,"target":"left","response":"left","rt":1215.5,"correct":true,"confidence":3},{"trial_n":98,"n_dots":2.95,"target":"left","response":"left","rt":506.79999995232,"correct":true,"confidence":3},{"trial_n":99,"n_dots":2.85,"target":"right","response":"right","rt":441.29999995232,"correct":true,"confidence":4},{"trial_n":100,"n_dots":2.85,"target":"right","response":"left","rt":268.19999992847,"correct":false,"confidence":5},{"trial_n":101,"n_dots":2.95,"target":"left","response":"right","rt":1430.6000000238,"correct":false,"confidence":5},{"trial_n":102,"n_dots":3.05,"target":"right","response":"right","rt":490.60000002384,"correct":true,"confidence":4},{"trial_n":103,"n_dots":3.05,"target":"right","response":"right","rt":303,"correct":true,"confidence":5},{"trial_n":104,"n_dots":2.95,"target":"left","response":"right","rt":743.79999995232,"correct":false,"confidence":5},{"trial_n":105,"n_dots":3.05,"target":"right","response":"right","rt":1388.7000000477,"correct":true,"confidence":4},{"trial_n":106,"n_dots":3.05,"target":"left","response":"left","rt":346,"correct":true,"confidence":4},{"trial_n":107,"n_dots":2.95,"target":"left","response":"right","rt":1636.2000000477,"correct":false,"confidence":3},{"trial_n":108,"n_dots":3.05,"target":"left","response":"left","rt":250.39999997616,"correct":true,"confidence":5},{"trial_n":109,"n_dots":3.05,"target":"right","response":"left","rt":3103.2000000477,"correct":false,"confidence":1},{"trial_n":110,"n_dots":3.15,"target":"right","response":"left","rt":1274.7999999523,"correct":false,"confidence":1},{"trial_n":111,"n_dots":3.25,"target":"left","response":"right","rt":1769.1000000238,"correct":false,"confidence":3},{"trial_n":112,"n_dots":3.35,"target":"left","response":"left","rt":516.69999992847,"correct":true,"confidence":5},{"trial_n":113,"n_dots":3.35,"target":"right","response":"right","rt":1122.8999999762,"correct":true,"confidence":3},{"trial_n":114,"n_dots":3.25,"target":"left","response":"left","rt":310.10000002384,"correct":true,"confidence":4},{"trial_n":115,"n_dots":3.25,"target":"right","response":"right","rt":712.39999997616,"correct":true,"confidence":4},{"trial_n":116,"n_dots":3.15,"target":"left","response":"left","rt":285.60000002384,"correct":true,"confidence":4},{"trial_n":117,"n_dots":3.15,"target":"right","response":"right","rt":804.70000004768,"correct":true,"confidence":2},{"trial_n":118,"n_dots":3.05,"target":"right","response":"right","rt":868.29999995232,"correct":true,"confidence":2},{"trial_n":119,"n_dots":3.05,"target":"right","response":"right","rt":962.29999995232,"correct":true,"confidence":2},{"trial_n":120,"n_dots":2.95,"target":"right","response":"right","rt":309,"correct":true,"confidence":4},{"trial_n":121,"n_dots":2.95,"target":"left","response":"left","rt":596.29999995232,"correct":true,"confidence":3},{"trial_n":122,"n_dots":2.85,"target":"left","response":"left","rt":792.5,"correct":true,"confidence":2},{"trial_n":123,"n_dots":2.85,"target":"left","response":"right","rt":936.30000007153,"correct":false,"confidence":2},{"trial_n":124,"n_dots":2.95,"target":"left","response":"left","rt":304.39999997616,"correct":true,"confidence":4},{"trial_n":125,"n_dots":2.95,"target":"left","response":"left","rt":1890.8999999762,"correct":true,"confidence":3},{"trial_n":126,"n_dots":2.85,"target":"right","response":"right","rt":1337.3999999762,"correct":true,"confidence":3},{"trial_n":127,"n_dots":2.85,"target":"left","response":"right","rt":293.60000002384,"correct":false,"confidence":3},{"trial_n":128,"n_dots":2.95,"target":"right","response":"right","rt":345.10000002384,"correct":true,"confidence":4},{"trial_n":129,"n_dots":2.95,"target":"left","response":"left","rt":878,"correct":true,"confidence":3},{"trial_n":130,"n_dots":2.85,"target":"left","response":"right","rt":423.10000002384,"correct":false,"confidence":3},{"trial_n":131,"n_dots":2.95,"target":"left","response":"right","rt":1657.7999999523,"correct":false,"confidence":2},{"trial_n":132,"n_dots":3.05,"target":"left","response":"left","rt":265.79999995232,"correct":true,"confidence":4},{"trial_n":133,"n_dots":3.05,"target":"right","response":"right","rt":149.89999997616,"correct":true,"confidence":4},{"trial_n":134,"n_dots":2.95,"target":"right","response":"right","rt":1004.1000000238,"correct":true,"confidence":3},{"trial_n":135,"n_dots":2.95,"target":"left","response":"right","rt":1636.7999999523,"correct":false,"confidence":3},{"trial_n":136,"n_dots":3.05,"target":"right","response":"right","rt":258.10000002384,"correct":true,"confidence":5},{"trial_n":137,"n_dots":3.05,"target":"left","response":"right","rt":908.79999995232,"correct":false,"confidence":5},{"trial_n":138,"n_dots":3.15,"target":"left","response":"right","rt":1230.6999999285,"correct":false,"confidence":3},{"trial_n":139,"n_dots":3.25,"target":"right","response":"left","rt":2312.5,"correct":false,"confidence":2},{"trial_n":140,"n_dots":3.35,"target":"right","response":"right","rt":1454.3999999762,"correct":true,"confidence":2},{"trial_n":141,"n_dots":3.35,"target":"left","response":"right","rt":1967.3999999762,"correct":false,"confidence":2},{"trial_n":142,"n_dots":3.45,"target":"right","response":"right","rt":576.90000009537,"correct":true,"confidence":2},{"trial_n":143,"n_dots":3.45,"target":"right","response":"right","rt":273.40000009537,"correct":true,"confidence":4},{"trial_n":144,"n_dots":3.35,"target":"right","response":"right","rt":1162.4000000954,"correct":true,"confidence":3},{"trial_n":145,"n_dots":3.35,"target":"left","response":"right","rt":1109.8999999762,"correct":false,"confidence":2},{"trial_n":146,"n_dots":3.45,"target":"left","response":"left","rt":547.5,"correct":true,"confidence":2},{"trial_n":147,"n_dots":3.45,"target":"right","response":"right","rt":664.10000002384,"correct":true,"confidence":2},{"trial_n":148,"n_dots":3.35,"target":"left","response":"right","rt":613.69999992847,"correct":false,"confidence":2},{"trial_n":149,"n_dots":3.45,"target":"right","response":"left","rt":1205.3999999762,"correct":false,"confidence":2},{"trial_n":150,"n_dots":3.55,"target":"left","response":"left","rt":2128.5,"correct":true,"confidence":2},{"trial_n":151,"n_dots":3.55,"target":"left","response":"right","rt":575.5,"correct":false,"confidence":3},{"trial_n":152,"n_dots":3.65,"target":"left","response":"left","rt":947.59999990463,"correct":true,"confidence":3},{"trial_n":153,"n_dots":3.65,"target":"right","response":"right","rt":2658.7000000477,"correct":true,"confidence":3},{"trial_n":154,"n_dots":3.55,"target":"right","response":"right","rt":1171.3000000715,"correct":true,"confidence":3},{"trial_n":155,"n_dots":3.55,"target":"left","response":"right","rt":588.79999995232,"correct":false,"confidence":2},{"trial_n":156,"n_dots":3.65,"target":"left","response":"left","rt":283.10000002384,"correct":true,"confidence":4},{"trial_n":157,"n_dots":3.65,"target":"right","response":"right","rt":315.10000002384,"correct":true,"confidence":5},{"trial_n":158,"n_dots":3.55,"target":"right","response":"right","rt":616.60000002384,"correct":true,"confidence":5},{"trial_n":159,"n_dots":3.55,"target":"left","response":"left","rt":1166.0999999046,"correct":true,"confidence":3},{"trial_n":160,"n_dots":3.45,"target":"right","response":"right","rt":219.70000004768,"correct":true,"confidence":2},{"trial_n":161,"n_dots":3.45,"target":"left","response":"right","rt":357.69999992847,"correct":false,"confidence":4},{"trial_n":162,"n_dots":3.55,"target":"left","response":"left","rt":835.60000002384,"correct":true,"confidence":3},{"trial_n":163,"n_dots":3.55,"target":"left","response":"right","rt":297.59999990463,"correct":false,"confidence":4},{"trial_n":164,"n_dots":3.65,"target":"right","response":"right","rt":873,"correct":true,"confidence":4},{"trial_n":165,"n_dots":3.65,"target":"left","response":"left","rt":279.29999995232,"correct":true,"confidence":4},{"trial_n":166,"n_dots":3.55,"target":"right","response":"right","rt":299.79999995232,"correct":true,"confidence":5},{"trial_n":167,"n_dots":3.55,"target":"right","response":"right","rt":451.89999997616,"correct":true,"confidence":5},{"trial_n":168,"n_dots":3.45,"target":"left","response":"left","rt":360.10000002384,"correct":true,"confidence":3},{"trial_n":169,"n_dots":3.45,"target":"left","response":"right","rt":227.29999995232,"correct":false,"confidence":3},{"trial_n":170,"n_dots":3.55,"target":"right","response":"right","rt":330.80000007153,"correct":true,"confidence":5},{"trial_n":171,"n_dots":3.55,"target":"right","response":"right","rt":188.89999997616,"correct":true,"confidence":5},{"trial_n":172,"n_dots":3.45,"target":"right","response":"right","rt":157.70000004768,"correct":true,"confidence":5},{"trial_n":173,"n_dots":3.45,"target":"right","response":"right","rt":298.19999992847,"correct":true,"confidence":4},{"trial_n":174,"n_dots":3.35,"target":"left","response":"left","rt":1271.2999999523,"correct":true,"confidence":2},{"trial_n":175,"n_dots":3.35,"target":"right","response":"right","rt":240.09999990463,"correct":true,"confidence":4},{"trial_n":176,"n_dots":3.25,"target":"right","response":"right","rt":240.39999997616,"correct":true,"confidence":3},{"trial_n":177,"n_dots":3.25,"target":"right","response":"right","rt":137.60000002384,"correct":true,"confidence":5},{"trial_n":178,"n_dots":3.15,"target":"left","response":"left","rt":658.29999995232,"correct":true,"confidence":2},{"trial_n":179,"n_dots":3.15,"target":"left","response":"left","rt":297.70000004768,"correct":true,"confidence":3},{"trial_n":180,"n_dots":3.05,"target":"right","response":"right","rt":289.40000009537,"correct":true,"confidence":3},{"trial_n":181,"n_dots":3.05,"target":"left","response":"left","rt":373.39999997616,"correct":true,"confidence":3},{"trial_n":182,"n_dots":2.95,"target":"right","response":"right","rt":320.29999995232,"correct":true,"confidence":3},{"trial_n":183,"n_dots":2.95,"target":"left","response":"left","rt":702.5,"correct":true,"confidence":2},{"trial_n":184,"n_dots":2.85,"target":"left","response":"right","rt":277.70000004768,"correct":false,"confidence":3},{"trial_n":185,"n_dots":2.95,"target":"left","response":"right","rt":568.10000002384,"correct":false,"confidence":3},{"trial_n":186,"n_dots":3.05,"target":"right","response":"right","rt":283.5,"correct":true,"confidence":4},{"trial_n":187,"n_dots":3.05,"target":"left","response":"right","rt":244.19999992847,"correct":false,"confidence":5},{"trial_n":188,"n_dots":3.15,"target":"left","response":"left","rt":382.5,"correct":true,"confidence":3},{"trial_n":189,"n_dots":3.15,"target":"left","response":"right","rt":645.19999992847,"correct":false,"confidence":3},{"trial_n":190,"n_dots":3.25,"target":"left","response":"right","rt":903.39999997616,"correct":false,"confidence":2},{"trial_n":191,"n_dots":3.35,"target":"left","response":"right","rt":819,"correct":false,"confidence":3},{"trial_n":192,"n_dots":3.45,"target":"right","response":"right","rt":529.40000009537,"correct":true,"confidence":4},{"trial_n":193,"n_dots":3.45,"target":"right","response":"right","rt":692.5,"correct":true,"confidence":3},{"trial_n":194,"n_dots":3.35,"target":"right","response":"right","rt":1308.3999999762,"correct":true,"confidence":3}]