[{"trial_n":1,"n_dots":4.25,"target":"right","response":"right","rt":6785,"correct":true,"confidence":-1},{"trial_n":2,"n_dots":4.25,"target":"left","response":"left","rt":791,"correct":true,"confidence":-1},{"trial_n":3,"n_dots":3.85,"target":"right","response":"right","rt":1006,"correct":true,"confidence":-1},{"trial_n":4,"n_dots":3.85,"target":"right","response":"right","rt":668,"correct":true,"confidence":-1},{"trial_n":5,"n_dots":3.45,"target":"left","response":"right","rt":966.99999999997,"correct":false,"confidence":-1},{"trial_n":6,"n_dots":3.85,"target":"left","response":"left","rt":478,"correct":true,"confidence":-1},{"trial_n":7,"n_dots":3.85,"target":"left","response":"left","rt":505,"correct":true,"confidence":-1},{"trial_n":8,"n_dots":3.65,"target":"left","response":"right","rt":508,"correct":false,"confidence":-1},{"trial_n":9,"n_dots":3.85,"target":"right","response":"right","rt":594,"correct":true,"confidence":-1},{"trial_n":10,"n_dots":3.85,"target":"left","response":"left","rt":432,"correct":true,"confidence":-1},{"trial_n":11,"n_dots":3.65,"target":"right","response":"left","rt":963,"correct":false,"confidence":-1},{"trial_n":12,"n_dots":3.85,"target":"right","response":"right","rt":459,"correct":true,"confidence":-1},{"trial_n":13,"n_dots":3.85,"target":"left","response":"left","rt":469,"correct":true,"confidence":-1},{"trial_n":14,"n_dots":3.75,"target":"right","response":"right","rt":414,"correct":true,"confidence":-1},{"trial_n":15,"n_dots":3.75,"target":"left","response":"left","rt":430,"correct":true,"confidence":-1},{"trial_n":16,"n_dots":3.65,"target":"right","response":"right","rt":415,"correct":true,"confidence":-1},{"trial_n":17,"n_dots":3.65,"target":"left","response":"left","rt":403.00000000003,"correct":true,"confidence":-1},{"trial_n":18,"n_dots":3.55,"target":"right","response":"right","rt":388,"correct":true,"confidence":-1},{"trial_n":19,"n_dots":3.55,"target":"left","response":"left","rt":372.99999999997,"correct":true,"confidence":-1},{"trial_n":20,"n_dots":3.45,"target":"right","response":"right","rt":418,"correct":true,"confidence":-1},{"trial_n":21,"n_dots":3.45,"target":"left","response":"left","rt":523,"correct":true,"confidence":-1},{"trial_n":22,"n_dots":3.35,"target":"left","response":"left","rt":356,"correct":true,"confidence":-1},{"trial_n":23,"n_dots":3.35,"target":"right","response":"left","rt":390.00000000003,"correct":false,"confidence":-1},{"trial_n":24,"n_dots":3.45,"target":"left","response":"right","rt":717,"correct":false,"confidence":-1},{"trial_n":25,"n_dots":3.55,"target":"right","response":"left","rt":359,"correct":false,"confidence":-1},{"trial_n":26,"n_dots":3.65,"target":"right","response":"right","rt":567,"correct":true,"confidence":-1},{"trial_n":27,"n_dots":3.65,"target":"left","response":"left","rt":399,"correct":true,"confidence":4},{"trial_n":28,"n_dots":3.55,"target":"right","response":"right","rt":1117,"correct":true,"confidence":5},{"trial_n":29,"n_dots":3.55,"target":"right","response":"left","rt":953,"correct":false,"confidence":3},{"trial_n":30,"n_dots":3.65,"target":"left","response":"right","rt":834,"correct":false,"confidence":4},{"trial_n":31,"n_dots":3.75,"target":"left","response":"left","rt":1756,"correct":true,"confidence":3},{"trial_n":32,"n_dots":3.75,"target":"right","response":"right","rt":409,"correct":true,"confidence":5},{"trial_n":33,"n_dots":3.65,"target":"left","response":"left","rt":702,"correct":true,"confidence":4},{"trial_n":34,"n_dots":3.65,"target":"right","response":"right","rt":642,"correct":true,"confidence":5},{"trial_n":35,"n_dots":3.55,"target":"right","response":"right","rt":943,"correct":true,"confidence":4},{"trial_n":36,"n_dots":3.55,"target":"right","response":"left","rt":984,"correct":false,"confidence":2},{"trial_n":37,"n_dots":3.65,"target":"right","response":"right","rt":747,"correct":true,"confidence":3},{"trial_n":38,"n_dots":3.65,"target":"left","response":"left","rt":835,"correct":true,"confidence":5},{"trial_n":39,"n_dots":3.55,"target":"right","response":"right","rt":619,"correct":true,"confidence":5},{"trial_n":40,"n_dots":3.55,"target":"right","response":"right","rt":551,"correct":true,"confidence":5},{"trial_n":41,"n_dots":3.45,"target":"left","response":"left","rt":723.00000000006,"correct":true,"confidence":4},{"trial_n":42,"n_dots":3.45,"target":"left","response":"left","rt":1266,"correct":true,"confidence":1},{"trial_n":43,"n_dots":3.35,"target":"left","response":"right","rt":863.99999999994,"correct":false,"confidence":2},{"trial_n":44,"n_dots":3.45,"target":"left","response":"left","rt":592,"correct":true,"confidence":6},{"trial_n":45,"n_dots":3.45,"target":"left","response":"left","rt":1365,"correct":true,"confidence":3},{"trial_n":46,"n_dots":3.35,"target":"right","response":"right","rt":439,"correct":true,"confidence":5},{"trial_n":47,"n_dots":3.35,"target":"right","response":"right","rt":444,"correct":true,"confidence":4},{"trial_n":48,"n_dots":3.25,"target":"right","response":"right","rt":911,"correct":true,"confidence":2},{"trial_n":49,"n_dots":3.25,"target":"right","response":"left","rt":617.00000000006,"correct":false,"confidence":4},{"trial_n":50,"n_dots":3.35,"target":"right","response":"right","rt":1641,"correct":true,"confidence":1},{"trial_n":51,"n_dots":3.35,"target":"right","response":"right","rt":594.99999999994,"correct":true,"confidence":4},{"trial_n":52,"n_dots":3.25,"target":"right","response":"right","rt":1191,"correct":true,"confidence":2},{"trial_n":53,"n_dots":3.25,"target":"right","response":"left","rt":612,"correct":false,"confidence":1},{"trial_n":54,"n_dots":3.35,"target":"left","response":"left","rt":1393,"correct":true,"confidence":3},{"trial_n":55,"n_dots":3.35,"target":"right","response":"left","rt":934,"correct":false,"confidence":3},{"trial_n":56,"n_dots":3.45,"target":"right","response":"right","rt":659,"correct":true,"confidence":3},{"trial_n":57,"n_dots":3.45,"target":"right","response":"right","rt":785,"correct":true,"confidence":4},{"trial_n":58,"n_dots":3.35,"target":"left","response":"left","rt":1673,"correct":true,"confidence":1},{"trial_n":59,"n_dots":3.35,"target":"left","response":"left","rt":950,"correct":true,"confidence":4},{"trial_n":60,"n_dots":3.25,"target":"right","response":"left","rt":1793,"correct":false,"confidence":4},{"trial_n":61,"n_dots":3.35,"target":"right","response":"right","rt":585,"correct":true,"confidence":4},{"trial_n":62,"n_dots":3.35,"target":"left","response":"left","rt":1179,"correct":true,"confidence":5},{"trial_n":63,"n_dots":3.25,"target":"left","response":"left","rt":2725,"correct":true,"confidence":1},{"trial_n":64,"n_dots":3.25,"target":"right","response":"right","rt":472,"correct":true,"confidence":4},{"trial_n":65,"n_dots":3.15,"target":"right","response":"right","rt":1467.9999999999,"correct":true,"confidence":1},{"trial_n":66,"n_dots":3.15,"target":"left","response":"left","rt":1022.9999999999,"correct":true,"confidence":2},{"trial_n":67,"n_dots":3.05,"target":"right","response":"right","rt":1072,"correct":true,"confidence":2},{"trial_n":68,"n_dots":3.05,"target":"left","response":"left","rt":575.99999999994,"correct":true,"confidence":2},{"trial_n":69,"n_dots":2.95,"target":"left","response":"left","rt":548.99999999994,"correct":true,"confidence":4},{"trial_n":70,"n_dots":2.95,"target":"left","response":"left","rt":1838,"correct":true,"confidence":3},{"trial_n":71,"n_dots":2.85,"target":"left","response":"left","rt":665.00000000006,"correct":true,"confidence":2},{"trial_n":72,"n_dots":2.85,"target":"left","response":"left","rt":745,"correct":true,"confidence":4},{"trial_n":73,"n_dots":2.75,"target":"left","response":"right","rt":526,"correct":false,"confidence":3},{"trial_n":74,"n_dots":2.85,"target":"right","response":"right","rt":2584.9999999999,"correct":true,"confidence":1},{"trial_n":75,"n_dots":2.85,"target":"left","response":"right","rt":797.00000000006,"correct":false,"confidence":4},{"trial_n":76,"n_dots":2.95,"target":"right","response":"right","rt":596.99999999994,"correct":true,"confidence":5},{"trial_n":77,"n_dots":2.95,"target":"left","response":"right","rt":2084.9999999999,"correct":false,"confidence":4},{"trial_n":78,"n_dots":3.05,"target":"right","response":"right","rt":991,"correct":true,"confidence":3},{"trial_n":79,"n_dots":3.05,"target":"left","response":"left","rt":1263.0000000001,"correct":true,"confidence":3},{"trial_n":80,"n_dots":2.95,"target":"left","response":"left","rt":568,"correct":true,"confidence":4},{"trial_n":81,"n_dots":2.95,"target":"left","response":"left","rt":1325,"correct":true,"confidence":3},{"trial_n":82,"n_dots":2.85,"target":"left","response":"right","rt":1432,"correct":false,"confidence":2},{"trial_n":83,"n_dots":2.95,"target":"left","response":"right","rt":649,"correct":false,"confidence":2},{"trial_n":84,"n_dots":3.05,"target":"right","response":"right","rt":1201.0000000001,"correct":true,"confidence":5},{"trial_n":85,"n_dots":3.05,"target":"right","response":"right","rt":995,"correct":true,"confidence":4},{"trial_n":86,"n_dots":2.95,"target":"left","response":"left","rt":963,"correct":true,"confidence":6},{"trial_n":87,"n_dots":2.95,"target":"left","response":"left","rt":882,"correct":true,"confidence":5},{"trial_n":88,"n_dots":2.85,"target":"left","response":"left","rt":1291,"correct":true,"confidence":5},{"trial_n":89,"n_dots":2.85,"target":"left","response":"left","rt":900,"correct":true,"confidence":4},{"trial_n":90,"n_dots":2.75,"target":"right","response":"left","rt":975,"correct":false,"confidence":4},{"trial_n":91,"n_dots":2.85,"target":"left","response":"left","rt":803,"correct":true,"confidence":4},{"trial_n":92,"n_dots":2.85,"target":"right","response":"right","rt":519,"correct":true,"confidence":4},{"trial_n":93,"n_dots":2.75,"target":"left","response":"left","rt":1352,"correct":true,"confidence":4},{"trial_n":94,"n_dots":2.75,"target":"right","response":"right","rt":487,"correct":true,"confidence":6},{"trial_n":95,"n_dots":2.65,"target":"right","response":"right","rt":461,"correct":true,"confidence":6},{"trial_n":96,"n_dots":2.65,"target":"right","response":"left","rt":657,"correct":false,"confidence":2},{"trial_n":97,"n_dots":2.75,"target":"left","response":"left","rt":655.99999999988,"correct":true,"confidence":6},{"trial_n":98,"n_dots":2.75,"target":"right","response":"left","rt":1483.0000000001,"correct":false,"confidence":4},{"trial_n":99,"n_dots":2.85,"target":"left","response":"left","rt":507,"correct":true,"confidence":4},{"trial_n":100,"n_dots":2.85,"target":"right","response":"right","rt":466,"correct":true,"confidence":5},{"trial_n":101,"n_dots":2.75,"target":"right","response":"right","rt":1650,"correct":true,"confidence":3},{"trial_n":102,"n_dots":2.75,"target":"right","response":"right","rt":425,"correct":true,"confidence":5},{"trial_n":103,"n_dots":2.65,"target":"right","response":"right","rt":452,"correct":true,"confidence":4},{"trial_n":104,"n_dots":2.65,"target":"left","response":"right","rt":1072,"correct":false,"confidence":5},{"trial_n":105,"n_dots":2.75,"target":"left","response":"left","rt":537,"correct":true,"confidence":5},{"trial_n":106,"n_dots":2.75,"target":"right","response":"right","rt":484,"correct":true,"confidence":5},{"trial_n":107,"n_dots":2.65,"target":"left","response":"left","rt":515.00000000012,"correct":true,"confidence":5},{"trial_n":108,"n_dots":2.65,"target":"right","response":"right","rt":444,"correct":true,"confidence":5},{"trial_n":109,"n_dots":2.55,"target":"left","response":"left","rt":1069,"correct":true,"confidence":2},{"trial_n":110,"n_dots":2.55,"target":"left","response":"right","rt":1124,"correct":false,"confidence":2},{"trial_n":111,"n_dots":2.65,"target":"right","response":"right","rt":465.99999999988,"correct":true,"confidence":3},{"trial_n":112,"n_dots":2.65,"target":"right","response":"right","rt":476.99999999988,"correct":true,"confidence":4},{"trial_n":113,"n_dots":2.55,"target":"left","response":"right","rt":799,"correct":false,"confidence":5},{"trial_n":114,"n_dots":2.65,"target":"right","response":"right","rt":1327,"correct":true,"confidence":2},{"trial_n":115,"n_dots":2.65,"target":"left","response":"left","rt":768,"correct":true,"confidence":6},{"trial_n":116,"n_dots":2.55,"target":"left","response":"right","rt":842,"correct":false,"confidence":6},{"trial_n":117,"n_dots":2.65,"target":"left","response":"right","rt":1205,"correct":false,"confidence":3},{"trial_n":118,"n_dots":2.75,"target":"left","response":"right","rt":421.00000000012,"correct":false,"confidence":6},{"trial_n":119,"n_dots":2.85,"target":"right","response":"right","rt":639,"correct":true,"confidence":2},{"trial_n":120,"n_dots":2.85,"target":"left","response":"right","rt":1067,"correct":false,"confidence":2},{"trial_n":121,"n_dots":2.95,"target":"right","response":"right","rt":538,"correct":true,"confidence":4},{"trial_n":122,"n_dots":2.95,"target":"left","response":"right","rt":517,"correct":false,"confidence":5},{"trial_n":123,"n_dots":3.05,"target":"left","response":"left","rt":746,"correct":true,"confidence":1},{"trial_n":124,"n_dots":3.05,"target":"left","response":"right","rt":788,"correct":false,"confidence":3},{"trial_n":125,"n_dots":3.15,"target":"left","response":"right","rt":497,"correct":false,"confidence":4},{"trial_n":126,"n_dots":3.25,"target":"right","response":"right","rt":581,"correct":true,"confidence":4},{"trial_n":127,"n_dots":3.25,"target":"right","response":"right","rt":421.99999999988,"correct":true,"confidence":5},{"trial_n":128,"n_dots":3.15,"target":"left","response":"left","rt":494,"correct":true,"confidence":2},{"trial_n":129,"n_dots":3.15,"target":"right","response":"right","rt":1293,"correct":true,"confidence":4},{"trial_n":130,"n_dots":3.05,"target":"right","response":"right","rt":1474,"correct":true,"confidence":5},{"trial_n":131,"n_dots":3.05,"target":"right","response":"right","rt":829.00000000012,"correct":true,"confidence":5},{"trial_n":132,"n_dots":2.95,"target":"right","response":"right","rt":710,"correct":true,"confidence":5},{"trial_n":133,"n_dots":2.95,"target":"right","response":"right","rt":434,"correct":true,"confidence":5},{"trial_n":134,"n_dots":2.85,"target":"right","response":"right","rt":3856,"correct":true,"confidence":4},{"trial_n":135,"n_dots":2.85,"target":"left","response":"left","rt":848,"correct":true,"confidence":4},{"trial_n":136,"n_dots":2.75,"target":"right","response":"right","rt":939,"correct":true,"confidence":4},{"trial_n":137,"n_dots":2.75,"target":"right","response":"right","rt":496,"correct":true,"confidence":5},{"trial_n":138,"n_dots":2.65,"target":"right","response":"right","rt":470.00000000012,"correct":true,"confidence":5},{"trial_n":139,"n_dots":2.65,"target":"left","response":"left","rt":574,"correct":true,"confidence":5},{"trial_n":140,"n_dots":2.55,"target":"left","response":"left","rt":453,"correct":true,"confidence":4},{"trial_n":141,"n_dots":2.55,"target":"left","response":"left","rt":684,"correct":true,"confidence":4},{"trial_n":142,"n_dots":2.45,"target":"left","response":"left","rt":739,"correct":true,"confidence":1},{"trial_n":143,"n_dots":2.45,"target":"right","response":"right","rt":544,"correct":true,"confidence":1},{"trial_n":144,"n_dots":2.35,"target":"right","response":"right","rt":1054,"correct":true,"confidence":2},{"trial_n":145,"n_dots":2.35,"target":"left","response":"right","rt":1626.0000000001,"correct":false,"confidence":1},{"trial_n":146,"n_dots":2.45,"target":"left","response":"right","rt":575,"correct":false,"confidence":3},{"trial_n":147,"n_dots":2.55,"target":"right","response":"right","rt":408,"correct":true,"confidence":4},{"trial_n":148,"n_dots":2.55,"target":"right","response":"right","rt":403,"correct":true,"confidence":4},{"trial_n":149,"n_dots":2.45,"target":"right","response":"right","rt":699,"correct":true,"confidence":3},{"trial_n":150,"n_dots":2.45,"target":"right","response":"right","rt":3976,"correct":true,"confidence":2},{"trial_n":151,"n_dots":2.35,"target":"left","response":"right","rt":1163.9999999999,"correct":false,"confidence":5},{"trial_n":152,"n_dots":2.45,"target":"left","response":"left","rt":982,"correct":true,"confidence":4},{"trial_n":153,"n_dots":2.45,"target":"left","response":"right","rt":661.99999999988,"correct":false,"confidence":4},{"trial_n":154,"n_dots":2.55,"target":"left","response":"left","rt":482,"correct":true,"confidence":3},{"trial_n":155,"n_dots":2.55,"target":"left","response":"left","rt":510,"correct":true,"confidence":5},{"trial_n":156,"n_dots":2.45,"target":"left","response":"right","rt":567,"correct":false,"confidence":5},{"trial_n":157,"n_dots":2.55,"target":"left","response":"right","rt":627,"correct":false,"confidence":4},{"trial_n":158,"n_dots":2.65,"target":"right","response":"right","rt":1171.9999999999,"correct":true,"confidence":3},{"trial_n":159,"n_dots":2.65,"target":"right","response":"right","rt":336.00000000012,"correct":true,"confidence":3},{"trial_n":160,"n_dots":2.55,"target":"left","response":"left","rt":855,"correct":true,"confidence":5},{"trial_n":161,"n_dots":2.55,"target":"left","response":"right","rt":1342,"correct":false,"confidence":4},{"trial_n":162,"n_dots":2.65,"target":"left","response":"left","rt":372,"correct":true,"confidence":4},{"trial_n":163,"n_dots":2.65,"target":"right","response":"right","rt":1143,"correct":true,"confidence":3},{"trial_n":164,"n_dots":2.55,"target":"left","response":"left","rt":432,"correct":true,"confidence":3},{"trial_n":165,"n_dots":2.55,"target":"right","response":"right","rt":614,"correct":true,"confidence":4},{"trial_n":166,"n_dots":2.45,"target":"left","response":"right","rt":382,"correct":false,"confidence":4},{"trial_n":167,"n_dots":2.55,"target":"right","response":"right","rt":340.00000000012,"correct":true,"confidence":5},{"trial_n":168,"n_dots":2.55,"target":"right","response":"right","rt":322,"correct":true,"confidence":5},{"trial_n":169,"n_dots":2.45,"target":"right","response":"right","rt":750.99999999988,"correct":true,"confidence":4},{"trial_n":170,"n_dots":2.45,"target":"right","response":"right","rt":1060,"correct":true,"confidence":5},{"trial_n":171,"n_dots":2.35,"target":"right","response":"left","rt":442,"correct":false,"confidence":4},{"trial_n":172,"n_dots":2.45,"target":"right","response":"right","rt":431.99999999988,"correct":true,"confidence":5},{"trial_n":173,"n_dots":2.45,"target":"right","response":"right","rt":1132,"correct":true,"confidence":2},{"trial_n":174,"n_dots":2.35,"target":"right","response":"right","rt":425,"correct":true,"confidence":5},{"trial_n":175,"n_dots":2.35,"target":"left","response":"right","rt":493,"correct":false,"confidence":3},{"trial_n":176,"n_dots":2.45,"target":"right","response":"left","rt":539.99999999988,"correct":false,"confidence":5},{"trial_n":177,"n_dots":2.55,"target":"left","response":"left","rt":865.99999999988,"correct":true,"confidence":4},{"trial_n":178,"n_dots":2.55,"target":"left","response":"left","rt":392.00000000012,"correct":true,"confidence":6},{"trial_n":179,"n_dots":2.45,"target":"right","response":"left","rt":617.99999999988,"correct":false,"confidence":5},{"trial_n":180,"n_dots":2.55,"target":"left","response":"right","rt":456,"correct":false,"confidence":5},{"trial_n":181,"n_dots":2.65,"target":"left","response":"right","rt":628,"correct":false,"confidence":4},{"trial_n":182,"n_dots":2.75,"target":"left","response":"left","rt":429.99999999988,"correct":true,"confidence":4},{"trial_n":183,"n_dots":2.75,"target":"right","response":"right","rt":521.99999999988,"correct":true,"confidence":3},{"trial_n":184,"n_dots":2.65,"target":"left","response":"right","rt":692,"correct":false,"confidence":2},{"trial_n":185,"n_dots":2.75,"target":"left","response":"right","rt":441,"correct":false,"confidence":1},{"trial_n":186,"n_dots":2.85,"target":"left","response":"left","rt":558,"correct":true,"confidence":1},{"trial_n":187,"n_dots":2.85,"target":"left","response":"left","rt":772,"correct":true,"confidence":2},{"trial_n":188,"n_dots":2.75,"target":"right","response":"right","rt":631.99999999988,"correct":true,"confidence":2},{"trial_n":189,"n_dots":2.75,"target":"right","response":"right","rt":3431.9999999999,"correct":true,"confidence":2},{"trial_n":190,"n_dots":2.65,"target":"right","response":"right","rt":2107,"correct":true,"confidence":2},{"trial_n":191,"n_dots":2.65,"target":"left","response":"left","rt":690,"correct":true,"confidence":1},{"trial_n":192,"n_dots":2.55,"target":"right","response":"right","rt":957,"correct":true,"confidence":2},{"trial_n":193,"n_dots":2.55,"target":"right","response":"right","rt":1708,"correct":true,"confidence":1},{"trial_n":194,"n_dots":2.45,"target":"left","response":"left","rt":583,"correct":true,"confidence":3}]