[{"trial_n":1,"n_dots":4.25,"target":"right","response":"right","rt":2527.8000000119,"correct":true,"confidence":-1},{"trial_n":2,"n_dots":4.25,"target":"right","response":"right","rt":647.79999998212,"correct":true,"confidence":-1},{"trial_n":3,"n_dots":3.85,"target":"left","response":"left","rt":407.69999998808,"correct":true,"confidence":-1},{"trial_n":4,"n_dots":3.85,"target":"left","response":"right","rt":481.69999998808,"correct":false,"confidence":-1},{"trial_n":5,"n_dots":4.25,"target":"left","response":"left","rt":379.40000000596,"correct":true,"confidence":-1},{"trial_n":6,"n_dots":4.25,"target":"right","response":"right","rt":23.699999988079,"correct":true,"confidence":-1},{"trial_n":7,"n_dots":3.85,"target":"right","response":"left","rt":275,"correct":false,"confidence":-1},{"trial_n":8,"n_dots":4.05,"target":"left","response":"left","rt":115.69999998808,"correct":true,"confidence":-1},{"trial_n":9,"n_dots":4.05,"target":"left","response":"left","rt":730.30000001192,"correct":true,"confidence":-1},{"trial_n":10,"n_dots":3.85,"target":"right","response":"right","rt":1256.8000000119,"correct":true,"confidence":-1},{"trial_n":11,"n_dots":3.85,"target":"left","response":"right","rt":511.80000001192,"correct":false,"confidence":-1},{"trial_n":12,"n_dots":4.05,"target":"left","response":"left","rt":55.800000011921,"correct":true,"confidence":-1},{"trial_n":13,"n_dots":4.05,"target":"right","response":"right","rt":32.799999982119,"correct":true,"confidence":-1},{"trial_n":14,"n_dots":3.95,"target":"right","response":"right","rt":604.59999999404,"correct":true,"confidence":-1},{"trial_n":15,"n_dots":3.95,"target":"left","response":"left","rt":161.90000000596,"correct":true,"confidence":-1},{"trial_n":16,"n_dots":3.85,"target":"right","response":"right","rt":610.29999998212,"correct":true,"confidence":-1},{"trial_n":17,"n_dots":3.85,"target":"right","response":"right","rt":196.29999998212,"correct":true,"confidence":-1},{"trial_n":18,"n_dots":3.75,"target":"left","response":"left","rt":216.69999998808,"correct":true,"confidence":-1},{"trial_n":19,"n_dots":3.75,"target":"right","response":"right","rt":555.5,"correct":true,"confidence":-1},{"trial_n":20,"n_dots":3.65,"target":"right","response":"right","rt":33.09999999404,"correct":true,"confidence":-1},{"trial_n":21,"n_dots":3.65,"target":"left","response":"left","rt":12.59999999404,"correct":true,"confidence":-1},{"trial_n":22,"n_dots":3.55,"target":"right","response":"right","rt":224,"correct":true,"confidence":-1},{"trial_n":23,"n_dots":3.55,"target":"right","response":"right","rt":233.59999999404,"correct":true,"confidence":-1},{"trial_n":24,"n_dots":3.45,"target":"right","response":"right","rt":90.700000017881,"correct":true,"confidence":-1},{"trial_n":25,"n_dots":3.45,"target":"right","response":"right","rt":81.90000000596,"correct":true,"confidence":-1},{"trial_n":26,"n_dots":3.35,"target":"left","response":"left","rt":23.5,"correct":true,"confidence":-1},{"trial_n":27,"n_dots":3.35,"target":"right","response":"right","rt":697.59999999404,"correct":true,"confidence":5},{"trial_n":28,"n_dots":3.25,"target":"right","response":"right","rt":688.5,"correct":true,"confidence":4},{"trial_n":29,"n_dots":3.25,"target":"left","response":"left","rt":622.90000000596,"correct":true,"confidence":5},{"trial_n":30,"n_dots":3.15,"target":"right","response":"right","rt":11.300000011921,"correct":true,"confidence":5},{"trial_n":31,"n_dots":3.15,"target":"right","response":"right","rt":127.70000001788,"correct":true,"confidence":5},{"trial_n":32,"n_dots":3.05,"target":"right","response":"right","rt":1259.900000006,"correct":true,"confidence":5},{"trial_n":33,"n_dots":3.05,"target":"left","response":"right","rt":302.40000000596,"correct":false,"confidence":5},{"trial_n":34,"n_dots":3.15,"target":"right","response":"right","rt":168.30000001192,"correct":true,"confidence":5},{"trial_n":35,"n_dots":3.15,"target":"right","response":"right","rt":71.200000017881,"correct":true,"confidence":5},{"trial_n":36,"n_dots":3.05,"target":"left","response":"left","rt":133.19999998808,"correct":true,"confidence":4},{"trial_n":37,"n_dots":3.05,"target":"right","response":"right","rt":191.79999998212,"correct":true,"confidence":5},{"trial_n":38,"n_dots":2.95,"target":"left","response":"left","rt":95.5,"correct":true,"confidence":4},{"trial_n":39,"n_dots":2.95,"target":"right","response":"right","rt":58.299999982119,"correct":true,"confidence":5},{"trial_n":40,"n_dots":2.85,"target":"right","response":"right","rt":135.90000000596,"correct":true,"confidence":5},{"trial_n":41,"n_dots":2.85,"target":"right","response":"right","rt":194.80000001192,"correct":true,"confidence":5},{"trial_n":42,"n_dots":2.75,"target":"right","response":"left","rt":668.09999999404,"correct":false,"confidence":5},{"trial_n":43,"n_dots":2.85,"target":"right","response":"right","rt":186,"correct":true,"confidence":5},{"trial_n":44,"n_dots":2.85,"target":"right","response":"right","rt":636.20000001788,"correct":true,"confidence":4},{"trial_n":45,"n_dots":2.75,"target":"right","response":"right","rt":188.69999998808,"correct":true,"confidence":5},{"trial_n":46,"n_dots":2.75,"target":"left","response":"right","rt":437.5,"correct":false,"confidence":5},{"trial_n":47,"n_dots":2.85,"target":"right","response":"left","rt":240,"correct":false,"confidence":5},{"trial_n":48,"n_dots":2.95,"target":"left","response":"right","rt":983.30000001192,"correct":false,"confidence":5},{"trial_n":49,"n_dots":3.05,"target":"right","response":"right","rt":237.90000000596,"correct":true,"confidence":5},{"trial_n":50,"n_dots":3.05,"target":"left","response":"left","rt":81.699999988079,"correct":true,"confidence":6},{"trial_n":51,"n_dots":2.95,"target":"left","response":"left","rt":484.30000001192,"correct":true,"confidence":5},{"trial_n":52,"n_dots":2.95,"target":"right","response":"right","rt":89,"correct":true,"confidence":5},{"trial_n":53,"n_dots":2.85,"target":"left","response":"left","rt":487.29999998212,"correct":true,"confidence":5},{"trial_n":54,"n_dots":2.85,"target":"left","response":"left","rt":668.5,"correct":true,"confidence":5},{"trial_n":55,"n_dots":2.75,"target":"left","response":"left","rt":281.60000002384,"correct":true,"confidence":6},{"trial_n":56,"n_dots":2.75,"target":"left","response":"left","rt":477.20000001788,"correct":true,"confidence":6},{"trial_n":57,"n_dots":2.65,"target":"right","response":"left","rt":545,"correct":false,"confidence":5},{"trial_n":58,"n_dots":2.75,"target":"left","response":"left","rt":218.29999998212,"correct":true,"confidence":5},{"trial_n":59,"n_dots":2.75,"target":"left","response":"right","rt":328.79999998212,"correct":false,"confidence":5},{"trial_n":60,"n_dots":2.85,"target":"left","response":"left","rt":287.90000000596,"correct":true,"confidence":6},{"trial_n":61,"n_dots":2.85,"target":"left","response":"left","rt":502.09999999404,"correct":true,"confidence":5},{"trial_n":62,"n_dots":2.75,"target":"left","response":"left","rt":357.80000001192,"correct":true,"confidence":6},{"trial_n":63,"n_dots":2.75,"target":"right","response":"right","rt":321.29999998212,"correct":true,"confidence":5},{"trial_n":64,"n_dots":2.65,"target":"left","response":"left","rt":89.59999999404,"correct":true,"confidence":6},{"trial_n":65,"n_dots":2.65,"target":"left","response":"left","rt":249,"correct":true,"confidence":5},{"trial_n":66,"n_dots":2.55,"target":"right","response":"right","rt":391.09999999404,"correct":true,"confidence":5},{"trial_n":67,"n_dots":2.55,"target":"right","response":"left","rt":22.5,"correct":false,"confidence":6},{"trial_n":68,"n_dots":2.65,"target":"left","response":"right","rt":122.79999998212,"correct":false,"confidence":5},{"trial_n":69,"n_dots":2.75,"target":"right","response":"right","rt":48.700000017881,"correct":true,"confidence":5},{"trial_n":70,"n_dots":2.75,"target":"right","response":"left","rt":183,"correct":false,"confidence":5},{"trial_n":71,"n_dots":2.85,"target":"right","response":"right","rt":354,"correct":true,"confidence":5},{"trial_n":72,"n_dots":2.85,"target":"left","response":"left","rt":69.200000017881,"correct":true,"confidence":6},{"trial_n":73,"n_dots":2.75,"target":"right","response":"right","rt":179.79999998212,"correct":true,"confidence":5},{"trial_n":74,"n_dots":2.75,"target":"left","response":"right","rt":298.69999998808,"correct":false,"confidence":5},{"trial_n":75,"n_dots":2.85,"target":"right","response":"right","rt":129.29999998212,"correct":true,"confidence":6},{"trial_n":76,"n_dots":2.85,"target":"left","response":"left","rt":110,"correct":true,"confidence":6},{"trial_n":77,"n_dots":2.75,"target":"left","response":"left","rt":220.20000001788,"correct":true,"confidence":6},{"trial_n":78,"n_dots":2.75,"target":"right","response":"right","rt":966.79999998212,"correct":true,"confidence":4},{"trial_n":79,"n_dots":2.65,"target":"left","response":"right","rt":755.5,"correct":false,"confidence":5},{"trial_n":80,"n_dots":2.75,"target":"left","response":"left","rt":264.40000000596,"correct":true,"confidence":5},{"trial_n":81,"n_dots":2.75,"target":"right","response":"left","rt":280.5,"correct":false,"confidence":5},{"trial_n":82,"n_dots":2.85,"target":"left","response":"right","rt":181.59999999404,"correct":false,"confidence":5},{"trial_n":83,"n_dots":2.95,"target":"right","response":"right","rt":934.09999999404,"correct":true,"confidence":6},{"trial_n":84,"n_dots":2.95,"target":"right","response":"right","rt":855.79999998212,"correct":true,"confidence":6},{"trial_n":85,"n_dots":2.85,"target":"left","response":"left","rt":119.80000001192,"correct":true,"confidence":6},{"trial_n":86,"n_dots":2.85,"target":"left","response":"left","rt":136.90000000596,"correct":true,"confidence":6},{"trial_n":87,"n_dots":2.75,"target":"left","response":"left","rt":4.2000000178814,"correct":true,"confidence":6},{"trial_n":88,"n_dots":2.75,"target":"left","response":"left","rt":548.40000000596,"correct":true,"confidence":5},{"trial_n":89,"n_dots":2.65,"target":"left","response":"left","rt":741.19999998808,"correct":true,"confidence":5},{"trial_n":90,"n_dots":2.65,"target":"right","response":"left","rt":454.09999999404,"correct":false,"confidence":5},{"trial_n":91,"n_dots":2.75,"target":"right","response":"right","rt":829.5,"correct":true,"confidence":6},{"trial_n":92,"n_dots":2.75,"target":"left","response":"left","rt":523.80000001192,"correct":true,"confidence":5},{"trial_n":93,"n_dots":2.65,"target":"left","response":"right","rt":146.30000001192,"correct":false,"confidence":5},{"trial_n":94,"n_dots":2.75,"target":"right","response":"right","rt":828.5,"correct":true,"confidence":5},{"trial_n":95,"n_dots":2.75,"target":"right","response":"left","rt":276.80000001192,"correct":false,"confidence":5},{"trial_n":96,"n_dots":2.85,"target":"right","response":"right","rt":797.19999998808,"correct":true,"confidence":6},{"trial_n":97,"n_dots":2.85,"target":"left","response":"left","rt":393.5,"correct":true,"confidence":6},{"trial_n":98,"n_dots":2.75,"target":"left","response":"left","rt":464.90000000596,"correct":true,"confidence":6},{"trial_n":99,"n_dots":2.75,"target":"right","response":"right","rt":326.09999999404,"correct":true,"confidence":6},{"trial_n":100,"n_dots":2.65,"target":"left","response":"left","rt":238.69999998808,"correct":true,"confidence":5},{"trial_n":101,"n_dots":2.65,"target":"left","response":"left","rt":128.70000001788,"correct":true,"confidence":5},{"trial_n":102,"n_dots":2.55,"target":"left","response":"left","rt":770.90000000596,"correct":true,"confidence":5},{"trial_n":103,"n_dots":2.55,"target":"left","response":"right","rt":385.19999998808,"correct":false,"confidence":6},{"trial_n":104,"n_dots":2.65,"target":"right","response":"right","rt":770.69999998808,"correct":true,"confidence":6},{"trial_n":105,"n_dots":2.65,"target":"left","response":"left","rt":297.20000001788,"correct":true,"confidence":5},{"trial_n":106,"n_dots":2.55,"target":"right","response":"right","rt":204.09999999404,"correct":true,"confidence":6},{"trial_n":107,"n_dots":2.55,"target":"left","response":"left","rt":362.20000001788,"correct":true,"confidence":5},{"trial_n":108,"n_dots":2.45,"target":"right","response":"right","rt":139.40000000596,"correct":true,"confidence":6},{"trial_n":109,"n_dots":2.45,"target":"right","response":"right","rt":203.69999998808,"correct":true,"confidence":6},{"trial_n":110,"n_dots":2.35,"target":"right","response":"left","rt":39.199999988079,"correct":false,"confidence":6},{"trial_n":111,"n_dots":2.45,"target":"right","response":"right","rt":227.79999998212,"correct":true,"confidence":6},{"trial_n":112,"n_dots":2.45,"target":"right","response":"left","rt":234.09999999404,"correct":false,"confidence":5},{"trial_n":113,"n_dots":2.55,"target":"left","response":"right","rt":82.09999999404,"correct":false,"confidence":6},{"trial_n":114,"n_dots":2.65,"target":"left","response":"left","rt":681.30000001192,"correct":true,"confidence":5},{"trial_n":115,"n_dots":2.65,"target":"left","response":"right","rt":838.5,"correct":false,"confidence":6},{"trial_n":116,"n_dots":2.75,"target":"left","response":"left","rt":459,"correct":true,"confidence":5},{"trial_n":117,"n_dots":2.75,"target":"right","response":"right","rt":469.30000001192,"correct":true,"confidence":6},{"trial_n":118,"n_dots":2.65,"target":"right","response":"right","rt":461.09999999404,"correct":true,"confidence":6},{"trial_n":119,"n_dots":2.65,"target":"left","response":"left","rt":391.5,"correct":true,"confidence":6},{"trial_n":120,"n_dots":2.55,"target":"left","response":"left","rt":450.69999998808,"correct":true,"confidence":5},{"trial_n":121,"n_dots":2.55,"target":"right","response":"right","rt":465.09999999404,"correct":true,"confidence":5},{"trial_n":122,"n_dots":2.45,"target":"right","response":"right","rt":363.29999998212,"correct":true,"confidence":6},{"trial_n":123,"n_dots":2.45,"target":"left","response":"right","rt":573,"correct":false,"confidence":5},{"trial_n":124,"n_dots":2.55,"target":"right","response":"right","rt":433.69999998808,"correct":true,"confidence":6},{"trial_n":125,"n_dots":2.55,"target":"left","response":"left","rt":500.69999998808,"correct":true,"confidence":5},{"trial_n":126,"n_dots":2.45,"target":"left","response":"right","rt":333.40000000596,"correct":false,"confidence":6},{"trial_n":127,"n_dots":2.55,"target":"left","response":"left","rt":399.40000000596,"correct":true,"confidence":6},{"trial_n":128,"n_dots":2.55,"target":"left","response":"left","rt":498.90000000596,"correct":true,"confidence":6},{"trial_n":129,"n_dots":2.45,"target":"right","response":"right","rt":87.5,"correct":true,"confidence":6},{"trial_n":130,"n_dots":2.45,"target":"left","response":"right","rt":429.59999999404,"correct":false,"confidence":6},{"trial_n":131,"n_dots":2.55,"target":"right","response":"right","rt":206.80000001192,"correct":true,"confidence":6},{"trial_n":132,"n_dots":2.55,"target":"left","response":"right","rt":525,"correct":false,"confidence":5},{"trial_n":133,"n_dots":2.65,"target":"left","response":"left","rt":377.90000000596,"correct":true,"confidence":6},{"trial_n":134,"n_dots":2.65,"target":"right","response":"right","rt":745.60000002384,"correct":true,"confidence":5},{"trial_n":135,"n_dots":2.55,"target":"right","response":"right","rt":263.70000001788,"correct":true,"confidence":6},{"trial_n":136,"n_dots":2.55,"target":"right","response":"left","rt":834,"correct":false,"confidence":5},{"trial_n":137,"n_dots":2.65,"target":"left","response":"left","rt":519.20000001788,"correct":true,"confidence":6},{"trial_n":138,"n_dots":2.65,"target":"right","response":"right","rt":200.59999999404,"correct":true,"confidence":6},{"trial_n":139,"n_dots":2.55,"target":"left","response":"left","rt":265.09999999404,"correct":true,"confidence":6},{"trial_n":140,"n_dots":2.55,"target":"right","response":"right","rt":156.09999999404,"correct":true,"confidence":6},{"trial_n":141,"n_dots":2.45,"target":"left","response":"left","rt":461.80000001192,"correct":true,"confidence":5},{"trial_n":142,"n_dots":2.45,"target":"left","response":"left","rt":598.09999999404,"correct":true,"confidence":4},{"trial_n":143,"n_dots":2.35,"target":"right","response":"right","rt":212.60000002384,"correct":true,"confidence":6},{"trial_n":144,"n_dots":2.35,"target":"right","response":"right","rt":884.69999998808,"correct":true,"confidence":5},{"trial_n":145,"n_dots":2.25,"target":"right","response":"right","rt":459.70000001788,"correct":true,"confidence":5},{"trial_n":146,"n_dots":2.25,"target":"left","response":"right","rt":1134.1999999881,"correct":false,"confidence":6},{"trial_n":147,"n_dots":2.35,"target":"right","response":"right","rt":541.19999998808,"correct":true,"confidence":6},{"trial_n":148,"n_dots":2.35,"target":"right","response":"right","rt":118.59999999404,"correct":true,"confidence":6},{"trial_n":149,"n_dots":2.25,"target":"right","response":"right","rt":277.20000001788,"correct":true,"confidence":6},{"trial_n":150,"n_dots":2.25,"target":"left","response":"right","rt":454.19999998808,"correct":false,"confidence":5},{"trial_n":151,"n_dots":2.35,"target":"right","response":"right","rt":306.69999998808,"correct":true,"confidence":5},{"trial_n":152,"n_dots":2.35,"target":"left","response":"right","rt":539.5,"correct":false,"confidence":5},{"trial_n":153,"n_dots":2.45,"target":"left","response":"left","rt":756.20000001788,"correct":true,"confidence":5},{"trial_n":154,"n_dots":2.45,"target":"right","response":"right","rt":136.90000000596,"correct":true,"confidence":5},{"trial_n":155,"n_dots":2.35,"target":"right","response":"right","rt":129.5,"correct":true,"confidence":6},{"trial_n":156,"n_dots":2.35,"target":"right","response":"right","rt":402.29999998212,"correct":true,"confidence":6},{"trial_n":157,"n_dots":2.25,"target":"left","response":"right","rt":99.40000000596,"correct":false,"confidence":5},{"trial_n":158,"n_dots":2.35,"target":"right","response":"right","rt":254.40000000596,"correct":true,"confidence":6},{"trial_n":159,"n_dots":2.35,"target":"left","response":"left","rt":753.30000001192,"correct":true,"confidence":5},{"trial_n":160,"n_dots":2.25,"target":"left","response":"left","rt":630.90000000596,"correct":true,"confidence":5},{"trial_n":161,"n_dots":2.25,"target":"left","response":"left","rt":221.60000002384,"correct":true,"confidence":6},{"trial_n":162,"n_dots":2.15,"target":"right","response":"right","rt":275.69999998808,"correct":true,"confidence":5},{"trial_n":163,"n_dots":2.15,"target":"left","response":"left","rt":278.40000000596,"correct":true,"confidence":6},{"trial_n":164,"n_dots":2.05,"target":"left","response":"left","rt":426.90000000596,"correct":true,"confidence":6},{"trial_n":165,"n_dots":2.05,"target":"left","response":"left","rt":217.30000001192,"correct":true,"confidence":6},{"trial_n":166,"n_dots":1.95,"target":"left","response":"left","rt":385.5,"correct":true,"confidence":5},{"trial_n":167,"n_dots":1.95,"target":"left","response":"left","rt":294.29999998212,"correct":true,"confidence":6},{"trial_n":168,"n_dots":1.85,"target":"right","response":"right","rt":1030.5,"correct":true,"confidence":6},{"trial_n":169,"n_dots":1.85,"target":"right","response":"right","rt":902.90000000596,"correct":true,"confidence":5},{"trial_n":170,"n_dots":1.75,"target":"right","response":"left","rt":265.79999998212,"correct":false,"confidence":6},{"trial_n":171,"n_dots":1.85,"target":"right","response":"right","rt":271,"correct":true,"confidence":6},{"trial_n":172,"n_dots":1.85,"target":"left","response":"left","rt":198,"correct":true,"confidence":6},{"trial_n":173,"n_dots":1.75,"target":"left","response":"left","rt":258.09999999404,"correct":true,"confidence":6},{"trial_n":174,"n_dots":1.75,"target":"right","response":"left","rt":258.5,"correct":false,"confidence":6},{"trial_n":175,"n_dots":1.85,"target":"right","response":"right","rt":92.40000000596,"correct":true,"confidence":6},{"trial_n":176,"n_dots":1.85,"target":"left","response":"left","rt":423.90000000596,"correct":true,"confidence":5},{"trial_n":177,"n_dots":1.75,"target":"right","response":"right","rt":12.799999982119,"correct":true,"confidence":6},{"trial_n":178,"n_dots":1.75,"target":"left","response":"left","rt":540,"correct":true,"confidence":6},{"trial_n":179,"n_dots":1.65,"target":"right","response":"right","rt":17.799999982119,"correct":true,"confidence":6},{"trial_n":180,"n_dots":1.65,"target":"left","response":"left","rt":230.19999998808,"correct":true,"confidence":5},{"trial_n":181,"n_dots":1.55,"target":"right","response":"left","rt":271.90000000596,"correct":false,"confidence":6},{"trial_n":182,"n_dots":1.65,"target":"left","response":"left","rt":203.40000000596,"correct":true,"confidence":6},{"trial_n":183,"n_dots":1.65,"target":"right","response":"left","rt":243.90000000596,"correct":false,"confidence":6},{"trial_n":184,"n_dots":1.75,"target":"left","response":"left","rt":65.800000011921,"correct":true,"confidence":6},{"trial_n":185,"n_dots":1.75,"target":"left","response":"left","rt":213.69999998808,"correct":true,"confidence":5},{"trial_n":186,"n_dots":1.65,"target":"left","response":"left","rt":307.79999998212,"correct":true,"confidence":5},{"trial_n":187,"n_dots":1.65,"target":"left","response":"right","rt":282.90000000596,"correct":false,"confidence":6},{"trial_n":188,"n_dots":1.75,"target":"right","response":"right","rt":140.09999999404,"correct":true,"confidence":5},{"trial_n":189,"n_dots":1.75,"target":"left","response":"left","rt":340.29999998212,"correct":true,"confidence":5},{"trial_n":190,"n_dots":1.65,"target":"right","response":"right","rt":80.300000011921,"correct":true,"confidence":6},{"trial_n":191,"n_dots":1.65,"target":"right","response":"right","rt":770.5,"correct":true,"confidence":5},{"trial_n":192,"n_dots":1.55,"target":"left","response":"left","rt":343.79999998212,"correct":true,"confidence":5},{"trial_n":193,"n_dots":1.55,"target":"left","response":"left","rt":401.39999997616,"correct":true,"confidence":5},{"trial_n":194,"n_dots":1.45,"target":"right","response":"right","rt":205.90000000596,"correct":true,"confidence":6}]