[{"trial_n":1,"n_dots":4.25,"target":"right","response":"left","rt":8203.4000000358,"correct":false,"confidence":-1},{"trial_n":2,"n_dots":4.25,"target":"left","response":"left","rt":3407.7000000477,"correct":true,"confidence":-1},{"trial_n":3,"n_dots":4.25,"target":"right","response":"left","rt":2381.6999999881,"correct":false,"confidence":-1},{"trial_n":4,"n_dots":4.65,"target":"right","response":"right","rt":1092.8000000119,"correct":true,"confidence":-1},{"trial_n":5,"n_dots":4.65,"target":"right","response":"left","rt":1848.8000000119,"correct":false,"confidence":-1},{"trial_n":6,"n_dots":5.05,"target":"left","response":"left","rt":728.59999996424,"correct":true,"confidence":-1},{"trial_n":7,"n_dots":5.05,"target":"left","response":"left","rt":429.39999997616,"correct":true,"confidence":-1},{"trial_n":8,"n_dots":4.85,"target":"right","response":"right","rt":637.40000003576,"correct":true,"confidence":-1},{"trial_n":9,"n_dots":4.85,"target":"left","response":"left","rt":362.29999995232,"correct":true,"confidence":-1},{"trial_n":10,"n_dots":4.65,"target":"left","response":"left","rt":357.29999995232,"correct":true,"confidence":-1},{"trial_n":11,"n_dots":4.65,"target":"right","response":"right","rt":411.5,"correct":true,"confidence":-1},{"trial_n":12,"n_dots":4.45,"target":"left","response":"left","rt":827.30000001192,"correct":true,"confidence":-1},{"trial_n":13,"n_dots":4.45,"target":"right","response":"right","rt":970.40000003576,"correct":true,"confidence":-1},{"trial_n":14,"n_dots":4.35,"target":"right","response":"right","rt":660.39999997616,"correct":true,"confidence":-1},{"trial_n":15,"n_dots":4.35,"target":"right","response":"right","rt":438.09999996424,"correct":true,"confidence":-1},{"trial_n":16,"n_dots":4.25,"target":"right","response":"right","rt":653.19999998808,"correct":true,"confidence":-1},{"trial_n":17,"n_dots":4.25,"target":"left","response":"left","rt":780.80000001192,"correct":true,"confidence":-1},{"trial_n":18,"n_dots":4.15,"target":"right","response":"right","rt":524.5,"correct":true,"confidence":-1},{"trial_n":19,"n_dots":4.15,"target":"left","response":"left","rt":244,"correct":true,"confidence":-1},{"trial_n":20,"n_dots":4.05,"target":"left","response":"left","rt":1093.0999999642,"correct":true,"confidence":-1},{"trial_n":21,"n_dots":4.05,"target":"left","response":"right","rt":507.30000001192,"correct":false,"confidence":-1},{"trial_n":22,"n_dots":4.15,"target":"right","response":"right","rt":445.39999997616,"correct":true,"confidence":-1},{"trial_n":23,"n_dots":4.15,"target":"left","response":"left","rt":215.80000001192,"correct":true,"confidence":-1},{"trial_n":24,"n_dots":4.05,"target":"right","response":"right","rt":341,"correct":true,"confidence":-1},{"trial_n":25,"n_dots":4.05,"target":"right","response":"right","rt":1633.8999999762,"correct":true,"confidence":-1},{"trial_n":26,"n_dots":3.95,"target":"left","response":"left","rt":86.699999988079,"correct":true,"confidence":-1},{"trial_n":27,"n_dots":3.95,"target":"left","response":"left","rt":238.30000001192,"correct":true,"confidence":4},{"trial_n":28,"n_dots":3.85,"target":"left","response":"left","rt":1116.6000000238,"correct":true,"confidence":5},{"trial_n":29,"n_dots":3.85,"target":"right","response":"right","rt":628.19999998808,"correct":true,"confidence":6},{"trial_n":30,"n_dots":3.75,"target":"left","response":"right","rt":1327.6000000238,"correct":false,"confidence":3},{"trial_n":31,"n_dots":3.85,"target":"right","response":"right","rt":1538.8000000119,"correct":true,"confidence":3},{"trial_n":32,"n_dots":3.85,"target":"left","response":"left","rt":493.60000002384,"correct":true,"confidence":4},{"trial_n":33,"n_dots":3.75,"target":"right","response":"right","rt":1283.5999999642,"correct":true,"confidence":5},{"trial_n":34,"n_dots":3.75,"target":"right","response":"right","rt":788.19999998808,"correct":true,"confidence":6},{"trial_n":35,"n_dots":3.65,"target":"left","response":"right","rt":1225.6999999881,"correct":false,"confidence":3},{"trial_n":36,"n_dots":3.75,"target":"left","response":"left","rt":244.60000002384,"correct":true,"confidence":6},{"trial_n":37,"n_dots":3.75,"target":"left","response":"left","rt":676.19999998808,"correct":true,"confidence":5},{"trial_n":38,"n_dots":3.65,"target":"left","response":"left","rt":1269.3999999762,"correct":true,"confidence":4},{"trial_n":39,"n_dots":3.65,"target":"left","response":"left","rt":668.5,"correct":true,"confidence":6},{"trial_n":40,"n_dots":3.55,"target":"left","response":"right","rt":1865.1999999881,"correct":false,"confidence":3},{"trial_n":41,"n_dots":3.65,"target":"left","response":"right","rt":865.60000002384,"correct":false,"confidence":5},{"trial_n":42,"n_dots":3.75,"target":"right","response":"right","rt":2363.6999999881,"correct":true,"confidence":3},{"trial_n":43,"n_dots":3.75,"target":"right","response":"left","rt":1024,"correct":false,"confidence":4},{"trial_n":44,"n_dots":3.85,"target":"right","response":"right","rt":811.30000001192,"correct":true,"confidence":5},{"trial_n":45,"n_dots":3.85,"target":"left","response":"left","rt":1040.6999999881,"correct":true,"confidence":6},{"trial_n":46,"n_dots":3.75,"target":"right","response":"right","rt":1042.8999999762,"correct":true,"confidence":5},{"trial_n":47,"n_dots":3.75,"target":"left","response":"left","rt":710.89999997616,"correct":true,"confidence":4},{"trial_n":48,"n_dots":3.65,"target":"left","response":"right","rt":468.89999997616,"correct":false,"confidence":6},{"trial_n":49,"n_dots":3.75,"target":"right","response":"right","rt":679.39999997616,"correct":true,"confidence":6},{"trial_n":50,"n_dots":3.75,"target":"left","response":"left","rt":698.80000001192,"correct":true,"confidence":4},{"trial_n":51,"n_dots":3.65,"target":"right","response":"left","rt":1131,"correct":false,"confidence":1},{"trial_n":52,"n_dots":3.75,"target":"left","response":"left","rt":528.80000001192,"correct":true,"confidence":5},{"trial_n":53,"n_dots":3.75,"target":"right","response":"right","rt":555.40000003576,"correct":true,"confidence":4},{"trial_n":54,"n_dots":3.65,"target":"right","response":"right","rt":549.19999998808,"correct":true,"confidence":4},{"trial_n":55,"n_dots":3.65,"target":"left","response":"left","rt":356,"correct":true,"confidence":1},{"trial_n":56,"n_dots":3.55,"target":"right","response":"right","rt":299.89999997616,"correct":true,"confidence":4},{"trial_n":57,"n_dots":3.55,"target":"left","response":"left","rt":326.10000002384,"correct":true,"confidence":5},{"trial_n":58,"n_dots":3.45,"target":"left","response":"right","rt":328,"correct":false,"confidence":6},{"trial_n":59,"n_dots":3.55,"target":"right","response":"right","rt":540.59999996424,"correct":true,"confidence":4},{"trial_n":60,"n_dots":3.55,"target":"right","response":"left","rt":463.80000001192,"correct":false,"confidence":5},{"trial_n":61,"n_dots":3.65,"target":"right","response":"right","rt":980.5,"correct":true,"confidence":2},{"trial_n":62,"n_dots":3.65,"target":"right","response":"right","rt":316.5,"correct":true,"confidence":6},{"trial_n":63,"n_dots":3.55,"target":"right","response":"right","rt":168.19999998808,"correct":true,"confidence":4},{"trial_n":64,"n_dots":3.55,"target":"left","response":"left","rt":591.30000001192,"correct":true,"confidence":2},{"trial_n":65,"n_dots":3.45,"target":"right","response":"right","rt":276,"correct":true,"confidence":4},{"trial_n":66,"n_dots":3.45,"target":"left","response":"left","rt":305.5,"correct":true,"confidence":6},{"trial_n":67,"n_dots":3.35,"target":"right","response":"left","rt":167.60000002384,"correct":false,"confidence":5},{"trial_n":68,"n_dots":3.45,"target":"right","response":"right","rt":1060.1000000238,"correct":true,"confidence":2},{"trial_n":69,"n_dots":3.45,"target":"right","response":"left","rt":260.19999998808,"correct":false,"confidence":3},{"trial_n":70,"n_dots":3.55,"target":"left","response":"left","rt":364.5,"correct":true,"confidence":6},{"trial_n":71,"n_dots":3.55,"target":"left","response":"left","rt":524.10000002384,"correct":true,"confidence":4},{"trial_n":72,"n_dots":3.45,"target":"right","response":"right","rt":583.90000003576,"correct":true,"confidence":2},{"trial_n":73,"n_dots":3.45,"target":"right","response":"left","rt":203.30000001192,"correct":false,"confidence":3},{"trial_n":74,"n_dots":3.55,"target":"right","response":"right","rt":776.80000001192,"correct":true,"confidence":3},{"trial_n":75,"n_dots":3.55,"target":"left","response":"left","rt":651.80000001192,"correct":true,"confidence":3},{"trial_n":76,"n_dots":3.45,"target":"right","response":"left","rt":159.39999997616,"correct":false,"confidence":1},{"trial_n":77,"n_dots":3.55,"target":"right","response":"right","rt":319.69999998808,"correct":true,"confidence":6},{"trial_n":78,"n_dots":3.55,"target":"left","response":"left","rt":327.40000003576,"correct":true,"confidence":3},{"trial_n":79,"n_dots":3.45,"target":"right","response":"left","rt":688.5,"correct":false,"confidence":1},{"trial_n":80,"n_dots":3.55,"target":"left","response":"left","rt":293.80000001192,"correct":true,"confidence":5},{"trial_n":81,"n_dots":3.55,"target":"left","response":"left","rt":577.10000002384,"correct":true,"confidence":4},{"trial_n":82,"n_dots":3.45,"target":"right","response":"right","rt":363.90000003576,"correct":true,"confidence":3},{"trial_n":83,"n_dots":3.45,"target":"right","response":"right","rt":852.09999996424,"correct":true,"confidence":4},{"trial_n":84,"n_dots":3.35,"target":"right","response":"right","rt":770.80000001192,"correct":true,"confidence":4},{"trial_n":85,"n_dots":3.35,"target":"left","response":"left","rt":864.60000002384,"correct":true,"confidence":2},{"trial_n":86,"n_dots":3.25,"target":"right","response":"right","rt":667.90000003576,"correct":true,"confidence":3},{"trial_n":87,"n_dots":3.25,"target":"right","response":"right","rt":1584.7999999523,"correct":true,"confidence":6},{"trial_n":88,"n_dots":3.15,"target":"left","response":"left","rt":551.80000001192,"correct":true,"confidence":5},{"trial_n":89,"n_dots":3.15,"target":"left","response":"right","rt":910.5,"correct":false,"confidence":2},{"trial_n":90,"n_dots":3.25,"target":"left","response":"right","rt":698.69999998808,"correct":false,"confidence":2},{"trial_n":91,"n_dots":3.35,"target":"right","response":"right","rt":378.10000002384,"correct":true,"confidence":4},{"trial_n":92,"n_dots":3.35,"target":"left","response":"left","rt":1109.8999999762,"correct":true,"confidence":2},{"trial_n":93,"n_dots":3.25,"target":"left","response":"right","rt":484.30000001192,"correct":false,"confidence":4},{"trial_n":94,"n_dots":3.35,"target":"right","response":"right","rt":618.10000002384,"correct":true,"confidence":3},{"trial_n":95,"n_dots":3.35,"target":"left","response":"left","rt":276.60000002384,"correct":true,"confidence":1},{"trial_n":96,"n_dots":3.25,"target":"left","response":"right","rt":446.19999998808,"correct":false,"confidence":5},{"trial_n":97,"n_dots":3.35,"target":"left","response":"left","rt":281.5,"correct":true,"confidence":4},{"trial_n":98,"n_dots":3.35,"target":"right","response":"right","rt":335.60000002384,"correct":true,"confidence":6},{"trial_n":99,"n_dots":3.25,"target":"right","response":"right","rt":182.30000001192,"correct":true,"confidence":5},{"trial_n":100,"n_dots":3.25,"target":"right","response":"left","rt":578.5,"correct":false,"confidence":1},{"trial_n":101,"n_dots":3.35,"target":"left","response":"left","rt":395.30000001192,"correct":true,"confidence":4},{"trial_n":102,"n_dots":3.35,"target":"left","response":"left","rt":294.90000003576,"correct":true,"confidence":5},{"trial_n":103,"n_dots":3.25,"target":"right","response":"right","rt":732.10000002384,"correct":true,"confidence":4},{"trial_n":104,"n_dots":3.25,"target":"right","response":"right","rt":550.39999997616,"correct":true,"confidence":3},{"trial_n":105,"n_dots":3.15,"target":"left","response":"right","rt":523.69999998808,"correct":false,"confidence":5},{"trial_n":106,"n_dots":3.25,"target":"left","response":"left","rt":244.70000004768,"correct":true,"confidence":3},{"trial_n":107,"n_dots":3.25,"target":"left","response":"right","rt":289.39999997616,"correct":false,"confidence":5},{"trial_n":108,"n_dots":3.35,"target":"right","response":"right","rt":491.90000003576,"correct":true,"confidence":1},{"trial_n":109,"n_dots":3.35,"target":"left","response":"left","rt":284.39999997616,"correct":true,"confidence":6},{"trial_n":110,"n_dots":3.25,"target":"left","response":"right","rt":372.5,"correct":false,"confidence":3},{"trial_n":111,"n_dots":3.35,"target":"left","response":"left","rt":1402.5,"correct":true,"confidence":4},{"trial_n":112,"n_dots":3.35,"target":"left","response":"right","rt":1336.7999999523,"correct":false,"confidence":4},{"trial_n":113,"n_dots":3.45,"target":"left","response":"left","rt":165,"correct":true,"confidence":5},{"trial_n":114,"n_dots":3.45,"target":"right","response":"right","rt":180,"correct":true,"confidence":5},{"trial_n":115,"n_dots":3.35,"target":"right","response":"left","rt":347.89999997616,"correct":false,"confidence":3},{"trial_n":116,"n_dots":3.45,"target":"left","response":"left","rt":238.80000001192,"correct":true,"confidence":5},{"trial_n":117,"n_dots":3.45,"target":"right","response":"left","rt":606,"correct":false,"confidence":4},{"trial_n":118,"n_dots":3.55,"target":"right","response":"right","rt":908.30000001192,"correct":true,"confidence":2},{"trial_n":119,"n_dots":3.55,"target":"left","response":"left","rt":479.89999997616,"correct":true,"confidence":4},{"trial_n":120,"n_dots":3.45,"target":"left","response":"left","rt":1060.1999999881,"correct":true,"confidence":4},{"trial_n":121,"n_dots":3.45,"target":"left","response":"left","rt":1070.1999999881,"correct":true,"confidence":2},{"trial_n":122,"n_dots":3.35,"target":"right","response":"right","rt":716.90000003576,"correct":true,"confidence":4},{"trial_n":123,"n_dots":3.35,"target":"right","response":"left","rt":717.60000002384,"correct":false,"confidence":4},{"trial_n":124,"n_dots":3.45,"target":"left","response":"right","rt":612.89999997616,"correct":false,"confidence":2},{"trial_n":125,"n_dots":3.55,"target":"left","response":"left","rt":827.80000001192,"correct":true,"confidence":3},{"trial_n":126,"n_dots":3.55,"target":"left","response":"left","rt":388,"correct":true,"confidence":6},{"trial_n":127,"n_dots":3.45,"target":"right","response":"right","rt":693.10000002384,"correct":true,"confidence":4},{"trial_n":128,"n_dots":3.45,"target":"left","response":"left","rt":699.89999997616,"correct":true,"confidence":2},{"trial_n":129,"n_dots":3.35,"target":"left","response":"left","rt":524.10000002384,"correct":true,"confidence":5},{"trial_n":130,"n_dots":3.35,"target":"right","response":"right","rt":343.40000003576,"correct":true,"confidence":6},{"trial_n":131,"n_dots":3.25,"target":"right","response":"right","rt":383.60000002384,"correct":true,"confidence":4},{"trial_n":132,"n_dots":3.25,"target":"left","response":"left","rt":252.80000001192,"correct":true,"confidence":3},{"trial_n":133,"n_dots":3.15,"target":"left","response":"left","rt":332.40000003576,"correct":true,"confidence":4},{"trial_n":134,"n_dots":3.15,"target":"right","response":"right","rt":628.89999997616,"correct":true,"confidence":5},{"trial_n":135,"n_dots":3.05,"target":"right","response":"left","rt":656.30000001192,"correct":false,"confidence":5},{"trial_n":136,"n_dots":3.15,"target":"left","response":"left","rt":808.30000001192,"correct":true,"confidence":5},{"trial_n":137,"n_dots":3.15,"target":"right","response":"right","rt":720.10000002384,"correct":true,"confidence":5},{"trial_n":138,"n_dots":3.05,"target":"right","response":"left","rt":218.5,"correct":false,"confidence":5},{"trial_n":139,"n_dots":3.15,"target":"right","response":"right","rt":497.20000004768,"correct":true,"confidence":5},{"trial_n":140,"n_dots":3.15,"target":"right","response":"left","rt":915.59999996424,"correct":false,"confidence":2},{"trial_n":141,"n_dots":3.25,"target":"right","response":"right","rt":956.30000001192,"correct":true,"confidence":4},{"trial_n":142,"n_dots":3.25,"target":"right","response":"right","rt":1727.5,"correct":true,"confidence":2},{"trial_n":143,"n_dots":3.15,"target":"left","response":"left","rt":477,"correct":true,"confidence":5},{"trial_n":144,"n_dots":3.15,"target":"left","response":"left","rt":565.5,"correct":true,"confidence":3},{"trial_n":145,"n_dots":3.05,"target":"right","response":"right","rt":916.09999996424,"correct":true,"confidence":4},{"trial_n":146,"n_dots":3.05,"target":"right","response":"right","rt":754.19999998808,"correct":true,"confidence":3},{"trial_n":147,"n_dots":2.95,"target":"left","response":"left","rt":220.5,"correct":true,"confidence":5},{"trial_n":148,"n_dots":2.95,"target":"left","response":"left","rt":628.30000001192,"correct":true,"confidence":5},{"trial_n":149,"n_dots":2.85,"target":"right","response":"left","rt":466.39999997616,"correct":false,"confidence":3},{"trial_n":150,"n_dots":2.95,"target":"left","response":"left","rt":317.19999998808,"correct":true,"confidence":4},{"trial_n":151,"n_dots":2.95,"target":"right","response":"left","rt":1164.4000000358,"correct":false,"confidence":4},{"trial_n":152,"n_dots":3.05,"target":"left","response":"left","rt":254.60000002384,"correct":true,"confidence":6},{"trial_n":153,"n_dots":3.05,"target":"right","response":"right","rt":335.30000001192,"correct":true,"confidence":6},{"trial_n":154,"n_dots":2.95,"target":"left","response":"left","rt":604.80000001192,"correct":true,"confidence":3},{"trial_n":155,"n_dots":2.95,"target":"right","response":"left","rt":388.59999996424,"correct":false,"confidence":3},{"trial_n":156,"n_dots":3.05,"target":"right","response":"right","rt":575.90000003576,"correct":true,"confidence":5},{"trial_n":157,"n_dots":3.05,"target":"left","response":"left","rt":340.40000003576,"correct":true,"confidence":4},{"trial_n":158,"n_dots":2.95,"target":"right","response":"left","rt":947.80000001192,"correct":false,"confidence":5},{"trial_n":159,"n_dots":3.05,"target":"left","response":"right","rt":2352.0999999642,"correct":false,"confidence":4},{"trial_n":160,"n_dots":3.15,"target":"right","response":"left","rt":1156.3000000119,"correct":false,"confidence":1},{"trial_n":161,"n_dots":3.25,"target":"left","response":"left","rt":523.89999997616,"correct":true,"confidence":1},{"trial_n":162,"n_dots":3.25,"target":"right","response":"right","rt":876.90000003576,"correct":true,"confidence":5},{"trial_n":163,"n_dots":3.15,"target":"right","response":"right","rt":579.30000001192,"correct":true,"confidence":4},{"trial_n":164,"n_dots":3.15,"target":"left","response":"left","rt":430.90000003576,"correct":true,"confidence":1},{"trial_n":165,"n_dots":3.05,"target":"right","response":"right","rt":551.69999998808,"correct":true,"confidence":3},{"trial_n":166,"n_dots":3.05,"target":"left","response":"left","rt":416.80000001192,"correct":true,"confidence":5},{"trial_n":167,"n_dots":2.95,"target":"left","response":"right","rt":1022.3000000119,"correct":false,"confidence":2},{"trial_n":168,"n_dots":3.05,"target":"left","response":"right","rt":1494,"correct":false,"confidence":2},{"trial_n":169,"n_dots":3.15,"target":"left","response":"left","rt":979.80000001192,"correct":true,"confidence":4},{"trial_n":170,"n_dots":3.15,"target":"right","response":"right","rt":596.09999996424,"correct":true,"confidence":4},{"trial_n":171,"n_dots":3.05,"target":"right","response":"left","rt":1204.1999999881,"correct":false,"confidence":1},{"trial_n":172,"n_dots":3.15,"target":"left","response":"left","rt":1019.7000000477,"correct":true,"confidence":3},{"trial_n":173,"n_dots":3.15,"target":"right","response":"right","rt":1012.6000000238,"correct":true,"confidence":3},{"trial_n":174,"n_dots":3.05,"target":"left","response":"left","rt":635.80000001192,"correct":true,"confidence":1},{"trial_n":175,"n_dots":3.05,"target":"right","response":"right","rt":610,"correct":true,"confidence":5},{"trial_n":176,"n_dots":2.95,"target":"right","response":"right","rt":1014.9000000358,"correct":true,"confidence":4},{"trial_n":177,"n_dots":2.95,"target":"right","response":"right","rt":771.89999997616,"correct":true,"confidence":6},{"trial_n":178,"n_dots":2.85,"target":"left","response":"left","rt":1605.5,"correct":true,"confidence":1},{"trial_n":179,"n_dots":2.85,"target":"left","response":"left","rt":553,"correct":true,"confidence":4},{"trial_n":180,"n_dots":2.75,"target":"right","response":"left","rt":1452.8999999762,"correct":false,"confidence":1},{"trial_n":181,"n_dots":2.85,"target":"left","response":"right","rt":1181.1999999881,"correct":false,"confidence":3},{"trial_n":182,"n_dots":2.95,"target":"left","response":"left","rt":503.80000001192,"correct":true,"confidence":4},{"trial_n":183,"n_dots":2.95,"target":"left","response":"right","rt":807.80000001192,"correct":false,"confidence":4},{"trial_n":184,"n_dots":3.05,"target":"right","response":"right","rt":739.80000001192,"correct":true,"confidence":4},{"trial_n":185,"n_dots":3.05,"target":"right","response":"right","rt":1026.8999999762,"correct":true,"confidence":1},{"trial_n":186,"n_dots":2.95,"target":"right","response":"right","rt":580.90000003576,"correct":true,"confidence":6},{"trial_n":187,"n_dots":2.95,"target":"left","response":"left","rt":575.30000001192,"correct":true,"confidence":5},{"trial_n":188,"n_dots":2.85,"target":"left","response":"right","rt":786.60000002384,"correct":false,"confidence":4},{"trial_n":189,"n_dots":2.95,"target":"left","response":"left","rt":438.69999998808,"correct":true,"confidence":5},{"trial_n":190,"n_dots":2.95,"target":"right","response":"right","rt":792.20000004768,"correct":true,"confidence":4},{"trial_n":191,"n_dots":2.85,"target":"right","response":"left","rt":1442.5,"correct":false,"confidence":2},{"trial_n":192,"n_dots":2.95,"target":"left","response":"left","rt":1205.8000000119,"correct":true,"confidence":3},{"trial_n":193,"n_dots":2.95,"target":"left","response":"right","rt":1328.6999999881,"correct":false,"confidence":2},{"trial_n":194,"n_dots":3.05,"target":"right","response":"right","rt":1332.8000000119,"correct":true,"confidence":1}]