[{"trial_n":1,"n_dots":4.25,"target":"left","response":"left","rt":6704.5,"correct":true,"confidence":-1},{"trial_n":2,"n_dots":4.25,"target":"left","response":"left","rt":2934.599999994,"correct":true,"confidence":-1},{"trial_n":3,"n_dots":3.85,"target":"left","response":"right","rt":1009.900000006,"correct":false,"confidence":-1},{"trial_n":4,"n_dots":4.25,"target":"right","response":"left","rt":1696.3999999762,"correct":false,"confidence":-1},{"trial_n":5,"n_dots":4.65,"target":"left","response":"right","rt":1079.7000000179,"correct":false,"confidence":-1},{"trial_n":6,"n_dots":5.05,"target":"right","response":"left","rt":1227.2000000179,"correct":false,"confidence":-1},{"trial_n":7,"n_dots":5.45,"target":"right","response":"right","rt":404.89999997616,"correct":true,"confidence":-1},{"trial_n":8,"n_dots":5.45,"target":"right","response":"right","rt":1796.3000000119,"correct":true,"confidence":-1},{"trial_n":9,"n_dots":5.25,"target":"right","response":"right","rt":615.69999998808,"correct":true,"confidence":-1},{"trial_n":10,"n_dots":5.25,"target":"right","response":"right","rt":429.70000001788,"correct":true,"confidence":-1},{"trial_n":11,"n_dots":5.05,"target":"right","response":"right","rt":340.90000000596,"correct":true,"confidence":-1},{"trial_n":12,"n_dots":5.05,"target":"right","response":"right","rt":370.80000001192,"correct":true,"confidence":-1},{"trial_n":13,"n_dots":4.95,"target":"left","response":"left","rt":809.89999997616,"correct":true,"confidence":-1},{"trial_n":14,"n_dots":4.95,"target":"left","response":"left","rt":444.80000001192,"correct":true,"confidence":-1},{"trial_n":15,"n_dots":4.85,"target":"left","response":"left","rt":394.29999998212,"correct":true,"confidence":-1},{"trial_n":16,"n_dots":4.85,"target":"left","response":"left","rt":208.80000001192,"correct":true,"confidence":-1},{"trial_n":17,"n_dots":4.75,"target":"right","response":"right","rt":174.30000001192,"correct":true,"confidence":-1},{"trial_n":18,"n_dots":4.75,"target":"left","response":"left","rt":56.300000011921,"correct":true,"confidence":-1},{"trial_n":19,"n_dots":4.65,"target":"right","response":"right","rt":108.5,"correct":true,"confidence":-1},{"trial_n":20,"n_dots":4.65,"target":"right","response":"right","rt":105.59999999404,"correct":true,"confidence":-1},{"trial_n":21,"n_dots":4.55,"target":"right","response":"right","rt":237.19999998808,"correct":true,"confidence":-1},{"trial_n":22,"n_dots":4.55,"target":"left","response":"left","rt":204.30000001192,"correct":true,"confidence":-1},{"trial_n":23,"n_dots":4.45,"target":"right","response":"right","rt":972.69999998808,"correct":true,"confidence":-1},{"trial_n":24,"n_dots":4.45,"target":"right","response":"right","rt":888,"correct":true,"confidence":-1},{"trial_n":25,"n_dots":4.35,"target":"right","response":"right","rt":149.89999997616,"correct":true,"confidence":-1},{"trial_n":26,"n_dots":4.35,"target":"left","response":"left","rt":621,"correct":true,"confidence":-1},{"trial_n":27,"n_dots":4.25,"target":"right","response":"right","rt":1022.599999994,"correct":true,"confidence":5},{"trial_n":28,"n_dots":4.25,"target":"left","response":"left","rt":989.30000001192,"correct":true,"confidence":5},{"trial_n":29,"n_dots":4.15,"target":"right","response":"right","rt":515.59999999404,"correct":true,"confidence":6},{"trial_n":30,"n_dots":4.15,"target":"right","response":"right","rt":600.10000002384,"correct":true,"confidence":6},{"trial_n":31,"n_dots":4.05,"target":"right","response":"right","rt":896.29999998212,"correct":true,"confidence":6},{"trial_n":32,"n_dots":4.05,"target":"right","response":"right","rt":874.39999997616,"correct":true,"confidence":5},{"trial_n":33,"n_dots":3.95,"target":"right","response":"right","rt":492.5,"correct":true,"confidence":5},{"trial_n":34,"n_dots":3.95,"target":"left","response":"left","rt":891.59999999404,"correct":true,"confidence":3},{"trial_n":35,"n_dots":3.85,"target":"right","response":"right","rt":761.5,"correct":true,"confidence":3},{"trial_n":36,"n_dots":3.85,"target":"right","response":"right","rt":778.5,"correct":true,"confidence":3},{"trial_n":37,"n_dots":3.75,"target":"left","response":"right","rt":1244.400000006,"correct":false,"confidence":2},{"trial_n":38,"n_dots":3.85,"target":"left","response":"left","rt":1242.5,"correct":true,"confidence":2},{"trial_n":39,"n_dots":3.85,"target":"right","response":"right","rt":725.29999998212,"correct":true,"confidence":2},{"trial_n":40,"n_dots":3.75,"target":"left","response":"left","rt":1088.1999999881,"correct":true,"confidence":2},{"trial_n":41,"n_dots":3.75,"target":"left","response":"left","rt":913,"correct":true,"confidence":2},{"trial_n":42,"n_dots":3.65,"target":"left","response":"left","rt":1339.099999994,"correct":true,"confidence":2},{"trial_n":43,"n_dots":3.65,"target":"right","response":"right","rt":645.5,"correct":true,"confidence":3},{"trial_n":44,"n_dots":3.55,"target":"left","response":"left","rt":1012.099999994,"correct":true,"confidence":2},{"trial_n":45,"n_dots":3.55,"target":"right","response":"right","rt":704.19999998808,"correct":true,"confidence":3},{"trial_n":46,"n_dots":3.45,"target":"right","response":"right","rt":529.79999998212,"correct":true,"confidence":2},{"trial_n":47,"n_dots":3.45,"target":"right","response":"right","rt":283.80000001192,"correct":true,"confidence":2},{"trial_n":48,"n_dots":3.35,"target":"left","response":"left","rt":890.20000001788,"correct":true,"confidence":2},{"trial_n":49,"n_dots":3.35,"target":"right","response":"right","rt":528.5,"correct":true,"confidence":3},{"trial_n":50,"n_dots":3.25,"target":"left","response":"right","rt":2690.400000006,"correct":false,"confidence":2},{"trial_n":51,"n_dots":3.35,"target":"left","response":"right","rt":1082,"correct":false,"confidence":2},{"trial_n":52,"n_dots":3.45,"target":"right","response":"right","rt":628.79999998212,"correct":true,"confidence":3},{"trial_n":53,"n_dots":3.45,"target":"right","response":"right","rt":1262.6000000238,"correct":true,"confidence":3},{"trial_n":54,"n_dots":3.35,"target":"right","response":"right","rt":713.30000001192,"correct":true,"confidence":2},{"trial_n":55,"n_dots":3.35,"target":"left","response":"left","rt":708.80000001192,"correct":true,"confidence":2},{"trial_n":56,"n_dots":3.25,"target":"right","response":"right","rt":220.29999998212,"correct":true,"confidence":3},{"trial_n":57,"n_dots":3.25,"target":"left","response":"left","rt":1137.6999999881,"correct":true,"confidence":3},{"trial_n":58,"n_dots":3.15,"target":"left","response":"left","rt":975.90000000596,"correct":true,"confidence":1},{"trial_n":59,"n_dots":3.15,"target":"left","response":"left","rt":1021.599999994,"correct":true,"confidence":2},{"trial_n":60,"n_dots":3.05,"target":"left","response":"left","rt":2103.1999999881,"correct":true,"confidence":2},{"trial_n":61,"n_dots":3.05,"target":"left","response":"right","rt":1959.3999999762,"correct":false,"confidence":1},{"trial_n":62,"n_dots":3.15,"target":"right","response":"right","rt":2340.2000000179,"correct":true,"confidence":1},{"trial_n":63,"n_dots":3.15,"target":"right","response":"right","rt":1156.8999999762,"correct":true,"confidence":3},{"trial_n":64,"n_dots":3.05,"target":"left","response":"left","rt":1163.3000000119,"correct":true,"confidence":2},{"trial_n":65,"n_dots":3.05,"target":"left","response":"left","rt":1705.5,"correct":true,"confidence":2},{"trial_n":66,"n_dots":2.95,"target":"left","response":"left","rt":991,"correct":true,"confidence":1},{"trial_n":67,"n_dots":2.95,"target":"left","response":"right","rt":737.70000001788,"correct":false,"confidence":3},{"trial_n":68,"n_dots":3.05,"target":"right","response":"right","rt":573.20000001788,"correct":true,"confidence":2},{"trial_n":69,"n_dots":3.05,"target":"right","response":"right","rt":468.19999998808,"correct":true,"confidence":2},{"trial_n":70,"n_dots":2.95,"target":"left","response":"right","rt":492.90000000596,"correct":false,"confidence":2},{"trial_n":71,"n_dots":3.05,"target":"left","response":"left","rt":1344.5,"correct":true,"confidence":2},{"trial_n":72,"n_dots":3.05,"target":"right","response":"right","rt":858.10000002384,"correct":true,"confidence":2},{"trial_n":73,"n_dots":2.95,"target":"left","response":"right","rt":612.20000001788,"correct":false,"confidence":3},{"trial_n":74,"n_dots":3.05,"target":"right","response":"right","rt":375.30000001192,"correct":true,"confidence":2},{"trial_n":75,"n_dots":3.05,"target":"right","response":"right","rt":513.69999998808,"correct":true,"confidence":2},{"trial_n":76,"n_dots":2.95,"target":"left","response":"right","rt":1485.8000000119,"correct":false,"confidence":2},{"trial_n":77,"n_dots":3.05,"target":"left","response":"right","rt":472.69999998808,"correct":false,"confidence":2},{"trial_n":78,"n_dots":3.15,"target":"right","response":"right","rt":981.39999997616,"correct":true,"confidence":2},{"trial_n":79,"n_dots":3.15,"target":"right","response":"right","rt":609.5,"correct":true,"confidence":1},{"trial_n":80,"n_dots":3.05,"target":"left","response":"left","rt":1133,"correct":true,"confidence":2},{"trial_n":81,"n_dots":3.05,"target":"right","response":"right","rt":1102.599999994,"correct":true,"confidence":3},{"trial_n":82,"n_dots":2.95,"target":"left","response":"left","rt":1129,"correct":true,"confidence":2},{"trial_n":83,"n_dots":2.95,"target":"right","response":"left","rt":2571.5,"correct":false,"confidence":2},{"trial_n":84,"n_dots":3.05,"target":"right","response":"right","rt":1865.1999999881,"correct":true,"confidence":1},{"trial_n":85,"n_dots":3.05,"target":"left","response":"left","rt":896,"correct":true,"confidence":2},{"trial_n":86,"n_dots":2.95,"target":"left","response":"right","rt":1250.900000006,"correct":false,"confidence":2},{"trial_n":87,"n_dots":3.05,"target":"right","response":"right","rt":992,"correct":true,"confidence":2},{"trial_n":88,"n_dots":3.05,"target":"left","response":"left","rt":937.09999999404,"correct":true,"confidence":1},{"trial_n":89,"n_dots":2.95,"target":"left","response":"right","rt":696.09999999404,"correct":false,"confidence":1},{"trial_n":90,"n_dots":3.05,"target":"left","response":"right","rt":1514.6999999881,"correct":false,"confidence":1},{"trial_n":91,"n_dots":3.15,"target":"right","response":"right","rt":1045.1000000238,"correct":true,"confidence":1},{"trial_n":92,"n_dots":3.15,"target":"left","response":"left","rt":1887.400000006,"correct":true,"confidence":1},{"trial_n":93,"n_dots":3.05,"target":"right","response":"right","rt":1185.8000000119,"correct":true,"confidence":2},{"trial_n":94,"n_dots":3.05,"target":"right","response":"right","rt":627.40000000596,"correct":true,"confidence":1},{"trial_n":95,"n_dots":2.95,"target":"right","response":"right","rt":2110.900000006,"correct":true,"confidence":2},{"trial_n":96,"n_dots":2.95,"target":"left","response":"left","rt":4231.2999999821,"correct":true,"confidence":1},{"trial_n":97,"n_dots":2.85,"target":"left","response":"right","rt":3040.8000000119,"correct":false,"confidence":1},{"trial_n":98,"n_dots":2.95,"target":"left","response":"right","rt":518.20000001788,"correct":false,"confidence":2},{"trial_n":99,"n_dots":3.05,"target":"left","response":"right","rt":438.40000000596,"correct":false,"confidence":2},{"trial_n":100,"n_dots":3.15,"target":"right","response":"right","rt":372.30000001192,"correct":true,"confidence":2},{"trial_n":101,"n_dots":3.15,"target":"right","response":"right","rt":242.59999999404,"correct":true,"confidence":3},{"trial_n":102,"n_dots":3.05,"target":"left","response":"right","rt":400.30000001192,"correct":false,"confidence":3},{"trial_n":103,"n_dots":3.15,"target":"left","response":"right","rt":437.09999999404,"correct":false,"confidence":3},{"trial_n":104,"n_dots":3.25,"target":"right","response":"right","rt":510,"correct":true,"confidence":2},{"trial_n":105,"n_dots":3.25,"target":"left","response":"right","rt":1209.099999994,"correct":false,"confidence":2},{"trial_n":106,"n_dots":3.35,"target":"left","response":"left","rt":1161.099999994,"correct":true,"confidence":2},{"trial_n":107,"n_dots":3.35,"target":"left","response":"right","rt":1104,"correct":false,"confidence":2},{"trial_n":108,"n_dots":3.45,"target":"left","response":"right","rt":228,"correct":false,"confidence":2},{"trial_n":109,"n_dots":3.55,"target":"right","response":"right","rt":352,"correct":true,"confidence":2},{"trial_n":110,"n_dots":3.55,"target":"right","response":"right","rt":269.10000002384,"correct":true,"confidence":2},{"trial_n":111,"n_dots":3.45,"target":"left","response":"left","rt":1037.8999999762,"correct":true,"confidence":2},{"trial_n":112,"n_dots":3.45,"target":"left","response":"left","rt":1026.900000006,"correct":true,"confidence":2},{"trial_n":113,"n_dots":3.35,"target":"right","response":"right","rt":312.59999999404,"correct":true,"confidence":2},{"trial_n":114,"n_dots":3.35,"target":"right","response":"right","rt":1074.3000000119,"correct":true,"confidence":2},{"trial_n":115,"n_dots":3.25,"target":"right","response":"right","rt":119.19999998808,"correct":true,"confidence":3},{"trial_n":116,"n_dots":3.25,"target":"right","response":"right","rt":360,"correct":true,"confidence":3},{"trial_n":117,"n_dots":3.15,"target":"right","response":"right","rt":535.20000001788,"correct":true,"confidence":3},{"trial_n":118,"n_dots":3.15,"target":"left","response":"right","rt":1941.6999999881,"correct":false,"confidence":3},{"trial_n":119,"n_dots":3.25,"target":"left","response":"left","rt":475.79999998212,"correct":true,"confidence":2},{"trial_n":120,"n_dots":3.25,"target":"right","response":"right","rt":1175.2000000179,"correct":true,"confidence":2},{"trial_n":121,"n_dots":3.15,"target":"left","response":"left","rt":567.90000000596,"correct":true,"confidence":2},{"trial_n":122,"n_dots":3.15,"target":"left","response":"left","rt":509.59999999404,"correct":true,"confidence":3},{"trial_n":123,"n_dots":3.05,"target":"right","response":"right","rt":935.39999997616,"correct":true,"confidence":2},{"trial_n":124,"n_dots":3.05,"target":"right","response":"right","rt":774.89999997616,"correct":true,"confidence":2},{"trial_n":125,"n_dots":2.95,"target":"left","response":"left","rt":858.40000000596,"correct":true,"confidence":2},{"trial_n":126,"n_dots":2.95,"target":"right","response":"right","rt":372,"correct":true,"confidence":2},{"trial_n":127,"n_dots":2.85,"target":"left","response":"left","rt":693.30000001192,"correct":true,"confidence":1},{"trial_n":128,"n_dots":2.85,"target":"right","response":"right","rt":194.69999998808,"correct":true,"confidence":3},{"trial_n":129,"n_dots":2.75,"target":"left","response":"right","rt":370.5,"correct":false,"confidence":3},{"trial_n":130,"n_dots":2.85,"target":"left","response":"right","rt":551.30000001192,"correct":false,"confidence":2},{"trial_n":131,"n_dots":2.95,"target":"right","response":"right","rt":843.90000000596,"correct":true,"confidence":2},{"trial_n":132,"n_dots":2.95,"target":"left","response":"left","rt":773.79999998212,"correct":true,"confidence":2},{"trial_n":133,"n_dots":2.85,"target":"left","response":"left","rt":1254.2999999821,"correct":true,"confidence":2},{"trial_n":134,"n_dots":2.85,"target":"right","response":"right","rt":1095.599999994,"correct":true,"confidence":2},{"trial_n":135,"n_dots":2.75,"target":"right","response":"right","rt":20.40000000596,"correct":true,"confidence":4},{"trial_n":136,"n_dots":2.75,"target":"right","response":"right","rt":209.79999998212,"correct":true,"confidence":3},{"trial_n":137,"n_dots":2.65,"target":"left","response":"right","rt":580.09999999404,"correct":false,"confidence":3},{"trial_n":138,"n_dots":2.75,"target":"right","response":"right","rt":271.90000000596,"correct":true,"confidence":2},{"trial_n":139,"n_dots":2.75,"target":"right","response":"left","rt":1181.8000000119,"correct":false,"confidence":2},{"trial_n":140,"n_dots":2.85,"target":"left","response":"left","rt":650.90000000596,"correct":true,"confidence":3},{"trial_n":141,"n_dots":2.85,"target":"left","response":"left","rt":795.09999999404,"correct":true,"confidence":2},{"trial_n":142,"n_dots":2.75,"target":"left","response":"right","rt":1027.5,"correct":false,"confidence":2},{"trial_n":143,"n_dots":2.85,"target":"left","response":"left","rt":465.5,"correct":true,"confidence":3},{"trial_n":144,"n_dots":2.85,"target":"left","response":"left","rt":416.90000000596,"correct":true,"confidence":3},{"trial_n":145,"n_dots":2.75,"target":"left","response":"left","rt":1305.7000000179,"correct":true,"confidence":2},{"trial_n":146,"n_dots":2.75,"target":"left","response":"left","rt":1189.900000006,"correct":true,"confidence":1},{"trial_n":147,"n_dots":2.65,"target":"right","response":"right","rt":955.90000000596,"correct":true,"confidence":2},{"trial_n":148,"n_dots":2.65,"target":"left","response":"left","rt":508.40000000596,"correct":true,"confidence":3},{"trial_n":149,"n_dots":2.55,"target":"right","response":"right","rt":814.79999998212,"correct":true,"confidence":2},{"trial_n":150,"n_dots":2.55,"target":"right","response":"right","rt":611.80000001192,"correct":true,"confidence":2},{"trial_n":151,"n_dots":2.45,"target":"left","response":"left","rt":674.40000000596,"correct":true,"confidence":2},{"trial_n":152,"n_dots":2.45,"target":"left","response":"left","rt":697.90000000596,"correct":true,"confidence":2},{"trial_n":153,"n_dots":2.35,"target":"left","response":"right","rt":393.79999998212,"correct":false,"confidence":3},{"trial_n":154,"n_dots":2.45,"target":"right","response":"left","rt":489.40000000596,"correct":false,"confidence":2},{"trial_n":155,"n_dots":2.55,"target":"right","response":"right","rt":368.29999998212,"correct":true,"confidence":2},{"trial_n":156,"n_dots":2.55,"target":"left","response":"left","rt":1364.2999999821,"correct":true,"confidence":1},{"trial_n":157,"n_dots":2.45,"target":"right","response":"right","rt":768.80000001192,"correct":true,"confidence":1},{"trial_n":158,"n_dots":2.45,"target":"right","response":"right","rt":204.90000000596,"correct":true,"confidence":2},{"trial_n":159,"n_dots":2.35,"target":"left","response":"left","rt":950.90000000596,"correct":true,"confidence":2},{"trial_n":160,"n_dots":2.35,"target":"right","response":"right","rt":561.5,"correct":true,"confidence":1},{"trial_n":161,"n_dots":2.25,"target":"left","response":"right","rt":550.5,"correct":false,"confidence":1},{"trial_n":162,"n_dots":2.35,"target":"right","response":"right","rt":458.29999998212,"correct":true,"confidence":2},{"trial_n":163,"n_dots":2.35,"target":"right","response":"left","rt":1330,"correct":false,"confidence":2},{"trial_n":164,"n_dots":2.45,"target":"right","response":"right","rt":371.90000000596,"correct":true,"confidence":1},{"trial_n":165,"n_dots":2.45,"target":"left","response":"left","rt":1194.8999999762,"correct":true,"confidence":1},{"trial_n":166,"n_dots":2.35,"target":"left","response":"left","rt":2891.5,"correct":true,"confidence":1},{"trial_n":167,"n_dots":2.35,"target":"right","response":"right","rt":616.5,"correct":true,"confidence":2},{"trial_n":168,"n_dots":2.25,"target":"left","response":"left","rt":1020.7999999821,"correct":true,"confidence":1},{"trial_n":169,"n_dots":2.25,"target":"left","response":"right","rt":344.59999999404,"correct":false,"confidence":2},{"trial_n":170,"n_dots":2.35,"target":"right","response":"left","rt":840.39999997616,"correct":false,"confidence":2},{"trial_n":171,"n_dots":2.45,"target":"left","response":"left","rt":413.5,"correct":true,"confidence":2},{"trial_n":172,"n_dots":2.45,"target":"right","response":"right","rt":1147.5,"correct":true,"confidence":2},{"trial_n":173,"n_dots":2.35,"target":"left","response":"left","rt":736.39999997616,"correct":true,"confidence":2},{"trial_n":174,"n_dots":2.35,"target":"right","response":"left","rt":843.19999998808,"correct":false,"confidence":2},{"trial_n":175,"n_dots":2.45,"target":"left","response":"left","rt":883.5,"correct":true,"confidence":1},{"trial_n":176,"n_dots":2.45,"target":"left","response":"left","rt":607.19999998808,"correct":true,"confidence":2},{"trial_n":177,"n_dots":2.35,"target":"left","response":"right","rt":321.5,"correct":false,"confidence":1},{"trial_n":178,"n_dots":2.45,"target":"right","response":"left","rt":817.60000002384,"correct":false,"confidence":1},{"trial_n":179,"n_dots":2.55,"target":"left","response":"right","rt":356.69999998808,"correct":false,"confidence":2},{"trial_n":180,"n_dots":2.65,"target":"right","response":"left","rt":572.09999999404,"correct":false,"confidence":2},{"trial_n":181,"n_dots":2.75,"target":"right","response":"right","rt":544.40000000596,"correct":true,"confidence":2},{"trial_n":182,"n_dots":2.75,"target":"right","response":"right","rt":56,"correct":true,"confidence":1},{"trial_n":183,"n_dots":2.65,"target":"right","response":"right","rt":559.19999998808,"correct":true,"confidence":2},{"trial_n":184,"n_dots":2.65,"target":"right","response":"right","rt":1072.1999999881,"correct":true,"confidence":2},{"trial_n":185,"n_dots":2.55,"target":"right","response":"right","rt":500.89999997616,"correct":true,"confidence":2},{"trial_n":186,"n_dots":2.55,"target":"left","response":"right","rt":561.90000000596,"correct":false,"confidence":2},{"trial_n":187,"n_dots":2.65,"target":"left","response":"right","rt":302.40000000596,"correct":false,"confidence":1},{"trial_n":188,"n_dots":2.75,"target":"left","response":"left","rt":1609.1000000238,"correct":true,"confidence":1},{"trial_n":189,"n_dots":2.75,"target":"right","response":"right","rt":503.09999999404,"correct":true,"confidence":1},{"trial_n":190,"n_dots":2.65,"target":"right","response":"right","rt":1085.599999994,"correct":true,"confidence":2},{"trial_n":191,"n_dots":2.65,"target":"left","response":"left","rt":1419.900000006,"correct":true,"confidence":2},{"trial_n":192,"n_dots":2.55,"target":"left","response":"right","rt":153.09999999404,"correct":false,"confidence":1},{"trial_n":193,"n_dots":2.65,"target":"right","response":"right","rt":415.90000000596,"correct":true,"confidence":1},{"trial_n":194,"n_dots":2.65,"target":"right","response":"right","rt":358.90000000596,"correct":true,"confidence":2}]