[{"trial_n":1,"n_dots":4.25,"target":"left","response":"left","rt":1343.3999998569,"correct":true,"confidence":-1},{"trial_n":2,"n_dots":4.25,"target":"right","response":"right","rt":558.09999990463,"correct":true,"confidence":-1},{"trial_n":3,"n_dots":3.85,"target":"right","response":"right","rt":609.90000009537,"correct":true,"confidence":-1},{"trial_n":4,"n_dots":3.85,"target":"left","response":"left","rt":486.70000004768,"correct":true,"confidence":-1},{"trial_n":5,"n_dots":3.45,"target":"right","response":"right","rt":785.19999980927,"correct":true,"confidence":-1},{"trial_n":6,"n_dots":3.45,"target":"right","response":"left","rt":491.09999990463,"correct":false,"confidence":-1},{"trial_n":7,"n_dots":3.85,"target":"right","response":"right","rt":960.80000019073,"correct":true,"confidence":-1},{"trial_n":8,"n_dots":3.85,"target":"right","response":"left","rt":784.40000009537,"correct":false,"confidence":-1},{"trial_n":9,"n_dots":4.05,"target":"left","response":"left","rt":809.09999990463,"correct":true,"confidence":-1},{"trial_n":10,"n_dots":4.05,"target":"right","response":"left","rt":996.70000004768,"correct":false,"confidence":-1},{"trial_n":11,"n_dots":4.25,"target":"right","response":"right","rt":1085.2999999523,"correct":true,"confidence":-1},{"trial_n":12,"n_dots":4.25,"target":"left","response":"left","rt":941.89999985695,"correct":true,"confidence":-1},{"trial_n":13,"n_dots":4.15,"target":"right","response":"right","rt":789.59999990463,"correct":true,"confidence":-1},{"trial_n":14,"n_dots":4.15,"target":"left","response":"left","rt":895.29999995232,"correct":true,"confidence":-1},{"trial_n":15,"n_dots":4.05,"target":"left","response":"left","rt":940.09999990463,"correct":true,"confidence":-1},{"trial_n":16,"n_dots":4.05,"target":"right","response":"right","rt":1243.0999999046,"correct":true,"confidence":-1},{"trial_n":17,"n_dots":3.95,"target":"right","response":"right","rt":640.90000009537,"correct":true,"confidence":-1},{"trial_n":18,"n_dots":3.95,"target":"right","response":"right","rt":601.59999990463,"correct":true,"confidence":-1},{"trial_n":19,"n_dots":3.85,"target":"right","response":"right","rt":836.79999995232,"correct":true,"confidence":-1},{"trial_n":20,"n_dots":3.85,"target":"left","response":"left","rt":655,"correct":true,"confidence":-1},{"trial_n":21,"n_dots":3.75,"target":"right","response":"right","rt":901.40000009537,"correct":true,"confidence":-1},{"trial_n":22,"n_dots":3.75,"target":"left","response":"left","rt":571.60000014305,"correct":true,"confidence":-1},{"trial_n":23,"n_dots":3.65,"target":"right","response":"left","rt":989.5,"correct":false,"confidence":-1},{"trial_n":24,"n_dots":3.75,"target":"left","response":"left","rt":798.79999995232,"correct":true,"confidence":-1},{"trial_n":25,"n_dots":3.75,"target":"left","response":"left","rt":953.59999990463,"correct":true,"confidence":-1},{"trial_n":26,"n_dots":3.65,"target":"left","response":"left","rt":1013.4000000954,"correct":true,"confidence":-1},{"trial_n":27,"n_dots":3.65,"target":"right","response":"right","rt":725.79999995232,"correct":true,"confidence":4},{"trial_n":28,"n_dots":3.55,"target":"right","response":"right","rt":865.60000014305,"correct":true,"confidence":5},{"trial_n":29,"n_dots":3.55,"target":"left","response":"left","rt":735.70000004768,"correct":true,"confidence":6},{"trial_n":30,"n_dots":3.45,"target":"left","response":"left","rt":752.40000009537,"correct":true,"confidence":5},{"trial_n":31,"n_dots":3.45,"target":"right","response":"left","rt":755.80000019073,"correct":false,"confidence":5},{"trial_n":32,"n_dots":3.55,"target":"right","response":"right","rt":1120.5999999046,"correct":true,"confidence":4},{"trial_n":33,"n_dots":3.55,"target":"right","response":"right","rt":727.20000004768,"correct":true,"confidence":4},{"trial_n":34,"n_dots":3.45,"target":"right","response":"left","rt":577.09999990463,"correct":false,"confidence":5},{"trial_n":35,"n_dots":3.55,"target":"left","response":"left","rt":695.60000014305,"correct":true,"confidence":5},{"trial_n":36,"n_dots":3.55,"target":"left","response":"left","rt":771.09999990463,"correct":true,"confidence":5},{"trial_n":37,"n_dots":3.45,"target":"right","response":"left","rt":837.39999985695,"correct":false,"confidence":5},{"trial_n":38,"n_dots":3.55,"target":"right","response":"right","rt":860.29999995232,"correct":true,"confidence":5},{"trial_n":39,"n_dots":3.55,"target":"right","response":"left","rt":860.5,"correct":false,"confidence":3},{"trial_n":40,"n_dots":3.65,"target":"left","response":"left","rt":499.70000004768,"correct":true,"confidence":6},{"trial_n":41,"n_dots":3.65,"target":"left","response":"left","rt":684.79999995232,"correct":true,"confidence":6},{"trial_n":42,"n_dots":3.55,"target":"right","response":"right","rt":621.40000009537,"correct":true,"confidence":5},{"trial_n":43,"n_dots":3.55,"target":"right","response":"right","rt":1291.2000000477,"correct":true,"confidence":5},{"trial_n":44,"n_dots":3.45,"target":"left","response":"left","rt":736,"correct":true,"confidence":4},{"trial_n":45,"n_dots":3.45,"target":"right","response":"right","rt":694.40000009537,"correct":true,"confidence":4},{"trial_n":46,"n_dots":3.35,"target":"left","response":"right","rt":818.70000004768,"correct":false,"confidence":5},{"trial_n":47,"n_dots":3.45,"target":"right","response":"left","rt":5319,"correct":false,"confidence":4},{"trial_n":48,"n_dots":3.55,"target":"right","response":"right","rt":489.39999985695,"correct":true,"confidence":5},{"trial_n":49,"n_dots":3.55,"target":"left","response":"left","rt":630.79999995232,"correct":true,"confidence":5},{"trial_n":50,"n_dots":3.45,"target":"right","response":"right","rt":617.5,"correct":true,"confidence":5},{"trial_n":51,"n_dots":3.45,"target":"right","response":"right","rt":601.10000014305,"correct":true,"confidence":5},{"trial_n":52,"n_dots":3.35,"target":"left","response":"left","rt":540.90000009537,"correct":true,"confidence":6},{"trial_n":53,"n_dots":3.35,"target":"left","response":"left","rt":594.79999995232,"correct":true,"confidence":6},{"trial_n":54,"n_dots":3.25,"target":"right","response":"right","rt":1331.7000000477,"correct":true,"confidence":5},{"trial_n":55,"n_dots":3.25,"target":"right","response":"right","rt":623.79999995232,"correct":true,"confidence":6},{"trial_n":56,"n_dots":3.15,"target":"right","response":"right","rt":719.90000009537,"correct":true,"confidence":5},{"trial_n":57,"n_dots":3.15,"target":"left","response":"left","rt":485.20000004768,"correct":true,"confidence":6},{"trial_n":58,"n_dots":3.05,"target":"left","response":"left","rt":927.20000004768,"correct":true,"confidence":6},{"trial_n":59,"n_dots":3.05,"target":"right","response":"right","rt":585.20000004768,"correct":true,"confidence":5},{"trial_n":60,"n_dots":2.95,"target":"left","response":"left","rt":816.19999980927,"correct":true,"confidence":5},{"trial_n":61,"n_dots":2.95,"target":"left","response":"left","rt":470.29999995232,"correct":true,"confidence":5},{"trial_n":62,"n_dots":2.85,"target":"right","response":"left","rt":605.29999995232,"correct":false,"confidence":6},{"trial_n":63,"n_dots":2.95,"target":"left","response":"left","rt":632.5,"correct":true,"confidence":6},{"trial_n":64,"n_dots":2.95,"target":"left","response":"left","rt":642.70000004768,"correct":true,"confidence":5},{"trial_n":65,"n_dots":2.85,"target":"left","response":"left","rt":548.20000004768,"correct":true,"confidence":5},{"trial_n":66,"n_dots":2.85,"target":"left","response":"left","rt":688.5,"correct":true,"confidence":5},{"trial_n":67,"n_dots":2.75,"target":"left","response":"left","rt":860.09999990463,"correct":true,"confidence":5},{"trial_n":68,"n_dots":2.75,"target":"right","response":"left","rt":815.10000014305,"correct":false,"confidence":5},{"trial_n":69,"n_dots":2.85,"target":"right","response":"right","rt":759,"correct":true,"confidence":5},{"trial_n":70,"n_dots":2.85,"target":"right","response":"right","rt":582.59999990463,"correct":true,"confidence":5},{"trial_n":71,"n_dots":2.75,"target":"right","response":"right","rt":506.90000009537,"correct":true,"confidence":5},{"trial_n":72,"n_dots":2.75,"target":"left","response":"right","rt":677,"correct":false,"confidence":5},{"trial_n":73,"n_dots":2.85,"target":"right","response":"right","rt":595.20000004768,"correct":true,"confidence":6},{"trial_n":74,"n_dots":2.85,"target":"left","response":"left","rt":1628.2999999523,"correct":true,"confidence":5},{"trial_n":75,"n_dots":2.75,"target":"left","response":"left","rt":698.70000004768,"correct":true,"confidence":5},{"trial_n":76,"n_dots":2.75,"target":"right","response":"left","rt":637.70000004768,"correct":false,"confidence":6},{"trial_n":77,"n_dots":2.85,"target":"left","response":"left","rt":591.79999995232,"correct":true,"confidence":6},{"trial_n":78,"n_dots":2.85,"target":"left","response":"right","rt":594.90000009537,"correct":false,"confidence":6},{"trial_n":79,"n_dots":2.95,"target":"left","response":"left","rt":662.09999990463,"correct":true,"confidence":5},{"trial_n":80,"n_dots":2.95,"target":"left","response":"left","rt":511.89999985695,"correct":true,"confidence":6},{"trial_n":81,"n_dots":2.85,"target":"right","response":"right","rt":621.70000004768,"correct":true,"confidence":5},{"trial_n":82,"n_dots":2.85,"target":"left","response":"left","rt":734.20000004768,"correct":true,"confidence":4},{"trial_n":83,"n_dots":2.75,"target":"left","response":"left","rt":772.29999995232,"correct":true,"confidence":5},{"trial_n":84,"n_dots":2.75,"target":"left","response":"right","rt":609.89999985695,"correct":false,"confidence":6},{"trial_n":85,"n_dots":2.85,"target":"left","response":"right","rt":561,"correct":false,"confidence":5},{"trial_n":86,"n_dots":2.95,"target":"right","response":"right","rt":727,"correct":true,"confidence":5},{"trial_n":87,"n_dots":2.95,"target":"right","response":"right","rt":774.70000004768,"correct":true,"confidence":5},{"trial_n":88,"n_dots":2.85,"target":"left","response":"right","rt":810.60000014305,"correct":false,"confidence":6},{"trial_n":89,"n_dots":2.95,"target":"left","response":"left","rt":760.90000009537,"correct":true,"confidence":5},{"trial_n":90,"n_dots":2.95,"target":"left","response":"left","rt":815.59999990463,"correct":true,"confidence":6},{"trial_n":91,"n_dots":2.85,"target":"right","response":"right","rt":718.10000014305,"correct":true,"confidence":5},{"trial_n":92,"n_dots":2.85,"target":"left","response":"left","rt":881.39999985695,"correct":true,"confidence":5},{"trial_n":93,"n_dots":2.75,"target":"right","response":"right","rt":878.10000014305,"correct":true,"confidence":4},{"trial_n":94,"n_dots":2.75,"target":"left","response":"left","rt":738.79999995232,"correct":true,"confidence":6},{"trial_n":95,"n_dots":2.65,"target":"left","response":"left","rt":657.79999995232,"correct":true,"confidence":5},{"trial_n":96,"n_dots":2.65,"target":"right","response":"right","rt":792.5,"correct":true,"confidence":4},{"trial_n":97,"n_dots":2.55,"target":"left","response":"right","rt":968.59999990463,"correct":false,"confidence":5},{"trial_n":98,"n_dots":2.65,"target":"right","response":"right","rt":621.59999990463,"correct":true,"confidence":6},{"trial_n":99,"n_dots":2.65,"target":"left","response":"right","rt":669,"correct":false,"confidence":6},{"trial_n":100,"n_dots":2.75,"target":"left","response":"right","rt":660.59999990463,"correct":false,"confidence":5},{"trial_n":101,"n_dots":2.85,"target":"right","response":"right","rt":762,"correct":true,"confidence":5},{"trial_n":102,"n_dots":2.85,"target":"right","response":"left","rt":846.60000014305,"correct":false,"confidence":6},{"trial_n":103,"n_dots":2.95,"target":"left","response":"left","rt":567.39999985695,"correct":true,"confidence":6},{"trial_n":104,"n_dots":2.95,"target":"right","response":"right","rt":549.29999995232,"correct":true,"confidence":6},{"trial_n":105,"n_dots":2.85,"target":"right","response":"right","rt":670.90000009537,"correct":true,"confidence":6},{"trial_n":106,"n_dots":2.85,"target":"left","response":"left","rt":682.79999995232,"correct":true,"confidence":5},{"trial_n":107,"n_dots":2.75,"target":"left","response":"left","rt":865.09999990463,"correct":true,"confidence":5},{"trial_n":108,"n_dots":2.75,"target":"right","response":"right","rt":977.09999990463,"correct":true,"confidence":5},{"trial_n":109,"n_dots":2.65,"target":"right","response":"left","rt":756.70000004768,"correct":false,"confidence":6},{"trial_n":110,"n_dots":2.75,"target":"right","response":"right","rt":657.39999985695,"correct":true,"confidence":5},{"trial_n":111,"n_dots":2.75,"target":"left","response":"left","rt":677.59999990463,"correct":true,"confidence":5},{"trial_n":112,"n_dots":2.65,"target":"right","response":"right","rt":650.79999995232,"correct":true,"confidence":6},{"trial_n":113,"n_dots":2.65,"target":"right","response":"left","rt":1003.7000000477,"correct":false,"confidence":6},{"trial_n":114,"n_dots":2.75,"target":"left","response":"left","rt":759.20000004768,"correct":true,"confidence":6},{"trial_n":115,"n_dots":2.75,"target":"right","response":"right","rt":903.89999985695,"correct":true,"confidence":6},{"trial_n":116,"n_dots":2.65,"target":"left","response":"left","rt":667.59999990463,"correct":true,"confidence":5},{"trial_n":117,"n_dots":2.65,"target":"left","response":"right","rt":967.20000004768,"correct":false,"confidence":5},{"trial_n":118,"n_dots":2.75,"target":"right","response":"right","rt":609.90000009537,"correct":true,"confidence":5},{"trial_n":119,"n_dots":2.75,"target":"left","response":"left","rt":971.39999985695,"correct":true,"confidence":5},{"trial_n":120,"n_dots":2.65,"target":"right","response":"left","rt":3664.7999999523,"correct":false,"confidence":5},{"trial_n":121,"n_dots":2.75,"target":"right","response":"right","rt":561.59999990463,"correct":true,"confidence":5},{"trial_n":122,"n_dots":2.75,"target":"left","response":"right","rt":663,"correct":false,"confidence":6},{"trial_n":123,"n_dots":2.85,"target":"left","response":"left","rt":671.29999995232,"correct":true,"confidence":5},{"trial_n":124,"n_dots":2.85,"target":"left","response":"right","rt":2361.0999999046,"correct":false,"confidence":6},{"trial_n":125,"n_dots":2.95,"target":"right","response":"left","rt":540,"correct":false,"confidence":5},{"trial_n":126,"n_dots":3.05,"target":"right","response":"left","rt":542.79999995232,"correct":false,"confidence":5},{"trial_n":127,"n_dots":3.15,"target":"right","response":"left","rt":3191.9000000954,"correct":false,"confidence":5},{"trial_n":128,"n_dots":3.25,"target":"right","response":"right","rt":700.29999995232,"correct":true,"confidence":5},{"trial_n":129,"n_dots":3.25,"target":"right","response":"right","rt":877.79999995232,"correct":true,"confidence":5},{"trial_n":130,"n_dots":3.15,"target":"left","response":"right","rt":726.10000014305,"correct":false,"confidence":5},{"trial_n":131,"n_dots":3.25,"target":"left","response":"left","rt":457.70000004768,"correct":true,"confidence":5},{"trial_n":132,"n_dots":3.25,"target":"left","response":"right","rt":563.59999990463,"correct":false,"confidence":5},{"trial_n":133,"n_dots":3.35,"target":"left","response":"left","rt":514,"correct":true,"confidence":6},{"trial_n":134,"n_dots":3.35,"target":"right","response":"right","rt":696,"correct":true,"confidence":5},{"trial_n":135,"n_dots":3.25,"target":"right","response":"right","rt":453.39999985695,"correct":true,"confidence":6},{"trial_n":136,"n_dots":3.25,"target":"right","response":"right","rt":782.40000009537,"correct":true,"confidence":5},{"trial_n":137,"n_dots":3.15,"target":"left","response":"right","rt":2005.6999998093,"correct":false,"confidence":6},{"trial_n":138,"n_dots":3.25,"target":"left","response":"left","rt":1826.7000000477,"correct":true,"confidence":5},{"trial_n":139,"n_dots":3.25,"target":"left","response":"left","rt":1301.5,"correct":true,"confidence":6},{"trial_n":140,"n_dots":3.15,"target":"right","response":"right","rt":593.90000009537,"correct":true,"confidence":5},{"trial_n":141,"n_dots":3.15,"target":"right","response":"right","rt":672.70000004768,"correct":true,"confidence":5},{"trial_n":142,"n_dots":3.05,"target":"left","response":"left","rt":486.79999995232,"correct":true,"confidence":6},{"trial_n":143,"n_dots":3.05,"target":"right","response":"right","rt":754.79999995232,"correct":true,"confidence":5},{"trial_n":144,"n_dots":2.95,"target":"left","response":"left","rt":809,"correct":true,"confidence":6},{"trial_n":145,"n_dots":2.95,"target":"right","response":"right","rt":750,"correct":true,"confidence":5},{"trial_n":146,"n_dots":2.85,"target":"right","response":"right","rt":1532.1000001431,"correct":true,"confidence":5},{"trial_n":147,"n_dots":2.85,"target":"right","response":"left","rt":1091,"correct":false,"confidence":5},{"trial_n":148,"n_dots":2.95,"target":"left","response":"left","rt":600.80000019073,"correct":true,"confidence":5},{"trial_n":149,"n_dots":2.95,"target":"right","response":"right","rt":547.09999990463,"correct":true,"confidence":5},{"trial_n":150,"n_dots":2.85,"target":"right","response":"right","rt":546,"correct":true,"confidence":4},{"trial_n":151,"n_dots":2.85,"target":"left","response":"right","rt":644.70000004768,"correct":false,"confidence":4},{"trial_n":152,"n_dots":2.95,"target":"left","response":"left","rt":595.20000004768,"correct":true,"confidence":5},{"trial_n":153,"n_dots":2.95,"target":"right","response":"right","rt":563.39999985695,"correct":true,"confidence":5},{"trial_n":154,"n_dots":2.85,"target":"left","response":"left","rt":768.39999985695,"correct":true,"confidence":6},{"trial_n":155,"n_dots":2.85,"target":"left","response":"left","rt":512.29999995232,"correct":true,"confidence":6},{"trial_n":156,"n_dots":2.75,"target":"right","response":"left","rt":636.40000009537,"correct":false,"confidence":5},{"trial_n":157,"n_dots":2.85,"target":"right","response":"right","rt":546.5,"correct":true,"confidence":6},{"trial_n":158,"n_dots":2.85,"target":"right","response":"left","rt":609,"correct":false,"confidence":5},{"trial_n":159,"n_dots":2.95,"target":"left","response":"left","rt":516.40000009537,"correct":true,"confidence":5},{"trial_n":160,"n_dots":2.95,"target":"right","response":"left","rt":623.40000009537,"correct":false,"confidence":5},{"trial_n":161,"n_dots":3.05,"target":"left","response":"left","rt":1109.1999998093,"correct":true,"confidence":5},{"trial_n":162,"n_dots":3.05,"target":"right","response":"left","rt":708.09999990463,"correct":false,"confidence":5},{"trial_n":163,"n_dots":3.15,"target":"right","response":"left","rt":901.09999990463,"correct":false,"confidence":5},{"trial_n":164,"n_dots":3.25,"target":"left","response":"left","rt":562.59999990463,"correct":true,"confidence":5},{"trial_n":165,"n_dots":3.25,"target":"left","response":"left","rt":863.59999990463,"correct":true,"confidence":5},{"trial_n":166,"n_dots":3.15,"target":"left","response":"left","rt":1062.2999999523,"correct":true,"confidence":5},{"trial_n":167,"n_dots":3.15,"target":"right","response":"right","rt":831.09999990463,"correct":true,"confidence":5},{"trial_n":168,"n_dots":3.05,"target":"left","response":"left","rt":278.5,"correct":true,"confidence":6},{"trial_n":169,"n_dots":3.05,"target":"left","response":"left","rt":763.60000014305,"correct":true,"confidence":5},{"trial_n":170,"n_dots":2.95,"target":"right","response":"left","rt":621.70000004768,"correct":false,"confidence":5},{"trial_n":171,"n_dots":3.05,"target":"left","response":"left","rt":687,"correct":true,"confidence":5},{"trial_n":172,"n_dots":3.05,"target":"right","response":"right","rt":550,"correct":true,"confidence":5},{"trial_n":173,"n_dots":2.95,"target":"left","response":"left","rt":898.09999990463,"correct":true,"confidence":5},{"trial_n":174,"n_dots":2.95,"target":"left","response":"left","rt":549.70000004768,"correct":true,"confidence":5},{"trial_n":175,"n_dots":2.85,"target":"left","response":"left","rt":563.09999990463,"correct":true,"confidence":5},{"trial_n":176,"n_dots":2.85,"target":"right","response":"right","rt":665.5,"correct":true,"confidence":5},{"trial_n":177,"n_dots":2.75,"target":"right","response":"right","rt":745.09999990463,"correct":true,"confidence":5},{"trial_n":178,"n_dots":2.75,"target":"right","response":"right","rt":692,"correct":true,"confidence":5},{"trial_n":179,"n_dots":2.65,"target":"right","response":"right","rt":607.20000004768,"correct":true,"confidence":5},{"trial_n":180,"n_dots":2.65,"target":"right","response":"right","rt":547.79999995232,"correct":true,"confidence":5},{"trial_n":181,"n_dots":2.55,"target":"left","response":"left","rt":738,"correct":true,"confidence":5},{"trial_n":182,"n_dots":2.55,"target":"left","response":"right","rt":671.89999985695,"correct":false,"confidence":5},{"trial_n":183,"n_dots":2.65,"target":"left","response":"left","rt":678,"correct":true,"confidence":5},{"trial_n":184,"n_dots":2.65,"target":"left","response":"left","rt":776.20000004768,"correct":true,"confidence":6},{"trial_n":185,"n_dots":2.55,"target":"left","response":"left","rt":643.29999995232,"correct":true,"confidence":6},{"trial_n":186,"n_dots":2.55,"target":"left","response":"left","rt":541,"correct":true,"confidence":6},{"trial_n":187,"n_dots":2.45,"target":"left","response":"left","rt":615.5,"correct":true,"confidence":5},{"trial_n":188,"n_dots":2.45,"target":"right","response":"right","rt":596.60000014305,"correct":true,"confidence":5},{"trial_n":189,"n_dots":2.35,"target":"left","response":"right","rt":726.09999990463,"correct":false,"confidence":5},{"trial_n":190,"n_dots":2.45,"target":"right","response":"right","rt":549.19999980927,"correct":true,"confidence":5},{"trial_n":191,"n_dots":2.45,"target":"right","response":"left","rt":582.70000004768,"correct":false,"confidence":5},{"trial_n":192,"n_dots":2.55,"target":"right","response":"right","rt":549.30000019073,"correct":true,"confidence":5},{"trial_n":193,"n_dots":2.55,"target":"left","response":"left","rt":634.89999985695,"correct":true,"confidence":6},{"trial_n":194,"n_dots":2.45,"target":"left","response":"right","rt":726.20000004768,"correct":false,"confidence":5}]