[{"trial_n":1,"n_dots":4.25,"target":"right","response":"left","rt":10088.799999952,"correct":false,"confidence":-1},{"trial_n":2,"n_dots":4.25,"target":"right","response":"left","rt":1405.2999999523,"correct":false,"confidence":-1},{"trial_n":3,"n_dots":4.65,"target":"right","response":"left","rt":1305.1999999285,"correct":false,"confidence":-1},{"trial_n":4,"n_dots":5.05,"target":"right","response":"right","rt":336.10000002384,"correct":true,"confidence":-1},{"trial_n":5,"n_dots":5.05,"target":"right","response":"right","rt":436.69999992847,"correct":true,"confidence":-1},{"trial_n":6,"n_dots":4.65,"target":"left","response":"left","rt":219,"correct":true,"confidence":-1},{"trial_n":7,"n_dots":4.65,"target":"right","response":"right","rt":496.79999995232,"correct":true,"confidence":-1},{"trial_n":8,"n_dots":4.45,"target":"right","response":"right","rt":541.79999995232,"correct":true,"confidence":-1},{"trial_n":9,"n_dots":4.45,"target":"left","response":"left","rt":203.39999997616,"correct":true,"confidence":-1},{"trial_n":10,"n_dots":4.25,"target":"left","response":"left","rt":464.5,"correct":true,"confidence":-1},{"trial_n":11,"n_dots":4.25,"target":"left","response":"left","rt":476.80000007153,"correct":true,"confidence":-1},{"trial_n":12,"n_dots":4.05,"target":"left","response":"left","rt":385.39999997616,"correct":true,"confidence":-1},{"trial_n":13,"n_dots":4.05,"target":"left","response":"left","rt":284.5,"correct":true,"confidence":-1},{"trial_n":14,"n_dots":3.95,"target":"right","response":"right","rt":323.29999995232,"correct":true,"confidence":-1},{"trial_n":15,"n_dots":3.95,"target":"right","response":"right","rt":217.5,"correct":true,"confidence":-1},{"trial_n":16,"n_dots":3.85,"target":"left","response":"left","rt":362,"correct":true,"confidence":-1},{"trial_n":17,"n_dots":3.85,"target":"right","response":"right","rt":317.60000002384,"correct":true,"confidence":-1},{"trial_n":18,"n_dots":3.75,"target":"left","response":"left","rt":2538.3999999762,"correct":true,"confidence":-1},{"trial_n":19,"n_dots":3.75,"target":"left","response":"left","rt":629.89999997616,"correct":true,"confidence":-1},{"trial_n":20,"n_dots":3.65,"target":"right","response":"right","rt":268.09999990463,"correct":true,"confidence":-1},{"trial_n":21,"n_dots":3.65,"target":"left","response":"left","rt":286.70000004768,"correct":true,"confidence":-1},{"trial_n":22,"n_dots":3.55,"target":"right","response":"right","rt":506.40000009537,"correct":true,"confidence":-1},{"trial_n":23,"n_dots":3.55,"target":"left","response":"left","rt":358,"correct":true,"confidence":-1},{"trial_n":24,"n_dots":3.45,"target":"right","response":"right","rt":585.20000004768,"correct":true,"confidence":-1},{"trial_n":25,"n_dots":3.45,"target":"right","response":"right","rt":622.60000002384,"correct":true,"confidence":-1},{"trial_n":26,"n_dots":3.35,"target":"left","response":"right","rt":556.39999997616,"correct":false,"confidence":-1},{"trial_n":27,"n_dots":3.45,"target":"left","response":"right","rt":534.69999992847,"correct":false,"confidence":4},{"trial_n":28,"n_dots":3.55,"target":"left","response":"right","rt":2247.6000000238,"correct":false,"confidence":4},{"trial_n":29,"n_dots":3.65,"target":"left","response":"right","rt":429.70000004768,"correct":false,"confidence":5},{"trial_n":30,"n_dots":3.75,"target":"right","response":"right","rt":424.69999992847,"correct":true,"confidence":5},{"trial_n":31,"n_dots":3.75,"target":"left","response":"right","rt":541.39999997616,"correct":false,"confidence":5},{"trial_n":32,"n_dots":3.85,"target":"right","response":"right","rt":814.29999995232,"correct":true,"confidence":5},{"trial_n":33,"n_dots":3.85,"target":"right","response":"right","rt":838.30000007153,"correct":true,"confidence":6},{"trial_n":34,"n_dots":3.75,"target":"left","response":"right","rt":326.89999997616,"correct":false,"confidence":6},{"trial_n":35,"n_dots":3.85,"target":"left","response":"left","rt":393.09999990463,"correct":true,"confidence":4},{"trial_n":36,"n_dots":3.85,"target":"right","response":"right","rt":179.10000002384,"correct":true,"confidence":6},{"trial_n":37,"n_dots":3.75,"target":"right","response":"right","rt":370.29999995232,"correct":true,"confidence":6},{"trial_n":38,"n_dots":3.75,"target":"left","response":"right","rt":331.60000002384,"correct":false,"confidence":6},{"trial_n":39,"n_dots":3.85,"target":"left","response":"right","rt":505.60000002384,"correct":false,"confidence":6},{"trial_n":40,"n_dots":3.95,"target":"left","response":"right","rt":367.5,"correct":false,"confidence":6},{"trial_n":41,"n_dots":4.05,"target":"left","response":"left","rt":455.60000002384,"correct":true,"confidence":4},{"trial_n":42,"n_dots":4.05,"target":"left","response":"left","rt":320.69999992847,"correct":true,"confidence":4},{"trial_n":43,"n_dots":3.95,"target":"right","response":"right","rt":327.60000002384,"correct":true,"confidence":5},{"trial_n":44,"n_dots":3.95,"target":"left","response":"left","rt":315.60000002384,"correct":true,"confidence":5},{"trial_n":45,"n_dots":3.85,"target":"left","response":"right","rt":551.70000004768,"correct":false,"confidence":5},{"trial_n":46,"n_dots":3.95,"target":"left","response":"left","rt":343,"correct":true,"confidence":6},{"trial_n":47,"n_dots":3.95,"target":"left","response":"left","rt":395.90000009537,"correct":true,"confidence":5},{"trial_n":48,"n_dots":3.85,"target":"left","response":"left","rt":308.69999992847,"correct":true,"confidence":2},{"trial_n":49,"n_dots":3.85,"target":"right","response":"right","rt":404.70000004768,"correct":true,"confidence":6},{"trial_n":50,"n_dots":3.75,"target":"right","response":"left","rt":1319.7000000477,"correct":false,"confidence":2},{"trial_n":51,"n_dots":3.85,"target":"left","response":"right","rt":398.10000002384,"correct":false,"confidence":6},{"trial_n":52,"n_dots":3.95,"target":"left","response":"left","rt":615.20000004768,"correct":true,"confidence":2},{"trial_n":53,"n_dots":3.95,"target":"right","response":"right","rt":382.89999997616,"correct":true,"confidence":6},{"trial_n":54,"n_dots":3.85,"target":"left","response":"right","rt":1740.8999999762,"correct":false,"confidence":1},{"trial_n":55,"n_dots":3.95,"target":"right","response":"right","rt":928.5,"correct":true,"confidence":2},{"trial_n":56,"n_dots":3.95,"target":"left","response":"left","rt":1284.1999999285,"correct":true,"confidence":2},{"trial_n":57,"n_dots":3.85,"target":"left","response":"right","rt":1544.1000000238,"correct":false,"confidence":1},{"trial_n":58,"n_dots":3.95,"target":"right","response":"right","rt":316.60000002384,"correct":true,"confidence":6},{"trial_n":59,"n_dots":3.95,"target":"left","response":"left","rt":469.19999992847,"correct":true,"confidence":4},{"trial_n":60,"n_dots":3.85,"target":"right","response":"right","rt":269.10000002384,"correct":true,"confidence":4},{"trial_n":61,"n_dots":3.85,"target":"right","response":"right","rt":604.89999997616,"correct":true,"confidence":4},{"trial_n":62,"n_dots":3.75,"target":"right","response":"right","rt":238.5,"correct":true,"confidence":6},{"trial_n":63,"n_dots":3.75,"target":"right","response":"right","rt":380.39999997616,"correct":true,"confidence":6},{"trial_n":64,"n_dots":3.65,"target":"right","response":"right","rt":349.70000004768,"correct":true,"confidence":4},{"trial_n":65,"n_dots":3.65,"target":"left","response":"right","rt":325.89999997616,"correct":false,"confidence":5},{"trial_n":66,"n_dots":3.75,"target":"left","response":"left","rt":769.79999995232,"correct":true,"confidence":2},{"trial_n":67,"n_dots":3.75,"target":"right","response":"right","rt":308.70000004768,"correct":true,"confidence":5},{"trial_n":68,"n_dots":3.65,"target":"right","response":"right","rt":223.19999992847,"correct":true,"confidence":6},{"trial_n":69,"n_dots":3.65,"target":"right","response":"right","rt":144.10000002384,"correct":true,"confidence":6},{"trial_n":70,"n_dots":3.55,"target":"left","response":"left","rt":373.79999995232,"correct":true,"confidence":4},{"trial_n":71,"n_dots":3.55,"target":"right","response":"right","rt":265.90000009537,"correct":true,"confidence":4},{"trial_n":72,"n_dots":3.45,"target":"left","response":"right","rt":155.60000002384,"correct":false,"confidence":5},{"trial_n":73,"n_dots":3.55,"target":"right","response":"left","rt":845,"correct":false,"confidence":1},{"trial_n":74,"n_dots":3.65,"target":"right","response":"right","rt":755.89999997616,"correct":true,"confidence":4},{"trial_n":75,"n_dots":3.65,"target":"right","response":"right","rt":915.10000002384,"correct":true,"confidence":1},{"trial_n":76,"n_dots":3.55,"target":"right","response":"left","rt":797.39999997616,"correct":false,"confidence":4},{"trial_n":77,"n_dots":3.65,"target":"left","response":"left","rt":967.5,"correct":true,"confidence":6},{"trial_n":78,"n_dots":3.65,"target":"right","response":"left","rt":2929.8000000715,"correct":false,"confidence":1},{"trial_n":79,"n_dots":3.75,"target":"right","response":"left","rt":1005.7999999523,"correct":false,"confidence":4},{"trial_n":80,"n_dots":3.85,"target":"left","response":"right","rt":994.29999995232,"correct":false,"confidence":5},{"trial_n":81,"n_dots":3.95,"target":"right","response":"right","rt":1369.8999999762,"correct":true,"confidence":4},{"trial_n":82,"n_dots":3.95,"target":"right","response":"right","rt":1377.1000000238,"correct":true,"confidence":1},{"trial_n":83,"n_dots":3.85,"target":"right","response":"left","rt":3440.3999999762,"correct":false,"confidence":1},{"trial_n":84,"n_dots":3.95,"target":"right","response":"right","rt":348.90000009537,"correct":true,"confidence":1},{"trial_n":85,"n_dots":3.95,"target":"right","response":"right","rt":1970.7999999523,"correct":true,"confidence":1},{"trial_n":86,"n_dots":3.85,"target":"right","response":"right","rt":1624.6000000238,"correct":true,"confidence":1},{"trial_n":87,"n_dots":3.85,"target":"left","response":"right","rt":1007.7999999523,"correct":false,"confidence":1},{"trial_n":88,"n_dots":3.95,"target":"left","response":"left","rt":626,"correct":true,"confidence":6},{"trial_n":89,"n_dots":3.95,"target":"right","response":"left","rt":975.60000002384,"correct":false,"confidence":1},{"trial_n":90,"n_dots":4.05,"target":"left","response":"left","rt":288.5,"correct":true,"confidence":3},{"trial_n":91,"n_dots":4.05,"target":"right","response":"right","rt":699.60000002384,"correct":true,"confidence":4},{"trial_n":92,"n_dots":3.95,"target":"left","response":"left","rt":529.20000004768,"correct":true,"confidence":5},{"trial_n":93,"n_dots":3.95,"target":"right","response":"right","rt":668.39999997616,"correct":true,"confidence":6},{"trial_n":94,"n_dots":3.85,"target":"right","response":"left","rt":292.29999995232,"correct":false,"confidence":6},{"trial_n":95,"n_dots":3.95,"target":"right","response":"left","rt":1779.5,"correct":false,"confidence":1},{"trial_n":96,"n_dots":4.05,"target":"left","response":"left","rt":490.80000007153,"correct":true,"confidence":6},{"trial_n":97,"n_dots":4.05,"target":"right","response":"left","rt":537.30000007153,"correct":false,"confidence":6},{"trial_n":98,"n_dots":4.15,"target":"right","response":"left","rt":1072.8000000715,"correct":false,"confidence":6},{"trial_n":99,"n_dots":4.25,"target":"right","response":"right","rt":663.5,"correct":true,"confidence":1},{"trial_n":100,"n_dots":4.25,"target":"right","response":"left","rt":1535.3000000715,"correct":false,"confidence":4},{"trial_n":101,"n_dots":4.35,"target":"left","response":"left","rt":329.5,"correct":true,"confidence":6},{"trial_n":102,"n_dots":4.35,"target":"left","response":"left","rt":278.19999992847,"correct":true,"confidence":6},{"trial_n":103,"n_dots":4.25,"target":"left","response":"left","rt":256.39999997616,"correct":true,"confidence":6},{"trial_n":104,"n_dots":4.25,"target":"right","response":"left","rt":382.09999990463,"correct":false,"confidence":6},{"trial_n":105,"n_dots":4.35,"target":"right","response":"right","rt":314.59999990463,"correct":true,"confidence":6},{"trial_n":106,"n_dots":4.35,"target":"right","response":"right","rt":130.70000004768,"correct":true,"confidence":6},{"trial_n":107,"n_dots":4.25,"target":"right","response":"left","rt":384.79999995232,"correct":false,"confidence":4},{"trial_n":108,"n_dots":4.35,"target":"left","response":"left","rt":304.80000007153,"correct":true,"confidence":6},{"trial_n":109,"n_dots":4.35,"target":"left","response":"left","rt":305,"correct":true,"confidence":6},{"trial_n":110,"n_dots":4.25,"target":"right","response":"right","rt":304.5,"correct":true,"confidence":6},{"trial_n":111,"n_dots":4.25,"target":"right","response":"right","rt":259.10000002384,"correct":true,"confidence":6},{"trial_n":112,"n_dots":4.15,"target":"left","response":"left","rt":278.20000004768,"correct":true,"confidence":6},{"trial_n":113,"n_dots":4.15,"target":"left","response":"left","rt":193.69999992847,"correct":true,"confidence":6},{"trial_n":114,"n_dots":4.05,"target":"right","response":"right","rt":204.90000009537,"correct":true,"confidence":6},{"trial_n":115,"n_dots":4.05,"target":"left","response":"left","rt":231.09999990463,"correct":true,"confidence":6},{"trial_n":116,"n_dots":3.95,"target":"right","response":"right","rt":536,"correct":true,"confidence":4},{"trial_n":117,"n_dots":3.95,"target":"left","response":"left","rt":245.70000004768,"correct":true,"confidence":6},{"trial_n":118,"n_dots":3.85,"target":"right","response":"right","rt":99.200000047684,"correct":true,"confidence":4},{"trial_n":119,"n_dots":3.85,"target":"left","response":"left","rt":203.39999997616,"correct":true,"confidence":6},{"trial_n":120,"n_dots":3.75,"target":"left","response":"left","rt":262.39999997616,"correct":true,"confidence":6},{"trial_n":121,"n_dots":3.75,"target":"left","response":"left","rt":287.70000004768,"correct":true,"confidence":6},{"trial_n":122,"n_dots":3.65,"target":"left","response":"left","rt":247.5,"correct":true,"confidence":6},{"trial_n":123,"n_dots":3.65,"target":"right","response":"left","rt":373.5,"correct":false,"confidence":4},{"trial_n":124,"n_dots":3.75,"target":"right","response":"left","rt":263.89999997616,"correct":false,"confidence":1},{"trial_n":125,"n_dots":3.85,"target":"right","response":"right","rt":283.89999997616,"correct":true,"confidence":6},{"trial_n":126,"n_dots":3.85,"target":"right","response":"right","rt":238,"correct":true,"confidence":6},{"trial_n":127,"n_dots":3.75,"target":"right","response":"left","rt":246.20000004768,"correct":false,"confidence":4},{"trial_n":128,"n_dots":3.85,"target":"right","response":"right","rt":403.70000004768,"correct":true,"confidence":6},{"trial_n":129,"n_dots":3.85,"target":"left","response":"left","rt":250,"correct":true,"confidence":6},{"trial_n":130,"n_dots":3.75,"target":"left","response":"left","rt":196.5,"correct":true,"confidence":6},{"trial_n":131,"n_dots":3.75,"target":"left","response":"left","rt":244.70000004768,"correct":true,"confidence":6},{"trial_n":132,"n_dots":3.65,"target":"left","response":"left","rt":332.39999997616,"correct":true,"confidence":6},{"trial_n":133,"n_dots":3.65,"target":"right","response":"right","rt":189,"correct":true,"confidence":4},{"trial_n":134,"n_dots":3.55,"target":"left","response":"left","rt":66.700000047684,"correct":true,"confidence":6},{"trial_n":135,"n_dots":3.55,"target":"left","response":"left","rt":385.79999995232,"correct":true,"confidence":6},{"trial_n":136,"n_dots":3.45,"target":"left","response":"left","rt":516.5,"correct":true,"confidence":4},{"trial_n":137,"n_dots":3.45,"target":"right","response":"right","rt":251.89999997616,"correct":true,"confidence":6},{"trial_n":138,"n_dots":3.35,"target":"right","response":"right","rt":248,"correct":true,"confidence":6},{"trial_n":139,"n_dots":3.35,"target":"right","response":"left","rt":656.89999997616,"correct":false,"confidence":3},{"trial_n":140,"n_dots":3.45,"target":"left","response":"right","rt":558.89999997616,"correct":false,"confidence":4},{"trial_n":141,"n_dots":3.55,"target":"left","response":"right","rt":303.79999995232,"correct":false,"confidence":4},{"trial_n":142,"n_dots":3.65,"target":"left","response":"left","rt":299,"correct":true,"confidence":5},{"trial_n":143,"n_dots":3.65,"target":"right","response":"right","rt":210.79999995232,"correct":true,"confidence":6},{"trial_n":144,"n_dots":3.55,"target":"right","response":"right","rt":166.10000002384,"correct":true,"confidence":6},{"trial_n":145,"n_dots":3.55,"target":"right","response":"right","rt":191.5,"correct":true,"confidence":2},{"trial_n":146,"n_dots":3.45,"target":"right","response":"right","rt":413,"correct":true,"confidence":2},{"trial_n":147,"n_dots":3.45,"target":"right","response":"left","rt":439.20000004768,"correct":false,"confidence":2},{"trial_n":148,"n_dots":3.55,"target":"left","response":"left","rt":1681.3000000715,"correct":true,"confidence":2},{"trial_n":149,"n_dots":3.55,"target":"left","response":"left","rt":327.70000004768,"correct":true,"confidence":2},{"trial_n":150,"n_dots":3.45,"target":"left","response":"left","rt":1565.3999999762,"correct":true,"confidence":2},{"trial_n":151,"n_dots":3.45,"target":"left","response":"left","rt":677.40000009537,"correct":true,"confidence":2},{"trial_n":152,"n_dots":3.35,"target":"left","response":"left","rt":1547.8999999762,"correct":true,"confidence":2},{"trial_n":153,"n_dots":3.35,"target":"left","response":"left","rt":712.89999997616,"correct":true,"confidence":3},{"trial_n":154,"n_dots":3.25,"target":"right","response":"right","rt":263.10000002384,"correct":true,"confidence":6},{"trial_n":155,"n_dots":3.25,"target":"left","response":"left","rt":969.89999997616,"correct":true,"confidence":2},{"trial_n":156,"n_dots":3.15,"target":"right","response":"right","rt":755.60000002384,"correct":true,"confidence":3},{"trial_n":157,"n_dots":3.15,"target":"right","response":"right","rt":315.29999995232,"correct":true,"confidence":5},{"trial_n":158,"n_dots":3.05,"target":"left","response":"left","rt":269.19999992847,"correct":true,"confidence":6},{"trial_n":159,"n_dots":3.05,"target":"left","response":"right","rt":334.19999992847,"correct":false,"confidence":4},{"trial_n":160,"n_dots":3.15,"target":"left","response":"left","rt":183.5,"correct":true,"confidence":6},{"trial_n":161,"n_dots":3.15,"target":"left","response":"left","rt":193.39999997616,"correct":true,"confidence":6},{"trial_n":162,"n_dots":3.05,"target":"left","response":"left","rt":135.20000004768,"correct":true,"confidence":6},{"trial_n":163,"n_dots":3.05,"target":"left","response":"left","rt":129.80000007153,"correct":true,"confidence":4},{"trial_n":164,"n_dots":2.95,"target":"left","response":"left","rt":249.40000009537,"correct":true,"confidence":6},{"trial_n":165,"n_dots":2.95,"target":"right","response":"left","rt":191.60000002384,"correct":false,"confidence":6},{"trial_n":166,"n_dots":3.05,"target":"right","response":"left","rt":152,"correct":false,"confidence":6},{"trial_n":167,"n_dots":3.15,"target":"right","response":"right","rt":156.20000004768,"correct":true,"confidence":6},{"trial_n":168,"n_dots":3.15,"target":"left","response":"left","rt":164,"correct":true,"confidence":5},{"trial_n":169,"n_dots":3.05,"target":"right","response":"right","rt":54.5,"correct":true,"confidence":6},{"trial_n":170,"n_dots":3.05,"target":"left","response":"left","rt":140.89999997616,"correct":true,"confidence":6},{"trial_n":171,"n_dots":2.95,"target":"right","response":"left","rt":126.89999997616,"correct":false,"confidence":6},{"trial_n":172,"n_dots":3.05,"target":"left","response":"right","rt":266.89999997616,"correct":false,"confidence":6},{"trial_n":173,"n_dots":3.15,"target":"left","response":"left","rt":155.70000004768,"correct":true,"confidence":6},{"trial_n":174,"n_dots":3.15,"target":"left","response":"left","rt":90.800000071526,"correct":true,"confidence":6},{"trial_n":175,"n_dots":3.05,"target":"left","response":"left","rt":89.299999952316,"correct":true,"confidence":6},{"trial_n":176,"n_dots":3.05,"target":"right","response":"right","rt":233.10000002384,"correct":true,"confidence":6},{"trial_n":177,"n_dots":2.95,"target":"right","response":"left","rt":269.09999990463,"correct":false,"confidence":6},{"trial_n":178,"n_dots":3.05,"target":"right","response":"right","rt":110,"correct":true,"confidence":6},{"trial_n":179,"n_dots":3.05,"target":"left","response":"left","rt":102.30000007153,"correct":true,"confidence":6},{"trial_n":180,"n_dots":2.95,"target":"right","response":"left","rt":532,"correct":false,"confidence":4},{"trial_n":181,"n_dots":3.05,"target":"right","response":"right","rt":40.900000095367,"correct":true,"confidence":6},{"trial_n":182,"n_dots":3.05,"target":"left","response":"left","rt":915.19999992847,"correct":true,"confidence":6},{"trial_n":183,"n_dots":2.95,"target":"left","response":"right","rt":127,"correct":false,"confidence":5},{"trial_n":184,"n_dots":3.05,"target":"left","response":"right","rt":1063.1999999285,"correct":false,"confidence":3},{"trial_n":185,"n_dots":3.15,"target":"left","response":"right","rt":273.19999992847,"correct":false,"confidence":4},{"trial_n":186,"n_dots":3.25,"target":"right","response":"right","rt":95.5,"correct":true,"confidence":6},{"trial_n":187,"n_dots":3.25,"target":"left","response":"right","rt":512.29999995232,"correct":false,"confidence":3},{"trial_n":188,"n_dots":3.35,"target":"right","response":"left","rt":656.5,"correct":false,"confidence":4},{"trial_n":189,"n_dots":3.45,"target":"left","response":"left","rt":223.29999995232,"correct":true,"confidence":5},{"trial_n":190,"n_dots":3.45,"target":"right","response":"right","rt":88.799999952316,"correct":true,"confidence":4},{"trial_n":191,"n_dots":3.35,"target":"right","response":"right","rt":591.30000007153,"correct":true,"confidence":6},{"trial_n":192,"n_dots":3.35,"target":"left","response":"left","rt":238.60000002384,"correct":true,"confidence":6},{"trial_n":193,"n_dots":3.25,"target":"left","response":"left","rt":1143.2999999523,"correct":true,"confidence":1},{"trial_n":194,"n_dots":3.25,"target":"right","response":"right","rt":366.10000002384,"correct":true,"confidence":6}]