[{"trial_n":1,"n_dots":4.25,"target":"left","response":"left","rt":2826.3000000715,"correct":true,"confidence":-1},{"trial_n":2,"n_dots":4.25,"target":"right","response":"right","rt":1066.7000000477,"correct":true,"confidence":-1},{"trial_n":3,"n_dots":3.85,"target":"left","response":"left","rt":325.5,"correct":true,"confidence":-1},{"trial_n":4,"n_dots":3.85,"target":"right","response":"right","rt":620.30000007153,"correct":true,"confidence":-1},{"trial_n":5,"n_dots":3.45,"target":"right","response":"left","rt":329.5,"correct":false,"confidence":-1},{"trial_n":6,"n_dots":3.85,"target":"left","response":"left","rt":275.79999995232,"correct":true,"confidence":-1},{"trial_n":7,"n_dots":3.85,"target":"left","response":"right","rt":326.60000002384,"correct":false,"confidence":-1},{"trial_n":8,"n_dots":4.05,"target":"right","response":"right","rt":434,"correct":true,"confidence":-1},{"trial_n":9,"n_dots":4.05,"target":"left","response":"left","rt":261.69999992847,"correct":true,"confidence":-1},{"trial_n":10,"n_dots":3.85,"target":"left","response":"left","rt":360.40000009537,"correct":true,"confidence":-1},{"trial_n":11,"n_dots":3.85,"target":"right","response":"right","rt":203.5,"correct":true,"confidence":-1},{"trial_n":12,"n_dots":3.65,"target":"right","response":"left","rt":285.39999997616,"correct":false,"confidence":-1},{"trial_n":13,"n_dots":3.75,"target":"right","response":"right","rt":254.70000004768,"correct":true,"confidence":-1},{"trial_n":14,"n_dots":3.75,"target":"left","response":"right","rt":396.69999992847,"correct":false,"confidence":-1},{"trial_n":15,"n_dots":3.85,"target":"right","response":"left","rt":431.79999995232,"correct":false,"confidence":-1},{"trial_n":16,"n_dots":3.95,"target":"left","response":"left","rt":216.89999997616,"correct":true,"confidence":-1},{"trial_n":17,"n_dots":3.95,"target":"left","response":"left","rt":86.400000095367,"correct":true,"confidence":-1},{"trial_n":18,"n_dots":3.85,"target":"left","response":"left","rt":41.100000023842,"correct":true,"confidence":-1},{"trial_n":19,"n_dots":3.85,"target":"right","response":"right","rt":87.400000095367,"correct":true,"confidence":-1},{"trial_n":20,"n_dots":3.75,"target":"left","response":"left","rt":144.60000002384,"correct":true,"confidence":-1},{"trial_n":21,"n_dots":3.75,"target":"right","response":"right","rt":149.29999995232,"correct":true,"confidence":-1},{"trial_n":22,"n_dots":3.65,"target":"right","response":"left","rt":62.199999928474,"correct":false,"confidence":-1},{"trial_n":23,"n_dots":3.75,"target":"left","response":"left","rt":80.100000023842,"correct":true,"confidence":-1},{"trial_n":24,"n_dots":3.75,"target":"left","response":"left","rt":39.300000071526,"correct":true,"confidence":-1},{"trial_n":25,"n_dots":3.65,"target":"left","response":"right","rt":559.19999992847,"correct":false,"confidence":-1},{"trial_n":26,"n_dots":3.75,"target":"left","response":"left","rt":21,"correct":true,"confidence":-1},{"trial_n":27,"n_dots":3.75,"target":"right","response":"right","rt":386.29999995232,"correct":true,"confidence":4},{"trial_n":28,"n_dots":3.65,"target":"left","response":"left","rt":506.10000002384,"correct":true,"confidence":6},{"trial_n":29,"n_dots":3.65,"target":"right","response":"right","rt":1547.7999999523,"correct":true,"confidence":1},{"trial_n":30,"n_dots":3.55,"target":"right","response":"right","rt":377.20000004768,"correct":true,"confidence":6},{"trial_n":31,"n_dots":3.55,"target":"right","response":"right","rt":332.10000002384,"correct":true,"confidence":6},{"trial_n":32,"n_dots":3.45,"target":"right","response":"right","rt":331.79999995232,"correct":true,"confidence":6},{"trial_n":33,"n_dots":3.45,"target":"right","response":"right","rt":377.39999997616,"correct":true,"confidence":6},{"trial_n":34,"n_dots":3.35,"target":"right","response":"right","rt":311.19999992847,"correct":true,"confidence":5},{"trial_n":35,"n_dots":3.35,"target":"left","response":"left","rt":520,"correct":true,"confidence":3},{"trial_n":36,"n_dots":3.25,"target":"left","response":"left","rt":306,"correct":true,"confidence":3},{"trial_n":37,"n_dots":3.25,"target":"left","response":"right","rt":406.79999995232,"correct":false,"confidence":3},{"trial_n":38,"n_dots":3.35,"target":"left","response":"left","rt":326.5,"correct":true,"confidence":3},{"trial_n":39,"n_dots":3.35,"target":"left","response":"left","rt":368.5,"correct":true,"confidence":3},{"trial_n":40,"n_dots":3.25,"target":"left","response":"left","rt":721.10000002384,"correct":true,"confidence":4},{"trial_n":41,"n_dots":3.25,"target":"left","response":"left","rt":313.89999997616,"correct":true,"confidence":4},{"trial_n":42,"n_dots":3.15,"target":"right","response":"left","rt":495.39999997616,"correct":false,"confidence":4},{"trial_n":43,"n_dots":3.25,"target":"right","response":"right","rt":228.39999997616,"correct":true,"confidence":6},{"trial_n":44,"n_dots":3.25,"target":"left","response":"right","rt":1520.8000000715,"correct":false,"confidence":5},{"trial_n":45,"n_dots":3.35,"target":"right","response":"right","rt":287.89999997616,"correct":true,"confidence":4},{"trial_n":46,"n_dots":3.35,"target":"right","response":"right","rt":81.199999928474,"correct":true,"confidence":4},{"trial_n":47,"n_dots":3.25,"target":"right","response":"right","rt":283.09999990463,"correct":true,"confidence":4},{"trial_n":48,"n_dots":3.25,"target":"right","response":"left","rt":364.29999995232,"correct":false,"confidence":3},{"trial_n":49,"n_dots":3.35,"target":"left","response":"left","rt":315.39999997616,"correct":true,"confidence":3},{"trial_n":50,"n_dots":3.35,"target":"left","response":"left","rt":132,"correct":true,"confidence":5},{"trial_n":51,"n_dots":3.25,"target":"right","response":"right","rt":421.29999995232,"correct":true,"confidence":3},{"trial_n":52,"n_dots":3.25,"target":"right","response":"right","rt":359.19999992847,"correct":true,"confidence":5},{"trial_n":53,"n_dots":3.15,"target":"right","response":"right","rt":339.39999997616,"correct":true,"confidence":4},{"trial_n":54,"n_dots":3.15,"target":"left","response":"left","rt":404.10000002384,"correct":true,"confidence":4},{"trial_n":55,"n_dots":3.05,"target":"right","response":"left","rt":512.79999995232,"correct":false,"confidence":4},{"trial_n":56,"n_dots":3.15,"target":"right","response":"right","rt":190.60000002384,"correct":true,"confidence":5},{"trial_n":57,"n_dots":3.15,"target":"right","response":"right","rt":201.89999997616,"correct":true,"confidence":5},{"trial_n":58,"n_dots":3.05,"target":"left","response":"left","rt":141.30000007153,"correct":true,"confidence":3},{"trial_n":59,"n_dots":3.05,"target":"right","response":"right","rt":7.3999999761581,"correct":true,"confidence":5},{"trial_n":60,"n_dots":2.95,"target":"left","response":"left","rt":60,"correct":true,"confidence":4},{"trial_n":61,"n_dots":2.95,"target":"left","response":"left","rt":314.39999997616,"correct":true,"confidence":4},{"trial_n":62,"n_dots":2.85,"target":"left","response":"left","rt":231.39999997616,"correct":true,"confidence":2},{"trial_n":63,"n_dots":2.85,"target":"left","response":"right","rt":326.30000007153,"correct":false,"confidence":5},{"trial_n":64,"n_dots":2.95,"target":"right","response":"right","rt":260.60000002384,"correct":true,"confidence":5},{"trial_n":65,"n_dots":2.95,"target":"left","response":"left","rt":100.30000007153,"correct":true,"confidence":6},{"trial_n":66,"n_dots":2.85,"target":"left","response":"right","rt":567.39999997616,"correct":false,"confidence":4},{"trial_n":67,"n_dots":2.95,"target":"left","response":"left","rt":265.10000002384,"correct":true,"confidence":5},{"trial_n":68,"n_dots":2.95,"target":"right","response":"left","rt":572.90000009537,"correct":false,"confidence":5},{"trial_n":69,"n_dots":3.05,"target":"right","response":"left","rt":399.40000009537,"correct":false,"confidence":3},{"trial_n":70,"n_dots":3.15,"target":"left","response":"right","rt":131.19999992847,"correct":false,"confidence":4},{"trial_n":71,"n_dots":3.25,"target":"left","response":"left","rt":330.20000004768,"correct":true,"confidence":3},{"trial_n":72,"n_dots":3.25,"target":"right","response":"right","rt":103.5,"correct":true,"confidence":5},{"trial_n":73,"n_dots":3.15,"target":"right","response":"left","rt":331.59999990463,"correct":false,"confidence":3},{"trial_n":74,"n_dots":3.25,"target":"left","response":"right","rt":1128.8999999762,"correct":false,"confidence":3},{"trial_n":75,"n_dots":3.35,"target":"right","response":"right","rt":442.69999992847,"correct":true,"confidence":5},{"trial_n":76,"n_dots":3.35,"target":"left","response":"right","rt":583,"correct":false,"confidence":5},{"trial_n":77,"n_dots":3.45,"target":"left","response":"right","rt":424.60000002384,"correct":false,"confidence":2},{"trial_n":78,"n_dots":3.55,"target":"left","response":"left","rt":317.39999997616,"correct":true,"confidence":2},{"trial_n":79,"n_dots":3.55,"target":"right","response":"right","rt":322.60000002384,"correct":true,"confidence":5},{"trial_n":80,"n_dots":3.45,"target":"left","response":"left","rt":224,"correct":true,"confidence":6},{"trial_n":81,"n_dots":3.45,"target":"left","response":"left","rt":299.40000009537,"correct":true,"confidence":6},{"trial_n":82,"n_dots":3.35,"target":"right","response":"left","rt":170.79999995232,"correct":false,"confidence":6},{"trial_n":83,"n_dots":3.45,"target":"right","response":"right","rt":357.60000002384,"correct":true,"confidence":5},{"trial_n":84,"n_dots":3.45,"target":"right","response":"right","rt":303.39999997616,"correct":true,"confidence":5},{"trial_n":85,"n_dots":3.35,"target":"left","response":"right","rt":410.5,"correct":false,"confidence":5},{"trial_n":86,"n_dots":3.45,"target":"left","response":"left","rt":642.20000004768,"correct":true,"confidence":3},{"trial_n":87,"n_dots":3.45,"target":"right","response":"left","rt":247.39999997616,"correct":false,"confidence":2},{"trial_n":88,"n_dots":3.55,"target":"left","response":"left","rt":440.60000002384,"correct":true,"confidence":3},{"trial_n":89,"n_dots":3.55,"target":"left","response":"left","rt":266.5,"correct":true,"confidence":3},{"trial_n":90,"n_dots":3.45,"target":"right","response":"right","rt":333.19999992847,"correct":true,"confidence":5},{"trial_n":91,"n_dots":3.45,"target":"right","response":"right","rt":360.70000004768,"correct":true,"confidence":5},{"trial_n":92,"n_dots":3.35,"target":"left","response":"left","rt":106.70000004768,"correct":true,"confidence":4},{"trial_n":93,"n_dots":3.35,"target":"left","response":"right","rt":626.79999995232,"correct":false,"confidence":5},{"trial_n":94,"n_dots":3.45,"target":"right","response":"right","rt":125.39999997616,"correct":true,"confidence":5},{"trial_n":95,"n_dots":3.45,"target":"right","response":"right","rt":250,"correct":true,"confidence":5},{"trial_n":96,"n_dots":3.35,"target":"right","response":"right","rt":360.60000002384,"correct":true,"confidence":5},{"trial_n":97,"n_dots":3.35,"target":"left","response":"left","rt":309.60000002384,"correct":true,"confidence":5},{"trial_n":98,"n_dots":3.25,"target":"right","response":"left","rt":528.40000009537,"correct":false,"confidence":3},{"trial_n":99,"n_dots":3.35,"target":"left","response":"left","rt":278.5,"correct":true,"confidence":5},{"trial_n":100,"n_dots":3.35,"target":"right","response":"right","rt":113.89999997616,"correct":true,"confidence":5},{"trial_n":101,"n_dots":3.25,"target":"left","response":"left","rt":468.10000002384,"correct":true,"confidence":6},{"trial_n":102,"n_dots":3.25,"target":"left","response":"left","rt":334.89999997616,"correct":true,"confidence":6},{"trial_n":103,"n_dots":3.15,"target":"right","response":"left","rt":493.29999995232,"correct":false,"confidence":6},{"trial_n":104,"n_dots":3.25,"target":"right","response":"left","rt":234.39999997616,"correct":false,"confidence":6},{"trial_n":105,"n_dots":3.35,"target":"right","response":"left","rt":302.10000002384,"correct":false,"confidence":6},{"trial_n":106,"n_dots":3.45,"target":"right","response":"right","rt":357.69999992847,"correct":true,"confidence":4},{"trial_n":107,"n_dots":3.45,"target":"right","response":"right","rt":333.39999997616,"correct":true,"confidence":5},{"trial_n":108,"n_dots":3.35,"target":"left","response":"left","rt":53.199999928474,"correct":true,"confidence":6},{"trial_n":109,"n_dots":3.35,"target":"right","response":"right","rt":54.5,"correct":true,"confidence":6},{"trial_n":110,"n_dots":3.25,"target":"right","response":"right","rt":275,"correct":true,"confidence":6},{"trial_n":111,"n_dots":3.25,"target":"left","response":"left","rt":288.80000007153,"correct":true,"confidence":6},{"trial_n":112,"n_dots":3.15,"target":"left","response":"left","rt":512.70000004768,"correct":true,"confidence":5},{"trial_n":113,"n_dots":3.15,"target":"right","response":"right","rt":144.10000002384,"correct":true,"confidence":5},{"trial_n":114,"n_dots":3.05,"target":"left","response":"left","rt":95.200000047684,"correct":true,"confidence":5},{"trial_n":115,"n_dots":3.05,"target":"right","response":"right","rt":278.30000007153,"correct":true,"confidence":6},{"trial_n":116,"n_dots":2.95,"target":"right","response":"right","rt":279.69999992847,"correct":true,"confidence":6},{"trial_n":117,"n_dots":2.95,"target":"right","response":"right","rt":158.89999997616,"correct":true,"confidence":5},{"trial_n":118,"n_dots":2.85,"target":"right","response":"right","rt":272.19999992847,"correct":true,"confidence":4},{"trial_n":119,"n_dots":2.85,"target":"left","response":"left","rt":278,"correct":true,"confidence":4},{"trial_n":120,"n_dots":2.75,"target":"left","response":"left","rt":524.79999995232,"correct":true,"confidence":2},{"trial_n":121,"n_dots":2.75,"target":"right","response":"left","rt":180.19999992847,"correct":false,"confidence":4},{"trial_n":122,"n_dots":2.85,"target":"left","response":"right","rt":1.2000000476837,"correct":false,"confidence":5},{"trial_n":123,"n_dots":2.95,"target":"left","response":"left","rt":55.799999952316,"correct":true,"confidence":5},{"trial_n":124,"n_dots":2.95,"target":"left","response":"left","rt":24.300000071526,"correct":true,"confidence":5},{"trial_n":125,"n_dots":2.85,"target":"right","response":"left","rt":131,"correct":false,"confidence":5},{"trial_n":126,"n_dots":2.95,"target":"right","response":"left","rt":189.80000007153,"correct":false,"confidence":5},{"trial_n":127,"n_dots":3.05,"target":"left","response":"right","rt":600,"correct":false,"confidence":5},{"trial_n":128,"n_dots":3.15,"target":"right","response":"right","rt":692.59999990463,"correct":true,"confidence":5},{"trial_n":129,"n_dots":3.15,"target":"right","response":"right","rt":469.10000002384,"correct":true,"confidence":1},{"trial_n":130,"n_dots":3.05,"target":"left","response":"right","rt":389.70000004768,"correct":false,"confidence":5},{"trial_n":131,"n_dots":3.15,"target":"left","response":"right","rt":317.10000002384,"correct":false,"confidence":5},{"trial_n":132,"n_dots":3.25,"target":"right","response":"left","rt":440.10000002384,"correct":false,"confidence":5},{"trial_n":133,"n_dots":3.35,"target":"left","response":"left","rt":327.70000004768,"correct":true,"confidence":5},{"trial_n":134,"n_dots":3.35,"target":"left","response":"left","rt":396.19999992847,"correct":true,"confidence":5},{"trial_n":135,"n_dots":3.25,"target":"left","response":"right","rt":554.70000004768,"correct":false,"confidence":1},{"trial_n":136,"n_dots":3.35,"target":"left","response":"left","rt":201.39999997616,"correct":true,"confidence":5},{"trial_n":137,"n_dots":3.35,"target":"left","response":"left","rt":173,"correct":true,"confidence":6},{"trial_n":138,"n_dots":3.25,"target":"right","response":"right","rt":67.600000023842,"correct":true,"confidence":5},{"trial_n":139,"n_dots":3.25,"target":"right","response":"right","rt":35.899999976158,"correct":true,"confidence":6},{"trial_n":140,"n_dots":3.15,"target":"left","response":"left","rt":511.5,"correct":true,"confidence":2},{"trial_n":141,"n_dots":3.15,"target":"left","response":"right","rt":451.5,"correct":false,"confidence":2},{"trial_n":142,"n_dots":3.25,"target":"right","response":"right","rt":425.69999992847,"correct":true,"confidence":6},{"trial_n":143,"n_dots":3.25,"target":"right","response":"right","rt":371.10000002384,"correct":true,"confidence":5},{"trial_n":144,"n_dots":3.15,"target":"right","response":"left","rt":67.100000023842,"correct":false,"confidence":4},{"trial_n":145,"n_dots":3.25,"target":"left","response":"right","rt":181.90000009537,"correct":false,"confidence":5},{"trial_n":146,"n_dots":3.35,"target":"right","response":"right","rt":496.80000007153,"correct":true,"confidence":4},{"trial_n":147,"n_dots":3.35,"target":"right","response":"right","rt":212.5,"correct":true,"confidence":6},{"trial_n":148,"n_dots":3.25,"target":"right","response":"right","rt":214.89999997616,"correct":true,"confidence":5},{"trial_n":149,"n_dots":3.25,"target":"right","response":"right","rt":188.90000009537,"correct":true,"confidence":5},{"trial_n":150,"n_dots":3.15,"target":"left","response":"left","rt":126.80000007153,"correct":true,"confidence":5},{"trial_n":151,"n_dots":3.15,"target":"left","response":"left","rt":50.899999976158,"correct":true,"confidence":6},{"trial_n":152,"n_dots":3.05,"target":"right","response":"right","rt":323.30000007153,"correct":true,"confidence":5},{"trial_n":153,"n_dots":3.05,"target":"right","response":"left","rt":81.800000071526,"correct":false,"confidence":3},{"trial_n":154,"n_dots":3.15,"target":"right","response":"right","rt":315.19999992847,"correct":true,"confidence":5},{"trial_n":155,"n_dots":3.15,"target":"right","response":"left","rt":82.399999976158,"correct":false,"confidence":5},{"trial_n":156,"n_dots":3.25,"target":"right","response":"right","rt":375.30000007153,"correct":true,"confidence":5},{"trial_n":157,"n_dots":3.25,"target":"right","response":"left","rt":113.69999992847,"correct":false,"confidence":2},{"trial_n":158,"n_dots":3.35,"target":"left","response":"left","rt":448.79999995232,"correct":true,"confidence":3},{"trial_n":159,"n_dots":3.35,"target":"left","response":"right","rt":393.60000002384,"correct":false,"confidence":5},{"trial_n":160,"n_dots":3.45,"target":"left","response":"left","rt":1628.7999999523,"correct":true,"confidence":4},{"trial_n":161,"n_dots":3.45,"target":"left","response":"right","rt":712.10000002384,"correct":false,"confidence":1},{"trial_n":162,"n_dots":3.55,"target":"left","response":"left","rt":279.5,"correct":true,"confidence":4},{"trial_n":163,"n_dots":3.55,"target":"right","response":"right","rt":128.60000002384,"correct":true,"confidence":5},{"trial_n":164,"n_dots":3.45,"target":"left","response":"left","rt":569.29999995232,"correct":true,"confidence":5},{"trial_n":165,"n_dots":3.45,"target":"right","response":"right","rt":84.800000071526,"correct":true,"confidence":5},{"trial_n":166,"n_dots":3.35,"target":"right","response":"left","rt":112,"correct":false,"confidence":5},{"trial_n":167,"n_dots":3.45,"target":"left","response":"right","rt":436.5,"correct":false,"confidence":5},{"trial_n":168,"n_dots":3.55,"target":"left","response":"left","rt":567.09999990463,"correct":true,"confidence":5},{"trial_n":169,"n_dots":3.55,"target":"right","response":"right","rt":248.10000002384,"correct":true,"confidence":6},{"trial_n":170,"n_dots":3.45,"target":"left","response":"left","rt":539.79999995232,"correct":true,"confidence":4},{"trial_n":171,"n_dots":3.45,"target":"right","response":"right","rt":221.60000002384,"correct":true,"confidence":5},{"trial_n":172,"n_dots":3.35,"target":"right","response":"right","rt":316.89999997616,"correct":true,"confidence":5},{"trial_n":173,"n_dots":3.35,"target":"left","response":"left","rt":463.90000009537,"correct":true,"confidence":5},{"trial_n":174,"n_dots":3.25,"target":"right","response":"left","rt":221.70000004768,"correct":false,"confidence":5},{"trial_n":175,"n_dots":3.35,"target":"left","response":"left","rt":336.79999995232,"correct":true,"confidence":5},{"trial_n":176,"n_dots":3.35,"target":"right","response":"left","rt":200.39999997616,"correct":false,"confidence":5},{"trial_n":177,"n_dots":3.45,"target":"right","response":"left","rt":195.30000007153,"correct":false,"confidence":5},{"trial_n":178,"n_dots":3.55,"target":"left","response":"left","rt":229.89999997616,"correct":true,"confidence":5},{"trial_n":179,"n_dots":3.55,"target":"left","response":"left","rt":279.39999997616,"correct":true,"confidence":6},{"trial_n":180,"n_dots":3.45,"target":"left","response":"left","rt":223.70000004768,"correct":true,"confidence":6},{"trial_n":181,"n_dots":3.45,"target":"right","response":"right","rt":580.89999997616,"correct":true,"confidence":5},{"trial_n":182,"n_dots":3.35,"target":"left","response":"left","rt":261,"correct":true,"confidence":6},{"trial_n":183,"n_dots":3.35,"target":"left","response":"left","rt":247.39999997616,"correct":true,"confidence":6},{"trial_n":184,"n_dots":3.25,"target":"right","response":"right","rt":120.80000007153,"correct":true,"confidence":6},{"trial_n":185,"n_dots":3.25,"target":"left","response":"left","rt":208.89999997616,"correct":true,"confidence":5},{"trial_n":186,"n_dots":3.15,"target":"left","response":"left","rt":464.5,"correct":true,"confidence":5},{"trial_n":187,"n_dots":3.15,"target":"left","response":"left","rt":14.700000047684,"correct":true,"confidence":1},{"trial_n":188,"n_dots":3.05,"target":"left","response":"left","rt":141.10000002384,"correct":true,"confidence":5},{"trial_n":189,"n_dots":3.05,"target":"right","response":"right","rt":438.20000004768,"correct":true,"confidence":5},{"trial_n":190,"n_dots":2.95,"target":"left","response":"left","rt":182.60000002384,"correct":true,"confidence":4},{"trial_n":191,"n_dots":2.95,"target":"left","response":"left","rt":509.60000002384,"correct":true,"confidence":4},{"trial_n":192,"n_dots":2.85,"target":"right","response":"right","rt":258.5,"correct":true,"confidence":5},{"trial_n":193,"n_dots":2.85,"target":"right","response":"right","rt":282.70000004768,"correct":true,"confidence":5},{"trial_n":194,"n_dots":2.75,"target":"right","response":"right","rt":61.5,"correct":true,"confidence":5}]