[{"trial_n":1,"n_dots":4.25,"target":"left","response":"left","rt":2118.599999994,"correct":true,"confidence":-1},{"trial_n":2,"n_dots":4.25,"target":"left","response":"left","rt":678.29999998212,"correct":true,"confidence":-1},{"trial_n":3,"n_dots":3.85,"target":"right","response":"right","rt":674.89999997616,"correct":true,"confidence":-1},{"trial_n":4,"n_dots":3.85,"target":"right","response":"right","rt":624,"correct":true,"confidence":-1},{"trial_n":5,"n_dots":3.45,"target":"left","response":"left","rt":663.70000001788,"correct":true,"confidence":-1},{"trial_n":6,"n_dots":3.45,"target":"right","response":"right","rt":833.90000000596,"correct":true,"confidence":-1},{"trial_n":7,"n_dots":3.05,"target":"right","response":"right","rt":742,"correct":true,"confidence":-1},{"trial_n":8,"n_dots":3.05,"target":"right","response":"left","rt":729.09999999404,"correct":false,"confidence":-1},{"trial_n":9,"n_dots":3.25,"target":"right","response":"right","rt":873.39999997616,"correct":true,"confidence":-1},{"trial_n":10,"n_dots":3.25,"target":"right","response":"right","rt":891.90000000596,"correct":true,"confidence":-1},{"trial_n":11,"n_dots":3.05,"target":"left","response":"left","rt":892.19999998808,"correct":true,"confidence":-1},{"trial_n":12,"n_dots":3.05,"target":"right","response":"right","rt":923.09999999404,"correct":true,"confidence":-1},{"trial_n":13,"n_dots":2.95,"target":"left","response":"left","rt":969.40000000596,"correct":true,"confidence":-1},{"trial_n":14,"n_dots":2.95,"target":"right","response":"right","rt":1012.5,"correct":true,"confidence":-1},{"trial_n":15,"n_dots":2.85,"target":"right","response":"right","rt":895.90000000596,"correct":true,"confidence":-1},{"trial_n":16,"n_dots":2.85,"target":"left","response":"right","rt":954.5,"correct":false,"confidence":-1},{"trial_n":17,"n_dots":2.95,"target":"right","response":"left","rt":768.5,"correct":false,"confidence":-1},{"trial_n":18,"n_dots":3.05,"target":"right","response":"right","rt":773.5,"correct":true,"confidence":-1},{"trial_n":19,"n_dots":3.05,"target":"left","response":"right","rt":1092.8000000119,"correct":false,"confidence":-1},{"trial_n":20,"n_dots":3.15,"target":"left","response":"left","rt":1035.1999999881,"correct":true,"confidence":-1},{"trial_n":21,"n_dots":3.15,"target":"left","response":"left","rt":929.90000000596,"correct":true,"confidence":-1},{"trial_n":22,"n_dots":3.05,"target":"right","response":"right","rt":935.10000002384,"correct":true,"confidence":-1},{"trial_n":23,"n_dots":3.05,"target":"left","response":"left","rt":1000.8000000119,"correct":true,"confidence":-1},{"trial_n":24,"n_dots":2.95,"target":"left","response":"left","rt":1425.900000006,"correct":true,"confidence":-1},{"trial_n":25,"n_dots":2.95,"target":"left","response":"right","rt":1085.3000000119,"correct":false,"confidence":-1},{"trial_n":26,"n_dots":3.05,"target":"right","response":"right","rt":890.19999998808,"correct":true,"confidence":-1},{"trial_n":27,"n_dots":3.05,"target":"right","response":"right","rt":1039.1999999881,"correct":true,"confidence":4},{"trial_n":28,"n_dots":2.95,"target":"right","response":"left","rt":835.5,"correct":false,"confidence":5},{"trial_n":29,"n_dots":3.05,"target":"left","response":"left","rt":874.30000001192,"correct":true,"confidence":5},{"trial_n":30,"n_dots":3.05,"target":"left","response":"right","rt":776.30000001192,"correct":false,"confidence":5},{"trial_n":31,"n_dots":3.15,"target":"right","response":"right","rt":762.90000000596,"correct":true,"confidence":5},{"trial_n":32,"n_dots":3.15,"target":"left","response":"left","rt":835.19999998808,"correct":true,"confidence":5},{"trial_n":33,"n_dots":3.05,"target":"left","response":"left","rt":916.5,"correct":true,"confidence":5},{"trial_n":34,"n_dots":3.05,"target":"right","response":"right","rt":1025.3000000119,"correct":true,"confidence":5},{"trial_n":35,"n_dots":2.95,"target":"left","response":"right","rt":1285,"correct":false,"confidence":3},{"trial_n":36,"n_dots":3.05,"target":"left","response":"right","rt":1006.3000000119,"correct":false,"confidence":6},{"trial_n":37,"n_dots":3.15,"target":"left","response":"left","rt":928.79999998212,"correct":true,"confidence":5},{"trial_n":38,"n_dots":3.15,"target":"left","response":"right","rt":1168.400000006,"correct":false,"confidence":5},{"trial_n":39,"n_dots":3.25,"target":"left","response":"left","rt":912.80000001192,"correct":true,"confidence":5},{"trial_n":40,"n_dots":3.25,"target":"right","response":"right","rt":725.89999997616,"correct":true,"confidence":5},{"trial_n":41,"n_dots":3.15,"target":"right","response":"left","rt":1135.599999994,"correct":false,"confidence":5},{"trial_n":42,"n_dots":3.25,"target":"left","response":"right","rt":1131.1999999881,"correct":false,"confidence":5},{"trial_n":43,"n_dots":3.35,"target":"left","response":"left","rt":877.90000000596,"correct":true,"confidence":5},{"trial_n":44,"n_dots":3.35,"target":"right","response":"right","rt":950.30000001192,"correct":true,"confidence":5},{"trial_n":45,"n_dots":3.25,"target":"right","response":"right","rt":1100.5,"correct":true,"confidence":5},{"trial_n":46,"n_dots":3.25,"target":"left","response":"left","rt":1422.8000000119,"correct":true,"confidence":2},{"trial_n":47,"n_dots":3.15,"target":"right","response":"left","rt":1376.900000006,"correct":false,"confidence":2},{"trial_n":48,"n_dots":3.25,"target":"left","response":"left","rt":1132.900000006,"correct":true,"confidence":5},{"trial_n":49,"n_dots":3.25,"target":"right","response":"right","rt":1704.599999994,"correct":true,"confidence":5},{"trial_n":50,"n_dots":3.15,"target":"left","response":"left","rt":1022.599999994,"correct":true,"confidence":5},{"trial_n":51,"n_dots":3.15,"target":"right","response":"left","rt":1193.400000006,"correct":false,"confidence":5},{"trial_n":52,"n_dots":3.25,"target":"right","response":"right","rt":1265.900000006,"correct":true,"confidence":5},{"trial_n":53,"n_dots":3.25,"target":"right","response":"right","rt":979.30000001192,"correct":true,"confidence":5},{"trial_n":54,"n_dots":3.15,"target":"right","response":"right","rt":1116.400000006,"correct":true,"confidence":5},{"trial_n":55,"n_dots":3.15,"target":"right","response":"left","rt":1104.7999999821,"correct":false,"confidence":5},{"trial_n":56,"n_dots":3.25,"target":"left","response":"left","rt":1010.8000000119,"correct":true,"confidence":5},{"trial_n":57,"n_dots":3.25,"target":"right","response":"right","rt":1115.8000000119,"correct":true,"confidence":5},{"trial_n":58,"n_dots":3.15,"target":"left","response":"left","rt":1111.8999999762,"correct":true,"confidence":5},{"trial_n":59,"n_dots":3.15,"target":"left","response":"left","rt":1019.1999999881,"correct":true,"confidence":6},{"trial_n":60,"n_dots":3.05,"target":"left","response":"left","rt":950.29999998212,"correct":true,"confidence":5},{"trial_n":61,"n_dots":3.05,"target":"left","response":"left","rt":908.29999998212,"correct":true,"confidence":5},{"trial_n":62,"n_dots":2.95,"target":"right","response":"right","rt":1402.2000000179,"correct":true,"confidence":5},{"trial_n":63,"n_dots":2.95,"target":"left","response":"left","rt":1097.900000006,"correct":true,"confidence":5},{"trial_n":64,"n_dots":2.85,"target":"left","response":"right","rt":1070.599999994,"correct":false,"confidence":5},{"trial_n":65,"n_dots":2.95,"target":"right","response":"right","rt":1405.2999999821,"correct":true,"confidence":5},{"trial_n":66,"n_dots":2.95,"target":"left","response":"left","rt":1199.599999994,"correct":true,"confidence":5},{"trial_n":67,"n_dots":2.85,"target":"left","response":"left","rt":1251.8000000119,"correct":true,"confidence":2},{"trial_n":68,"n_dots":2.85,"target":"right","response":"right","rt":1066.8999999762,"correct":true,"confidence":5},{"trial_n":69,"n_dots":2.75,"target":"right","response":"right","rt":1193.099999994,"correct":true,"confidence":4},{"trial_n":70,"n_dots":2.75,"target":"right","response":"right","rt":1002.099999994,"correct":true,"confidence":5},{"trial_n":71,"n_dots":2.65,"target":"left","response":"left","rt":1072.2000000179,"correct":true,"confidence":5},{"trial_n":72,"n_dots":2.65,"target":"right","response":"right","rt":878.30000001192,"correct":true,"confidence":5},{"trial_n":73,"n_dots":2.55,"target":"right","response":"right","rt":733.29999998212,"correct":true,"confidence":5},{"trial_n":74,"n_dots":2.55,"target":"left","response":"left","rt":1031.5,"correct":true,"confidence":5},{"trial_n":75,"n_dots":2.45,"target":"right","response":"left","rt":796.69999998808,"correct":false,"confidence":5},{"trial_n":76,"n_dots":2.55,"target":"right","response":"right","rt":1165.3000000119,"correct":true,"confidence":5},{"trial_n":77,"n_dots":2.55,"target":"left","response":"left","rt":1046,"correct":true,"confidence":5},{"trial_n":78,"n_dots":2.45,"target":"right","response":"right","rt":786.79999998212,"correct":true,"confidence":5},{"trial_n":79,"n_dots":2.45,"target":"right","response":"right","rt":1361.599999994,"correct":true,"confidence":5},{"trial_n":80,"n_dots":2.35,"target":"right","response":"left","rt":881.10000002384,"correct":false,"confidence":5},{"trial_n":81,"n_dots":2.45,"target":"right","response":"right","rt":1195.599999994,"correct":true,"confidence":5},{"trial_n":82,"n_dots":2.45,"target":"left","response":"left","rt":993.20000001788,"correct":true,"confidence":5},{"trial_n":83,"n_dots":2.35,"target":"right","response":"left","rt":953.80000001192,"correct":false,"confidence":5},{"trial_n":84,"n_dots":2.45,"target":"right","response":"left","rt":766.79999998212,"correct":false,"confidence":5},{"trial_n":85,"n_dots":2.55,"target":"left","response":"right","rt":964.29999998212,"correct":false,"confidence":5},{"trial_n":86,"n_dots":2.65,"target":"left","response":"left","rt":2667,"correct":true,"confidence":5},{"trial_n":87,"n_dots":2.65,"target":"left","response":"right","rt":1613.1999999881,"correct":false,"confidence":2},{"trial_n":88,"n_dots":2.75,"target":"right","response":"right","rt":1745.3000000119,"correct":true,"confidence":2},{"trial_n":89,"n_dots":2.75,"target":"left","response":"left","rt":4378.6000000238,"correct":true,"confidence":2},{"trial_n":90,"n_dots":2.65,"target":"left","response":"left","rt":941.60000002384,"correct":true,"confidence":5},{"trial_n":91,"n_dots":2.65,"target":"right","response":"left","rt":1022.1000000238,"correct":false,"confidence":5},{"trial_n":92,"n_dots":2.75,"target":"left","response":"right","rt":948,"correct":false,"confidence":5},{"trial_n":93,"n_dots":2.85,"target":"left","response":"left","rt":1013.1999999881,"correct":true,"confidence":2},{"trial_n":94,"n_dots":2.85,"target":"left","response":"right","rt":988.80000001192,"correct":false,"confidence":4},{"trial_n":95,"n_dots":2.95,"target":"left","response":"right","rt":819.5,"correct":false,"confidence":4},{"trial_n":96,"n_dots":3.05,"target":"left","response":"left","rt":1246.3000000119,"correct":true,"confidence":1},{"trial_n":97,"n_dots":3.05,"target":"right","response":"right","rt":832.69999998808,"correct":true,"confidence":3},{"trial_n":98,"n_dots":2.95,"target":"left","response":"left","rt":463.89999997616,"correct":true,"confidence":4},{"trial_n":99,"n_dots":2.95,"target":"right","response":"right","rt":780.19999998808,"correct":true,"confidence":4},{"trial_n":100,"n_dots":2.85,"target":"left","response":"left","rt":705.79999998212,"correct":true,"confidence":4},{"trial_n":101,"n_dots":2.85,"target":"right","response":"right","rt":1193.400000006,"correct":true,"confidence":4},{"trial_n":102,"n_dots":2.75,"target":"left","response":"left","rt":592.20000001788,"correct":true,"confidence":4},{"trial_n":103,"n_dots":2.75,"target":"right","response":"right","rt":808.80000001192,"correct":true,"confidence":4},{"trial_n":104,"n_dots":2.65,"target":"left","response":"left","rt":610.90000000596,"correct":true,"confidence":4},{"trial_n":105,"n_dots":2.65,"target":"right","response":"left","rt":629.20000001788,"correct":false,"confidence":4},{"trial_n":106,"n_dots":2.75,"target":"right","response":"left","rt":1135.099999994,"correct":false,"confidence":4},{"trial_n":107,"n_dots":2.85,"target":"right","response":"right","rt":977.5,"correct":true,"confidence":4},{"trial_n":108,"n_dots":2.85,"target":"left","response":"left","rt":593.89999997616,"correct":true,"confidence":4},{"trial_n":109,"n_dots":2.75,"target":"right","response":"left","rt":883,"correct":false,"confidence":4},{"trial_n":110,"n_dots":2.85,"target":"left","response":"left","rt":758.09999999404,"correct":true,"confidence":5},{"trial_n":111,"n_dots":2.85,"target":"right","response":"left","rt":1941.8000000119,"correct":false,"confidence":5},{"trial_n":112,"n_dots":2.95,"target":"left","response":"left","rt":832.09999999404,"correct":true,"confidence":5},{"trial_n":113,"n_dots":2.95,"target":"left","response":"right","rt":1145.3000000119,"correct":false,"confidence":5},{"trial_n":114,"n_dots":3.05,"target":"left","response":"left","rt":848.30000001192,"correct":true,"confidence":5},{"trial_n":115,"n_dots":3.05,"target":"left","response":"left","rt":783.90000000596,"correct":true,"confidence":5},{"trial_n":116,"n_dots":2.95,"target":"left","response":"left","rt":637,"correct":true,"confidence":5},{"trial_n":117,"n_dots":2.95,"target":"left","response":"left","rt":791,"correct":true,"confidence":5},{"trial_n":118,"n_dots":2.85,"target":"right","response":"left","rt":736.70000001788,"correct":false,"confidence":5},{"trial_n":119,"n_dots":2.95,"target":"right","response":"right","rt":909.70000001788,"correct":true,"confidence":5},{"trial_n":120,"n_dots":2.95,"target":"right","response":"right","rt":755.40000000596,"correct":true,"confidence":5},{"trial_n":121,"n_dots":2.85,"target":"right","response":"right","rt":973.29999998212,"correct":true,"confidence":5},{"trial_n":122,"n_dots":2.85,"target":"left","response":"left","rt":662.90000000596,"correct":true,"confidence":5},{"trial_n":123,"n_dots":2.75,"target":"left","response":"left","rt":687,"correct":true,"confidence":5},{"trial_n":124,"n_dots":2.75,"target":"right","response":"right","rt":1009.7000000179,"correct":true,"confidence":5},{"trial_n":125,"n_dots":2.65,"target":"left","response":"left","rt":559.20000001788,"correct":true,"confidence":4},{"trial_n":126,"n_dots":2.65,"target":"right","response":"left","rt":1974.900000006,"correct":false,"confidence":4},{"trial_n":127,"n_dots":2.75,"target":"left","response":"right","rt":823.19999998808,"correct":false,"confidence":4},{"trial_n":128,"n_dots":2.85,"target":"right","response":"left","rt":675.40000000596,"correct":false,"confidence":5},{"trial_n":129,"n_dots":2.95,"target":"left","response":"left","rt":621.10000002384,"correct":true,"confidence":5},{"trial_n":130,"n_dots":2.95,"target":"left","response":"left","rt":462.69999998808,"correct":true,"confidence":5},{"trial_n":131,"n_dots":2.85,"target":"left","response":"right","rt":940.10000002384,"correct":false,"confidence":5},{"trial_n":132,"n_dots":2.95,"target":"left","response":"left","rt":865.90000000596,"correct":true,"confidence":5},{"trial_n":133,"n_dots":2.95,"target":"right","response":"left","rt":937.09999999404,"correct":false,"confidence":5},{"trial_n":134,"n_dots":3.05,"target":"left","response":"left","rt":468,"correct":true,"confidence":5},{"trial_n":135,"n_dots":3.05,"target":"right","response":"right","rt":915.90000000596,"correct":true,"confidence":5},{"trial_n":136,"n_dots":2.95,"target":"right","response":"right","rt":704.30000001192,"correct":true,"confidence":5},{"trial_n":137,"n_dots":2.95,"target":"left","response":"left","rt":694.89999997616,"correct":true,"confidence":5},{"trial_n":138,"n_dots":2.85,"target":"left","response":"left","rt":758.5,"correct":true,"confidence":5},{"trial_n":139,"n_dots":2.85,"target":"right","response":"right","rt":671.90000000596,"correct":true,"confidence":5},{"trial_n":140,"n_dots":2.75,"target":"right","response":"right","rt":847.59999999404,"correct":true,"confidence":5},{"trial_n":141,"n_dots":2.75,"target":"left","response":"left","rt":959,"correct":true,"confidence":5},{"trial_n":142,"n_dots":2.65,"target":"right","response":"right","rt":741.80000001192,"correct":true,"confidence":5},{"trial_n":143,"n_dots":2.65,"target":"right","response":"right","rt":737.29999998212,"correct":true,"confidence":5},{"trial_n":144,"n_dots":2.55,"target":"left","response":"left","rt":774.79999998212,"correct":true,"confidence":5},{"trial_n":145,"n_dots":2.55,"target":"left","response":"left","rt":814.59999999404,"correct":true,"confidence":5},{"trial_n":146,"n_dots":2.45,"target":"left","response":"left","rt":819.89999997616,"correct":true,"confidence":5},{"trial_n":147,"n_dots":2.45,"target":"right","response":"right","rt":728.5,"correct":true,"confidence":5},{"trial_n":148,"n_dots":2.35,"target":"left","response":"left","rt":654.40000000596,"correct":true,"confidence":3},{"trial_n":149,"n_dots":2.35,"target":"right","response":"right","rt":1070.2000000179,"correct":true,"confidence":2},{"trial_n":150,"n_dots":2.25,"target":"right","response":"left","rt":628.40000000596,"correct":false,"confidence":2},{"trial_n":151,"n_dots":2.35,"target":"left","response":"left","rt":620.90000000596,"correct":true,"confidence":2},{"trial_n":152,"n_dots":2.35,"target":"left","response":"left","rt":527.5,"correct":true,"confidence":2},{"trial_n":153,"n_dots":2.25,"target":"right","response":"right","rt":637.69999998808,"correct":true,"confidence":2},{"trial_n":154,"n_dots":2.25,"target":"right","response":"right","rt":696,"correct":true,"confidence":2},{"trial_n":155,"n_dots":2.15,"target":"left","response":"left","rt":940.40000000596,"correct":true,"confidence":2},{"trial_n":156,"n_dots":2.15,"target":"left","response":"left","rt":927.29999998212,"correct":true,"confidence":2},{"trial_n":157,"n_dots":2.05,"target":"left","response":"left","rt":638.69999998808,"correct":true,"confidence":2},{"trial_n":158,"n_dots":2.05,"target":"right","response":"left","rt":589.59999999404,"correct":false,"confidence":2},{"trial_n":159,"n_dots":2.15,"target":"left","response":"left","rt":724.59999999404,"correct":true,"confidence":2},{"trial_n":160,"n_dots":2.15,"target":"left","response":"left","rt":871.79999998212,"correct":true,"confidence":3},{"trial_n":161,"n_dots":2.05,"target":"right","response":"left","rt":862.69999998808,"correct":false,"confidence":3},{"trial_n":162,"n_dots":2.15,"target":"right","response":"left","rt":1057.3000000119,"correct":false,"confidence":3},{"trial_n":163,"n_dots":2.25,"target":"right","response":"left","rt":2278.7999999821,"correct":false,"confidence":1},{"trial_n":164,"n_dots":2.35,"target":"right","response":"right","rt":965.29999998212,"correct":true,"confidence":3},{"trial_n":165,"n_dots":2.35,"target":"right","response":"left","rt":1032.6999999881,"correct":false,"confidence":3},{"trial_n":166,"n_dots":2.45,"target":"left","response":"left","rt":739.30000001192,"correct":true,"confidence":4},{"trial_n":167,"n_dots":2.45,"target":"left","response":"left","rt":1083.7999999821,"correct":true,"confidence":4},{"trial_n":168,"n_dots":2.35,"target":"right","response":"left","rt":1158.2000000179,"correct":false,"confidence":1},{"trial_n":169,"n_dots":2.45,"target":"right","response":"right","rt":856,"correct":true,"confidence":1},{"trial_n":170,"n_dots":2.45,"target":"left","response":"left","rt":847.19999998808,"correct":true,"confidence":4},{"trial_n":171,"n_dots":2.35,"target":"right","response":"right","rt":1574.8000000119,"correct":true,"confidence":5},{"trial_n":172,"n_dots":2.35,"target":"right","response":"right","rt":973.70000001788,"correct":true,"confidence":4},{"trial_n":173,"n_dots":2.25,"target":"left","response":"right","rt":1093.3000000119,"correct":false,"confidence":4},{"trial_n":174,"n_dots":2.35,"target":"right","response":"right","rt":915.5,"correct":true,"confidence":4},{"trial_n":175,"n_dots":2.35,"target":"left","response":"right","rt":952.30000001192,"correct":false,"confidence":4},{"trial_n":176,"n_dots":2.45,"target":"right","response":"left","rt":1083.7000000179,"correct":false,"confidence":5},{"trial_n":177,"n_dots":2.55,"target":"right","response":"right","rt":1006.8000000119,"correct":true,"confidence":5},{"trial_n":178,"n_dots":2.55,"target":"left","response":"left","rt":4731.1999999881,"correct":true,"confidence":1},{"trial_n":179,"n_dots":2.45,"target":"left","response":"right","rt":989.5,"correct":false,"confidence":5},{"trial_n":180,"n_dots":2.55,"target":"right","response":"left","rt":680.19999998808,"correct":false,"confidence":5},{"trial_n":181,"n_dots":2.65,"target":"right","response":"left","rt":638.39999997616,"correct":false,"confidence":5},{"trial_n":182,"n_dots":2.75,"target":"right","response":"left","rt":709.09999999404,"correct":false,"confidence":3},{"trial_n":183,"n_dots":2.85,"target":"left","response":"left","rt":727,"correct":true,"confidence":4},{"trial_n":184,"n_dots":2.85,"target":"right","response":"right","rt":627.59999999404,"correct":true,"confidence":3},{"trial_n":185,"n_dots":2.75,"target":"right","response":"right","rt":872.59999999404,"correct":true,"confidence":4},{"trial_n":186,"n_dots":2.75,"target":"left","response":"left","rt":675.40000000596,"correct":true,"confidence":3},{"trial_n":187,"n_dots":2.65,"target":"left","response":"left","rt":1406.400000006,"correct":true,"confidence":4},{"trial_n":188,"n_dots":2.65,"target":"right","response":"right","rt":921.90000000596,"correct":true,"confidence":4},{"trial_n":189,"n_dots":2.55,"target":"right","response":"right","rt":919.09999999404,"correct":true,"confidence":4},{"trial_n":190,"n_dots":2.55,"target":"left","response":"right","rt":937.59999999404,"correct":false,"confidence":4},{"trial_n":191,"n_dots":2.65,"target":"left","response":"left","rt":1292.2999999821,"correct":true,"confidence":4},{"trial_n":192,"n_dots":2.65,"target":"left","response":"left","rt":837,"correct":true,"confidence":3},{"trial_n":193,"n_dots":2.55,"target":"right","response":"right","rt":783.60000002384,"correct":true,"confidence":3},{"trial_n":194,"n_dots":2.55,"target":"right","response":"left","rt":1100,"correct":false,"confidence":4}]