[{"trial_n":1,"n_dots":4.25,"target":"left","response":"left","rt":3360.8999999985,"correct":true,"confidence":-1},{"trial_n":2,"n_dots":4.25,"target":"left","response":"left","rt":912.5,"correct":true,"confidence":-1},{"trial_n":3,"n_dots":3.85,"target":"right","response":"right","rt":395.60000000149,"correct":true,"confidence":-1},{"trial_n":4,"n_dots":3.85,"target":"right","response":"right","rt":400.20000000298,"correct":true,"confidence":-1},{"trial_n":5,"n_dots":3.45,"target":"right","response":"left","rt":301.29999999702,"correct":false,"confidence":-1},{"trial_n":6,"n_dots":3.85,"target":"left","response":"left","rt":462.60000000149,"correct":true,"confidence":-1},{"trial_n":7,"n_dots":3.85,"target":"left","response":"left","rt":295.70000000298,"correct":true,"confidence":-1},{"trial_n":8,"n_dots":3.65,"target":"left","response":"left","rt":201.89999999851,"correct":true,"confidence":-1},{"trial_n":9,"n_dots":3.65,"target":"left","response":"left","rt":170.89999999851,"correct":true,"confidence":-1},{"trial_n":10,"n_dots":3.45,"target":"left","response":"left","rt":106.69999999553,"correct":true,"confidence":-1},{"trial_n":11,"n_dots":3.45,"target":"right","response":"right","rt":199.79999999702,"correct":true,"confidence":-1},{"trial_n":12,"n_dots":3.25,"target":"right","response":"left","rt":174.60000000149,"correct":false,"confidence":-1},{"trial_n":13,"n_dots":3.35,"target":"left","response":"left","rt":48.20000000298,"correct":true,"confidence":-1},{"trial_n":14,"n_dots":3.35,"target":"left","response":"left","rt":261.79999999702,"correct":true,"confidence":-1},{"trial_n":15,"n_dots":3.25,"target":"left","response":"right","rt":265.79999999702,"correct":false,"confidence":-1},{"trial_n":16,"n_dots":3.35,"target":"left","response":"left","rt":88.70000000298,"correct":true,"confidence":-1},{"trial_n":17,"n_dots":3.35,"target":"left","response":"left","rt":252,"correct":true,"confidence":-1},{"trial_n":18,"n_dots":3.25,"target":"right","response":"left","rt":113,"correct":false,"confidence":-1},{"trial_n":19,"n_dots":3.35,"target":"left","response":"left","rt":34.89999999851,"correct":true,"confidence":-1},{"trial_n":20,"n_dots":3.35,"target":"right","response":"left","rt":41.80000000447,"correct":false,"confidence":-1},{"trial_n":21,"n_dots":3.45,"target":"right","response":"right","rt":56.89999999851,"correct":true,"confidence":-1},{"trial_n":22,"n_dots":3.45,"target":"left","response":"left","rt":1651.8999999985,"correct":true,"confidence":-1},{"trial_n":23,"n_dots":3.35,"target":"right","response":"right","rt":435.5,"correct":true,"confidence":-1},{"trial_n":24,"n_dots":3.35,"target":"right","response":"left","rt":146.20000000298,"correct":false,"confidence":-1},{"trial_n":25,"n_dots":3.45,"target":"right","response":"left","rt":131.69999999553,"correct":false,"confidence":-1},{"trial_n":26,"n_dots":3.55,"target":"right","response":"left","rt":523.20000000298,"correct":false,"confidence":-1},{"trial_n":27,"n_dots":3.65,"target":"left","response":"left","rt":386.79999999702,"correct":true,"confidence":3},{"trial_n":28,"n_dots":3.65,"target":"right","response":"right","rt":92.29999999702,"correct":true,"confidence":6},{"trial_n":29,"n_dots":3.55,"target":"right","response":"left","rt":836.79999999702,"correct":false,"confidence":3},{"trial_n":30,"n_dots":3.65,"target":"right","response":"right","rt":289.60000000149,"correct":true,"confidence":3},{"trial_n":31,"n_dots":3.65,"target":"left","response":"left","rt":295.60000000149,"correct":true,"confidence":5},{"trial_n":32,"n_dots":3.55,"target":"right","response":"right","rt":268.10000000149,"correct":true,"confidence":6},{"trial_n":33,"n_dots":3.55,"target":"right","response":"left","rt":162.20000000298,"correct":false,"confidence":6},{"trial_n":34,"n_dots":3.65,"target":"right","response":"right","rt":795.60000000149,"correct":true,"confidence":3},{"trial_n":35,"n_dots":3.65,"target":"right","response":"left","rt":335.80000000447,"correct":false,"confidence":3},{"trial_n":36,"n_dots":3.75,"target":"left","response":"left","rt":438.89999999851,"correct":true,"confidence":3},{"trial_n":37,"n_dots":3.75,"target":"left","response":"left","rt":285.20000000298,"correct":true,"confidence":3},{"trial_n":38,"n_dots":3.65,"target":"right","response":"right","rt":275.89999999851,"correct":true,"confidence":3},{"trial_n":39,"n_dots":3.65,"target":"left","response":"right","rt":110.80000000447,"correct":false,"confidence":3},{"trial_n":40,"n_dots":3.75,"target":"left","response":"left","rt":407.29999999702,"correct":true,"confidence":6},{"trial_n":41,"n_dots":3.75,"target":"left","response":"left","rt":283.29999999702,"correct":true,"confidence":5},{"trial_n":42,"n_dots":3.65,"target":"right","response":"right","rt":99.89999999851,"correct":true,"confidence":4},{"trial_n":43,"n_dots":3.65,"target":"left","response":"left","rt":228.60000000149,"correct":true,"confidence":4},{"trial_n":44,"n_dots":3.55,"target":"right","response":"right","rt":79.89999999851,"correct":true,"confidence":4},{"trial_n":45,"n_dots":3.55,"target":"left","response":"left","rt":66.80000000447,"correct":true,"confidence":5},{"trial_n":46,"n_dots":3.45,"target":"left","response":"left","rt":687.5,"correct":true,"confidence":5},{"trial_n":47,"n_dots":3.45,"target":"left","response":"left","rt":10.29999999702,"correct":true,"confidence":6},{"trial_n":48,"n_dots":3.35,"target":"right","response":"right","rt":269.60000000149,"correct":true,"confidence":6},{"trial_n":49,"n_dots":3.35,"target":"right","response":"right","rt":178.30000000447,"correct":true,"confidence":5},{"trial_n":50,"n_dots":3.25,"target":"left","response":"left","rt":132.70000000298,"correct":true,"confidence":6},{"trial_n":51,"n_dots":3.25,"target":"right","response":"left","rt":131,"correct":false,"confidence":5},{"trial_n":52,"n_dots":3.35,"target":"left","response":"left","rt":159.39999999851,"correct":true,"confidence":4},{"trial_n":53,"n_dots":3.35,"target":"right","response":"right","rt":209.19999999553,"correct":true,"confidence":5},{"trial_n":54,"n_dots":3.25,"target":"right","response":"left","rt":212.39999999851,"correct":false,"confidence":4},{"trial_n":55,"n_dots":3.35,"target":"left","response":"left","rt":115.10000000149,"correct":true,"confidence":4},{"trial_n":56,"n_dots":3.35,"target":"right","response":"right","rt":279.20000000298,"correct":true,"confidence":4},{"trial_n":57,"n_dots":3.25,"target":"right","response":"left","rt":233.80000000447,"correct":false,"confidence":4},{"trial_n":58,"n_dots":3.35,"target":"left","response":"left","rt":54.80000000447,"correct":true,"confidence":4},{"trial_n":59,"n_dots":3.35,"target":"left","response":"right","rt":596.10000000149,"correct":false,"confidence":4},{"trial_n":60,"n_dots":3.45,"target":"right","response":"left","rt":239.20000000298,"correct":false,"confidence":4},{"trial_n":61,"n_dots":3.55,"target":"left","response":"left","rt":213,"correct":true,"confidence":6},{"trial_n":62,"n_dots":3.55,"target":"left","response":"left","rt":192.39999999851,"correct":true,"confidence":5},{"trial_n":63,"n_dots":3.45,"target":"right","response":"left","rt":161.39999999851,"correct":false,"confidence":5},{"trial_n":64,"n_dots":3.55,"target":"left","response":"left","rt":338.60000000149,"correct":true,"confidence":6},{"trial_n":65,"n_dots":3.55,"target":"right","response":"right","rt":157.60000000149,"correct":true,"confidence":5},{"trial_n":66,"n_dots":3.45,"target":"right","response":"right","rt":247.80000000447,"correct":true,"confidence":4},{"trial_n":67,"n_dots":3.45,"target":"right","response":"right","rt":231,"correct":true,"confidence":5},{"trial_n":68,"n_dots":3.35,"target":"right","response":"right","rt":334.39999999851,"correct":true,"confidence":5},{"trial_n":69,"n_dots":3.35,"target":"right","response":"right","rt":213.39999999851,"correct":true,"confidence":6},{"trial_n":70,"n_dots":3.25,"target":"right","response":"right","rt":168.20000000298,"correct":true,"confidence":4},{"trial_n":71,"n_dots":3.25,"target":"right","response":"left","rt":269.39999999851,"correct":false,"confidence":4},{"trial_n":72,"n_dots":3.35,"target":"right","response":"right","rt":281.29999999702,"correct":true,"confidence":4},{"trial_n":73,"n_dots":3.35,"target":"right","response":"right","rt":261.89999999851,"correct":true,"confidence":4},{"trial_n":74,"n_dots":3.25,"target":"left","response":"left","rt":155.39999999851,"correct":true,"confidence":6},{"trial_n":75,"n_dots":3.25,"target":"right","response":"right","rt":266.5,"correct":true,"confidence":3},{"trial_n":76,"n_dots":3.15,"target":"left","response":"left","rt":236.90000000596,"correct":true,"confidence":3},{"trial_n":77,"n_dots":3.15,"target":"left","response":"left","rt":133.20000000298,"correct":true,"confidence":3},{"trial_n":78,"n_dots":3.05,"target":"left","response":"left","rt":313.5,"correct":true,"confidence":3},{"trial_n":79,"n_dots":3.05,"target":"right","response":"right","rt":104.10000000149,"correct":true,"confidence":4},{"trial_n":80,"n_dots":2.95,"target":"left","response":"left","rt":192.5,"correct":true,"confidence":3},{"trial_n":81,"n_dots":2.95,"target":"right","response":"left","rt":59.89999999851,"correct":false,"confidence":3},{"trial_n":82,"n_dots":3.05,"target":"left","response":"left","rt":440.30000000447,"correct":true,"confidence":3},{"trial_n":83,"n_dots":3.05,"target":"right","response":"right","rt":205.60000000149,"correct":true,"confidence":4},{"trial_n":84,"n_dots":2.95,"target":"left","response":"left","rt":244.60000000149,"correct":true,"confidence":3},{"trial_n":85,"n_dots":2.95,"target":"left","response":"left","rt":86,"correct":true,"confidence":3},{"trial_n":86,"n_dots":2.85,"target":"right","response":"left","rt":273.60000000149,"correct":false,"confidence":3},{"trial_n":87,"n_dots":2.95,"target":"right","response":"left","rt":72.5,"correct":false,"confidence":3},{"trial_n":88,"n_dots":3.05,"target":"left","response":"left","rt":48.29999999702,"correct":true,"confidence":4},{"trial_n":89,"n_dots":3.05,"target":"right","response":"right","rt":207.40000000596,"correct":true,"confidence":3},{"trial_n":90,"n_dots":2.95,"target":"right","response":"left","rt":229.5,"correct":false,"confidence":3},{"trial_n":91,"n_dots":3.05,"target":"left","response":"left","rt":257.5,"correct":true,"confidence":3},{"trial_n":92,"n_dots":3.05,"target":"right","response":"right","rt":64.89999999851,"correct":true,"confidence":4},{"trial_n":93,"n_dots":2.95,"target":"right","response":"right","rt":216.40000000596,"correct":true,"confidence":3},{"trial_n":94,"n_dots":2.95,"target":"right","response":"left","rt":188,"correct":false,"confidence":3},{"trial_n":95,"n_dots":3.05,"target":"right","response":"right","rt":116.09999999404,"correct":true,"confidence":3},{"trial_n":96,"n_dots":3.05,"target":"left","response":"left","rt":236.40000000596,"correct":true,"confidence":5},{"trial_n":97,"n_dots":2.95,"target":"right","response":"right","rt":486.90000000596,"correct":true,"confidence":3},{"trial_n":98,"n_dots":2.95,"target":"right","response":"left","rt":390.19999999553,"correct":false,"confidence":4},{"trial_n":99,"n_dots":3.05,"target":"left","response":"left","rt":322.90000000596,"correct":true,"confidence":4},{"trial_n":100,"n_dots":3.05,"target":"left","response":"left","rt":266.19999999553,"correct":true,"confidence":4},{"trial_n":101,"n_dots":2.95,"target":"right","response":"right","rt":264.10000000149,"correct":true,"confidence":4},{"trial_n":102,"n_dots":2.95,"target":"left","response":"left","rt":214.69999999553,"correct":true,"confidence":3},{"trial_n":103,"n_dots":2.85,"target":"left","response":"right","rt":328.89999999851,"correct":false,"confidence":3},{"trial_n":104,"n_dots":2.95,"target":"right","response":"left","rt":260.80000000447,"correct":false,"confidence":3},{"trial_n":105,"n_dots":3.05,"target":"right","response":"left","rt":304.20000000298,"correct":false,"confidence":3},{"trial_n":106,"n_dots":3.15,"target":"right","response":"left","rt":359,"correct":false,"confidence":4},{"trial_n":107,"n_dots":3.25,"target":"left","response":"left","rt":392.20000000298,"correct":true,"confidence":3},{"trial_n":108,"n_dots":3.25,"target":"left","response":"left","rt":178.19999999553,"correct":true,"confidence":6},{"trial_n":109,"n_dots":3.15,"target":"left","response":"left","rt":204.39999999851,"correct":true,"confidence":4},{"trial_n":110,"n_dots":3.15,"target":"right","response":"right","rt":367.90000000596,"correct":true,"confidence":3},{"trial_n":111,"n_dots":3.05,"target":"left","response":"left","rt":235.90000000596,"correct":true,"confidence":4},{"trial_n":112,"n_dots":3.05,"target":"right","response":"left","rt":429.69999999553,"correct":false,"confidence":3},{"trial_n":113,"n_dots":3.15,"target":"right","response":"right","rt":340.70000000298,"correct":true,"confidence":4},{"trial_n":114,"n_dots":3.15,"target":"right","response":"right","rt":273.70000000298,"correct":true,"confidence":4},{"trial_n":115,"n_dots":3.05,"target":"right","response":"left","rt":427.60000000149,"correct":false,"confidence":3},{"trial_n":116,"n_dots":3.15,"target":"left","response":"left","rt":151,"correct":true,"confidence":3},{"trial_n":117,"n_dots":3.15,"target":"left","response":"left","rt":294.5,"correct":true,"confidence":3},{"trial_n":118,"n_dots":3.05,"target":"right","response":"right","rt":254.20000000298,"correct":true,"confidence":3},{"trial_n":119,"n_dots":3.05,"target":"left","response":"left","rt":204.39999999851,"correct":true,"confidence":3},{"trial_n":120,"n_dots":2.95,"target":"left","response":"left","rt":257.5,"correct":true,"confidence":2},{"trial_n":121,"n_dots":2.95,"target":"right","response":"right","rt":334.89999999851,"correct":true,"confidence":3},{"trial_n":122,"n_dots":2.85,"target":"left","response":"right","rt":402,"correct":false,"confidence":3},{"trial_n":123,"n_dots":2.95,"target":"right","response":"left","rt":251.59999999404,"correct":false,"confidence":3},{"trial_n":124,"n_dots":3.05,"target":"right","response":"left","rt":338.69999999553,"correct":false,"confidence":3},{"trial_n":125,"n_dots":3.15,"target":"right","response":"right","rt":159.90000000596,"correct":true,"confidence":3},{"trial_n":126,"n_dots":3.15,"target":"left","response":"left","rt":197.19999999553,"correct":true,"confidence":3},{"trial_n":127,"n_dots":3.05,"target":"left","response":"left","rt":56.60000000149,"correct":true,"confidence":3},{"trial_n":128,"n_dots":3.05,"target":"left","response":"left","rt":139.89999999851,"correct":true,"confidence":3},{"trial_n":129,"n_dots":2.95,"target":"right","response":"right","rt":403.09999999404,"correct":true,"confidence":3},{"trial_n":130,"n_dots":2.95,"target":"left","response":"left","rt":155.69999999553,"correct":true,"confidence":3},{"trial_n":131,"n_dots":2.85,"target":"right","response":"right","rt":264.29999999702,"correct":true,"confidence":3},{"trial_n":132,"n_dots":2.85,"target":"left","response":"left","rt":328.5,"correct":true,"confidence":3},{"trial_n":133,"n_dots":2.75,"target":"right","response":"left","rt":367,"correct":false,"confidence":3},{"trial_n":134,"n_dots":2.85,"target":"right","response":"right","rt":333.09999999404,"correct":true,"confidence":3},{"trial_n":135,"n_dots":2.85,"target":"left","response":"left","rt":269.20000000298,"correct":true,"confidence":4},{"trial_n":136,"n_dots":2.75,"target":"right","response":"left","rt":209,"correct":false,"confidence":5},{"trial_n":137,"n_dots":2.85,"target":"left","response":"left","rt":251,"correct":true,"confidence":5},{"trial_n":138,"n_dots":2.85,"target":"left","response":"left","rt":619.5,"correct":true,"confidence":3},{"trial_n":139,"n_dots":2.75,"target":"right","response":"right","rt":189.10000000149,"correct":true,"confidence":5},{"trial_n":140,"n_dots":2.75,"target":"left","response":"left","rt":254,"correct":true,"confidence":5},{"trial_n":141,"n_dots":2.65,"target":"right","response":"left","rt":455.90000000596,"correct":false,"confidence":2},{"trial_n":142,"n_dots":2.75,"target":"right","response":"right","rt":481.69999999553,"correct":true,"confidence":3},{"trial_n":143,"n_dots":2.75,"target":"left","response":"left","rt":30.39999999851,"correct":true,"confidence":6},{"trial_n":144,"n_dots":2.65,"target":"left","response":"left","rt":326.60000000149,"correct":true,"confidence":6},{"trial_n":145,"n_dots":2.65,"target":"left","response":"left","rt":157.19999999553,"correct":true,"confidence":6},{"trial_n":146,"n_dots":2.55,"target":"right","response":"right","rt":149.10000000149,"correct":true,"confidence":6},{"trial_n":147,"n_dots":2.55,"target":"left","response":"left","rt":95.60000000149,"correct":true,"confidence":5},{"trial_n":148,"n_dots":2.45,"target":"right","response":"right","rt":129.40000000596,"correct":true,"confidence":5},{"trial_n":149,"n_dots":2.45,"target":"left","response":"left","rt":86.09999999404,"correct":true,"confidence":5},{"trial_n":150,"n_dots":2.35,"target":"right","response":"right","rt":347.29999999702,"correct":true,"confidence":5},{"trial_n":151,"n_dots":2.35,"target":"left","response":"left","rt":318.89999999851,"correct":true,"confidence":5},{"trial_n":152,"n_dots":2.25,"target":"left","response":"left","rt":121.39999999851,"correct":true,"confidence":4},{"trial_n":153,"n_dots":2.25,"target":"left","response":"left","rt":309.10000000149,"correct":true,"confidence":5},{"trial_n":154,"n_dots":2.15,"target":"right","response":"left","rt":48.19999999553,"correct":false,"confidence":5},{"trial_n":155,"n_dots":2.25,"target":"left","response":"left","rt":99.60000000149,"correct":true,"confidence":5},{"trial_n":156,"n_dots":2.25,"target":"right","response":"left","rt":29.10000000149,"correct":false,"confidence":5},{"trial_n":157,"n_dots":2.35,"target":"left","response":"left","rt":263.89999999851,"correct":true,"confidence":5},{"trial_n":158,"n_dots":2.35,"target":"left","response":"right","rt":45.29999999702,"correct":false,"confidence":5},{"trial_n":159,"n_dots":2.45,"target":"right","response":"right","rt":352,"correct":true,"confidence":3},{"trial_n":160,"n_dots":2.45,"target":"right","response":"left","rt":232.19999999553,"correct":false,"confidence":3},{"trial_n":161,"n_dots":2.55,"target":"left","response":"right","rt":155,"correct":false,"confidence":3},{"trial_n":162,"n_dots":2.65,"target":"left","response":"left","rt":319.60000000149,"correct":true,"confidence":5},{"trial_n":163,"n_dots":2.65,"target":"right","response":"left","rt":192.20000000298,"correct":false,"confidence":4},{"trial_n":164,"n_dots":2.75,"target":"left","response":"left","rt":354.29999999702,"correct":true,"confidence":5},{"trial_n":165,"n_dots":2.75,"target":"right","response":"left","rt":316.30000000447,"correct":false,"confidence":3},{"trial_n":166,"n_dots":2.85,"target":"right","response":"left","rt":814.20000000298,"correct":false,"confidence":2},{"trial_n":167,"n_dots":2.95,"target":"left","response":"left","rt":182.60000000149,"correct":true,"confidence":6},{"trial_n":168,"n_dots":2.95,"target":"left","response":"left","rt":417.70000000298,"correct":true,"confidence":3},{"trial_n":169,"n_dots":2.85,"target":"left","response":"left","rt":211.19999999553,"correct":true,"confidence":6},{"trial_n":170,"n_dots":2.85,"target":"left","response":"left","rt":349.89999999851,"correct":true,"confidence":3},{"trial_n":171,"n_dots":2.75,"target":"right","response":"right","rt":357.70000000298,"correct":true,"confidence":5},{"trial_n":172,"n_dots":2.75,"target":"right","response":"left","rt":228,"correct":false,"confidence":5},{"trial_n":173,"n_dots":2.85,"target":"left","response":"left","rt":276.30000000447,"correct":true,"confidence":4},{"trial_n":174,"n_dots":2.85,"target":"right","response":"right","rt":330.5,"correct":true,"confidence":4},{"trial_n":175,"n_dots":2.75,"target":"left","response":"left","rt":394.29999999702,"correct":true,"confidence":4},{"trial_n":176,"n_dots":2.75,"target":"right","response":"left","rt":388.5,"correct":false,"confidence":3},{"trial_n":177,"n_dots":2.85,"target":"left","response":"left","rt":35.10000000149,"correct":true,"confidence":4},{"trial_n":178,"n_dots":2.85,"target":"right","response":"right","rt":295.79999999702,"correct":true,"confidence":5},{"trial_n":179,"n_dots":2.75,"target":"left","response":"left","rt":286.5,"correct":true,"confidence":3},{"trial_n":180,"n_dots":2.75,"target":"right","response":"left","rt":284.30000000447,"correct":false,"confidence":4},{"trial_n":181,"n_dots":2.85,"target":"left","response":"left","rt":355.69999999553,"correct":true,"confidence":3},{"trial_n":182,"n_dots":2.85,"target":"left","response":"left","rt":266.20000000298,"correct":true,"confidence":4},{"trial_n":183,"n_dots":2.75,"target":"left","response":"left","rt":302.10000000149,"correct":true,"confidence":3},{"trial_n":184,"n_dots":2.75,"target":"left","response":"left","rt":416.70000000298,"correct":true,"confidence":4},{"trial_n":185,"n_dots":2.65,"target":"right","response":"right","rt":187.30000000447,"correct":true,"confidence":4},{"trial_n":186,"n_dots":2.65,"target":"left","response":"right","rt":254.20000000298,"correct":false,"confidence":4},{"trial_n":187,"n_dots":2.75,"target":"left","response":"left","rt":199.60000000149,"correct":true,"confidence":5},{"trial_n":188,"n_dots":2.75,"target":"right","response":"left","rt":221,"correct":false,"confidence":4},{"trial_n":189,"n_dots":2.85,"target":"left","response":"left","rt":238.79999999702,"correct":true,"confidence":2},{"trial_n":190,"n_dots":2.85,"target":"left","response":"left","rt":312.10000000149,"correct":true,"confidence":5},{"trial_n":191,"n_dots":2.75,"target":"left","response":"right","rt":294.5,"correct":false,"confidence":2},{"trial_n":192,"n_dots":2.85,"target":"right","response":"left","rt":260.10000000149,"correct":false,"confidence":4},{"trial_n":193,"n_dots":2.95,"target":"right","response":"right","rt":50,"correct":true,"confidence":5},{"trial_n":194,"n_dots":2.95,"target":"right","response":"left","rt":386.60000000149,"correct":false,"confidence":3}]