[{"trial_n":1,"n_dots":4.25,"target":"right","response":"right","rt":5281,"correct":true,"confidence":-1},{"trial_n":2,"n_dots":4.25,"target":"right","response":"left","rt":1396,"correct":false,"confidence":-1},{"trial_n":3,"n_dots":4.65,"target":"right","response":"right","rt":1266,"correct":true,"confidence":-1},{"trial_n":4,"n_dots":4.65,"target":"left","response":"left","rt":529,"correct":true,"confidence":-1},{"trial_n":5,"n_dots":4.25,"target":"left","response":"left","rt":282,"correct":true,"confidence":-1},{"trial_n":6,"n_dots":4.25,"target":"right","response":"right","rt":254,"correct":true,"confidence":-1},{"trial_n":7,"n_dots":3.85,"target":"left","response":"left","rt":416,"correct":true,"confidence":-1},{"trial_n":8,"n_dots":3.85,"target":"left","response":"left","rt":564.00000000001,"correct":true,"confidence":-1},{"trial_n":9,"n_dots":3.65,"target":"left","response":"left","rt":415,"correct":true,"confidence":-1},{"trial_n":10,"n_dots":3.65,"target":"left","response":"left","rt":321,"correct":true,"confidence":-1},{"trial_n":11,"n_dots":3.45,"target":"left","response":"left","rt":350.00000000001,"correct":true,"confidence":-1},{"trial_n":12,"n_dots":3.45,"target":"left","response":"left","rt":404,"correct":true,"confidence":-1},{"trial_n":13,"n_dots":3.35,"target":"left","response":"right","rt":308,"correct":false,"confidence":-1},{"trial_n":14,"n_dots":3.45,"target":"left","response":"left","rt":170,"correct":true,"confidence":-1},{"trial_n":15,"n_dots":3.45,"target":"right","response":"right","rt":245,"correct":true,"confidence":-1},{"trial_n":16,"n_dots":3.35,"target":"right","response":"right","rt":749,"correct":true,"confidence":-1},{"trial_n":17,"n_dots":3.35,"target":"left","response":"left","rt":341,"correct":true,"confidence":-1},{"trial_n":18,"n_dots":3.25,"target":"left","response":"left","rt":327,"correct":true,"confidence":-1},{"trial_n":19,"n_dots":3.25,"target":"right","response":"right","rt":214,"correct":true,"confidence":-1},{"trial_n":20,"n_dots":3.15,"target":"right","response":"right","rt":144,"correct":true,"confidence":-1},{"trial_n":21,"n_dots":3.15,"target":"right","response":"left","rt":340.00000000001,"correct":false,"confidence":-1},{"trial_n":22,"n_dots":3.25,"target":"left","response":"left","rt":282,"correct":true,"confidence":-1},{"trial_n":23,"n_dots":3.25,"target":"right","response":"right","rt":91,"correct":true,"confidence":-1},{"trial_n":24,"n_dots":3.15,"target":"left","response":"left","rt":370,"correct":true,"confidence":-1},{"trial_n":25,"n_dots":3.15,"target":"right","response":"left","rt":381,"correct":false,"confidence":-1},{"trial_n":26,"n_dots":3.25,"target":"left","response":"left","rt":257,"correct":true,"confidence":-1},{"trial_n":27,"n_dots":3.25,"target":"left","response":"left","rt":1216,"correct":true,"confidence":3},{"trial_n":28,"n_dots":3.15,"target":"right","response":"right","rt":533,"correct":true,"confidence":6},{"trial_n":29,"n_dots":3.15,"target":"left","response":"right","rt":849,"correct":false,"confidence":3},{"trial_n":30,"n_dots":3.25,"target":"left","response":"left","rt":1398,"correct":true,"confidence":2},{"trial_n":31,"n_dots":3.25,"target":"right","response":"right","rt":1089,"correct":true,"confidence":3},{"trial_n":32,"n_dots":3.15,"target":"left","response":"left","rt":721.00000000003,"correct":true,"confidence":3},{"trial_n":33,"n_dots":3.15,"target":"right","response":"right","rt":1377,"correct":true,"confidence":4},{"trial_n":34,"n_dots":3.05,"target":"right","response":"left","rt":1001,"correct":false,"confidence":3},{"trial_n":35,"n_dots":3.15,"target":"left","response":"left","rt":729,"correct":true,"confidence":3},{"trial_n":36,"n_dots":3.15,"target":"right","response":"right","rt":1055,"correct":true,"confidence":2},{"trial_n":37,"n_dots":3.05,"target":"left","response":"left","rt":265,"correct":true,"confidence":5},{"trial_n":38,"n_dots":3.05,"target":"right","response":"left","rt":420.00000000003,"correct":false,"confidence":4},{"trial_n":39,"n_dots":3.15,"target":"right","response":"right","rt":663,"correct":true,"confidence":4},{"trial_n":40,"n_dots":3.15,"target":"right","response":"left","rt":141,"correct":false,"confidence":4},{"trial_n":41,"n_dots":3.25,"target":"right","response":"left","rt":473,"correct":false,"confidence":3},{"trial_n":42,"n_dots":3.35,"target":"left","response":"left","rt":98,"correct":true,"confidence":6},{"trial_n":43,"n_dots":3.35,"target":"right","response":"right","rt":525,"correct":true,"confidence":6},{"trial_n":44,"n_dots":3.25,"target":"left","response":"left","rt":405,"correct":true,"confidence":6},{"trial_n":45,"n_dots":3.25,"target":"left","response":"left","rt":531,"correct":true,"confidence":5},{"trial_n":46,"n_dots":3.15,"target":"right","response":"right","rt":520.99999999997,"correct":true,"confidence":6},{"trial_n":47,"n_dots":3.15,"target":"left","response":"left","rt":471.99999999997,"correct":true,"confidence":4},{"trial_n":48,"n_dots":3.05,"target":"right","response":"right","rt":540.00000000003,"correct":true,"confidence":4},{"trial_n":49,"n_dots":3.05,"target":"left","response":"left","rt":423,"correct":true,"confidence":5},{"trial_n":50,"n_dots":2.95,"target":"right","response":"left","rt":648,"correct":false,"confidence":5},{"trial_n":51,"n_dots":3.05,"target":"left","response":"right","rt":524,"correct":false,"confidence":4},{"trial_n":52,"n_dots":3.15,"target":"left","response":"left","rt":496,"correct":true,"confidence":4},{"trial_n":53,"n_dots":3.15,"target":"left","response":"left","rt":594,"correct":true,"confidence":4},{"trial_n":54,"n_dots":3.05,"target":"left","response":"right","rt":351,"correct":false,"confidence":1},{"trial_n":55,"n_dots":3.15,"target":"left","response":"left","rt":473,"correct":true,"confidence":6},{"trial_n":56,"n_dots":3.15,"target":"left","response":"left","rt":125,"correct":true,"confidence":5},{"trial_n":57,"n_dots":3.05,"target":"left","response":"left","rt":42,"correct":true,"confidence":5},{"trial_n":58,"n_dots":3.05,"target":"left","response":"left","rt":166.00000000006,"correct":true,"confidence":5},{"trial_n":59,"n_dots":2.95,"target":"right","response":"right","rt":949,"correct":true,"confidence":4},{"trial_n":60,"n_dots":2.95,"target":"right","response":"right","rt":677,"correct":true,"confidence":4},{"trial_n":61,"n_dots":2.85,"target":"left","response":"left","rt":766,"correct":true,"confidence":5},{"trial_n":62,"n_dots":2.85,"target":"right","response":"left","rt":134,"correct":false,"confidence":3},{"trial_n":63,"n_dots":2.95,"target":"right","response":"left","rt":89,"correct":false,"confidence":5},{"trial_n":64,"n_dots":3.05,"target":"left","response":"left","rt":466,"correct":true,"confidence":5},{"trial_n":65,"n_dots":3.05,"target":"left","response":"left","rt":357.00000000006,"correct":true,"confidence":6},{"trial_n":66,"n_dots":2.95,"target":"right","response":"right","rt":500,"correct":true,"confidence":6},{"trial_n":67,"n_dots":2.95,"target":"left","response":"right","rt":710,"correct":false,"confidence":1},{"trial_n":68,"n_dots":3.05,"target":"right","response":"right","rt":834,"correct":true,"confidence":1},{"trial_n":69,"n_dots":3.05,"target":"right","response":"left","rt":335,"correct":false,"confidence":1},{"trial_n":70,"n_dots":3.15,"target":"right","response":"left","rt":205,"correct":false,"confidence":1},{"trial_n":71,"n_dots":3.25,"target":"right","response":"left","rt":324,"correct":false,"confidence":1},{"trial_n":72,"n_dots":3.35,"target":"left","response":"right","rt":1096,"correct":false,"confidence":1},{"trial_n":73,"n_dots":3.45,"target":"left","response":"left","rt":801.99999999994,"correct":true,"confidence":1},{"trial_n":74,"n_dots":3.45,"target":"left","response":"right","rt":1231,"correct":false,"confidence":1},{"trial_n":75,"n_dots":3.55,"target":"right","response":"right","rt":483,"correct":true,"confidence":1},{"trial_n":76,"n_dots":3.55,"target":"left","response":"left","rt":215.00000000006,"correct":true,"confidence":1},{"trial_n":77,"n_dots":3.45,"target":"right","response":"right","rt":330,"correct":true,"confidence":1},{"trial_n":78,"n_dots":3.45,"target":"left","response":"left","rt":-33,"correct":true,"confidence":1},{"trial_n":79,"n_dots":3.35,"target":"left","response":"left","rt":385,"correct":true,"confidence":1},{"trial_n":80,"n_dots":3.35,"target":"right","response":"right","rt":499,"correct":true,"confidence":1},{"trial_n":81,"n_dots":3.25,"target":"right","response":"left","rt":104,"correct":false,"confidence":1},{"trial_n":82,"n_dots":3.35,"target":"left","response":"left","rt":-0.99999999994179,"correct":true,"confidence":1},{"trial_n":83,"n_dots":3.35,"target":"left","response":"left","rt":133.99999999994,"correct":true,"confidence":1},{"trial_n":84,"n_dots":3.25,"target":"left","response":"left","rt":545,"correct":true,"confidence":1},{"trial_n":85,"n_dots":3.25,"target":"left","response":"left","rt":100.99999999994,"correct":true,"confidence":1},{"trial_n":86,"n_dots":3.15,"target":"left","response":"left","rt":97,"correct":true,"confidence":1},{"trial_n":87,"n_dots":3.15,"target":"right","response":"right","rt":301.99999999994,"correct":true,"confidence":1},{"trial_n":88,"n_dots":3.05,"target":"left","response":"left","rt":156.99999999994,"correct":true,"confidence":1},{"trial_n":89,"n_dots":3.05,"target":"left","response":"left","rt":305,"correct":true,"confidence":1},{"trial_n":90,"n_dots":2.95,"target":"left","response":"right","rt":517.99999999994,"correct":false,"confidence":1},{"trial_n":91,"n_dots":3.05,"target":"right","response":"right","rt":462.99999999994,"correct":true,"confidence":1},{"trial_n":92,"n_dots":3.05,"target":"right","response":"right","rt":596,"correct":true,"confidence":1},{"trial_n":93,"n_dots":2.95,"target":"right","response":"right","rt":274,"correct":true,"confidence":1},{"trial_n":94,"n_dots":2.95,"target":"right","response":"right","rt":469,"correct":true,"confidence":1},{"trial_n":95,"n_dots":2.85,"target":"right","response":"right","rt":311.00000000006,"correct":true,"confidence":1},{"trial_n":96,"n_dots":2.85,"target":"right","response":"left","rt":125,"correct":false,"confidence":1},{"trial_n":97,"n_dots":2.95,"target":"left","response":"right","rt":176,"correct":false,"confidence":1},{"trial_n":98,"n_dots":3.05,"target":"right","response":"right","rt":298,"correct":true,"confidence":1},{"trial_n":99,"n_dots":3.05,"target":"left","response":"left","rt":200,"correct":true,"confidence":1},{"trial_n":100,"n_dots":2.95,"target":"right","response":"left","rt":15,"correct":false,"confidence":1},{"trial_n":101,"n_dots":3.05,"target":"right","response":"right","rt":465,"correct":true,"confidence":1},{"trial_n":102,"n_dots":3.05,"target":"left","response":"left","rt":200,"correct":true,"confidence":1},{"trial_n":103,"n_dots":2.95,"target":"left","response":"left","rt":279,"correct":true,"confidence":1},{"trial_n":104,"n_dots":2.95,"target":"right","response":"right","rt":70,"correct":true,"confidence":1},{"trial_n":105,"n_dots":2.85,"target":"right","response":"right","rt":304,"correct":true,"confidence":1},{"trial_n":106,"n_dots":2.85,"target":"left","response":"right","rt":560,"correct":false,"confidence":1},{"trial_n":107,"n_dots":2.95,"target":"right","response":"left","rt":81.000000000058,"correct":false,"confidence":1},{"trial_n":108,"n_dots":3.05,"target":"right","response":"left","rt":189.99999999994,"correct":false,"confidence":1},{"trial_n":109,"n_dots":3.15,"target":"left","response":"left","rt":665.00000000006,"correct":true,"confidence":1},{"trial_n":110,"n_dots":3.15,"target":"right","response":"left","rt":176,"correct":false,"confidence":1},{"trial_n":111,"n_dots":3.25,"target":"left","response":"left","rt":23,"correct":true,"confidence":1},{"trial_n":112,"n_dots":3.25,"target":"right","response":"right","rt":179,"correct":true,"confidence":1},{"trial_n":113,"n_dots":3.15,"target":"right","response":"right","rt":193,"correct":true,"confidence":1},{"trial_n":114,"n_dots":3.15,"target":"right","response":"left","rt":404.99999999994,"correct":false,"confidence":1},{"trial_n":115,"n_dots":3.25,"target":"right","response":"right","rt":54,"correct":true,"confidence":1},{"trial_n":116,"n_dots":3.25,"target":"left","response":"left","rt":409,"correct":true,"confidence":1},{"trial_n":117,"n_dots":3.15,"target":"left","response":"left","rt":95,"correct":true,"confidence":1},{"trial_n":118,"n_dots":3.15,"target":"left","response":"left","rt":84,"correct":true,"confidence":1},{"trial_n":119,"n_dots":3.05,"target":"right","response":"left","rt":293,"correct":false,"confidence":1},{"trial_n":120,"n_dots":3.15,"target":"left","response":"right","rt":592,"correct":false,"confidence":1},{"trial_n":121,"n_dots":3.25,"target":"right","response":"left","rt":122.99999999994,"correct":false,"confidence":1},{"trial_n":122,"n_dots":3.35,"target":"left","response":"left","rt":-24,"correct":true,"confidence":1},{"trial_n":123,"n_dots":3.35,"target":"left","response":"left","rt":14,"correct":true,"confidence":1},{"trial_n":124,"n_dots":3.25,"target":"left","response":"left","rt":56,"correct":true,"confidence":1},{"trial_n":125,"n_dots":3.25,"target":"right","response":"right","rt":109,"correct":true,"confidence":1},{"trial_n":126,"n_dots":3.15,"target":"right","response":"right","rt":-28,"correct":true,"confidence":1},{"trial_n":127,"n_dots":3.15,"target":"left","response":"left","rt":227,"correct":true,"confidence":1},{"trial_n":128,"n_dots":3.05,"target":"left","response":"left","rt":265,"correct":true,"confidence":1},{"trial_n":129,"n_dots":3.05,"target":"right","response":"right","rt":168,"correct":true,"confidence":1},{"trial_n":130,"n_dots":2.95,"target":"left","response":"left","rt":179,"correct":true,"confidence":1},{"trial_n":131,"n_dots":2.95,"target":"left","response":"right","rt":470.99999999994,"correct":false,"confidence":1},{"trial_n":132,"n_dots":3.05,"target":"right","response":"right","rt":541,"correct":true,"confidence":1},{"trial_n":133,"n_dots":3.05,"target":"left","response":"left","rt":45,"correct":true,"confidence":1},{"trial_n":134,"n_dots":2.95,"target":"right","response":"right","rt":491,"correct":true,"confidence":1},{"trial_n":135,"n_dots":2.95,"target":"right","response":"right","rt":166.99999999994,"correct":true,"confidence":1},{"trial_n":136,"n_dots":2.85,"target":"right","response":"right","rt":19,"correct":true,"confidence":1},{"trial_n":137,"n_dots":2.85,"target":"left","response":"left","rt":147.99999999994,"correct":true,"confidence":1},{"trial_n":138,"n_dots":2.75,"target":"right","response":"right","rt":32.999999999884,"correct":true,"confidence":1},{"trial_n":139,"n_dots":2.75,"target":"right","response":"right","rt":-25.999999999942,"correct":true,"confidence":1},{"trial_n":140,"n_dots":2.65,"target":"left","response":"right","rt":153,"correct":false,"confidence":1},{"trial_n":141,"n_dots":2.75,"target":"left","response":"left","rt":102,"correct":true,"confidence":1},{"trial_n":142,"n_dots":2.75,"target":"right","response":"right","rt":59,"correct":true,"confidence":1},{"trial_n":143,"n_dots":2.65,"target":"left","response":"right","rt":59,"correct":false,"confidence":1},{"trial_n":144,"n_dots":2.75,"target":"left","response":"right","rt":84,"correct":false,"confidence":1},{"trial_n":145,"n_dots":2.85,"target":"right","response":"right","rt":58.999999999884,"correct":true,"confidence":1},{"trial_n":146,"n_dots":2.85,"target":"left","response":"right","rt":90,"correct":false,"confidence":1},{"trial_n":147,"n_dots":2.95,"target":"right","response":"right","rt":56,"correct":true,"confidence":1},{"trial_n":148,"n_dots":2.95,"target":"right","response":"right","rt":-34,"correct":true,"confidence":1},{"trial_n":149,"n_dots":2.85,"target":"right","response":"right","rt":-27,"correct":true,"confidence":1},{"trial_n":150,"n_dots":2.85,"target":"right","response":"right","rt":-18,"correct":true,"confidence":1},{"trial_n":151,"n_dots":2.75,"target":"right","response":"right","rt":475,"correct":true,"confidence":1},{"trial_n":152,"n_dots":2.75,"target":"right","response":"left","rt":-24,"correct":false,"confidence":1},{"trial_n":153,"n_dots":2.85,"target":"left","response":"left","rt":-8,"correct":true,"confidence":1},{"trial_n":154,"n_dots":2.85,"target":"right","response":"left","rt":393,"correct":false,"confidence":1},{"trial_n":155,"n_dots":2.95,"target":"right","response":"right","rt":-35,"correct":true,"confidence":1},{"trial_n":156,"n_dots":2.95,"target":"right","response":"left","rt":176.99999999988,"correct":false,"confidence":1},{"trial_n":157,"n_dots":3.05,"target":"left","response":"right","rt":180,"correct":false,"confidence":1},{"trial_n":158,"n_dots":3.15,"target":"right","response":"left","rt":55,"correct":false,"confidence":1},{"trial_n":159,"n_dots":3.25,"target":"left","response":"left","rt":480,"correct":true,"confidence":1},{"trial_n":160,"n_dots":3.25,"target":"left","response":"left","rt":133,"correct":true,"confidence":1},{"trial_n":161,"n_dots":3.15,"target":"right","response":"left","rt":200,"correct":false,"confidence":1},{"trial_n":162,"n_dots":3.25,"target":"right","response":"left","rt":71,"correct":false,"confidence":1},{"trial_n":163,"n_dots":3.35,"target":"right","response":"left","rt":152,"correct":false,"confidence":1},{"trial_n":164,"n_dots":3.45,"target":"left","response":"left","rt":478,"correct":true,"confidence":1},{"trial_n":165,"n_dots":3.45,"target":"left","response":"left","rt":785,"correct":true,"confidence":1},{"trial_n":166,"n_dots":3.35,"target":"right","response":"right","rt":89,"correct":true,"confidence":1},{"trial_n":167,"n_dots":3.35,"target":"right","response":"right","rt":214.99999999988,"correct":true,"confidence":1},{"trial_n":168,"n_dots":3.25,"target":"right","response":"right","rt":156.00000000012,"correct":true,"confidence":1},{"trial_n":169,"n_dots":3.25,"target":"right","response":"left","rt":4,"correct":false,"confidence":1},{"trial_n":170,"n_dots":3.35,"target":"left","response":"right","rt":80,"correct":false,"confidence":1},{"trial_n":171,"n_dots":3.45,"target":"right","response":"right","rt":168,"correct":true,"confidence":1},{"trial_n":172,"n_dots":3.45,"target":"left","response":"left","rt":97,"correct":true,"confidence":1},{"trial_n":173,"n_dots":3.35,"target":"left","response":"left","rt":42,"correct":true,"confidence":1},{"trial_n":174,"n_dots":3.35,"target":"right","response":"right","rt":-10,"correct":true,"confidence":1},{"trial_n":175,"n_dots":3.25,"target":"right","response":"left","rt":66,"correct":false,"confidence":1},{"trial_n":176,"n_dots":3.35,"target":"left","response":"left","rt":6,"correct":true,"confidence":1},{"trial_n":177,"n_dots":3.35,"target":"right","response":"left","rt":4,"correct":false,"confidence":1},{"trial_n":178,"n_dots":3.45,"target":"left","response":"left","rt":122.99999999988,"correct":true,"confidence":1},{"trial_n":179,"n_dots":3.45,"target":"left","response":"left","rt":553,"correct":true,"confidence":1},{"trial_n":180,"n_dots":3.35,"target":"right","response":"right","rt":156,"correct":true,"confidence":1},{"trial_n":181,"n_dots":3.35,"target":"left","response":"left","rt":152,"correct":true,"confidence":1},{"trial_n":182,"n_dots":3.25,"target":"left","response":"right","rt":120,"correct":false,"confidence":1},{"trial_n":183,"n_dots":3.35,"target":"right","response":"left","rt":410,"correct":false,"confidence":1},{"trial_n":184,"n_dots":3.45,"target":"left","response":"right","rt":22,"correct":false,"confidence":1},{"trial_n":185,"n_dots":3.55,"target":"right","response":"left","rt":67,"correct":false,"confidence":4},{"trial_n":186,"n_dots":3.65,"target":"left","response":"right","rt":159,"correct":false,"confidence":3},{"trial_n":187,"n_dots":3.75,"target":"left","response":"left","rt":-31,"correct":true,"confidence":1},{"trial_n":188,"n_dots":3.75,"target":"right","response":"right","rt":1227,"correct":true,"confidence":4},{"trial_n":189,"n_dots":3.65,"target":"left","response":"left","rt":78,"correct":true,"confidence":1},{"trial_n":190,"n_dots":3.65,"target":"right","response":"right","rt":672,"correct":true,"confidence":1},{"trial_n":191,"n_dots":3.55,"target":"right","response":"right","rt":114,"correct":true,"confidence":1},{"trial_n":192,"n_dots":3.55,"target":"left","response":"right","rt":147,"correct":false,"confidence":1},{"trial_n":193,"n_dots":3.65,"target":"right","response":"left","rt":145.00000000012,"correct":false,"confidence":1},{"trial_n":194,"n_dots":3.75,"target":"left","response":"right","rt":395,"correct":false,"confidence":1}]