[{"trial_n":1,"n_dots":4.25,"target":"right","response":"right","rt":3688.7000000477,"correct":true,"confidence":-1},{"trial_n":2,"n_dots":4.25,"target":"right","response":"right","rt":420,"correct":true,"confidence":-1},{"trial_n":3,"n_dots":3.85,"target":"left","response":"left","rt":226.60000014305,"correct":true,"confidence":-1},{"trial_n":4,"n_dots":3.85,"target":"right","response":"left","rt":365,"correct":false,"confidence":-1},{"trial_n":5,"n_dots":4.25,"target":"left","response":"left","rt":104.20000004768,"correct":true,"confidence":-1},{"trial_n":6,"n_dots":4.25,"target":"right","response":"right","rt":418.5,"correct":true,"confidence":-1},{"trial_n":7,"n_dots":3.85,"target":"right","response":"right","rt":918.89999985695,"correct":true,"confidence":-1},{"trial_n":8,"n_dots":3.85,"target":"right","response":"right","rt":340.90000009537,"correct":true,"confidence":-1},{"trial_n":9,"n_dots":3.65,"target":"left","response":"left","rt":311.5,"correct":true,"confidence":-1},{"trial_n":10,"n_dots":3.65,"target":"right","response":"right","rt":293.20000004768,"correct":true,"confidence":-1},{"trial_n":11,"n_dots":3.45,"target":"right","response":"right","rt":478.29999995232,"correct":true,"confidence":-1},{"trial_n":12,"n_dots":3.45,"target":"right","response":"right","rt":25.5,"correct":true,"confidence":-1},{"trial_n":13,"n_dots":3.35,"target":"left","response":"left","rt":284.89999985695,"correct":true,"confidence":-1},{"trial_n":14,"n_dots":3.35,"target":"left","response":"left","rt":267.5,"correct":true,"confidence":-1},{"trial_n":15,"n_dots":3.25,"target":"left","response":"left","rt":698.5,"correct":true,"confidence":-1},{"trial_n":16,"n_dots":3.25,"target":"right","response":"left","rt":376.90000009537,"correct":false,"confidence":-1},{"trial_n":17,"n_dots":3.35,"target":"left","response":"left","rt":294.10000014305,"correct":true,"confidence":-1},{"trial_n":18,"n_dots":3.35,"target":"left","response":"left","rt":535.60000014305,"correct":true,"confidence":-1},{"trial_n":19,"n_dots":3.25,"target":"right","response":"right","rt":219.89999985695,"correct":true,"confidence":-1},{"trial_n":20,"n_dots":3.25,"target":"right","response":"left","rt":631.39999985695,"correct":false,"confidence":-1},{"trial_n":21,"n_dots":3.35,"target":"left","response":"left","rt":609.5,"correct":true,"confidence":-1},{"trial_n":22,"n_dots":3.35,"target":"right","response":"right","rt":347.29999995232,"correct":true,"confidence":-1},{"trial_n":23,"n_dots":3.25,"target":"right","response":"right","rt":275.60000014305,"correct":true,"confidence":-1},{"trial_n":24,"n_dots":3.25,"target":"right","response":"left","rt":732.40000009537,"correct":false,"confidence":-1},{"trial_n":25,"n_dots":3.35,"target":"left","response":"left","rt":569.70000004768,"correct":true,"confidence":-1},{"trial_n":26,"n_dots":3.35,"target":"right","response":"right","rt":157.60000014305,"correct":true,"confidence":-1},{"trial_n":27,"n_dots":3.25,"target":"right","response":"right","rt":3190.9000000954,"correct":true,"confidence":1},{"trial_n":28,"n_dots":3.25,"target":"left","response":"right","rt":536.10000014305,"correct":false,"confidence":2},{"trial_n":29,"n_dots":3.35,"target":"left","response":"left","rt":847.59999990463,"correct":true,"confidence":2},{"trial_n":30,"n_dots":3.35,"target":"right","response":"right","rt":658.60000014305,"correct":true,"confidence":3},{"trial_n":31,"n_dots":3.25,"target":"right","response":"right","rt":1366.8000001907,"correct":true,"confidence":1},{"trial_n":32,"n_dots":3.25,"target":"right","response":"right","rt":1427.2999999523,"correct":true,"confidence":1},{"trial_n":33,"n_dots":3.15,"target":"left","response":"left","rt":812.5,"correct":true,"confidence":2},{"trial_n":34,"n_dots":3.15,"target":"left","response":"left","rt":581.29999995232,"correct":true,"confidence":2},{"trial_n":35,"n_dots":3.05,"target":"right","response":"left","rt":662.70000004768,"correct":false,"confidence":2},{"trial_n":36,"n_dots":3.15,"target":"left","response":"left","rt":541.09999990463,"correct":true,"confidence":4},{"trial_n":37,"n_dots":3.15,"target":"left","response":"left","rt":570.10000014305,"correct":true,"confidence":2},{"trial_n":38,"n_dots":3.05,"target":"left","response":"left","rt":510.80000019073,"correct":true,"confidence":3},{"trial_n":39,"n_dots":3.05,"target":"left","response":"left","rt":334.29999995232,"correct":true,"confidence":3},{"trial_n":40,"n_dots":2.95,"target":"right","response":"right","rt":445.5,"correct":true,"confidence":4},{"trial_n":41,"n_dots":2.95,"target":"right","response":"right","rt":545.5,"correct":true,"confidence":2},{"trial_n":42,"n_dots":2.85,"target":"right","response":"right","rt":1058.5999999046,"correct":true,"confidence":1},{"trial_n":43,"n_dots":2.85,"target":"right","response":"right","rt":1533.0999999046,"correct":true,"confidence":2},{"trial_n":44,"n_dots":2.75,"target":"right","response":"right","rt":648.89999985695,"correct":true,"confidence":3},{"trial_n":45,"n_dots":2.75,"target":"right","response":"left","rt":1059.2999999523,"correct":false,"confidence":2},{"trial_n":46,"n_dots":2.85,"target":"left","response":"left","rt":373.89999985695,"correct":true,"confidence":3},{"trial_n":47,"n_dots":2.85,"target":"left","response":"left","rt":230.89999985695,"correct":true,"confidence":3},{"trial_n":48,"n_dots":2.75,"target":"right","response":"right","rt":539.09999990463,"correct":true,"confidence":2},{"trial_n":49,"n_dots":2.75,"target":"right","response":"right","rt":622.79999995232,"correct":true,"confidence":2},{"trial_n":50,"n_dots":2.65,"target":"left","response":"left","rt":885.40000009537,"correct":true,"confidence":2},{"trial_n":51,"n_dots":2.65,"target":"left","response":"right","rt":2021,"correct":false,"confidence":1},{"trial_n":52,"n_dots":2.75,"target":"left","response":"right","rt":847.79999995232,"correct":false,"confidence":1},{"trial_n":53,"n_dots":2.85,"target":"left","response":"left","rt":961.40000009537,"correct":true,"confidence":2},{"trial_n":54,"n_dots":2.85,"target":"left","response":"left","rt":415.89999985695,"correct":true,"confidence":2},{"trial_n":55,"n_dots":2.75,"target":"right","response":"left","rt":698.20000004768,"correct":false,"confidence":2},{"trial_n":56,"n_dots":2.85,"target":"right","response":"left","rt":1102.2000000477,"correct":false,"confidence":1},{"trial_n":57,"n_dots":2.95,"target":"right","response":"left","rt":743.70000004768,"correct":false,"confidence":1},{"trial_n":58,"n_dots":3.05,"target":"right","response":"right","rt":362,"correct":true,"confidence":4},{"trial_n":59,"n_dots":3.05,"target":"right","response":"left","rt":725.59999990463,"correct":false,"confidence":2},{"trial_n":60,"n_dots":3.15,"target":"left","response":"left","rt":1261.7000000477,"correct":true,"confidence":2},{"trial_n":61,"n_dots":3.15,"target":"right","response":"right","rt":417.20000004768,"correct":true,"confidence":5},{"trial_n":62,"n_dots":3.05,"target":"left","response":"left","rt":633,"correct":true,"confidence":3},{"trial_n":63,"n_dots":3.05,"target":"left","response":"right","rt":526.09999990463,"correct":false,"confidence":2},{"trial_n":64,"n_dots":3.15,"target":"left","response":"right","rt":518.70000004768,"correct":false,"confidence":2},{"trial_n":65,"n_dots":3.25,"target":"right","response":"right","rt":869.70000004768,"correct":true,"confidence":3},{"trial_n":66,"n_dots":3.25,"target":"right","response":"right","rt":447.20000004768,"correct":true,"confidence":5},{"trial_n":67,"n_dots":3.15,"target":"left","response":"left","rt":1023.6999998093,"correct":true,"confidence":2},{"trial_n":68,"n_dots":3.15,"target":"left","response":"left","rt":1591.7999999523,"correct":true,"confidence":2},{"trial_n":69,"n_dots":3.05,"target":"right","response":"left","rt":678.5,"correct":false,"confidence":2},{"trial_n":70,"n_dots":3.15,"target":"right","response":"right","rt":651.5,"correct":true,"confidence":3},{"trial_n":71,"n_dots":3.15,"target":"left","response":"left","rt":784.5,"correct":true,"confidence":3},{"trial_n":72,"n_dots":3.05,"target":"left","response":"left","rt":375,"correct":true,"confidence":3},{"trial_n":73,"n_dots":3.05,"target":"right","response":"right","rt":545.5,"correct":true,"confidence":4},{"trial_n":74,"n_dots":2.95,"target":"left","response":"left","rt":1190,"correct":true,"confidence":1},{"trial_n":75,"n_dots":2.95,"target":"right","response":"right","rt":910.5,"correct":true,"confidence":3},{"trial_n":76,"n_dots":2.85,"target":"right","response":"right","rt":848.29999995232,"correct":true,"confidence":3},{"trial_n":77,"n_dots":2.85,"target":"left","response":"right","rt":1022.7999999523,"correct":false,"confidence":2},{"trial_n":78,"n_dots":2.95,"target":"left","response":"right","rt":811,"correct":false,"confidence":2},{"trial_n":79,"n_dots":3.05,"target":"right","response":"right","rt":686.70000004768,"correct":true,"confidence":2},{"trial_n":80,"n_dots":3.05,"target":"right","response":"right","rt":664.10000014305,"correct":true,"confidence":3},{"trial_n":81,"n_dots":2.95,"target":"left","response":"left","rt":427.79999995232,"correct":true,"confidence":3},{"trial_n":82,"n_dots":2.95,"target":"right","response":"right","rt":540,"correct":true,"confidence":2},{"trial_n":83,"n_dots":2.85,"target":"left","response":"right","rt":960.70000004768,"correct":false,"confidence":1},{"trial_n":84,"n_dots":2.95,"target":"left","response":"left","rt":346.79999995232,"correct":true,"confidence":1},{"trial_n":85,"n_dots":2.95,"target":"left","response":"right","rt":959.90000009537,"correct":false,"confidence":1},{"trial_n":86,"n_dots":3.05,"target":"right","response":"right","rt":621.90000009537,"correct":true,"confidence":3},{"trial_n":87,"n_dots":3.05,"target":"left","response":"left","rt":418,"correct":true,"confidence":2},{"trial_n":88,"n_dots":2.95,"target":"left","response":"right","rt":813.60000014305,"correct":false,"confidence":1},{"trial_n":89,"n_dots":3.05,"target":"left","response":"left","rt":1341.0999999046,"correct":true,"confidence":1},{"trial_n":90,"n_dots":3.05,"target":"right","response":"right","rt":820.39999985695,"correct":true,"confidence":2},{"trial_n":91,"n_dots":2.95,"target":"right","response":"right","rt":555.29999995232,"correct":true,"confidence":4},{"trial_n":92,"n_dots":2.95,"target":"right","response":"right","rt":700.70000004768,"correct":true,"confidence":2},{"trial_n":93,"n_dots":2.85,"target":"right","response":"right","rt":826.70000004768,"correct":true,"confidence":2},{"trial_n":94,"n_dots":2.85,"target":"right","response":"right","rt":374.40000009537,"correct":true,"confidence":5},{"trial_n":95,"n_dots":2.75,"target":"left","response":"right","rt":532.39999985695,"correct":false,"confidence":3},{"trial_n":96,"n_dots":2.85,"target":"left","response":"left","rt":730.90000009537,"correct":true,"confidence":2},{"trial_n":97,"n_dots":2.85,"target":"right","response":"right","rt":580.79999995232,"correct":true,"confidence":4},{"trial_n":98,"n_dots":2.75,"target":"right","response":"right","rt":517.69999980927,"correct":true,"confidence":4},{"trial_n":99,"n_dots":2.75,"target":"left","response":"right","rt":1322.0999999046,"correct":false,"confidence":2},{"trial_n":100,"n_dots":2.85,"target":"left","response":"left","rt":678,"correct":true,"confidence":2},{"trial_n":101,"n_dots":2.85,"target":"left","response":"left","rt":650.5,"correct":true,"confidence":3},{"trial_n":102,"n_dots":2.75,"target":"left","response":"left","rt":594.5,"correct":true,"confidence":2},{"trial_n":103,"n_dots":2.75,"target":"left","response":"left","rt":568.79999995232,"correct":true,"confidence":2},{"trial_n":104,"n_dots":2.65,"target":"left","response":"right","rt":960,"correct":false,"confidence":2},{"trial_n":105,"n_dots":2.75,"target":"right","response":"right","rt":800.29999995232,"correct":true,"confidence":3},{"trial_n":106,"n_dots":2.75,"target":"left","response":"right","rt":795.5,"correct":false,"confidence":3},{"trial_n":107,"n_dots":2.85,"target":"left","response":"left","rt":986.70000004768,"correct":true,"confidence":1},{"trial_n":108,"n_dots":2.85,"target":"left","response":"left","rt":708.5,"correct":true,"confidence":3},{"trial_n":109,"n_dots":2.75,"target":"right","response":"right","rt":839.5,"correct":true,"confidence":4},{"trial_n":110,"n_dots":2.75,"target":"left","response":"right","rt":886.40000009537,"correct":false,"confidence":3},{"trial_n":111,"n_dots":2.85,"target":"right","response":"right","rt":434.5,"correct":true,"confidence":2},{"trial_n":112,"n_dots":2.85,"target":"right","response":"right","rt":388.20000004768,"correct":true,"confidence":3},{"trial_n":113,"n_dots":2.75,"target":"right","response":"right","rt":753.5,"correct":true,"confidence":2},{"trial_n":114,"n_dots":2.75,"target":"left","response":"right","rt":494.09999990463,"correct":false,"confidence":2},{"trial_n":115,"n_dots":2.85,"target":"right","response":"right","rt":332.29999995232,"correct":true,"confidence":2},{"trial_n":116,"n_dots":2.85,"target":"left","response":"left","rt":339.70000004768,"correct":true,"confidence":3},{"trial_n":117,"n_dots":2.75,"target":"left","response":"left","rt":397.90000009537,"correct":true,"confidence":3},{"trial_n":118,"n_dots":2.75,"target":"left","response":"left","rt":303.39999985695,"correct":true,"confidence":3},{"trial_n":119,"n_dots":2.65,"target":"left","response":"left","rt":598.70000004768,"correct":true,"confidence":3},{"trial_n":120,"n_dots":2.65,"target":"right","response":"left","rt":724.5,"correct":false,"confidence":2},{"trial_n":121,"n_dots":2.75,"target":"left","response":"left","rt":594.39999985695,"correct":true,"confidence":2},{"trial_n":122,"n_dots":2.75,"target":"left","response":"left","rt":672,"correct":true,"confidence":2},{"trial_n":123,"n_dots":2.65,"target":"left","response":"left","rt":1934.7000000477,"correct":true,"confidence":1},{"trial_n":124,"n_dots":2.65,"target":"right","response":"right","rt":424,"correct":true,"confidence":5},{"trial_n":125,"n_dots":2.55,"target":"right","response":"right","rt":1592.1999998093,"correct":true,"confidence":3},{"trial_n":126,"n_dots":2.55,"target":"right","response":"right","rt":424.59999990463,"correct":true,"confidence":4},{"trial_n":127,"n_dots":2.45,"target":"right","response":"right","rt":628.70000004768,"correct":true,"confidence":3},{"trial_n":128,"n_dots":2.45,"target":"left","response":"right","rt":761.5,"correct":false,"confidence":3},{"trial_n":129,"n_dots":2.55,"target":"right","response":"right","rt":861.80000019073,"correct":true,"confidence":1},{"trial_n":130,"n_dots":2.55,"target":"left","response":"left","rt":721.10000014305,"correct":true,"confidence":2},{"trial_n":131,"n_dots":2.45,"target":"right","response":"right","rt":547,"correct":true,"confidence":3},{"trial_n":132,"n_dots":2.45,"target":"right","response":"right","rt":656.70000004768,"correct":true,"confidence":3},{"trial_n":133,"n_dots":2.35,"target":"left","response":"left","rt":764.80000019073,"correct":true,"confidence":2},{"trial_n":134,"n_dots":2.35,"target":"right","response":"right","rt":731.5,"correct":true,"confidence":3},{"trial_n":135,"n_dots":2.25,"target":"right","response":"right","rt":683.39999985695,"correct":true,"confidence":3},{"trial_n":136,"n_dots":2.25,"target":"right","response":"right","rt":479.40000009537,"correct":true,"confidence":3},{"trial_n":137,"n_dots":2.15,"target":"right","response":"right","rt":560.39999985695,"correct":true,"confidence":2},{"trial_n":138,"n_dots":2.15,"target":"right","response":"right","rt":318.20000004768,"correct":true,"confidence":2},{"trial_n":139,"n_dots":2.05,"target":"right","response":"right","rt":332.09999990463,"correct":true,"confidence":4},{"trial_n":140,"n_dots":2.05,"target":"left","response":"right","rt":841.70000004768,"correct":false,"confidence":2},{"trial_n":141,"n_dots":2.15,"target":"right","response":"right","rt":498.09999990463,"correct":true,"confidence":4},{"trial_n":142,"n_dots":2.15,"target":"right","response":"left","rt":750.90000009537,"correct":false,"confidence":2},{"trial_n":143,"n_dots":2.25,"target":"left","response":"right","rt":569.79999995232,"correct":false,"confidence":2},{"trial_n":144,"n_dots":2.35,"target":"right","response":"right","rt":1362.7000000477,"correct":true,"confidence":2},{"trial_n":145,"n_dots":2.35,"target":"right","response":"right","rt":630.60000014305,"correct":true,"confidence":3},{"trial_n":146,"n_dots":2.25,"target":"left","response":"right","rt":707.79999995232,"correct":false,"confidence":3},{"trial_n":147,"n_dots":2.35,"target":"left","response":"left","rt":893.20000004768,"correct":true,"confidence":2},{"trial_n":148,"n_dots":2.35,"target":"right","response":"right","rt":580.90000009537,"correct":true,"confidence":3},{"trial_n":149,"n_dots":2.25,"target":"right","response":"right","rt":463.90000009537,"correct":true,"confidence":3},{"trial_n":150,"n_dots":2.25,"target":"right","response":"right","rt":538.29999995232,"correct":true,"confidence":3},{"trial_n":151,"n_dots":2.15,"target":"right","response":"right","rt":544.5,"correct":true,"confidence":4},{"trial_n":152,"n_dots":2.15,"target":"left","response":"left","rt":791.79999995232,"correct":true,"confidence":2},{"trial_n":153,"n_dots":2.05,"target":"right","response":"right","rt":472.90000009537,"correct":true,"confidence":2},{"trial_n":154,"n_dots":2.05,"target":"left","response":"right","rt":1509.0999999046,"correct":false,"confidence":2},{"trial_n":155,"n_dots":2.15,"target":"left","response":"left","rt":545.20000004768,"correct":true,"confidence":2},{"trial_n":156,"n_dots":2.15,"target":"right","response":"right","rt":659.5,"correct":true,"confidence":3},{"trial_n":157,"n_dots":2.05,"target":"left","response":"left","rt":1363.6000001431,"correct":true,"confidence":2},{"trial_n":158,"n_dots":2.05,"target":"right","response":"right","rt":568.09999990463,"correct":true,"confidence":2},{"trial_n":159,"n_dots":1.95,"target":"left","response":"left","rt":411.09999990463,"correct":true,"confidence":1},{"trial_n":160,"n_dots":1.95,"target":"left","response":"right","rt":1012.7999999523,"correct":false,"confidence":1},{"trial_n":161,"n_dots":2.05,"target":"left","response":"left","rt":836.10000014305,"correct":true,"confidence":1},{"trial_n":162,"n_dots":2.05,"target":"left","response":"right","rt":641.29999995232,"correct":false,"confidence":1},{"trial_n":163,"n_dots":2.15,"target":"left","response":"left","rt":617.09999990463,"correct":true,"confidence":2},{"trial_n":164,"n_dots":2.15,"target":"left","response":"left","rt":523,"correct":true,"confidence":1},{"trial_n":165,"n_dots":2.05,"target":"left","response":"right","rt":853.70000004768,"correct":false,"confidence":2},{"trial_n":166,"n_dots":2.15,"target":"right","response":"left","rt":593,"correct":false,"confidence":2},{"trial_n":167,"n_dots":2.25,"target":"left","response":"right","rt":636.09999990463,"correct":false,"confidence":2},{"trial_n":168,"n_dots":2.35,"target":"left","response":"left","rt":521.19999980927,"correct":true,"confidence":3},{"trial_n":169,"n_dots":2.35,"target":"right","response":"right","rt":572.39999985695,"correct":true,"confidence":3},{"trial_n":170,"n_dots":2.25,"target":"left","response":"right","rt":551.10000014305,"correct":false,"confidence":3},{"trial_n":171,"n_dots":2.35,"target":"right","response":"right","rt":657.79999995232,"correct":true,"confidence":2},{"trial_n":172,"n_dots":2.35,"target":"left","response":"right","rt":609.09999990463,"correct":false,"confidence":2},{"trial_n":173,"n_dots":2.45,"target":"left","response":"right","rt":371.5,"correct":false,"confidence":2},{"trial_n":174,"n_dots":2.55,"target":"right","response":"right","rt":513.79999995232,"correct":true,"confidence":3},{"trial_n":175,"n_dots":2.55,"target":"right","response":"right","rt":537.29999995232,"correct":true,"confidence":3},{"trial_n":176,"n_dots":2.45,"target":"right","response":"right","rt":462.89999985695,"correct":true,"confidence":3},{"trial_n":177,"n_dots":2.45,"target":"left","response":"left","rt":368.90000009537,"correct":true,"confidence":4},{"trial_n":178,"n_dots":2.35,"target":"left","response":"left","rt":369.10000014305,"correct":true,"confidence":2},{"trial_n":179,"n_dots":2.35,"target":"left","response":"right","rt":783.29999995232,"correct":false,"confidence":2},{"trial_n":180,"n_dots":2.45,"target":"left","response":"left","rt":917.59999990463,"correct":true,"confidence":2},{"trial_n":181,"n_dots":2.45,"target":"right","response":"left","rt":410.19999980927,"correct":false,"confidence":3},{"trial_n":182,"n_dots":2.55,"target":"left","response":"right","rt":562.39999985695,"correct":false,"confidence":1},{"trial_n":183,"n_dots":2.65,"target":"right","response":"right","rt":602,"correct":true,"confidence":3},{"trial_n":184,"n_dots":2.65,"target":"right","response":"right","rt":491.59999990463,"correct":true,"confidence":4},{"trial_n":185,"n_dots":2.55,"target":"left","response":"left","rt":820.70000004768,"correct":true,"confidence":2},{"trial_n":186,"n_dots":2.55,"target":"right","response":"right","rt":515,"correct":true,"confidence":4},{"trial_n":187,"n_dots":2.45,"target":"left","response":"left","rt":687.90000009537,"correct":true,"confidence":3},{"trial_n":188,"n_dots":2.45,"target":"left","response":"right","rt":560.29999995232,"correct":false,"confidence":3},{"trial_n":189,"n_dots":2.55,"target":"right","response":"right","rt":501.89999985695,"correct":true,"confidence":2},{"trial_n":190,"n_dots":2.55,"target":"right","response":"right","rt":387.70000004768,"correct":true,"confidence":3},{"trial_n":191,"n_dots":2.45,"target":"left","response":"right","rt":1010.0999999046,"correct":false,"confidence":3},{"trial_n":192,"n_dots":2.55,"target":"right","response":"right","rt":385.90000009537,"correct":true,"confidence":3},{"trial_n":193,"n_dots":2.55,"target":"left","response":"right","rt":639.40000009537,"correct":false,"confidence":2},{"trial_n":194,"n_dots":2.65,"target":"left","response":"right","rt":741.20000004768,"correct":false,"confidence":1}]