[{"trial_n":1,"n_dots":4.25,"target":"right","response":"left","rt":2236.3999999762,"correct":false,"confidence":-1},{"trial_n":2,"n_dots":4.25,"target":"right","response":"right","rt":2004.6000000238,"correct":true,"confidence":-1},{"trial_n":3,"n_dots":4.25,"target":"right","response":"right","rt":1229.5,"correct":true,"confidence":-1},{"trial_n":4,"n_dots":3.85,"target":"right","response":"right","rt":721.89999997616,"correct":true,"confidence":-1},{"trial_n":5,"n_dots":3.85,"target":"right","response":"right","rt":809.60000002384,"correct":true,"confidence":-1},{"trial_n":6,"n_dots":3.45,"target":"right","response":"right","rt":543.39999997616,"correct":true,"confidence":-1},{"trial_n":7,"n_dots":3.45,"target":"right","response":"right","rt":5885.5,"correct":true,"confidence":-1},{"trial_n":8,"n_dots":3.25,"target":"right","response":"left","rt":3139.1999999285,"correct":false,"confidence":-1},{"trial_n":9,"n_dots":3.45,"target":"right","response":"right","rt":835.89999997616,"correct":true,"confidence":-1},{"trial_n":10,"n_dots":3.45,"target":"right","response":"right","rt":1271.2000000477,"correct":true,"confidence":-1},{"trial_n":11,"n_dots":3.25,"target":"left","response":"right","rt":892.5,"correct":false,"confidence":-1},{"trial_n":12,"n_dots":3.45,"target":"right","response":"left","rt":660.5,"correct":false,"confidence":-1},{"trial_n":13,"n_dots":3.55,"target":"left","response":"right","rt":613.19999992847,"correct":false,"confidence":-1},{"trial_n":14,"n_dots":3.65,"target":"left","response":"left","rt":619.19999992847,"correct":true,"confidence":-1},{"trial_n":15,"n_dots":3.65,"target":"left","response":"left","rt":501.79999995232,"correct":true,"confidence":-1},{"trial_n":16,"n_dots":3.55,"target":"left","response":"left","rt":712.89999997616,"correct":true,"confidence":-1},{"trial_n":17,"n_dots":3.55,"target":"left","response":"left","rt":510.89999997616,"correct":true,"confidence":-1},{"trial_n":18,"n_dots":3.45,"target":"left","response":"left","rt":792.59999990463,"correct":true,"confidence":-1},{"trial_n":19,"n_dots":3.45,"target":"right","response":"right","rt":494.90000009537,"correct":true,"confidence":-1},{"trial_n":20,"n_dots":3.35,"target":"right","response":"right","rt":463.10000002384,"correct":true,"confidence":-1},{"trial_n":21,"n_dots":3.35,"target":"right","response":"right","rt":345.60000002384,"correct":true,"confidence":-1},{"trial_n":22,"n_dots":3.25,"target":"right","response":"right","rt":729.80000007153,"correct":true,"confidence":-1},{"trial_n":23,"n_dots":3.25,"target":"left","response":"right","rt":511,"correct":false,"confidence":-1},{"trial_n":24,"n_dots":3.35,"target":"left","response":"left","rt":440.19999992847,"correct":true,"confidence":-1},{"trial_n":25,"n_dots":3.35,"target":"right","response":"right","rt":180.5,"correct":true,"confidence":-1},{"trial_n":26,"n_dots":3.25,"target":"left","response":"right","rt":895.30000007153,"correct":false,"confidence":-1},{"trial_n":27,"n_dots":3.35,"target":"right","response":"right","rt":628,"correct":true,"confidence":2},{"trial_n":28,"n_dots":3.35,"target":"right","response":"right","rt":306.60000002384,"correct":true,"confidence":3},{"trial_n":29,"n_dots":3.25,"target":"right","response":"right","rt":318.30000007153,"correct":true,"confidence":3},{"trial_n":30,"n_dots":3.25,"target":"right","response":"left","rt":536.60000002384,"correct":false,"confidence":3},{"trial_n":31,"n_dots":3.35,"target":"right","response":"right","rt":541.89999997616,"correct":true,"confidence":3},{"trial_n":32,"n_dots":3.35,"target":"right","response":"right","rt":461.60000002384,"correct":true,"confidence":3},{"trial_n":33,"n_dots":3.25,"target":"left","response":"left","rt":248.69999992847,"correct":true,"confidence":2},{"trial_n":34,"n_dots":3.25,"target":"right","response":"right","rt":82.200000047684,"correct":true,"confidence":3},{"trial_n":35,"n_dots":3.15,"target":"right","response":"left","rt":487.10000002384,"correct":false,"confidence":3},{"trial_n":36,"n_dots":3.25,"target":"right","response":"right","rt":384.70000004768,"correct":true,"confidence":3},{"trial_n":37,"n_dots":3.25,"target":"right","response":"left","rt":1058.6000000238,"correct":false,"confidence":3},{"trial_n":38,"n_dots":3.35,"target":"left","response":"right","rt":862.59999990463,"correct":false,"confidence":3},{"trial_n":39,"n_dots":3.45,"target":"left","response":"left","rt":66.700000047684,"correct":true,"confidence":3},{"trial_n":40,"n_dots":3.45,"target":"left","response":"left","rt":386.39999997616,"correct":true,"confidence":3},{"trial_n":41,"n_dots":3.35,"target":"right","response":"right","rt":588.60000002384,"correct":true,"confidence":3},{"trial_n":42,"n_dots":3.35,"target":"right","response":"left","rt":1010.7000000477,"correct":false,"confidence":3},{"trial_n":43,"n_dots":3.45,"target":"right","response":"left","rt":1018.5999999046,"correct":false,"confidence":2},{"trial_n":44,"n_dots":3.55,"target":"left","response":"left","rt":439,"correct":true,"confidence":2},{"trial_n":45,"n_dots":3.55,"target":"left","response":"left","rt":334.39999997616,"correct":true,"confidence":2},{"trial_n":46,"n_dots":3.45,"target":"right","response":"right","rt":953.5,"correct":true,"confidence":2},{"trial_n":47,"n_dots":3.45,"target":"left","response":"left","rt":446.89999997616,"correct":true,"confidence":2},{"trial_n":48,"n_dots":3.35,"target":"left","response":"left","rt":705.79999995232,"correct":true,"confidence":2},{"trial_n":49,"n_dots":3.35,"target":"left","response":"right","rt":777.89999997616,"correct":false,"confidence":2},{"trial_n":50,"n_dots":3.45,"target":"right","response":"left","rt":687.89999997616,"correct":false,"confidence":2},{"trial_n":51,"n_dots":3.55,"target":"right","response":"right","rt":669.69999992847,"correct":true,"confidence":2},{"trial_n":52,"n_dots":3.55,"target":"right","response":"right","rt":1572.5,"correct":true,"confidence":1},{"trial_n":53,"n_dots":3.45,"target":"left","response":"left","rt":307.39999997616,"correct":true,"confidence":2},{"trial_n":54,"n_dots":3.45,"target":"left","response":"left","rt":142.60000002384,"correct":true,"confidence":2},{"trial_n":55,"n_dots":3.35,"target":"right","response":"left","rt":714.19999992847,"correct":false,"confidence":2},{"trial_n":56,"n_dots":3.45,"target":"left","response":"left","rt":554.79999995232,"correct":true,"confidence":4},{"trial_n":57,"n_dots":3.45,"target":"left","response":"left","rt":1458,"correct":true,"confidence":3},{"trial_n":58,"n_dots":3.35,"target":"right","response":"left","rt":490,"correct":false,"confidence":2},{"trial_n":59,"n_dots":3.45,"target":"right","response":"left","rt":1108,"correct":false,"confidence":2},{"trial_n":60,"n_dots":3.55,"target":"left","response":"left","rt":1002.8000000715,"correct":true,"confidence":2},{"trial_n":61,"n_dots":3.55,"target":"right","response":"right","rt":1330.0999999046,"correct":true,"confidence":4},{"trial_n":62,"n_dots":3.45,"target":"right","response":"right","rt":536.39999997616,"correct":true,"confidence":4},{"trial_n":63,"n_dots":3.45,"target":"right","response":"right","rt":858.60000002384,"correct":true,"confidence":1},{"trial_n":64,"n_dots":3.35,"target":"right","response":"right","rt":958,"correct":true,"confidence":4},{"trial_n":65,"n_dots":3.35,"target":"right","response":"right","rt":265.19999992847,"correct":true,"confidence":1},{"trial_n":66,"n_dots":3.25,"target":"left","response":"left","rt":245.79999995232,"correct":true,"confidence":3},{"trial_n":67,"n_dots":3.25,"target":"left","response":"left","rt":538.5,"correct":true,"confidence":3},{"trial_n":68,"n_dots":3.15,"target":"left","response":"right","rt":588.5,"correct":false,"confidence":3},{"trial_n":69,"n_dots":3.25,"target":"left","response":"left","rt":791.79999995232,"correct":true,"confidence":3},{"trial_n":70,"n_dots":3.25,"target":"left","response":"right","rt":1214.3999999762,"correct":false,"confidence":3},{"trial_n":71,"n_dots":3.35,"target":"left","response":"left","rt":425.19999992847,"correct":true,"confidence":3},{"trial_n":72,"n_dots":3.35,"target":"left","response":"left","rt":501.90000009537,"correct":true,"confidence":3},{"trial_n":73,"n_dots":3.25,"target":"right","response":"right","rt":800.30000007153,"correct":true,"confidence":3},{"trial_n":74,"n_dots":3.25,"target":"right","response":"right","rt":721.79999995232,"correct":true,"confidence":3},{"trial_n":75,"n_dots":3.15,"target":"left","response":"left","rt":438.90000009537,"correct":true,"confidence":3},{"trial_n":76,"n_dots":3.15,"target":"right","response":"left","rt":631.10000002384,"correct":false,"confidence":3},{"trial_n":77,"n_dots":3.25,"target":"right","response":"right","rt":842.29999995232,"correct":true,"confidence":3},{"trial_n":78,"n_dots":3.25,"target":"left","response":"left","rt":571.40000009537,"correct":true,"confidence":3},{"trial_n":79,"n_dots":3.15,"target":"left","response":"left","rt":465.70000004768,"correct":true,"confidence":3},{"trial_n":80,"n_dots":3.15,"target":"left","response":"left","rt":585.19999992847,"correct":true,"confidence":3},{"trial_n":81,"n_dots":3.05,"target":"left","response":"left","rt":892.60000002384,"correct":true,"confidence":2},{"trial_n":82,"n_dots":3.05,"target":"left","response":"left","rt":1054.9000000954,"correct":true,"confidence":2},{"trial_n":83,"n_dots":2.95,"target":"left","response":"right","rt":278.60000002384,"correct":false,"confidence":2},{"trial_n":84,"n_dots":3.05,"target":"right","response":"right","rt":1054.8999999762,"correct":true,"confidence":1},{"trial_n":85,"n_dots":3.05,"target":"right","response":"right","rt":995.89999997616,"correct":true,"confidence":3},{"trial_n":86,"n_dots":2.95,"target":"left","response":"left","rt":719.09999990463,"correct":true,"confidence":2},{"trial_n":87,"n_dots":2.95,"target":"left","response":"left","rt":1418.5,"correct":true,"confidence":2},{"trial_n":88,"n_dots":2.85,"target":"left","response":"right","rt":678.19999992847,"correct":false,"confidence":2},{"trial_n":89,"n_dots":2.95,"target":"left","response":"left","rt":390.60000002384,"correct":true,"confidence":3},{"trial_n":90,"n_dots":2.95,"target":"left","response":"left","rt":411.30000007153,"correct":true,"confidence":3},{"trial_n":91,"n_dots":2.85,"target":"right","response":"right","rt":460.30000007153,"correct":true,"confidence":3},{"trial_n":92,"n_dots":2.85,"target":"left","response":"left","rt":603.5,"correct":true,"confidence":3},{"trial_n":93,"n_dots":2.75,"target":"right","response":"right","rt":413.70000004768,"correct":true,"confidence":3},{"trial_n":94,"n_dots":2.75,"target":"right","response":"left","rt":895.39999997616,"correct":false,"confidence":3},{"trial_n":95,"n_dots":2.85,"target":"left","response":"left","rt":35.099999904633,"correct":true,"confidence":3},{"trial_n":96,"n_dots":2.85,"target":"left","response":"left","rt":757.29999995232,"correct":true,"confidence":3},{"trial_n":97,"n_dots":2.75,"target":"left","response":"right","rt":447.69999992847,"correct":false,"confidence":3},{"trial_n":98,"n_dots":2.85,"target":"right","response":"left","rt":349.29999995232,"correct":false,"confidence":3},{"trial_n":99,"n_dots":2.95,"target":"right","response":"right","rt":772.39999997616,"correct":true,"confidence":2},{"trial_n":100,"n_dots":2.95,"target":"right","response":"left","rt":498.60000002384,"correct":false,"confidence":2},{"trial_n":101,"n_dots":3.05,"target":"right","response":"right","rt":349.89999997616,"correct":true,"confidence":3},{"trial_n":102,"n_dots":3.05,"target":"left","response":"left","rt":312,"correct":true,"confidence":2},{"trial_n":103,"n_dots":2.95,"target":"left","response":"right","rt":463.29999995232,"correct":false,"confidence":2},{"trial_n":104,"n_dots":3.05,"target":"right","response":"right","rt":437.60000002384,"correct":true,"confidence":2},{"trial_n":105,"n_dots":3.05,"target":"left","response":"left","rt":408.70000004768,"correct":true,"confidence":2},{"trial_n":106,"n_dots":2.95,"target":"right","response":"right","rt":308.60000002384,"correct":true,"confidence":2},{"trial_n":107,"n_dots":2.95,"target":"left","response":"right","rt":486.69999992847,"correct":false,"confidence":2},{"trial_n":108,"n_dots":3.05,"target":"right","response":"left","rt":533.70000004768,"correct":false,"confidence":2},{"trial_n":109,"n_dots":3.15,"target":"left","response":"left","rt":447.39999997616,"correct":true,"confidence":2},{"trial_n":110,"n_dots":3.15,"target":"right","response":"right","rt":377.89999997616,"correct":true,"confidence":2},{"trial_n":111,"n_dots":3.05,"target":"left","response":"left","rt":401.80000007153,"correct":true,"confidence":2},{"trial_n":112,"n_dots":3.05,"target":"left","response":"right","rt":715,"correct":false,"confidence":2},{"trial_n":113,"n_dots":3.15,"target":"left","response":"left","rt":176.39999997616,"correct":true,"confidence":2},{"trial_n":114,"n_dots":3.15,"target":"right","response":"right","rt":155,"correct":true,"confidence":1},{"trial_n":115,"n_dots":3.05,"target":"right","response":"right","rt":355.70000004768,"correct":true,"confidence":2},{"trial_n":116,"n_dots":3.05,"target":"right","response":"right","rt":757.10000002384,"correct":true,"confidence":2},{"trial_n":117,"n_dots":2.95,"target":"right","response":"left","rt":437.39999997616,"correct":false,"confidence":2},{"trial_n":118,"n_dots":3.05,"target":"left","response":"left","rt":281.10000002384,"correct":true,"confidence":2},{"trial_n":119,"n_dots":3.05,"target":"right","response":"right","rt":605.29999995232,"correct":true,"confidence":2},{"trial_n":120,"n_dots":2.95,"target":"left","response":"right","rt":532.39999997616,"correct":false,"confidence":2},{"trial_n":121,"n_dots":3.05,"target":"left","response":"left","rt":448.10000002384,"correct":true,"confidence":2},{"trial_n":122,"n_dots":3.05,"target":"left","response":"right","rt":247.89999997616,"correct":false,"confidence":2},{"trial_n":123,"n_dots":3.15,"target":"left","response":"left","rt":385.60000002384,"correct":true,"confidence":2},{"trial_n":124,"n_dots":3.15,"target":"right","response":"right","rt":110.5,"correct":true,"confidence":2},{"trial_n":125,"n_dots":3.05,"target":"right","response":"right","rt":366.70000004768,"correct":true,"confidence":3},{"trial_n":126,"n_dots":3.05,"target":"left","response":"left","rt":340.20000004768,"correct":true,"confidence":3},{"trial_n":127,"n_dots":2.95,"target":"right","response":"left","rt":1065.1999999285,"correct":false,"confidence":1},{"trial_n":128,"n_dots":3.05,"target":"left","response":"left","rt":364.39999997616,"correct":true,"confidence":1},{"trial_n":129,"n_dots":3.05,"target":"right","response":"left","rt":383.39999997616,"correct":false,"confidence":1},{"trial_n":130,"n_dots":3.15,"target":"left","response":"left","rt":571.40000009537,"correct":true,"confidence":3},{"trial_n":131,"n_dots":3.15,"target":"left","response":"right","rt":567.5,"correct":false,"confidence":2},{"trial_n":132,"n_dots":3.25,"target":"left","response":"left","rt":919.29999995232,"correct":true,"confidence":2},{"trial_n":133,"n_dots":3.25,"target":"left","response":"left","rt":628.89999997616,"correct":true,"confidence":2},{"trial_n":134,"n_dots":3.15,"target":"right","response":"left","rt":492.79999995232,"correct":false,"confidence":2},{"trial_n":135,"n_dots":3.25,"target":"right","response":"right","rt":761.20000004768,"correct":true,"confidence":2},{"trial_n":136,"n_dots":3.25,"target":"right","response":"right","rt":727.40000009537,"correct":true,"confidence":2},{"trial_n":137,"n_dots":3.15,"target":"right","response":"right","rt":465.20000004768,"correct":true,"confidence":2},{"trial_n":138,"n_dots":3.15,"target":"right","response":"right","rt":645.59999990463,"correct":true,"confidence":2},{"trial_n":139,"n_dots":3.05,"target":"left","response":"left","rt":368.10000002384,"correct":true,"confidence":2},{"trial_n":140,"n_dots":3.05,"target":"right","response":"right","rt":701.89999997616,"correct":true,"confidence":2},{"trial_n":141,"n_dots":2.95,"target":"left","response":"right","rt":294.39999997616,"correct":false,"confidence":2},{"trial_n":142,"n_dots":3.05,"target":"right","response":"right","rt":334.79999995232,"correct":true,"confidence":3},{"trial_n":143,"n_dots":3.05,"target":"left","response":"left","rt":408.40000009537,"correct":true,"confidence":3},{"trial_n":144,"n_dots":2.95,"target":"left","response":"left","rt":141,"correct":true,"confidence":3},{"trial_n":145,"n_dots":2.95,"target":"left","response":"right","rt":318.79999995232,"correct":false,"confidence":2},{"trial_n":146,"n_dots":3.05,"target":"right","response":"right","rt":599.80000007153,"correct":true,"confidence":3},{"trial_n":147,"n_dots":3.05,"target":"left","response":"left","rt":434.89999997616,"correct":true,"confidence":1},{"trial_n":148,"n_dots":2.95,"target":"left","response":"right","rt":51,"correct":false,"confidence":1},{"trial_n":149,"n_dots":3.05,"target":"left","response":"left","rt":1320.3999999762,"correct":true,"confidence":2},{"trial_n":150,"n_dots":3.05,"target":"right","response":"right","rt":526.60000002384,"correct":true,"confidence":2},{"trial_n":151,"n_dots":2.95,"target":"left","response":"left","rt":432.79999995232,"correct":true,"confidence":2},{"trial_n":152,"n_dots":2.95,"target":"left","response":"right","rt":389.80000007153,"correct":false,"confidence":2},{"trial_n":153,"n_dots":3.05,"target":"left","response":"left","rt":269,"correct":true,"confidence":2},{"trial_n":154,"n_dots":3.05,"target":"right","response":"right","rt":710.89999997616,"correct":true,"confidence":2},{"trial_n":155,"n_dots":2.95,"target":"left","response":"left","rt":198.60000002384,"correct":true,"confidence":2},{"trial_n":156,"n_dots":2.95,"target":"right","response":"right","rt":444.19999992847,"correct":true,"confidence":1},{"trial_n":157,"n_dots":2.85,"target":"left","response":"left","rt":530.79999995232,"correct":true,"confidence":2},{"trial_n":158,"n_dots":2.85,"target":"right","response":"left","rt":5570.2999999523,"correct":false,"confidence":2},{"trial_n":159,"n_dots":2.95,"target":"left","response":"left","rt":683.80000007153,"correct":true,"confidence":2},{"trial_n":160,"n_dots":2.95,"target":"left","response":"left","rt":243.69999992847,"correct":true,"confidence":2},{"trial_n":161,"n_dots":2.85,"target":"right","response":"right","rt":129,"correct":true,"confidence":2},{"trial_n":162,"n_dots":2.85,"target":"left","response":"left","rt":245.59999990463,"correct":true,"confidence":2},{"trial_n":163,"n_dots":2.75,"target":"right","response":"right","rt":938.5,"correct":true,"confidence":2},{"trial_n":164,"n_dots":2.75,"target":"right","response":"right","rt":896.80000007153,"correct":true,"confidence":2},{"trial_n":165,"n_dots":2.65,"target":"left","response":"right","rt":925.39999997616,"correct":false,"confidence":1},{"trial_n":166,"n_dots":2.75,"target":"right","response":"right","rt":1071.6000000238,"correct":true,"confidence":3},{"trial_n":167,"n_dots":2.75,"target":"right","response":"right","rt":526.60000002384,"correct":true,"confidence":3},{"trial_n":168,"n_dots":2.65,"target":"left","response":"left","rt":411.10000002384,"correct":true,"confidence":2},{"trial_n":169,"n_dots":2.65,"target":"right","response":"right","rt":207.80000007153,"correct":true,"confidence":2},{"trial_n":170,"n_dots":2.55,"target":"right","response":"right","rt":95,"correct":true,"confidence":2},{"trial_n":171,"n_dots":2.55,"target":"right","response":"right","rt":453.70000004768,"correct":true,"confidence":1},{"trial_n":172,"n_dots":2.45,"target":"right","response":"left","rt":240.19999992847,"correct":false,"confidence":2},{"trial_n":173,"n_dots":2.55,"target":"left","response":"right","rt":626.80000007153,"correct":false,"confidence":2},{"trial_n":174,"n_dots":2.65,"target":"right","response":"right","rt":590.70000004768,"correct":true,"confidence":2},{"trial_n":175,"n_dots":2.65,"target":"left","response":"left","rt":532.39999997616,"correct":true,"confidence":1},{"trial_n":176,"n_dots":2.55,"target":"right","response":"right","rt":471.5,"correct":true,"confidence":2},{"trial_n":177,"n_dots":2.55,"target":"left","response":"left","rt":426.19999992847,"correct":true,"confidence":1},{"trial_n":178,"n_dots":2.45,"target":"left","response":"left","rt":494.70000004768,"correct":true,"confidence":1},{"trial_n":179,"n_dots":2.45,"target":"right","response":"right","rt":456.19999992847,"correct":true,"confidence":2},{"trial_n":180,"n_dots":2.35,"target":"left","response":"left","rt":233.80000007153,"correct":true,"confidence":2},{"trial_n":181,"n_dots":2.35,"target":"left","response":"right","rt":174,"correct":false,"confidence":2},{"trial_n":182,"n_dots":2.45,"target":"right","response":"left","rt":362.19999992847,"correct":false,"confidence":2},{"trial_n":183,"n_dots":2.55,"target":"left","response":"right","rt":610,"correct":false,"confidence":2},{"trial_n":184,"n_dots":2.65,"target":"right","response":"left","rt":490.80000007153,"correct":false,"confidence":2},{"trial_n":185,"n_dots":2.75,"target":"left","response":"right","rt":488.20000004768,"correct":false,"confidence":2},{"trial_n":186,"n_dots":2.85,"target":"left","response":"left","rt":333.10000002384,"correct":true,"confidence":2},{"trial_n":187,"n_dots":2.85,"target":"left","response":"left","rt":1078.6000000238,"correct":true,"confidence":1},{"trial_n":188,"n_dots":2.75,"target":"right","response":"left","rt":455.30000007153,"correct":false,"confidence":3},{"trial_n":189,"n_dots":2.85,"target":"left","response":"left","rt":462.70000004768,"correct":true,"confidence":2},{"trial_n":190,"n_dots":2.85,"target":"right","response":"right","rt":128.29999995232,"correct":true,"confidence":3},{"trial_n":191,"n_dots":2.75,"target":"left","response":"left","rt":302.80000007153,"correct":true,"confidence":2},{"trial_n":192,"n_dots":2.75,"target":"left","response":"right","rt":643.5,"correct":false,"confidence":3},{"trial_n":193,"n_dots":2.85,"target":"right","response":"right","rt":381.70000004768,"correct":true,"confidence":3},{"trial_n":194,"n_dots":2.85,"target":"right","response":"left","rt":263.5,"correct":false,"confidence":1}]