[{"trial_n":1,"n_dots":4.25,"target":"left","response":"left","rt":8165.1999999285,"correct":true,"confidence":-1},{"trial_n":2,"n_dots":4.25,"target":"left","response":"left","rt":379.80000007153,"correct":true,"confidence":-1},{"trial_n":3,"n_dots":3.85,"target":"left","response":"left","rt":281.19999992847,"correct":true,"confidence":-1},{"trial_n":4,"n_dots":3.85,"target":"left","response":"left","rt":952.19999992847,"correct":true,"confidence":-1},{"trial_n":5,"n_dots":3.45,"target":"left","response":"left","rt":681.20000004768,"correct":true,"confidence":-1},{"trial_n":6,"n_dots":3.45,"target":"right","response":"left","rt":674.5,"correct":false,"confidence":-1},{"trial_n":7,"n_dots":3.85,"target":"left","response":"left","rt":1519.5999999046,"correct":true,"confidence":-1},{"trial_n":8,"n_dots":3.85,"target":"left","response":"left","rt":799.90000009537,"correct":true,"confidence":-1},{"trial_n":9,"n_dots":3.65,"target":"left","response":"left","rt":564.89999997616,"correct":true,"confidence":-1},{"trial_n":10,"n_dots":3.65,"target":"left","response":"right","rt":1111.1000000238,"correct":false,"confidence":-1},{"trial_n":11,"n_dots":3.85,"target":"left","response":"left","rt":699.60000002384,"correct":true,"confidence":-1},{"trial_n":12,"n_dots":3.85,"target":"left","response":"left","rt":470.09999990463,"correct":true,"confidence":-1},{"trial_n":13,"n_dots":3.75,"target":"right","response":"right","rt":656.70000004768,"correct":true,"confidence":-1},{"trial_n":14,"n_dots":3.75,"target":"right","response":"right","rt":201.69999992847,"correct":true,"confidence":-1},{"trial_n":15,"n_dots":3.65,"target":"right","response":"right","rt":3777.5,"correct":true,"confidence":-1},{"trial_n":16,"n_dots":3.65,"target":"left","response":"left","rt":924.89999997616,"correct":true,"confidence":-1},{"trial_n":17,"n_dots":3.55,"target":"right","response":"right","rt":475.89999997616,"correct":true,"confidence":-1},{"trial_n":18,"n_dots":3.55,"target":"left","response":"left","rt":403.59999990463,"correct":true,"confidence":-1},{"trial_n":19,"n_dots":3.45,"target":"left","response":"left","rt":650.10000002384,"correct":true,"confidence":-1},{"trial_n":20,"n_dots":3.45,"target":"right","response":"right","rt":497.29999995232,"correct":true,"confidence":-1},{"trial_n":21,"n_dots":3.35,"target":"left","response":"left","rt":406.19999992847,"correct":true,"confidence":-1},{"trial_n":22,"n_dots":3.35,"target":"left","response":"left","rt":184.20000004768,"correct":true,"confidence":-1},{"trial_n":23,"n_dots":3.25,"target":"left","response":"right","rt":370.5,"correct":false,"confidence":-1},{"trial_n":24,"n_dots":3.35,"target":"right","response":"right","rt":563.89999997616,"correct":true,"confidence":-1},{"trial_n":25,"n_dots":3.35,"target":"right","response":"right","rt":419.29999995232,"correct":true,"confidence":-1},{"trial_n":26,"n_dots":3.25,"target":"right","response":"right","rt":900.5,"correct":true,"confidence":-1},{"trial_n":27,"n_dots":3.25,"target":"left","response":"right","rt":835,"correct":false,"confidence":2},{"trial_n":28,"n_dots":3.35,"target":"left","response":"left","rt":1093.4000000954,"correct":true,"confidence":2},{"trial_n":29,"n_dots":3.35,"target":"right","response":"right","rt":597.10000002384,"correct":true,"confidence":4},{"trial_n":30,"n_dots":3.25,"target":"right","response":"left","rt":1741,"correct":false,"confidence":2},{"trial_n":31,"n_dots":3.35,"target":"left","response":"left","rt":582.60000002384,"correct":true,"confidence":3},{"trial_n":32,"n_dots":3.35,"target":"left","response":"left","rt":582.69999992847,"correct":true,"confidence":3},{"trial_n":33,"n_dots":3.25,"target":"left","response":"left","rt":710.10000002384,"correct":true,"confidence":2},{"trial_n":34,"n_dots":3.25,"target":"left","response":"left","rt":695.60000002384,"correct":true,"confidence":2},{"trial_n":35,"n_dots":3.15,"target":"right","response":"right","rt":642.79999995232,"correct":true,"confidence":4},{"trial_n":36,"n_dots":3.15,"target":"right","response":"left","rt":574,"correct":false,"confidence":3},{"trial_n":37,"n_dots":3.25,"target":"left","response":"left","rt":416.60000002384,"correct":true,"confidence":3},{"trial_n":38,"n_dots":3.25,"target":"right","response":"right","rt":663.89999997616,"correct":true,"confidence":3},{"trial_n":39,"n_dots":3.15,"target":"right","response":"left","rt":1738.6999999285,"correct":false,"confidence":2},{"trial_n":40,"n_dots":3.25,"target":"right","response":"right","rt":963.79999995232,"correct":true,"confidence":3},{"trial_n":41,"n_dots":3.25,"target":"left","response":"left","rt":616.5,"correct":true,"confidence":4},{"trial_n":42,"n_dots":3.15,"target":"right","response":"right","rt":835.89999997616,"correct":true,"confidence":2},{"trial_n":43,"n_dots":3.15,"target":"left","response":"left","rt":706.79999995232,"correct":true,"confidence":2},{"trial_n":44,"n_dots":3.05,"target":"right","response":"left","rt":654.70000004768,"correct":false,"confidence":2},{"trial_n":45,"n_dots":3.15,"target":"right","response":"right","rt":1093.6999999285,"correct":true,"confidence":2},{"trial_n":46,"n_dots":3.15,"target":"right","response":"right","rt":454.60000002384,"correct":true,"confidence":3},{"trial_n":47,"n_dots":3.05,"target":"right","response":"right","rt":441.5,"correct":true,"confidence":5},{"trial_n":48,"n_dots":3.05,"target":"left","response":"left","rt":322.30000007153,"correct":true,"confidence":4},{"trial_n":49,"n_dots":2.95,"target":"right","response":"right","rt":461,"correct":true,"confidence":3},{"trial_n":50,"n_dots":2.95,"target":"right","response":"right","rt":467.60000002384,"correct":true,"confidence":4},{"trial_n":51,"n_dots":2.85,"target":"right","response":"right","rt":1422,"correct":true,"confidence":2},{"trial_n":52,"n_dots":2.85,"target":"left","response":"left","rt":436.29999995232,"correct":true,"confidence":3},{"trial_n":53,"n_dots":2.75,"target":"left","response":"left","rt":1106.8999999762,"correct":true,"confidence":2},{"trial_n":54,"n_dots":2.75,"target":"left","response":"left","rt":659.10000002384,"correct":true,"confidence":4},{"trial_n":55,"n_dots":2.65,"target":"right","response":"right","rt":484.5,"correct":true,"confidence":2},{"trial_n":56,"n_dots":2.65,"target":"right","response":"left","rt":1437.5,"correct":false,"confidence":1},{"trial_n":57,"n_dots":2.75,"target":"right","response":"left","rt":1152.8999999762,"correct":false,"confidence":1},{"trial_n":58,"n_dots":2.85,"target":"right","response":"left","rt":743.80000007153,"correct":false,"confidence":2},{"trial_n":59,"n_dots":2.95,"target":"left","response":"left","rt":498.5,"correct":true,"confidence":1},{"trial_n":60,"n_dots":2.95,"target":"left","response":"left","rt":475.39999997616,"correct":true,"confidence":3},{"trial_n":61,"n_dots":2.85,"target":"left","response":"left","rt":480.30000007153,"correct":true,"confidence":3},{"trial_n":62,"n_dots":2.85,"target":"left","response":"left","rt":462.89999997616,"correct":true,"confidence":2},{"trial_n":63,"n_dots":2.75,"target":"right","response":"left","rt":1186.5,"correct":false,"confidence":2},{"trial_n":64,"n_dots":2.85,"target":"left","response":"left","rt":1376.8999999762,"correct":true,"confidence":1},{"trial_n":65,"n_dots":2.85,"target":"left","response":"left","rt":617.80000007153,"correct":true,"confidence":3},{"trial_n":66,"n_dots":2.75,"target":"right","response":"left","rt":588.70000004768,"correct":false,"confidence":2},{"trial_n":67,"n_dots":2.85,"target":"left","response":"left","rt":515.20000004768,"correct":true,"confidence":3},{"trial_n":68,"n_dots":2.85,"target":"left","response":"left","rt":340.60000002384,"correct":true,"confidence":3},{"trial_n":69,"n_dots":2.75,"target":"right","response":"left","rt":417.10000002384,"correct":false,"confidence":2},{"trial_n":70,"n_dots":2.85,"target":"left","response":"left","rt":654.19999992847,"correct":true,"confidence":1},{"trial_n":71,"n_dots":2.85,"target":"left","response":"left","rt":950.89999997616,"correct":true,"confidence":1},{"trial_n":72,"n_dots":2.75,"target":"right","response":"left","rt":387.39999997616,"correct":false,"confidence":1},{"trial_n":73,"n_dots":2.85,"target":"left","response":"left","rt":897.19999992847,"correct":true,"confidence":1},{"trial_n":74,"n_dots":2.85,"target":"right","response":"left","rt":826.5,"correct":false,"confidence":1},{"trial_n":75,"n_dots":2.95,"target":"left","response":"left","rt":1079.8999999762,"correct":true,"confidence":1},{"trial_n":76,"n_dots":2.95,"target":"right","response":"left","rt":2773.6000000238,"correct":false,"confidence":1},{"trial_n":77,"n_dots":3.05,"target":"left","response":"left","rt":731.19999992847,"correct":true,"confidence":2},{"trial_n":78,"n_dots":3.05,"target":"right","response":"left","rt":655.5,"correct":false,"confidence":2},{"trial_n":79,"n_dots":3.15,"target":"left","response":"left","rt":519.60000002384,"correct":true,"confidence":2},{"trial_n":80,"n_dots":3.15,"target":"right","response":"right","rt":653,"correct":true,"confidence":3},{"trial_n":81,"n_dots":3.05,"target":"left","response":"left","rt":450.19999992847,"correct":true,"confidence":2},{"trial_n":82,"n_dots":3.05,"target":"left","response":"left","rt":659.10000002384,"correct":true,"confidence":2},{"trial_n":83,"n_dots":2.95,"target":"right","response":"left","rt":1272.1000000238,"correct":false,"confidence":1},{"trial_n":84,"n_dots":3.05,"target":"left","response":"left","rt":578.69999992847,"correct":true,"confidence":4},{"trial_n":85,"n_dots":3.05,"target":"left","response":"left","rt":580.60000002384,"correct":true,"confidence":3},{"trial_n":86,"n_dots":2.95,"target":"left","response":"left","rt":275.39999997616,"correct":true,"confidence":4},{"trial_n":87,"n_dots":2.95,"target":"right","response":"left","rt":1040.1000000238,"correct":false,"confidence":1},{"trial_n":88,"n_dots":3.05,"target":"right","response":"left","rt":805.5,"correct":false,"confidence":1},{"trial_n":89,"n_dots":3.15,"target":"right","response":"right","rt":625.60000002384,"correct":true,"confidence":4},{"trial_n":90,"n_dots":3.15,"target":"right","response":"right","rt":10449.600000024,"correct":true,"confidence":1},{"trial_n":91,"n_dots":3.05,"target":"right","response":"left","rt":447.59999990463,"correct":false,"confidence":1},{"trial_n":92,"n_dots":3.15,"target":"right","response":"right","rt":408.39999997616,"correct":true,"confidence":3},{"trial_n":93,"n_dots":3.15,"target":"right","response":"right","rt":657.89999997616,"correct":true,"confidence":3},{"trial_n":94,"n_dots":3.05,"target":"right","response":"right","rt":641.89999997616,"correct":true,"confidence":4},{"trial_n":95,"n_dots":3.05,"target":"right","response":"right","rt":456.39999997616,"correct":true,"confidence":4},{"trial_n":96,"n_dots":2.95,"target":"right","response":"right","rt":285,"correct":true,"confidence":3},{"trial_n":97,"n_dots":2.95,"target":"right","response":"right","rt":669.5,"correct":true,"confidence":1},{"trial_n":98,"n_dots":2.85,"target":"right","response":"left","rt":923.60000002384,"correct":false,"confidence":1},{"trial_n":99,"n_dots":2.95,"target":"left","response":"left","rt":669,"correct":true,"confidence":1},{"trial_n":100,"n_dots":2.95,"target":"left","response":"left","rt":988.29999995232,"correct":true,"confidence":1},{"trial_n":101,"n_dots":2.85,"target":"left","response":"left","rt":674.5,"correct":true,"confidence":3},{"trial_n":102,"n_dots":2.85,"target":"right","response":"right","rt":732.19999992847,"correct":true,"confidence":1},{"trial_n":103,"n_dots":2.75,"target":"left","response":"left","rt":603.30000007153,"correct":true,"confidence":2},{"trial_n":104,"n_dots":2.75,"target":"left","response":"right","rt":440.80000007153,"correct":false,"confidence":1},{"trial_n":105,"n_dots":2.85,"target":"left","response":"left","rt":652.10000002384,"correct":true,"confidence":1},{"trial_n":106,"n_dots":2.85,"target":"left","response":"left","rt":170.70000004768,"correct":true,"confidence":1},{"trial_n":107,"n_dots":2.75,"target":"left","response":"left","rt":627.30000007153,"correct":true,"confidence":1},{"trial_n":108,"n_dots":2.75,"target":"right","response":"right","rt":620.29999995232,"correct":true,"confidence":1},{"trial_n":109,"n_dots":2.65,"target":"right","response":"left","rt":621.10000002384,"correct":false,"confidence":1},{"trial_n":110,"n_dots":2.75,"target":"right","response":"left","rt":822.20000004768,"correct":false,"confidence":2},{"trial_n":111,"n_dots":2.85,"target":"right","response":"right","rt":647.29999995232,"correct":true,"confidence":3},{"trial_n":112,"n_dots":2.85,"target":"left","response":"right","rt":2224.8999999762,"correct":false,"confidence":1},{"trial_n":113,"n_dots":2.95,"target":"right","response":"right","rt":585.70000004768,"correct":true,"confidence":2},{"trial_n":114,"n_dots":2.95,"target":"right","response":"right","rt":916.70000004768,"correct":true,"confidence":1},{"trial_n":115,"n_dots":2.85,"target":"right","response":"left","rt":1125.5,"correct":false,"confidence":1},{"trial_n":116,"n_dots":2.95,"target":"right","response":"left","rt":2263.2999999523,"correct":false,"confidence":1},{"trial_n":117,"n_dots":3.05,"target":"right","response":"right","rt":705.5,"correct":true,"confidence":3},{"trial_n":118,"n_dots":3.05,"target":"left","response":"left","rt":968.60000002384,"correct":true,"confidence":1},{"trial_n":119,"n_dots":2.95,"target":"left","response":"right","rt":791.80000007153,"correct":false,"confidence":3},{"trial_n":120,"n_dots":3.05,"target":"right","response":"left","rt":689,"correct":false,"confidence":3},{"trial_n":121,"n_dots":3.15,"target":"right","response":"right","rt":635.80000007153,"correct":true,"confidence":2},{"trial_n":122,"n_dots":3.15,"target":"right","response":"right","rt":649.5,"correct":true,"confidence":1},{"trial_n":123,"n_dots":3.05,"target":"right","response":"right","rt":714,"correct":true,"confidence":2},{"trial_n":124,"n_dots":3.05,"target":"right","response":"left","rt":3966.2999999523,"correct":false,"confidence":1},{"trial_n":125,"n_dots":3.15,"target":"right","response":"right","rt":1379.7000000477,"correct":true,"confidence":1},{"trial_n":126,"n_dots":3.15,"target":"right","response":"right","rt":596.29999995232,"correct":true,"confidence":2},{"trial_n":127,"n_dots":3.05,"target":"right","response":"right","rt":1537.5999999046,"correct":true,"confidence":1},{"trial_n":128,"n_dots":3.05,"target":"left","response":"left","rt":760,"correct":true,"confidence":2},{"trial_n":129,"n_dots":2.95,"target":"left","response":"right","rt":1527,"correct":false,"confidence":2},{"trial_n":130,"n_dots":3.05,"target":"left","response":"left","rt":2166.5999999046,"correct":true,"confidence":1},{"trial_n":131,"n_dots":3.05,"target":"right","response":"left","rt":835,"correct":false,"confidence":1},{"trial_n":132,"n_dots":3.15,"target":"right","response":"right","rt":543.30000007153,"correct":true,"confidence":1},{"trial_n":133,"n_dots":3.15,"target":"left","response":"right","rt":1429.5,"correct":false,"confidence":1},{"trial_n":134,"n_dots":3.25,"target":"left","response":"left","rt":659.10000002384,"correct":true,"confidence":1},{"trial_n":135,"n_dots":3.25,"target":"right","response":"left","rt":1078.4000000954,"correct":false,"confidence":1},{"trial_n":136,"n_dots":3.35,"target":"left","response":"left","rt":616.79999995232,"correct":true,"confidence":3},{"trial_n":137,"n_dots":3.35,"target":"left","response":"left","rt":1037.7999999523,"correct":true,"confidence":2},{"trial_n":138,"n_dots":3.25,"target":"left","response":"left","rt":1084.7000000477,"correct":true,"confidence":3},{"trial_n":139,"n_dots":3.25,"target":"left","response":"left","rt":603.69999992847,"correct":true,"confidence":3},{"trial_n":140,"n_dots":3.15,"target":"left","response":"left","rt":1292,"correct":true,"confidence":2},{"trial_n":141,"n_dots":3.15,"target":"left","response":"left","rt":1102.7000000477,"correct":true,"confidence":1},{"trial_n":142,"n_dots":3.05,"target":"left","response":"right","rt":1115.1999999285,"correct":false,"confidence":1},{"trial_n":143,"n_dots":3.15,"target":"left","response":"left","rt":938.89999997616,"correct":true,"confidence":1},{"trial_n":144,"n_dots":3.15,"target":"left","response":"left","rt":954.59999990463,"correct":true,"confidence":1},{"trial_n":145,"n_dots":3.05,"target":"left","response":"right","rt":1863.2999999523,"correct":false,"confidence":1},{"trial_n":146,"n_dots":3.15,"target":"right","response":"right","rt":732.59999990463,"correct":true,"confidence":2},{"trial_n":147,"n_dots":3.15,"target":"right","response":"right","rt":776.80000007153,"correct":true,"confidence":3},{"trial_n":148,"n_dots":3.05,"target":"right","response":"right","rt":1051.8000000715,"correct":true,"confidence":3},{"trial_n":149,"n_dots":3.05,"target":"left","response":"right","rt":1105,"correct":false,"confidence":3},{"trial_n":150,"n_dots":3.15,"target":"left","response":"left","rt":2367.8999999762,"correct":true,"confidence":1},{"trial_n":151,"n_dots":3.15,"target":"right","response":"right","rt":932.59999990463,"correct":true,"confidence":3},{"trial_n":152,"n_dots":3.05,"target":"right","response":"right","rt":772,"correct":true,"confidence":2},{"trial_n":153,"n_dots":3.05,"target":"left","response":"left","rt":1470.3999999762,"correct":true,"confidence":1},{"trial_n":154,"n_dots":2.95,"target":"right","response":"right","rt":564.5,"correct":true,"confidence":4},{"trial_n":155,"n_dots":2.95,"target":"right","response":"right","rt":540.5,"correct":true,"confidence":3},{"trial_n":156,"n_dots":2.85,"target":"right","response":"right","rt":510,"correct":true,"confidence":3},{"trial_n":157,"n_dots":2.85,"target":"right","response":"right","rt":547.29999995232,"correct":true,"confidence":4},{"trial_n":158,"n_dots":2.75,"target":"left","response":"left","rt":703.19999992847,"correct":true,"confidence":2},{"trial_n":159,"n_dots":2.75,"target":"right","response":"right","rt":352,"correct":true,"confidence":4},{"trial_n":160,"n_dots":2.65,"target":"right","response":"right","rt":577,"correct":true,"confidence":4},{"trial_n":161,"n_dots":2.65,"target":"right","response":"right","rt":485,"correct":true,"confidence":2},{"trial_n":162,"n_dots":2.55,"target":"right","response":"right","rt":526.69999992847,"correct":true,"confidence":4},{"trial_n":163,"n_dots":2.55,"target":"left","response":"right","rt":580.89999997616,"correct":false,"confidence":3},{"trial_n":164,"n_dots":2.65,"target":"right","response":"right","rt":459.69999992847,"correct":true,"confidence":2},{"trial_n":165,"n_dots":2.65,"target":"right","response":"right","rt":650.39999997616,"correct":true,"confidence":3},{"trial_n":166,"n_dots":2.55,"target":"right","response":"right","rt":488,"correct":true,"confidence":4},{"trial_n":167,"n_dots":2.55,"target":"left","response":"right","rt":585.69999992847,"correct":false,"confidence":4},{"trial_n":168,"n_dots":2.65,"target":"left","response":"right","rt":938.40000009537,"correct":false,"confidence":3},{"trial_n":169,"n_dots":2.75,"target":"left","response":"right","rt":722.80000007153,"correct":false,"confidence":3},{"trial_n":170,"n_dots":2.85,"target":"left","response":"right","rt":740.89999997616,"correct":false,"confidence":2},{"trial_n":171,"n_dots":2.95,"target":"right","response":"right","rt":397.89999997616,"correct":true,"confidence":5},{"trial_n":172,"n_dots":2.95,"target":"left","response":"right","rt":574.5,"correct":false,"confidence":5},{"trial_n":173,"n_dots":3.05,"target":"left","response":"right","rt":776.89999997616,"correct":false,"confidence":3},{"trial_n":174,"n_dots":3.15,"target":"left","response":"right","rt":544.69999992847,"correct":false,"confidence":4},{"trial_n":175,"n_dots":3.25,"target":"left","response":"right","rt":911.89999997616,"correct":false,"confidence":2},{"trial_n":176,"n_dots":3.35,"target":"left","response":"right","rt":1051.7000000477,"correct":false,"confidence":1},{"trial_n":177,"n_dots":3.45,"target":"right","response":"right","rt":528.19999992847,"correct":true,"confidence":5},{"trial_n":178,"n_dots":3.45,"target":"left","response":"right","rt":575.20000004768,"correct":false,"confidence":4},{"trial_n":179,"n_dots":3.55,"target":"right","response":"right","rt":448.39999997616,"correct":true,"confidence":4},{"trial_n":180,"n_dots":3.55,"target":"right","response":"right","rt":415.10000002384,"correct":true,"confidence":4},{"trial_n":181,"n_dots":3.45,"target":"left","response":"right","rt":751.80000007153,"correct":false,"confidence":4},{"trial_n":182,"n_dots":3.55,"target":"right","response":"right","rt":629,"correct":true,"confidence":4},{"trial_n":183,"n_dots":3.55,"target":"left","response":"right","rt":899.39999997616,"correct":false,"confidence":4},{"trial_n":184,"n_dots":3.65,"target":"right","response":"right","rt":834.79999995232,"correct":true,"confidence":3},{"trial_n":185,"n_dots":3.65,"target":"left","response":"right","rt":608.89999997616,"correct":false,"confidence":3},{"trial_n":186,"n_dots":3.75,"target":"right","response":"right","rt":425.29999995232,"correct":true,"confidence":4},{"trial_n":187,"n_dots":3.75,"target":"right","response":"right","rt":700.39999997616,"correct":true,"confidence":3},{"trial_n":188,"n_dots":3.65,"target":"left","response":"right","rt":1024.1000000238,"correct":false,"confidence":3},{"trial_n":189,"n_dots":3.75,"target":"left","response":"right","rt":598.29999995232,"correct":false,"confidence":3},{"trial_n":190,"n_dots":3.85,"target":"right","response":"right","rt":810.29999995232,"correct":true,"confidence":4},{"trial_n":191,"n_dots":3.85,"target":"right","response":"right","rt":712.20000004768,"correct":true,"confidence":4},{"trial_n":192,"n_dots":3.75,"target":"left","response":"left","rt":1229.6000000238,"correct":true,"confidence":2},{"trial_n":193,"n_dots":3.75,"target":"right","response":"left","rt":675.70000004768,"correct":false,"confidence":1},{"trial_n":194,"n_dots":3.85,"target":"left","response":"right","rt":608.80000007153,"correct":false,"confidence":2}]