[{"trial_n":1,"n_dots":4.25,"target":"left","response":"left","rt":6729.5,"correct":true,"confidence":-1},{"trial_n":2,"n_dots":4.25,"target":"right","response":"left","rt":754.5,"correct":false,"confidence":-1},{"trial_n":3,"n_dots":4.65,"target":"right","response":"right","rt":409.40000009537,"correct":true,"confidence":-1},{"trial_n":4,"n_dots":4.65,"target":"left","response":"left","rt":164.89999961853,"correct":true,"confidence":-1},{"trial_n":5,"n_dots":4.25,"target":"right","response":"right","rt":3675.2999997139,"correct":true,"confidence":-1},{"trial_n":6,"n_dots":4.25,"target":"left","response":"left","rt":262,"correct":true,"confidence":-1},{"trial_n":7,"n_dots":3.85,"target":"right","response":"right","rt":552.89999961853,"correct":true,"confidence":-1},{"trial_n":8,"n_dots":3.85,"target":"left","response":"left","rt":15.5,"correct":true,"confidence":-1},{"trial_n":9,"n_dots":3.65,"target":"left","response":"right","rt":656.80000019073,"correct":false,"confidence":-1},{"trial_n":10,"n_dots":3.85,"target":"left","response":"right","rt":697.09999990463,"correct":false,"confidence":-1},{"trial_n":11,"n_dots":4.05,"target":"left","response":"left","rt":287.2000002861,"correct":true,"confidence":-1},{"trial_n":12,"n_dots":4.05,"target":"right","response":"right","rt":10.5,"correct":true,"confidence":-1},{"trial_n":13,"n_dots":3.95,"target":"left","response":"left","rt":422,"correct":true,"confidence":-1},{"trial_n":14,"n_dots":3.95,"target":"left","response":"left","rt":362,"correct":true,"confidence":-1},{"trial_n":15,"n_dots":3.85,"target":"right","response":"right","rt":49.200000286102,"correct":true,"confidence":-1},{"trial_n":16,"n_dots":3.85,"target":"right","response":"right","rt":173.30000019073,"correct":true,"confidence":-1},{"trial_n":17,"n_dots":3.75,"target":"right","response":"right","rt":314.2999997139,"correct":true,"confidence":-1},{"trial_n":18,"n_dots":3.75,"target":"left","response":"left","rt":172.80000019073,"correct":true,"confidence":-1},{"trial_n":19,"n_dots":3.65,"target":"right","response":"right","rt":580.40000009537,"correct":true,"confidence":-1},{"trial_n":20,"n_dots":3.65,"target":"right","response":"right","rt":114.09999990463,"correct":true,"confidence":-1},{"trial_n":21,"n_dots":3.55,"target":"right","response":"right","rt":111.30000019073,"correct":true,"confidence":-1},{"trial_n":22,"n_dots":3.55,"target":"right","response":"right","rt":963.90000009537,"correct":true,"confidence":-1},{"trial_n":23,"n_dots":3.45,"target":"left","response":"left","rt":542.09999990463,"correct":true,"confidence":-1},{"trial_n":24,"n_dots":3.45,"target":"left","response":"left","rt":368.60000038147,"correct":true,"confidence":-1},{"trial_n":25,"n_dots":3.35,"target":"left","response":"left","rt":524.10000038147,"correct":true,"confidence":-1},{"trial_n":26,"n_dots":3.35,"target":"right","response":"right","rt":558.30000019073,"correct":true,"confidence":-1},{"trial_n":27,"n_dots":3.25,"target":"left","response":"left","rt":362.19999980927,"correct":true,"confidence":6},{"trial_n":28,"n_dots":3.25,"target":"right","response":"right","rt":1605,"correct":true,"confidence":6},{"trial_n":29,"n_dots":3.15,"target":"right","response":"right","rt":1938.0999999046,"correct":true,"confidence":2},{"trial_n":30,"n_dots":3.15,"target":"left","response":"left","rt":994.69999980927,"correct":true,"confidence":6},{"trial_n":31,"n_dots":3.05,"target":"left","response":"left","rt":1325.3000001907,"correct":true,"confidence":1},{"trial_n":32,"n_dots":3.05,"target":"right","response":"right","rt":1189.0999999046,"correct":true,"confidence":1},{"trial_n":33,"n_dots":2.95,"target":"right","response":"right","rt":970.2000002861,"correct":true,"confidence":3},{"trial_n":34,"n_dots":2.95,"target":"left","response":"left","rt":379.80000019073,"correct":true,"confidence":6},{"trial_n":35,"n_dots":2.85,"target":"right","response":"right","rt":946.90000009537,"correct":true,"confidence":6},{"trial_n":36,"n_dots":2.85,"target":"right","response":"left","rt":501.2999997139,"correct":false,"confidence":2},{"trial_n":37,"n_dots":2.95,"target":"left","response":"left","rt":365.09999990463,"correct":true,"confidence":3},{"trial_n":38,"n_dots":2.95,"target":"left","response":"left","rt":698.10000038147,"correct":true,"confidence":2},{"trial_n":39,"n_dots":2.85,"target":"right","response":"right","rt":1812,"correct":true,"confidence":1},{"trial_n":40,"n_dots":2.85,"target":"right","response":"left","rt":767.5,"correct":false,"confidence":2},{"trial_n":41,"n_dots":2.95,"target":"right","response":"right","rt":1332.0999999046,"correct":true,"confidence":2},{"trial_n":42,"n_dots":2.95,"target":"left","response":"left","rt":575.89999961853,"correct":true,"confidence":6},{"trial_n":43,"n_dots":2.85,"target":"left","response":"right","rt":2478,"correct":false,"confidence":1},{"trial_n":44,"n_dots":2.95,"target":"right","response":"left","rt":616.5,"correct":false,"confidence":6},{"trial_n":45,"n_dots":3.05,"target":"left","response":"right","rt":1435.6999998093,"correct":false,"confidence":6},{"trial_n":46,"n_dots":3.15,"target":"left","response":"left","rt":845.90000009537,"correct":true,"confidence":6},{"trial_n":47,"n_dots":3.15,"target":"right","response":"right","rt":356.5,"correct":true,"confidence":6},{"trial_n":48,"n_dots":3.05,"target":"left","response":"left","rt":586.5,"correct":true,"confidence":3},{"trial_n":49,"n_dots":3.05,"target":"right","response":"right","rt":344,"correct":true,"confidence":2},{"trial_n":50,"n_dots":2.95,"target":"left","response":"left","rt":560.7999997139,"correct":true,"confidence":2},{"trial_n":51,"n_dots":2.95,"target":"left","response":"left","rt":373.09999990463,"correct":true,"confidence":6},{"trial_n":52,"n_dots":2.85,"target":"right","response":"right","rt":137.09999990463,"correct":true,"confidence":6},{"trial_n":53,"n_dots":2.85,"target":"right","response":"right","rt":1269.1999998093,"correct":true,"confidence":4},{"trial_n":54,"n_dots":2.75,"target":"left","response":"left","rt":1101.3000001907,"correct":true,"confidence":1},{"trial_n":55,"n_dots":2.75,"target":"left","response":"left","rt":175.80000019073,"correct":true,"confidence":6},{"trial_n":56,"n_dots":2.65,"target":"right","response":"left","rt":460.30000019073,"correct":false,"confidence":4},{"trial_n":57,"n_dots":2.75,"target":"left","response":"left","rt":506.5,"correct":true,"confidence":1},{"trial_n":58,"n_dots":2.75,"target":"left","response":"left","rt":428.89999961853,"correct":true,"confidence":3},{"trial_n":59,"n_dots":2.65,"target":"right","response":"left","rt":1113.6999998093,"correct":false,"confidence":2},{"trial_n":60,"n_dots":2.75,"target":"right","response":"right","rt":379.59999990463,"correct":true,"confidence":6},{"trial_n":61,"n_dots":2.75,"target":"left","response":"right","rt":867.2999997139,"correct":false,"confidence":6},{"trial_n":62,"n_dots":2.85,"target":"right","response":"right","rt":1644.5,"correct":true,"confidence":1},{"trial_n":63,"n_dots":2.85,"target":"right","response":"right","rt":517.09999990463,"correct":true,"confidence":4},{"trial_n":64,"n_dots":2.75,"target":"left","response":"right","rt":811.90000009537,"correct":false,"confidence":3},{"trial_n":65,"n_dots":2.85,"target":"right","response":"right","rt":252,"correct":true,"confidence":6},{"trial_n":66,"n_dots":2.85,"target":"left","response":"left","rt":205.09999990463,"correct":true,"confidence":3},{"trial_n":67,"n_dots":2.75,"target":"left","response":"left","rt":116.2000002861,"correct":true,"confidence":3},{"trial_n":68,"n_dots":2.75,"target":"left","response":"right","rt":1209.8000001907,"correct":false,"confidence":4},{"trial_n":69,"n_dots":2.85,"target":"right","response":"right","rt":596.09999990463,"correct":true,"confidence":3},{"trial_n":70,"n_dots":2.85,"target":"left","response":"left","rt":110.2999997139,"correct":true,"confidence":5},{"trial_n":71,"n_dots":2.75,"target":"right","response":"right","rt":796.40000009537,"correct":true,"confidence":3},{"trial_n":72,"n_dots":2.75,"target":"left","response":"left","rt":288.69999980927,"correct":true,"confidence":3},{"trial_n":73,"n_dots":2.65,"target":"left","response":"right","rt":5.5999999046326,"correct":false,"confidence":4},{"trial_n":74,"n_dots":2.75,"target":"right","response":"right","rt":2.0999999046326,"correct":true,"confidence":3},{"trial_n":75,"n_dots":2.75,"target":"right","response":"right","rt":78.5,"correct":true,"confidence":3},{"trial_n":76,"n_dots":2.65,"target":"right","response":"left","rt":240.2000002861,"correct":false,"confidence":4},{"trial_n":77,"n_dots":2.75,"target":"left","response":"left","rt":702.2000002861,"correct":true,"confidence":4},{"trial_n":78,"n_dots":2.75,"target":"left","response":"right","rt":290.90000009537,"correct":false,"confidence":1},{"trial_n":79,"n_dots":2.85,"target":"right","response":"right","rt":952.5,"correct":true,"confidence":4},{"trial_n":80,"n_dots":2.85,"target":"left","response":"left","rt":1793.5,"correct":true,"confidence":3},{"trial_n":81,"n_dots":2.75,"target":"left","response":"right","rt":1136.0999999046,"correct":false,"confidence":3},{"trial_n":82,"n_dots":2.85,"target":"left","response":"right","rt":986.30000019073,"correct":false,"confidence":2},{"trial_n":83,"n_dots":2.95,"target":"right","response":"right","rt":971.19999980927,"correct":true,"confidence":2},{"trial_n":84,"n_dots":2.95,"target":"left","response":"left","rt":826.80000019073,"correct":true,"confidence":1},{"trial_n":85,"n_dots":2.85,"target":"right","response":"right","rt":801.5,"correct":true,"confidence":2},{"trial_n":86,"n_dots":2.85,"target":"right","response":"right","rt":930.60000038147,"correct":true,"confidence":2},{"trial_n":87,"n_dots":2.75,"target":"left","response":"right","rt":11633.199999809,"correct":false,"confidence":2},{"trial_n":88,"n_dots":2.85,"target":"right","response":"right","rt":123.59999990463,"correct":true,"confidence":4},{"trial_n":89,"n_dots":2.85,"target":"right","response":"right","rt":779.40000009537,"correct":true,"confidence":6},{"trial_n":90,"n_dots":2.75,"target":"left","response":"left","rt":789,"correct":true,"confidence":6},{"trial_n":91,"n_dots":2.75,"target":"right","response":"right","rt":880.90000009537,"correct":true,"confidence":6},{"trial_n":92,"n_dots":2.65,"target":"right","response":"right","rt":1118.7000002861,"correct":true,"confidence":3},{"trial_n":93,"n_dots":2.65,"target":"left","response":"left","rt":829.09999990463,"correct":true,"confidence":5},{"trial_n":94,"n_dots":2.55,"target":"left","response":"right","rt":1018.0999999046,"correct":false,"confidence":5},{"trial_n":95,"n_dots":2.65,"target":"left","response":"right","rt":974.90000009537,"correct":false,"confidence":6},{"trial_n":96,"n_dots":2.75,"target":"right","response":"right","rt":865.7999997139,"correct":true,"confidence":6},{"trial_n":97,"n_dots":2.75,"target":"left","response":"left","rt":1235.8999996185,"correct":true,"confidence":6},{"trial_n":98,"n_dots":2.65,"target":"left","response":"right","rt":796.60000038147,"correct":false,"confidence":6},{"trial_n":99,"n_dots":2.75,"target":"right","response":"right","rt":747.2999997139,"correct":true,"confidence":6},{"trial_n":100,"n_dots":2.75,"target":"left","response":"right","rt":776,"correct":false,"confidence":4},{"trial_n":101,"n_dots":2.85,"target":"right","response":"left","rt":1595.1999998093,"correct":false,"confidence":2},{"trial_n":102,"n_dots":2.95,"target":"right","response":"right","rt":879.7000002861,"correct":true,"confidence":2},{"trial_n":103,"n_dots":2.95,"target":"right","response":"right","rt":688.7999997139,"correct":true,"confidence":6},{"trial_n":104,"n_dots":2.85,"target":"right","response":"right","rt":747.30000019073,"correct":true,"confidence":6},{"trial_n":105,"n_dots":2.85,"target":"right","response":"left","rt":699.09999990463,"correct":false,"confidence":2},{"trial_n":106,"n_dots":2.95,"target":"right","response":"left","rt":765.59999990463,"correct":false,"confidence":2},{"trial_n":107,"n_dots":3.05,"target":"right","response":"right","rt":587.30000019073,"correct":true,"confidence":5},{"trial_n":108,"n_dots":3.05,"target":"left","response":"left","rt":320.69999980927,"correct":true,"confidence":6},{"trial_n":109,"n_dots":2.95,"target":"right","response":"right","rt":304.7999997139,"correct":true,"confidence":6},{"trial_n":110,"n_dots":2.95,"target":"left","response":"right","rt":609.30000019073,"correct":false,"confidence":6},{"trial_n":111,"n_dots":3.05,"target":"right","response":"right","rt":268.80000019073,"correct":true,"confidence":6},{"trial_n":112,"n_dots":3.05,"target":"left","response":"left","rt":265.40000009537,"correct":true,"confidence":6},{"trial_n":113,"n_dots":2.95,"target":"right","response":"right","rt":540.80000019073,"correct":true,"confidence":6},{"trial_n":114,"n_dots":2.95,"target":"right","response":"right","rt":654.39999961853,"correct":true,"confidence":6},{"trial_n":115,"n_dots":2.85,"target":"left","response":"left","rt":1779.3000001907,"correct":true,"confidence":1},{"trial_n":116,"n_dots":2.85,"target":"left","response":"right","rt":1118.5,"correct":false,"confidence":6},{"trial_n":117,"n_dots":2.95,"target":"left","response":"right","rt":662.7000002861,"correct":false,"confidence":6},{"trial_n":118,"n_dots":3.05,"target":"left","response":"left","rt":458.80000019073,"correct":true,"confidence":6},{"trial_n":119,"n_dots":3.05,"target":"right","response":"right","rt":108,"correct":true,"confidence":6},{"trial_n":120,"n_dots":2.95,"target":"left","response":"right","rt":657.09999990463,"correct":false,"confidence":5},{"trial_n":121,"n_dots":3.05,"target":"left","response":"left","rt":3586.3000001907,"correct":true,"confidence":1},{"trial_n":122,"n_dots":3.05,"target":"left","response":"right","rt":852.60000038147,"correct":false,"confidence":2},{"trial_n":123,"n_dots":3.15,"target":"right","response":"right","rt":730,"correct":true,"confidence":6},{"trial_n":124,"n_dots":3.15,"target":"left","response":"right","rt":16085.5,"correct":false,"confidence":1},{"trial_n":125,"n_dots":3.25,"target":"left","response":"right","rt":565.40000009537,"correct":false,"confidence":1},{"trial_n":126,"n_dots":3.35,"target":"right","response":"left","rt":819.40000009537,"correct":false,"confidence":1},{"trial_n":127,"n_dots":3.45,"target":"right","response":"right","rt":312,"correct":true,"confidence":6},{"trial_n":128,"n_dots":3.45,"target":"right","response":"right","rt":749.30000019073,"correct":true,"confidence":6},{"trial_n":129,"n_dots":3.35,"target":"left","response":"left","rt":322.39999961853,"correct":true,"confidence":6},{"trial_n":130,"n_dots":3.35,"target":"right","response":"right","rt":695.5,"correct":true,"confidence":6},{"trial_n":131,"n_dots":3.25,"target":"right","response":"left","rt":2701.3999996185,"correct":false,"confidence":6},{"trial_n":132,"n_dots":3.35,"target":"left","response":"right","rt":516.40000009537,"correct":false,"confidence":6},{"trial_n":133,"n_dots":3.45,"target":"left","response":"left","rt":872.40000009537,"correct":true,"confidence":6},{"trial_n":134,"n_dots":3.45,"target":"right","response":"left","rt":1155.4000000954,"correct":false,"confidence":1},{"trial_n":135,"n_dots":3.55,"target":"left","response":"right","rt":152.19999980927,"correct":false,"confidence":6},{"trial_n":136,"n_dots":3.65,"target":"right","response":"right","rt":82.200000286102,"correct":true,"confidence":6},{"trial_n":137,"n_dots":3.65,"target":"left","response":"left","rt":96.700000286102,"correct":true,"confidence":6},{"trial_n":138,"n_dots":3.55,"target":"left","response":"right","rt":764.5,"correct":false,"confidence":1},{"trial_n":139,"n_dots":3.65,"target":"right","response":"right","rt":590.19999980927,"correct":true,"confidence":1},{"trial_n":140,"n_dots":3.65,"target":"right","response":"right","rt":334.40000009537,"correct":true,"confidence":6},{"trial_n":141,"n_dots":3.55,"target":"left","response":"left","rt":1376.4000000954,"correct":true,"confidence":6},{"trial_n":142,"n_dots":3.55,"target":"right","response":"right","rt":270,"correct":true,"confidence":6},{"trial_n":143,"n_dots":3.45,"target":"right","response":"right","rt":730.59999990463,"correct":true,"confidence":6},{"trial_n":144,"n_dots":3.45,"target":"left","response":"left","rt":621.10000038147,"correct":true,"confidence":6},{"trial_n":145,"n_dots":3.35,"target":"right","response":"right","rt":233.10000038147,"correct":true,"confidence":6},{"trial_n":146,"n_dots":3.35,"target":"left","response":"right","rt":545.10000038147,"correct":false,"confidence":6},{"trial_n":147,"n_dots":3.45,"target":"right","response":"right","rt":823.09999990463,"correct":true,"confidence":6},{"trial_n":148,"n_dots":3.45,"target":"left","response":"right","rt":2945.5999999046,"correct":false,"confidence":6},{"trial_n":149,"n_dots":3.55,"target":"left","response":"right","rt":966,"correct":false,"confidence":4},{"trial_n":150,"n_dots":3.65,"target":"left","response":"left","rt":885.59999990463,"correct":true,"confidence":6},{"trial_n":151,"n_dots":3.65,"target":"left","response":"left","rt":770.40000009537,"correct":true,"confidence":3},{"trial_n":152,"n_dots":3.55,"target":"right","response":"right","rt":629.69999980927,"correct":true,"confidence":4},{"trial_n":153,"n_dots":3.55,"target":"left","response":"left","rt":555,"correct":true,"confidence":6},{"trial_n":154,"n_dots":3.45,"target":"right","response":"right","rt":538.7999997139,"correct":true,"confidence":6},{"trial_n":155,"n_dots":3.45,"target":"left","response":"left","rt":34,"correct":true,"confidence":6},{"trial_n":156,"n_dots":3.35,"target":"right","response":"right","rt":493,"correct":true,"confidence":6},{"trial_n":157,"n_dots":3.35,"target":"right","response":"right","rt":234,"correct":true,"confidence":1},{"trial_n":158,"n_dots":3.25,"target":"left","response":"left","rt":1714.1000003815,"correct":true,"confidence":3},{"trial_n":159,"n_dots":3.25,"target":"left","response":"left","rt":328,"correct":true,"confidence":6},{"trial_n":160,"n_dots":3.15,"target":"left","response":"left","rt":517.19999980927,"correct":true,"confidence":6},{"trial_n":161,"n_dots":3.15,"target":"right","response":"right","rt":1079.5,"correct":true,"confidence":6},{"trial_n":162,"n_dots":3.05,"target":"right","response":"right","rt":572.59999990463,"correct":true,"confidence":6},{"trial_n":163,"n_dots":3.05,"target":"left","response":"left","rt":378.30000019073,"correct":true,"confidence":6},{"trial_n":164,"n_dots":2.95,"target":"left","response":"left","rt":322.30000019073,"correct":true,"confidence":6},{"trial_n":165,"n_dots":2.95,"target":"right","response":"right","rt":57.699999809265,"correct":true,"confidence":6},{"trial_n":166,"n_dots":2.85,"target":"right","response":"left","rt":380.30000019073,"correct":false,"confidence":1},{"trial_n":167,"n_dots":2.95,"target":"right","response":"right","rt":532.7999997139,"correct":true,"confidence":6},{"trial_n":168,"n_dots":2.95,"target":"left","response":"left","rt":656.19999980927,"correct":true,"confidence":6},{"trial_n":169,"n_dots":2.85,"target":"left","response":"left","rt":210.10000038147,"correct":true,"confidence":6},{"trial_n":170,"n_dots":2.85,"target":"right","response":"left","rt":932.2999997139,"correct":false,"confidence":6},{"trial_n":171,"n_dots":2.95,"target":"left","response":"left","rt":738.39999961853,"correct":true,"confidence":6},{"trial_n":172,"n_dots":2.95,"target":"left","response":"left","rt":499.40000009537,"correct":true,"confidence":4},{"trial_n":173,"n_dots":2.85,"target":"left","response":"left","rt":229.5,"correct":true,"confidence":3},{"trial_n":174,"n_dots":2.85,"target":"left","response":"left","rt":236.80000019073,"correct":true,"confidence":1},{"trial_n":175,"n_dots":2.75,"target":"right","response":"right","rt":1066,"correct":true,"confidence":1},{"trial_n":176,"n_dots":2.75,"target":"right","response":"right","rt":589,"correct":true,"confidence":4},{"trial_n":177,"n_dots":2.65,"target":"right","response":"right","rt":389.5,"correct":true,"confidence":3},{"trial_n":178,"n_dots":2.65,"target":"left","response":"left","rt":656.2000002861,"correct":true,"confidence":5},{"trial_n":179,"n_dots":2.55,"target":"right","response":"right","rt":326.80000019073,"correct":true,"confidence":6},{"trial_n":180,"n_dots":2.55,"target":"right","response":"right","rt":662.30000019073,"correct":true,"confidence":6},{"trial_n":181,"n_dots":2.45,"target":"right","response":"left","rt":598.19999980927,"correct":false,"confidence":6},{"trial_n":182,"n_dots":2.55,"target":"right","response":"left","rt":84,"correct":false,"confidence":1},{"trial_n":183,"n_dots":2.65,"target":"left","response":"right","rt":1614.1999998093,"correct":false,"confidence":1},{"trial_n":184,"n_dots":2.75,"target":"right","response":"right","rt":947.5,"correct":true,"confidence":1},{"trial_n":185,"n_dots":2.75,"target":"left","response":"left","rt":268.09999990463,"correct":true,"confidence":4},{"trial_n":186,"n_dots":2.65,"target":"left","response":"left","rt":224,"correct":true,"confidence":5},{"trial_n":187,"n_dots":2.65,"target":"right","response":"left","rt":348.7999997139,"correct":false,"confidence":1},{"trial_n":188,"n_dots":2.75,"target":"right","response":"left","rt":385.7000002861,"correct":false,"confidence":5},{"trial_n":189,"n_dots":2.85,"target":"right","response":"left","rt":200.5,"correct":false,"confidence":5},{"trial_n":190,"n_dots":2.95,"target":"left","response":"left","rt":16.700000286102,"correct":true,"confidence":4},{"trial_n":191,"n_dots":2.95,"target":"left","response":"left","rt":676.69999980927,"correct":true,"confidence":4},{"trial_n":192,"n_dots":2.85,"target":"right","response":"right","rt":634.09999990463,"correct":true,"confidence":4},{"trial_n":193,"n_dots":2.85,"target":"left","response":"left","rt":515.5,"correct":true,"confidence":4},{"trial_n":194,"n_dots":2.75,"target":"right","response":"right","rt":571.7000002861,"correct":true,"confidence":4}]