[{"trial_n":1,"n_dots":4.25,"target":"left","response":"left","rt":1700.6000000238,"correct":true,"confidence":-1},{"trial_n":2,"n_dots":4.25,"target":"left","response":"left","rt":327.90000000596,"correct":true,"confidence":-1},{"trial_n":3,"n_dots":3.85,"target":"right","response":"right","rt":490,"correct":true,"confidence":-1},{"trial_n":4,"n_dots":3.85,"target":"left","response":"left","rt":361.69999998808,"correct":true,"confidence":-1},{"trial_n":5,"n_dots":3.45,"target":"left","response":"right","rt":935.09999999404,"correct":false,"confidence":-1},{"trial_n":6,"n_dots":3.85,"target":"right","response":"right","rt":110.30000001192,"correct":true,"confidence":-1},{"trial_n":7,"n_dots":3.85,"target":"right","response":"right","rt":454.79999998212,"correct":true,"confidence":-1},{"trial_n":8,"n_dots":3.65,"target":"right","response":"left","rt":716.59999999404,"correct":false,"confidence":-1},{"trial_n":9,"n_dots":3.85,"target":"left","response":"left","rt":220.40000000596,"correct":true,"confidence":-1},{"trial_n":10,"n_dots":3.85,"target":"left","response":"left","rt":646.09999999404,"correct":true,"confidence":-1},{"trial_n":11,"n_dots":3.65,"target":"left","response":"left","rt":906.69999998808,"correct":true,"confidence":-1},{"trial_n":12,"n_dots":3.65,"target":"left","response":"left","rt":806.20000001788,"correct":true,"confidence":-1},{"trial_n":13,"n_dots":3.55,"target":"left","response":"left","rt":1005.599999994,"correct":true,"confidence":-1},{"trial_n":14,"n_dots":3.55,"target":"left","response":"left","rt":1527.400000006,"correct":true,"confidence":-1},{"trial_n":15,"n_dots":3.45,"target":"right","response":"right","rt":736.30000001192,"correct":true,"confidence":-1},{"trial_n":16,"n_dots":3.45,"target":"right","response":"right","rt":364.09999999404,"correct":true,"confidence":-1},{"trial_n":17,"n_dots":3.35,"target":"right","response":"left","rt":497.5,"correct":false,"confidence":-1},{"trial_n":18,"n_dots":3.45,"target":"left","response":"left","rt":1910.2000000179,"correct":true,"confidence":-1},{"trial_n":19,"n_dots":3.45,"target":"left","response":"left","rt":1035,"correct":true,"confidence":-1},{"trial_n":20,"n_dots":3.35,"target":"left","response":"left","rt":352.39999997616,"correct":true,"confidence":-1},{"trial_n":21,"n_dots":3.35,"target":"right","response":"right","rt":428.69999998808,"correct":true,"confidence":-1},{"trial_n":22,"n_dots":3.25,"target":"left","response":"left","rt":705,"correct":true,"confidence":-1},{"trial_n":23,"n_dots":3.25,"target":"left","response":"right","rt":394.79999998212,"correct":false,"confidence":-1},{"trial_n":24,"n_dots":3.35,"target":"right","response":"right","rt":298.30000001192,"correct":true,"confidence":-1},{"trial_n":25,"n_dots":3.35,"target":"left","response":"left","rt":519.29999998212,"correct":true,"confidence":-1},{"trial_n":26,"n_dots":3.25,"target":"left","response":"left","rt":390,"correct":true,"confidence":-1},{"trial_n":27,"n_dots":3.25,"target":"right","response":"left","rt":426,"correct":false,"confidence":3},{"trial_n":28,"n_dots":3.35,"target":"left","response":"left","rt":633.19999998808,"correct":true,"confidence":4},{"trial_n":29,"n_dots":3.35,"target":"left","response":"left","rt":364.5,"correct":true,"confidence":5},{"trial_n":30,"n_dots":3.25,"target":"left","response":"right","rt":959.90000000596,"correct":false,"confidence":2},{"trial_n":31,"n_dots":3.35,"target":"left","response":"left","rt":730.29999998212,"correct":true,"confidence":5},{"trial_n":32,"n_dots":3.35,"target":"right","response":"right","rt":491.69999998808,"correct":true,"confidence":6},{"trial_n":33,"n_dots":3.25,"target":"right","response":"left","rt":395.5,"correct":false,"confidence":3},{"trial_n":34,"n_dots":3.35,"target":"left","response":"left","rt":981.90000000596,"correct":true,"confidence":4},{"trial_n":35,"n_dots":3.35,"target":"right","response":"left","rt":5887.1999999881,"correct":false,"confidence":3},{"trial_n":36,"n_dots":3.45,"target":"right","response":"right","rt":6927.599999994,"correct":true,"confidence":4},{"trial_n":37,"n_dots":3.45,"target":"right","response":"left","rt":13164.599999994,"correct":false,"confidence":2},{"trial_n":38,"n_dots":3.55,"target":"right","response":"right","rt":805.69999998808,"correct":true,"confidence":5},{"trial_n":39,"n_dots":3.55,"target":"right","response":"right","rt":671.59999999404,"correct":true,"confidence":4},{"trial_n":40,"n_dots":3.45,"target":"right","response":"right","rt":495.69999998808,"correct":true,"confidence":4},{"trial_n":41,"n_dots":3.45,"target":"left","response":"left","rt":652.90000000596,"correct":true,"confidence":4},{"trial_n":42,"n_dots":3.35,"target":"left","response":"left","rt":1189.5,"correct":true,"confidence":6},{"trial_n":43,"n_dots":3.35,"target":"right","response":"right","rt":725.80000001192,"correct":true,"confidence":2},{"trial_n":44,"n_dots":3.25,"target":"right","response":"right","rt":372.29999998212,"correct":true,"confidence":6},{"trial_n":45,"n_dots":3.25,"target":"left","response":"left","rt":419.30000001192,"correct":true,"confidence":5},{"trial_n":46,"n_dots":3.15,"target":"left","response":"left","rt":2804.400000006,"correct":true,"confidence":2},{"trial_n":47,"n_dots":3.15,"target":"left","response":"left","rt":478.5,"correct":true,"confidence":6},{"trial_n":48,"n_dots":3.05,"target":"right","response":"left","rt":13384.799999982,"correct":false,"confidence":3},{"trial_n":49,"n_dots":3.15,"target":"right","response":"left","rt":220.29999998212,"correct":false,"confidence":6},{"trial_n":50,"n_dots":3.25,"target":"left","response":"right","rt":26269.599999994,"correct":false,"confidence":2},{"trial_n":51,"n_dots":3.35,"target":"left","response":"left","rt":332.70000001788,"correct":true,"confidence":4},{"trial_n":52,"n_dots":3.35,"target":"right","response":"right","rt":14110.5,"correct":true,"confidence":4},{"trial_n":53,"n_dots":3.25,"target":"right","response":"right","rt":707.29999998212,"correct":true,"confidence":4},{"trial_n":54,"n_dots":3.25,"target":"left","response":"left","rt":238.19999998808,"correct":true,"confidence":5},{"trial_n":55,"n_dots":3.15,"target":"left","response":"left","rt":326.90000000596,"correct":true,"confidence":4},{"trial_n":56,"n_dots":3.15,"target":"left","response":"right","rt":13337.5,"correct":false,"confidence":3},{"trial_n":57,"n_dots":3.25,"target":"left","response":"left","rt":169.20000001788,"correct":true,"confidence":6},{"trial_n":58,"n_dots":3.25,"target":"left","response":"left","rt":1263.3000000119,"correct":true,"confidence":6},{"trial_n":59,"n_dots":3.15,"target":"left","response":"left","rt":2439.400000006,"correct":true,"confidence":4},{"trial_n":60,"n_dots":3.15,"target":"right","response":"left","rt":475.79999998212,"correct":false,"confidence":6},{"trial_n":61,"n_dots":3.25,"target":"left","response":"left","rt":371.89999997616,"correct":true,"confidence":6},{"trial_n":62,"n_dots":3.25,"target":"left","response":"left","rt":609.5,"correct":true,"confidence":6},{"trial_n":63,"n_dots":3.15,"target":"right","response":"right","rt":960.20000001788,"correct":true,"confidence":4},{"trial_n":64,"n_dots":3.15,"target":"right","response":"right","rt":401.90000000596,"correct":true,"confidence":4},{"trial_n":65,"n_dots":3.05,"target":"left","response":"left","rt":487.19999998808,"correct":true,"confidence":5},{"trial_n":66,"n_dots":3.05,"target":"right","response":"left","rt":518,"correct":false,"confidence":4},{"trial_n":67,"n_dots":3.15,"target":"right","response":"right","rt":297.30000001192,"correct":true,"confidence":3},{"trial_n":68,"n_dots":3.15,"target":"right","response":"left","rt":247.5,"correct":false,"confidence":5},{"trial_n":69,"n_dots":3.25,"target":"right","response":"right","rt":1029.400000006,"correct":true,"confidence":4},{"trial_n":70,"n_dots":3.25,"target":"left","response":"left","rt":577.19999998808,"correct":true,"confidence":6},{"trial_n":71,"n_dots":3.15,"target":"right","response":"right","rt":1123.400000006,"correct":true,"confidence":4},{"trial_n":72,"n_dots":3.15,"target":"right","response":"right","rt":560.29999998212,"correct":true,"confidence":3},{"trial_n":73,"n_dots":3.05,"target":"right","response":"right","rt":527.59999999404,"correct":true,"confidence":4},{"trial_n":74,"n_dots":3.05,"target":"left","response":"left","rt":415.5,"correct":true,"confidence":4},{"trial_n":75,"n_dots":2.95,"target":"right","response":"right","rt":589.59999999404,"correct":true,"confidence":4},{"trial_n":76,"n_dots":2.95,"target":"left","response":"left","rt":358.79999998212,"correct":true,"confidence":4},{"trial_n":77,"n_dots":2.85,"target":"left","response":"left","rt":261.59999999404,"correct":true,"confidence":6},{"trial_n":78,"n_dots":2.85,"target":"left","response":"left","rt":387,"correct":true,"confidence":6},{"trial_n":79,"n_dots":2.75,"target":"right","response":"left","rt":425.20000001788,"correct":false,"confidence":4},{"trial_n":80,"n_dots":2.85,"target":"left","response":"left","rt":282,"correct":true,"confidence":4},{"trial_n":81,"n_dots":2.85,"target":"right","response":"right","rt":678.90000000596,"correct":true,"confidence":5},{"trial_n":82,"n_dots":2.75,"target":"right","response":"left","rt":729,"correct":false,"confidence":4},{"trial_n":83,"n_dots":2.85,"target":"right","response":"left","rt":455.30000001192,"correct":false,"confidence":4},{"trial_n":84,"n_dots":2.95,"target":"right","response":"left","rt":497.79999998212,"correct":false,"confidence":4},{"trial_n":85,"n_dots":3.05,"target":"right","response":"right","rt":286.5,"correct":true,"confidence":6},{"trial_n":86,"n_dots":3.05,"target":"right","response":"left","rt":1020.400000006,"correct":false,"confidence":5},{"trial_n":87,"n_dots":3.15,"target":"right","response":"left","rt":462.10000002384,"correct":false,"confidence":5},{"trial_n":88,"n_dots":3.25,"target":"right","response":"right","rt":269.19999998808,"correct":true,"confidence":3},{"trial_n":89,"n_dots":3.25,"target":"left","response":"left","rt":348.30000001192,"correct":true,"confidence":6},{"trial_n":90,"n_dots":3.15,"target":"left","response":"left","rt":367.90000000596,"correct":true,"confidence":6},{"trial_n":91,"n_dots":3.15,"target":"left","response":"left","rt":310.30000001192,"correct":true,"confidence":5},{"trial_n":92,"n_dots":3.05,"target":"right","response":"right","rt":515.59999999404,"correct":true,"confidence":6},{"trial_n":93,"n_dots":3.05,"target":"left","response":"left","rt":671.90000000596,"correct":true,"confidence":5},{"trial_n":94,"n_dots":2.95,"target":"right","response":"right","rt":294.90000000596,"correct":true,"confidence":6},{"trial_n":95,"n_dots":2.95,"target":"right","response":"right","rt":401.90000000596,"correct":true,"confidence":5},{"trial_n":96,"n_dots":2.85,"target":"right","response":"right","rt":1594,"correct":true,"confidence":5},{"trial_n":97,"n_dots":2.85,"target":"right","response":"right","rt":268.59999999404,"correct":true,"confidence":6},{"trial_n":98,"n_dots":2.75,"target":"right","response":"right","rt":903,"correct":true,"confidence":5},{"trial_n":99,"n_dots":2.75,"target":"right","response":"left","rt":150.5,"correct":false,"confidence":4},{"trial_n":100,"n_dots":2.85,"target":"right","response":"right","rt":1315.7999999821,"correct":true,"confidence":4},{"trial_n":101,"n_dots":2.85,"target":"right","response":"left","rt":847.60000002384,"correct":false,"confidence":6},{"trial_n":102,"n_dots":2.95,"target":"right","response":"right","rt":257.09999999404,"correct":true,"confidence":6},{"trial_n":103,"n_dots":2.95,"target":"right","response":"right","rt":510.5,"correct":true,"confidence":5},{"trial_n":104,"n_dots":2.85,"target":"left","response":"left","rt":221.5,"correct":true,"confidence":5},{"trial_n":105,"n_dots":2.85,"target":"left","response":"left","rt":831.09999999404,"correct":true,"confidence":4},{"trial_n":106,"n_dots":2.75,"target":"right","response":"right","rt":606.10000002384,"correct":true,"confidence":4},{"trial_n":107,"n_dots":2.75,"target":"right","response":"right","rt":496.40000000596,"correct":true,"confidence":5},{"trial_n":108,"n_dots":2.65,"target":"left","response":"left","rt":161.5,"correct":true,"confidence":6},{"trial_n":109,"n_dots":2.65,"target":"left","response":"right","rt":695.09999999404,"correct":false,"confidence":4},{"trial_n":110,"n_dots":2.75,"target":"right","response":"right","rt":230.69999998808,"correct":true,"confidence":1},{"trial_n":111,"n_dots":2.75,"target":"right","response":"left","rt":652.80000001192,"correct":false,"confidence":5},{"trial_n":112,"n_dots":2.85,"target":"left","response":"left","rt":100.09999999404,"correct":true,"confidence":6},{"trial_n":113,"n_dots":2.85,"target":"right","response":"right","rt":230.90000000596,"correct":true,"confidence":4},{"trial_n":114,"n_dots":2.75,"target":"right","response":"right","rt":227.09999999404,"correct":true,"confidence":5},{"trial_n":115,"n_dots":2.75,"target":"left","response":"left","rt":191.79999998212,"correct":true,"confidence":5},{"trial_n":116,"n_dots":2.65,"target":"right","response":"left","rt":755.59999999404,"correct":false,"confidence":2},{"trial_n":117,"n_dots":2.75,"target":"left","response":"right","rt":550.10000002384,"correct":false,"confidence":5},{"trial_n":118,"n_dots":2.85,"target":"right","response":"right","rt":901,"correct":true,"confidence":4},{"trial_n":119,"n_dots":2.85,"target":"right","response":"right","rt":907.09999999404,"correct":true,"confidence":4},{"trial_n":120,"n_dots":2.75,"target":"left","response":"left","rt":207.29999998212,"correct":true,"confidence":5},{"trial_n":121,"n_dots":2.75,"target":"left","response":"left","rt":505,"correct":true,"confidence":4},{"trial_n":122,"n_dots":2.65,"target":"left","response":"left","rt":198.40000000596,"correct":true,"confidence":5},{"trial_n":123,"n_dots":2.65,"target":"left","response":"left","rt":350.90000000596,"correct":true,"confidence":5},{"trial_n":124,"n_dots":2.55,"target":"left","response":"right","rt":110.39999997616,"correct":false,"confidence":4},{"trial_n":125,"n_dots":2.65,"target":"right","response":"left","rt":109.09999999404,"correct":false,"confidence":2},{"trial_n":126,"n_dots":2.75,"target":"right","response":"right","rt":146.90000000596,"correct":true,"confidence":6},{"trial_n":127,"n_dots":2.75,"target":"left","response":"left","rt":129.09999999404,"correct":true,"confidence":6},{"trial_n":128,"n_dots":2.65,"target":"left","response":"left","rt":473.20000001788,"correct":true,"confidence":6},{"trial_n":129,"n_dots":2.65,"target":"left","response":"left","rt":681.60000002384,"correct":true,"confidence":4},{"trial_n":130,"n_dots":2.55,"target":"right","response":"right","rt":838.90000000596,"correct":true,"confidence":4},{"trial_n":131,"n_dots":2.55,"target":"left","response":"right","rt":554.70000001788,"correct":false,"confidence":5},{"trial_n":132,"n_dots":2.65,"target":"left","response":"left","rt":263.09999999404,"correct":true,"confidence":5},{"trial_n":133,"n_dots":2.65,"target":"left","response":"left","rt":138.5,"correct":true,"confidence":6},{"trial_n":134,"n_dots":2.55,"target":"left","response":"left","rt":1053,"correct":true,"confidence":6},{"trial_n":135,"n_dots":2.55,"target":"left","response":"right","rt":1092.2999999821,"correct":false,"confidence":4},{"trial_n":136,"n_dots":2.65,"target":"left","response":"right","rt":654.80000001192,"correct":false,"confidence":4},{"trial_n":137,"n_dots":2.75,"target":"left","response":"left","rt":119.5,"correct":true,"confidence":4},{"trial_n":138,"n_dots":2.75,"target":"left","response":"left","rt":826.79999998212,"correct":true,"confidence":4},{"trial_n":139,"n_dots":2.65,"target":"right","response":"left","rt":751.79999998212,"correct":false,"confidence":5},{"trial_n":140,"n_dots":2.75,"target":"left","response":"left","rt":261.5,"correct":true,"confidence":5},{"trial_n":141,"n_dots":2.75,"target":"right","response":"left","rt":854.59999999404,"correct":false,"confidence":6},{"trial_n":142,"n_dots":2.85,"target":"left","response":"right","rt":401.29999998212,"correct":false,"confidence":4},{"trial_n":143,"n_dots":2.95,"target":"left","response":"left","rt":185.10000002384,"correct":true,"confidence":6},{"trial_n":144,"n_dots":2.95,"target":"right","response":"left","rt":181.40000000596,"correct":false,"confidence":5},{"trial_n":145,"n_dots":3.05,"target":"right","response":"left","rt":110.19999998808,"correct":false,"confidence":6},{"trial_n":146,"n_dots":3.15,"target":"right","response":"right","rt":544.30000001192,"correct":true,"confidence":6},{"trial_n":147,"n_dots":3.15,"target":"right","response":"right","rt":586.30000001192,"correct":true,"confidence":5},{"trial_n":148,"n_dots":3.05,"target":"right","response":"right","rt":387.79999998212,"correct":true,"confidence":5},{"trial_n":149,"n_dots":3.05,"target":"right","response":"right","rt":638.90000000596,"correct":true,"confidence":5},{"trial_n":150,"n_dots":2.95,"target":"left","response":"right","rt":479.80000001192,"correct":false,"confidence":4},{"trial_n":151,"n_dots":3.05,"target":"right","response":"left","rt":199,"correct":false,"confidence":3},{"trial_n":152,"n_dots":3.15,"target":"left","response":"right","rt":1174.3000000119,"correct":false,"confidence":5},{"trial_n":153,"n_dots":3.25,"target":"right","response":"right","rt":149.29999998212,"correct":true,"confidence":6},{"trial_n":154,"n_dots":3.25,"target":"left","response":"left","rt":266.29999998212,"correct":true,"confidence":5},{"trial_n":155,"n_dots":3.15,"target":"right","response":"right","rt":607.59999999404,"correct":true,"confidence":4},{"trial_n":156,"n_dots":3.15,"target":"left","response":"left","rt":315.19999998808,"correct":true,"confidence":5},{"trial_n":157,"n_dots":3.05,"target":"right","response":"right","rt":224.20000001788,"correct":true,"confidence":6},{"trial_n":158,"n_dots":3.05,"target":"right","response":"right","rt":221.10000002384,"correct":true,"confidence":6},{"trial_n":159,"n_dots":2.95,"target":"left","response":"left","rt":501.30000001192,"correct":true,"confidence":4},{"trial_n":160,"n_dots":2.95,"target":"right","response":"right","rt":134,"correct":true,"confidence":6},{"trial_n":161,"n_dots":2.85,"target":"right","response":"right","rt":43.199999988079,"correct":true,"confidence":6},{"trial_n":162,"n_dots":2.85,"target":"right","response":"right","rt":164.30000001192,"correct":true,"confidence":6},{"trial_n":163,"n_dots":2.75,"target":"left","response":"left","rt":502.80000001192,"correct":true,"confidence":4},{"trial_n":164,"n_dots":2.75,"target":"right","response":"right","rt":1134.5,"correct":true,"confidence":4},{"trial_n":165,"n_dots":2.65,"target":"right","response":"right","rt":188.30000001192,"correct":true,"confidence":6},{"trial_n":166,"n_dots":2.65,"target":"left","response":"left","rt":303.09999999404,"correct":true,"confidence":5},{"trial_n":167,"n_dots":2.55,"target":"right","response":"right","rt":30,"correct":true,"confidence":6},{"trial_n":168,"n_dots":2.55,"target":"right","response":"right","rt":324.90000000596,"correct":true,"confidence":6},{"trial_n":169,"n_dots":2.45,"target":"left","response":"right","rt":168.80000001192,"correct":false,"confidence":4},{"trial_n":170,"n_dots":2.55,"target":"right","response":"right","rt":339.90000000596,"correct":true,"confidence":6},{"trial_n":171,"n_dots":2.55,"target":"right","response":"right","rt":435.59999999404,"correct":true,"confidence":6},{"trial_n":172,"n_dots":2.45,"target":"left","response":"left","rt":203.69999998808,"correct":true,"confidence":6},{"trial_n":173,"n_dots":2.45,"target":"left","response":"right","rt":383,"correct":false,"confidence":6},{"trial_n":174,"n_dots":2.55,"target":"left","response":"left","rt":313,"correct":true,"confidence":6},{"trial_n":175,"n_dots":2.55,"target":"left","response":"left","rt":277,"correct":true,"confidence":5},{"trial_n":176,"n_dots":2.45,"target":"left","response":"right","rt":303,"correct":false,"confidence":6},{"trial_n":177,"n_dots":2.55,"target":"left","response":"left","rt":156.5,"correct":true,"confidence":6},{"trial_n":178,"n_dots":2.55,"target":"right","response":"left","rt":549.5,"correct":false,"confidence":4},{"trial_n":179,"n_dots":2.65,"target":"left","response":"left","rt":190.80000001192,"correct":true,"confidence":6},{"trial_n":180,"n_dots":2.65,"target":"right","response":"left","rt":349.90000000596,"correct":false,"confidence":3},{"trial_n":181,"n_dots":2.75,"target":"right","response":"right","rt":634.59999999404,"correct":true,"confidence":6},{"trial_n":182,"n_dots":2.75,"target":"right","response":"right","rt":118.20000001788,"correct":true,"confidence":6},{"trial_n":183,"n_dots":2.65,"target":"right","response":"right","rt":669,"correct":true,"confidence":6},{"trial_n":184,"n_dots":2.65,"target":"left","response":"left","rt":641.20000001788,"correct":true,"confidence":5},{"trial_n":185,"n_dots":2.55,"target":"left","response":"left","rt":839.39999997616,"correct":true,"confidence":4},{"trial_n":186,"n_dots":2.55,"target":"left","response":"left","rt":205.5,"correct":true,"confidence":5},{"trial_n":187,"n_dots":2.45,"target":"left","response":"left","rt":207.90000000596,"correct":true,"confidence":4},{"trial_n":188,"n_dots":2.45,"target":"left","response":"left","rt":1070.3000000119,"correct":true,"confidence":4},{"trial_n":189,"n_dots":2.35,"target":"right","response":"right","rt":497.69999998808,"correct":true,"confidence":6},{"trial_n":190,"n_dots":2.35,"target":"right","response":"left","rt":123.39999997616,"correct":false,"confidence":5},{"trial_n":191,"n_dots":2.45,"target":"left","response":"left","rt":149.40000000596,"correct":true,"confidence":3},{"trial_n":192,"n_dots":2.45,"target":"left","response":"left","rt":121.79999998212,"correct":true,"confidence":6},{"trial_n":193,"n_dots":2.35,"target":"right","response":"left","rt":498.19999998808,"correct":false,"confidence":5},{"trial_n":194,"n_dots":2.45,"target":"left","response":"left","rt":93.90000000596,"correct":true,"confidence":5}]