[{"trial_n":1,"n_dots":4.25,"target":"right","response":"right","rt":833.5,"correct":true,"confidence":-1},{"trial_n":2,"n_dots":4.25,"target":"left","response":"left","rt":733.39999985695,"correct":true,"confidence":-1},{"trial_n":3,"n_dots":3.85,"target":"left","response":"left","rt":524.70000004768,"correct":true,"confidence":-1},{"trial_n":4,"n_dots":3.85,"target":"left","response":"left","rt":569.29999995232,"correct":true,"confidence":-1},{"trial_n":5,"n_dots":3.45,"target":"right","response":"right","rt":689.90000009537,"correct":true,"confidence":-1},{"trial_n":6,"n_dots":3.45,"target":"right","response":"right","rt":415.39999985695,"correct":true,"confidence":-1},{"trial_n":7,"n_dots":3.05,"target":"left","response":"right","rt":598.20000004768,"correct":false,"confidence":-1},{"trial_n":8,"n_dots":3.25,"target":"left","response":"left","rt":669.20000004768,"correct":true,"confidence":-1},{"trial_n":9,"n_dots":3.25,"target":"right","response":"right","rt":633.5,"correct":true,"confidence":-1},{"trial_n":10,"n_dots":3.05,"target":"right","response":"right","rt":523.5,"correct":true,"confidence":-1},{"trial_n":11,"n_dots":3.05,"target":"left","response":"left","rt":517.09999990463,"correct":true,"confidence":-1},{"trial_n":12,"n_dots":2.85,"target":"right","response":"right","rt":467.09999990463,"correct":true,"confidence":-1},{"trial_n":13,"n_dots":2.85,"target":"right","response":"left","rt":1008.7000000477,"correct":false,"confidence":-1},{"trial_n":14,"n_dots":2.95,"target":"left","response":"left","rt":627.79999995232,"correct":true,"confidence":-1},{"trial_n":15,"n_dots":2.95,"target":"right","response":"right","rt":694,"correct":true,"confidence":-1},{"trial_n":16,"n_dots":2.85,"target":"left","response":"right","rt":517.80000019073,"correct":false,"confidence":-1},{"trial_n":17,"n_dots":2.95,"target":"right","response":"right","rt":789.79999995232,"correct":true,"confidence":-1},{"trial_n":18,"n_dots":2.95,"target":"right","response":"right","rt":697,"correct":true,"confidence":-1},{"trial_n":19,"n_dots":2.85,"target":"right","response":"right","rt":625.60000014305,"correct":true,"confidence":-1},{"trial_n":20,"n_dots":2.85,"target":"left","response":"right","rt":543.79999995232,"correct":false,"confidence":-1},{"trial_n":21,"n_dots":2.95,"target":"left","response":"right","rt":635.89999985695,"correct":false,"confidence":-1},{"trial_n":22,"n_dots":3.05,"target":"right","response":"right","rt":428.10000014305,"correct":true,"confidence":-1},{"trial_n":23,"n_dots":3.05,"target":"left","response":"left","rt":1320.6000001431,"correct":true,"confidence":-1},{"trial_n":24,"n_dots":2.95,"target":"right","response":"right","rt":680.5,"correct":true,"confidence":-1},{"trial_n":25,"n_dots":2.95,"target":"left","response":"left","rt":538.70000004768,"correct":true,"confidence":-1},{"trial_n":26,"n_dots":2.85,"target":"right","response":"right","rt":740.20000004768,"correct":true,"confidence":-1},{"trial_n":27,"n_dots":2.85,"target":"right","response":"left","rt":199.70000004768,"correct":false,"confidence":4},{"trial_n":28,"n_dots":2.95,"target":"right","response":"right","rt":789.40000009537,"correct":true,"confidence":4},{"trial_n":29,"n_dots":2.95,"target":"left","response":"left","rt":683.20000004768,"correct":true,"confidence":5},{"trial_n":30,"n_dots":2.85,"target":"right","response":"right","rt":633.5,"correct":true,"confidence":4},{"trial_n":31,"n_dots":2.85,"target":"left","response":"left","rt":726.90000009537,"correct":true,"confidence":4},{"trial_n":32,"n_dots":2.75,"target":"right","response":"right","rt":888.89999985695,"correct":true,"confidence":3},{"trial_n":33,"n_dots":2.75,"target":"left","response":"left","rt":683.20000004768,"correct":true,"confidence":4},{"trial_n":34,"n_dots":2.65,"target":"left","response":"left","rt":1052.9000000954,"correct":true,"confidence":3},{"trial_n":35,"n_dots":2.65,"target":"right","response":"right","rt":771.29999995232,"correct":true,"confidence":4},{"trial_n":36,"n_dots":2.55,"target":"left","response":"right","rt":670.5,"correct":false,"confidence":4},{"trial_n":37,"n_dots":2.65,"target":"left","response":"left","rt":708.79999995232,"correct":true,"confidence":4},{"trial_n":38,"n_dots":2.65,"target":"left","response":"left","rt":777.10000014305,"correct":true,"confidence":2},{"trial_n":39,"n_dots":2.55,"target":"right","response":"left","rt":809.20000004768,"correct":false,"confidence":3},{"trial_n":40,"n_dots":2.65,"target":"right","response":"right","rt":2029.6000001431,"correct":true,"confidence":3},{"trial_n":41,"n_dots":2.65,"target":"right","response":"right","rt":500.20000004768,"correct":true,"confidence":3},{"trial_n":42,"n_dots":2.55,"target":"right","response":"right","rt":946,"correct":true,"confidence":5},{"trial_n":43,"n_dots":2.55,"target":"right","response":"right","rt":459.69999980927,"correct":true,"confidence":4},{"trial_n":44,"n_dots":2.45,"target":"left","response":"left","rt":614.79999995232,"correct":true,"confidence":4},{"trial_n":45,"n_dots":2.45,"target":"left","response":"left","rt":910.90000009537,"correct":true,"confidence":4},{"trial_n":46,"n_dots":2.35,"target":"left","response":"right","rt":943.79999995232,"correct":false,"confidence":3},{"trial_n":47,"n_dots":2.45,"target":"left","response":"right","rt":681.19999980927,"correct":false,"confidence":4},{"trial_n":48,"n_dots":2.55,"target":"right","response":"left","rt":2026.4000000954,"correct":false,"confidence":2},{"trial_n":49,"n_dots":2.65,"target":"right","response":"left","rt":1047.7999999523,"correct":false,"confidence":4},{"trial_n":50,"n_dots":2.75,"target":"left","response":"right","rt":1439.5,"correct":false,"confidence":4},{"trial_n":51,"n_dots":2.85,"target":"right","response":"left","rt":1140.7999999523,"correct":false,"confidence":3},{"trial_n":52,"n_dots":2.95,"target":"right","response":"left","rt":1165.4000000954,"correct":false,"confidence":4},{"trial_n":53,"n_dots":3.05,"target":"left","response":"left","rt":1208.2000000477,"correct":true,"confidence":3},{"trial_n":54,"n_dots":3.05,"target":"right","response":"right","rt":970,"correct":true,"confidence":4},{"trial_n":55,"n_dots":2.95,"target":"left","response":"left","rt":950.59999990463,"correct":true,"confidence":3},{"trial_n":56,"n_dots":2.95,"target":"right","response":"right","rt":1131.0999999046,"correct":true,"confidence":4},{"trial_n":57,"n_dots":2.85,"target":"left","response":"left","rt":1074.0999999046,"correct":true,"confidence":3},{"trial_n":58,"n_dots":2.85,"target":"right","response":"left","rt":1325.2000000477,"correct":false,"confidence":4},{"trial_n":59,"n_dots":2.95,"target":"left","response":"left","rt":632.19999980927,"correct":true,"confidence":3},{"trial_n":60,"n_dots":2.95,"target":"right","response":"right","rt":1051.6999998093,"correct":true,"confidence":5},{"trial_n":61,"n_dots":2.85,"target":"right","response":"left","rt":850.29999995232,"correct":false,"confidence":4},{"trial_n":62,"n_dots":2.95,"target":"right","response":"left","rt":1433.2999999523,"correct":false,"confidence":1},{"trial_n":63,"n_dots":3.05,"target":"right","response":"right","rt":859.19999980927,"correct":true,"confidence":4},{"trial_n":64,"n_dots":3.05,"target":"left","response":"right","rt":784.5,"correct":false,"confidence":1},{"trial_n":65,"n_dots":3.15,"target":"left","response":"right","rt":5244.3999998569,"correct":false,"confidence":4},{"trial_n":66,"n_dots":3.25,"target":"left","response":"left","rt":690.40000009537,"correct":true,"confidence":5},{"trial_n":67,"n_dots":3.25,"target":"right","response":"right","rt":937,"correct":true,"confidence":5},{"trial_n":68,"n_dots":3.15,"target":"left","response":"right","rt":1316.2999999523,"correct":false,"confidence":4},{"trial_n":69,"n_dots":3.25,"target":"right","response":"left","rt":692.90000009537,"correct":false,"confidence":4},{"trial_n":70,"n_dots":3.35,"target":"right","response":"right","rt":703.90000009537,"correct":true,"confidence":5},{"trial_n":71,"n_dots":3.35,"target":"left","response":"left","rt":535.70000004768,"correct":true,"confidence":5},{"trial_n":72,"n_dots":3.25,"target":"right","response":"right","rt":604.10000014305,"correct":true,"confidence":2},{"trial_n":73,"n_dots":3.25,"target":"right","response":"right","rt":520.80000019073,"correct":true,"confidence":5},{"trial_n":74,"n_dots":3.15,"target":"right","response":"right","rt":819.59999990463,"correct":true,"confidence":5},{"trial_n":75,"n_dots":3.15,"target":"left","response":"left","rt":957.5,"correct":true,"confidence":4},{"trial_n":76,"n_dots":3.05,"target":"right","response":"right","rt":684,"correct":true,"confidence":4},{"trial_n":77,"n_dots":3.05,"target":"right","response":"right","rt":543.60000014305,"correct":true,"confidence":4},{"trial_n":78,"n_dots":2.95,"target":"right","response":"right","rt":1009,"correct":true,"confidence":5},{"trial_n":79,"n_dots":2.95,"target":"right","response":"left","rt":827.89999985695,"correct":false,"confidence":3},{"trial_n":80,"n_dots":3.05,"target":"right","response":"left","rt":764.29999995232,"correct":false,"confidence":4},{"trial_n":81,"n_dots":3.15,"target":"left","response":"left","rt":876.20000004768,"correct":true,"confidence":4},{"trial_n":82,"n_dots":3.15,"target":"left","response":"left","rt":888.79999995232,"correct":true,"confidence":4},{"trial_n":83,"n_dots":3.05,"target":"right","response":"right","rt":690.09999990463,"correct":true,"confidence":5},{"trial_n":84,"n_dots":3.05,"target":"left","response":"left","rt":693.89999985695,"correct":true,"confidence":5},{"trial_n":85,"n_dots":2.95,"target":"left","response":"left","rt":770.5,"correct":true,"confidence":5},{"trial_n":86,"n_dots":2.95,"target":"left","response":"left","rt":703.5,"correct":true,"confidence":4},{"trial_n":87,"n_dots":2.85,"target":"left","response":"right","rt":771.39999985695,"correct":false,"confidence":4},{"trial_n":88,"n_dots":2.95,"target":"right","response":"left","rt":1703.7000000477,"correct":false,"confidence":3},{"trial_n":89,"n_dots":3.05,"target":"right","response":"right","rt":1089.3999998569,"correct":true,"confidence":3},{"trial_n":90,"n_dots":3.05,"target":"left","response":"left","rt":1453.1000001431,"correct":true,"confidence":6},{"trial_n":91,"n_dots":2.95,"target":"left","response":"left","rt":894.79999995232,"correct":true,"confidence":6},{"trial_n":92,"n_dots":2.95,"target":"left","response":"left","rt":1193.7999999523,"correct":true,"confidence":3},{"trial_n":93,"n_dots":2.85,"target":"left","response":"left","rt":691,"correct":true,"confidence":4},{"trial_n":94,"n_dots":2.85,"target":"left","response":"left","rt":872.29999995232,"correct":true,"confidence":5},{"trial_n":95,"n_dots":2.75,"target":"right","response":"left","rt":822.29999995232,"correct":false,"confidence":4},{"trial_n":96,"n_dots":2.85,"target":"right","response":"left","rt":1221.0999999046,"correct":false,"confidence":4},{"trial_n":97,"n_dots":2.95,"target":"right","response":"left","rt":958.39999985695,"correct":false,"confidence":5},{"trial_n":98,"n_dots":3.05,"target":"right","response":"right","rt":482.80000019073,"correct":true,"confidence":4},{"trial_n":99,"n_dots":3.05,"target":"right","response":"right","rt":556,"correct":true,"confidence":4},{"trial_n":100,"n_dots":2.95,"target":"left","response":"left","rt":739.40000009537,"correct":true,"confidence":3},{"trial_n":101,"n_dots":2.95,"target":"left","response":"left","rt":1097.5,"correct":true,"confidence":4},{"trial_n":102,"n_dots":2.85,"target":"left","response":"left","rt":957,"correct":true,"confidence":3},{"trial_n":103,"n_dots":2.85,"target":"right","response":"right","rt":1059.3000001907,"correct":true,"confidence":5},{"trial_n":104,"n_dots":2.75,"target":"left","response":"right","rt":2664.5,"correct":false,"confidence":2},{"trial_n":105,"n_dots":2.85,"target":"left","response":"left","rt":621.20000004768,"correct":true,"confidence":4},{"trial_n":106,"n_dots":2.85,"target":"right","response":"left","rt":657.20000004768,"correct":false,"confidence":4},{"trial_n":107,"n_dots":2.95,"target":"left","response":"right","rt":1216.8000001907,"correct":false,"confidence":3},{"trial_n":108,"n_dots":3.05,"target":"left","response":"left","rt":719.29999995232,"correct":true,"confidence":5},{"trial_n":109,"n_dots":3.05,"target":"right","response":"right","rt":646.40000009537,"correct":true,"confidence":3},{"trial_n":110,"n_dots":2.95,"target":"right","response":"right","rt":621.20000004768,"correct":true,"confidence":4},{"trial_n":111,"n_dots":2.95,"target":"right","response":"right","rt":896.5,"correct":true,"confidence":2},{"trial_n":112,"n_dots":2.85,"target":"right","response":"left","rt":745.70000004768,"correct":false,"confidence":3},{"trial_n":113,"n_dots":2.95,"target":"right","response":"left","rt":677.60000014305,"correct":false,"confidence":4},{"trial_n":114,"n_dots":3.05,"target":"left","response":"left","rt":791.80000019073,"correct":true,"confidence":4},{"trial_n":115,"n_dots":3.05,"target":"right","response":"right","rt":880.29999995232,"correct":true,"confidence":2},{"trial_n":116,"n_dots":2.95,"target":"left","response":"right","rt":907,"correct":false,"confidence":4},{"trial_n":117,"n_dots":3.05,"target":"right","response":"left","rt":1217.5999999046,"correct":false,"confidence":4},{"trial_n":118,"n_dots":3.15,"target":"left","response":"left","rt":791.69999980927,"correct":true,"confidence":4},{"trial_n":119,"n_dots":3.15,"target":"left","response":"right","rt":1018.7999999523,"correct":false,"confidence":5},{"trial_n":120,"n_dots":3.25,"target":"left","response":"left","rt":667.29999995232,"correct":true,"confidence":5},{"trial_n":121,"n_dots":3.25,"target":"right","response":"right","rt":372.90000009537,"correct":true,"confidence":3},{"trial_n":122,"n_dots":3.15,"target":"right","response":"right","rt":415.79999995232,"correct":true,"confidence":4},{"trial_n":123,"n_dots":3.15,"target":"left","response":"left","rt":582.29999995232,"correct":true,"confidence":4},{"trial_n":124,"n_dots":3.05,"target":"right","response":"left","rt":1021.8999998569,"correct":false,"confidence":3},{"trial_n":125,"n_dots":3.15,"target":"left","response":"left","rt":685.10000014305,"correct":true,"confidence":3},{"trial_n":126,"n_dots":3.15,"target":"left","response":"right","rt":845.79999995232,"correct":false,"confidence":4},{"trial_n":127,"n_dots":3.25,"target":"left","response":"left","rt":685.39999985695,"correct":true,"confidence":4},{"trial_n":128,"n_dots":3.25,"target":"right","response":"right","rt":543.90000009537,"correct":true,"confidence":4},{"trial_n":129,"n_dots":3.15,"target":"right","response":"right","rt":1247.9000000954,"correct":true,"confidence":4},{"trial_n":130,"n_dots":3.15,"target":"right","response":"right","rt":654.5,"correct":true,"confidence":4},{"trial_n":131,"n_dots":3.05,"target":"right","response":"right","rt":708.40000009537,"correct":true,"confidence":4},{"trial_n":132,"n_dots":3.05,"target":"left","response":"left","rt":683.79999995232,"correct":true,"confidence":3},{"trial_n":133,"n_dots":2.95,"target":"left","response":"left","rt":1305.1000001431,"correct":true,"confidence":4},{"trial_n":134,"n_dots":2.95,"target":"left","response":"left","rt":625.5,"correct":true,"confidence":4},{"trial_n":135,"n_dots":2.85,"target":"right","response":"right","rt":799.40000009537,"correct":true,"confidence":4},{"trial_n":136,"n_dots":2.85,"target":"right","response":"right","rt":668,"correct":true,"confidence":5},{"trial_n":137,"n_dots":2.75,"target":"right","response":"right","rt":501.20000004768,"correct":true,"confidence":5},{"trial_n":138,"n_dots":2.75,"target":"left","response":"right","rt":656.20000004768,"correct":false,"confidence":4},{"trial_n":139,"n_dots":2.85,"target":"right","response":"left","rt":826.29999995232,"correct":false,"confidence":4},{"trial_n":140,"n_dots":2.95,"target":"right","response":"right","rt":611,"correct":true,"confidence":4},{"trial_n":141,"n_dots":2.95,"target":"left","response":"left","rt":300.70000004768,"correct":true,"confidence":3},{"trial_n":142,"n_dots":2.85,"target":"right","response":"right","rt":1202.0999999046,"correct":true,"confidence":4},{"trial_n":143,"n_dots":2.85,"target":"right","response":"left","rt":726.89999985695,"correct":false,"confidence":4},{"trial_n":144,"n_dots":2.95,"target":"right","response":"right","rt":941.90000009537,"correct":true,"confidence":4},{"trial_n":145,"n_dots":2.95,"target":"left","response":"left","rt":605.59999990463,"correct":true,"confidence":6},{"trial_n":146,"n_dots":2.85,"target":"right","response":"right","rt":1024.7999999523,"correct":true,"confidence":4},{"trial_n":147,"n_dots":2.85,"target":"left","response":"left","rt":600.89999985695,"correct":true,"confidence":5},{"trial_n":148,"n_dots":2.75,"target":"right","response":"right","rt":1125.4000000954,"correct":true,"confidence":4},{"trial_n":149,"n_dots":2.75,"target":"left","response":"left","rt":1211.2000000477,"correct":true,"confidence":4},{"trial_n":150,"n_dots":2.65,"target":"right","response":"right","rt":415.09999990463,"correct":true,"confidence":2},{"trial_n":151,"n_dots":2.65,"target":"left","response":"left","rt":581,"correct":true,"confidence":6},{"trial_n":152,"n_dots":2.55,"target":"left","response":"left","rt":1195.0999999046,"correct":true,"confidence":5},{"trial_n":153,"n_dots":2.55,"target":"right","response":"left","rt":647.90000009537,"correct":false,"confidence":5},{"trial_n":154,"n_dots":2.65,"target":"left","response":"left","rt":550.19999980927,"correct":true,"confidence":6},{"trial_n":155,"n_dots":2.65,"target":"left","response":"left","rt":520.5,"correct":true,"confidence":5},{"trial_n":156,"n_dots":2.55,"target":"right","response":"right","rt":676.5,"correct":true,"confidence":5},{"trial_n":157,"n_dots":2.55,"target":"left","response":"right","rt":895.79999995232,"correct":false,"confidence":4},{"trial_n":158,"n_dots":2.65,"target":"left","response":"left","rt":554.5,"correct":true,"confidence":5},{"trial_n":159,"n_dots":2.65,"target":"right","response":"left","rt":641.69999980927,"correct":false,"confidence":4},{"trial_n":160,"n_dots":2.75,"target":"right","response":"right","rt":725.59999990463,"correct":true,"confidence":5},{"trial_n":161,"n_dots":2.75,"target":"right","response":"right","rt":688.79999995232,"correct":true,"confidence":5},{"trial_n":162,"n_dots":2.65,"target":"left","response":"left","rt":751.29999995232,"correct":true,"confidence":4},{"trial_n":163,"n_dots":2.65,"target":"left","response":"right","rt":703.90000009537,"correct":false,"confidence":2},{"trial_n":164,"n_dots":2.75,"target":"left","response":"left","rt":1006.7999999523,"correct":true,"confidence":4},{"trial_n":165,"n_dots":2.75,"target":"left","response":"left","rt":660.19999980927,"correct":true,"confidence":5},{"trial_n":166,"n_dots":2.65,"target":"left","response":"right","rt":1195.2000000477,"correct":false,"confidence":4},{"trial_n":167,"n_dots":2.75,"target":"left","response":"left","rt":858.79999995232,"correct":true,"confidence":4},{"trial_n":168,"n_dots":2.75,"target":"right","response":"left","rt":729.30000019073,"correct":false,"confidence":4},{"trial_n":169,"n_dots":2.85,"target":"right","response":"right","rt":478.79999995232,"correct":true,"confidence":6},{"trial_n":170,"n_dots":2.85,"target":"right","response":"left","rt":559.5,"correct":false,"confidence":5},{"trial_n":171,"n_dots":2.95,"target":"left","response":"right","rt":791.29999995232,"correct":false,"confidence":5},{"trial_n":172,"n_dots":3.05,"target":"left","response":"left","rt":793.90000009537,"correct":true,"confidence":4},{"trial_n":173,"n_dots":3.05,"target":"right","response":"right","rt":662.29999995232,"correct":true,"confidence":4},{"trial_n":174,"n_dots":2.95,"target":"left","response":"left","rt":470.10000014305,"correct":true,"confidence":4},{"trial_n":175,"n_dots":2.95,"target":"left","response":"left","rt":345.29999995232,"correct":true,"confidence":6},{"trial_n":176,"n_dots":2.85,"target":"left","response":"left","rt":722.20000004768,"correct":true,"confidence":5},{"trial_n":177,"n_dots":2.85,"target":"left","response":"left","rt":596.70000004768,"correct":true,"confidence":5},{"trial_n":178,"n_dots":2.75,"target":"left","response":"right","rt":1530,"correct":false,"confidence":4},{"trial_n":179,"n_dots":2.85,"target":"right","response":"left","rt":648.39999985695,"correct":false,"confidence":4},{"trial_n":180,"n_dots":2.95,"target":"right","response":"left","rt":1075,"correct":false,"confidence":3},{"trial_n":181,"n_dots":3.05,"target":"left","response":"left","rt":671.79999995232,"correct":true,"confidence":4},{"trial_n":182,"n_dots":3.05,"target":"right","response":"right","rt":957.30000019073,"correct":true,"confidence":4},{"trial_n":183,"n_dots":2.95,"target":"right","response":"right","rt":773.29999995232,"correct":true,"confidence":4},{"trial_n":184,"n_dots":2.95,"target":"right","response":"right","rt":1493.7999999523,"correct":true,"confidence":3},{"trial_n":185,"n_dots":2.85,"target":"left","response":"left","rt":607,"correct":true,"confidence":5},{"trial_n":186,"n_dots":2.85,"target":"left","response":"left","rt":706.90000009537,"correct":true,"confidence":4},{"trial_n":187,"n_dots":2.75,"target":"right","response":"left","rt":662.20000004768,"correct":false,"confidence":4},{"trial_n":188,"n_dots":2.85,"target":"left","response":"left","rt":489.79999995232,"correct":true,"confidence":4},{"trial_n":189,"n_dots":2.85,"target":"left","response":"left","rt":538.60000014305,"correct":true,"confidence":4},{"trial_n":190,"n_dots":2.75,"target":"left","response":"left","rt":1505.6999998093,"correct":true,"confidence":5},{"trial_n":191,"n_dots":2.75,"target":"left","response":"left","rt":842.09999990463,"correct":true,"confidence":4},{"trial_n":192,"n_dots":2.65,"target":"right","response":"right","rt":724.29999995232,"correct":true,"confidence":3},{"trial_n":193,"n_dots":2.65,"target":"left","response":"left","rt":1412.2999999523,"correct":true,"confidence":5},{"trial_n":194,"n_dots":2.55,"target":"left","response":"left","rt":508.60000014305,"correct":true,"confidence":5}]