[{"trial_n":1,"n_dots":4.25,"target":"left","response":"right","rt":1126.1999999993,"correct":false,"confidence":-1},{"trial_n":2,"n_dots":4.25,"target":"left","response":"left","rt":688.09999999963,"correct":true,"confidence":-1},{"trial_n":3,"n_dots":4.25,"target":"right","response":"right","rt":779.20000000019,"correct":true,"confidence":-1},{"trial_n":4,"n_dots":3.85,"target":"left","response":"left","rt":720.90000000037,"correct":true,"confidence":-1},{"trial_n":5,"n_dots":3.85,"target":"right","response":"right","rt":858.89999999944,"correct":true,"confidence":-1},{"trial_n":6,"n_dots":3.45,"target":"right","response":"right","rt":697.20000000019,"correct":true,"confidence":-1},{"trial_n":7,"n_dots":3.45,"target":"left","response":"left","rt":811.40000000037,"correct":true,"confidence":-1},{"trial_n":8,"n_dots":3.25,"target":"right","response":"right","rt":505.79999999981,"correct":true,"confidence":-1},{"trial_n":9,"n_dots":3.25,"target":"left","response":"left","rt":612.10000000056,"correct":true,"confidence":-1},{"trial_n":10,"n_dots":3.05,"target":"right","response":"right","rt":480.5,"correct":true,"confidence":-1},{"trial_n":11,"n_dots":3.05,"target":"left","response":"left","rt":675.39999999944,"correct":true,"confidence":-1},{"trial_n":12,"n_dots":2.85,"target":"right","response":"right","rt":492.5,"correct":true,"confidence":-1},{"trial_n":13,"n_dots":2.85,"target":"left","response":"left","rt":570,"correct":true,"confidence":-1},{"trial_n":14,"n_dots":2.75,"target":"right","response":"left","rt":721.59999999963,"correct":false,"confidence":-1},{"trial_n":15,"n_dots":2.85,"target":"right","response":"right","rt":648.29999999981,"correct":true,"confidence":-1},{"trial_n":16,"n_dots":2.85,"target":"left","response":"right","rt":859.79999999981,"correct":false,"confidence":-1},{"trial_n":17,"n_dots":2.95,"target":"right","response":"right","rt":838.90000000037,"correct":true,"confidence":-1},{"trial_n":18,"n_dots":2.95,"target":"right","response":"right","rt":588.10000000056,"correct":true,"confidence":-1},{"trial_n":19,"n_dots":2.85,"target":"left","response":"left","rt":675,"correct":true,"confidence":-1},{"trial_n":20,"n_dots":2.85,"target":"right","response":"right","rt":610.5,"correct":true,"confidence":-1},{"trial_n":21,"n_dots":2.75,"target":"right","response":"left","rt":433.09999999963,"correct":false,"confidence":-1},{"trial_n":22,"n_dots":2.85,"target":"left","response":"right","rt":602.40000000037,"correct":false,"confidence":-1},{"trial_n":23,"n_dots":2.95,"target":"right","response":"left","rt":513.79999999981,"correct":false,"confidence":-1},{"trial_n":24,"n_dots":3.05,"target":"right","response":"right","rt":547.5,"correct":true,"confidence":-1},{"trial_n":25,"n_dots":3.05,"target":"right","response":"right","rt":647.5,"correct":true,"confidence":-1},{"trial_n":26,"n_dots":2.95,"target":"left","response":"left","rt":528.39999999944,"correct":true,"confidence":-1},{"trial_n":27,"n_dots":2.95,"target":"left","response":"right","rt":603.10000000056,"correct":false,"confidence":4},{"trial_n":28,"n_dots":3.05,"target":"right","response":"right","rt":770.39999999944,"correct":true,"confidence":4},{"trial_n":29,"n_dots":3.05,"target":"right","response":"right","rt":898.70000000019,"correct":true,"confidence":1},{"trial_n":30,"n_dots":2.95,"target":"left","response":"left","rt":1270.0999999996,"correct":true,"confidence":3},{"trial_n":31,"n_dots":2.95,"target":"left","response":"right","rt":807.80000000075,"correct":false,"confidence":4},{"trial_n":32,"n_dots":3.05,"target":"left","response":"left","rt":596,"correct":true,"confidence":4},{"trial_n":33,"n_dots":3.05,"target":"right","response":"right","rt":512.90000000037,"correct":true,"confidence":5},{"trial_n":34,"n_dots":2.95,"target":"right","response":"right","rt":584.39999999944,"correct":true,"confidence":5},{"trial_n":35,"n_dots":2.95,"target":"left","response":"left","rt":605.29999999981,"correct":true,"confidence":4},{"trial_n":36,"n_dots":2.85,"target":"right","response":"right","rt":842,"correct":true,"confidence":4},{"trial_n":37,"n_dots":2.85,"target":"right","response":"right","rt":1423.2999999998,"correct":true,"confidence":1},{"trial_n":38,"n_dots":2.75,"target":"left","response":"left","rt":734.39999999944,"correct":true,"confidence":4},{"trial_n":39,"n_dots":2.75,"target":"left","response":"right","rt":725.70000000019,"correct":false,"confidence":1},{"trial_n":40,"n_dots":2.85,"target":"right","response":"right","rt":609.79999999981,"correct":true,"confidence":4},{"trial_n":41,"n_dots":2.85,"target":"right","response":"right","rt":758.09999999963,"correct":true,"confidence":5},{"trial_n":42,"n_dots":2.75,"target":"right","response":"right","rt":660.29999999981,"correct":true,"confidence":5},{"trial_n":43,"n_dots":2.75,"target":"left","response":"left","rt":797.30000000075,"correct":true,"confidence":2},{"trial_n":44,"n_dots":2.65,"target":"right","response":"right","rt":902.29999999981,"correct":true,"confidence":4},{"trial_n":45,"n_dots":2.65,"target":"left","response":"left","rt":965.70000000019,"correct":true,"confidence":3},{"trial_n":46,"n_dots":2.55,"target":"left","response":"right","rt":783.19999999925,"correct":false,"confidence":4},{"trial_n":47,"n_dots":2.65,"target":"right","response":"right","rt":651.40000000037,"correct":true,"confidence":4},{"trial_n":48,"n_dots":2.65,"target":"right","response":"right","rt":645.39999999944,"correct":true,"confidence":3},{"trial_n":49,"n_dots":2.55,"target":"left","response":"left","rt":626.09999999963,"correct":true,"confidence":4},{"trial_n":50,"n_dots":2.55,"target":"left","response":"left","rt":908.10000000056,"correct":true,"confidence":3},{"trial_n":51,"n_dots":2.45,"target":"left","response":"right","rt":689.39999999944,"correct":false,"confidence":5},{"trial_n":52,"n_dots":2.55,"target":"left","response":"left","rt":721.5,"correct":true,"confidence":4},{"trial_n":53,"n_dots":2.55,"target":"left","response":"left","rt":937.09999999963,"correct":true,"confidence":4},{"trial_n":54,"n_dots":2.45,"target":"left","response":"left","rt":558.5,"correct":true,"confidence":4},{"trial_n":55,"n_dots":2.45,"target":"left","response":"left","rt":785.89999999944,"correct":true,"confidence":5},{"trial_n":56,"n_dots":2.35,"target":"left","response":"left","rt":849.30000000075,"correct":true,"confidence":4},{"trial_n":57,"n_dots":2.35,"target":"right","response":"left","rt":889.79999999981,"correct":false,"confidence":1},{"trial_n":58,"n_dots":2.45,"target":"right","response":"right","rt":607.09999999963,"correct":true,"confidence":3},{"trial_n":59,"n_dots":2.45,"target":"left","response":"right","rt":773.5,"correct":false,"confidence":4},{"trial_n":60,"n_dots":2.55,"target":"right","response":"right","rt":826.29999999981,"correct":true,"confidence":1},{"trial_n":61,"n_dots":2.55,"target":"left","response":"left","rt":559,"correct":true,"confidence":6},{"trial_n":62,"n_dots":2.45,"target":"right","response":"left","rt":762.89999999944,"correct":false,"confidence":3},{"trial_n":63,"n_dots":2.55,"target":"right","response":"right","rt":1049.2000000002,"correct":true,"confidence":1},{"trial_n":64,"n_dots":2.55,"target":"left","response":"left","rt":403,"correct":true,"confidence":4},{"trial_n":65,"n_dots":2.45,"target":"right","response":"left","rt":479.29999999981,"correct":false,"confidence":4},{"trial_n":66,"n_dots":2.55,"target":"right","response":"left","rt":1115.3999999994,"correct":false,"confidence":4},{"trial_n":67,"n_dots":2.65,"target":"right","response":"left","rt":571.80000000075,"correct":false,"confidence":5},{"trial_n":68,"n_dots":2.75,"target":"right","response":"left","rt":269.69999999925,"correct":false,"confidence":4},{"trial_n":69,"n_dots":2.85,"target":"right","response":"left","rt":267.40000000037,"correct":false,"confidence":4},{"trial_n":70,"n_dots":2.95,"target":"left","response":"left","rt":397.19999999925,"correct":true,"confidence":5},{"trial_n":71,"n_dots":2.95,"target":"right","response":"left","rt":737.59999999963,"correct":false,"confidence":4},{"trial_n":72,"n_dots":3.05,"target":"right","response":"right","rt":1217.7999999998,"correct":true,"confidence":4},{"trial_n":73,"n_dots":3.05,"target":"left","response":"left","rt":277.79999999981,"correct":true,"confidence":4},{"trial_n":74,"n_dots":2.95,"target":"right","response":"left","rt":1308.1999999993,"correct":false,"confidence":1},{"trial_n":75,"n_dots":3.05,"target":"right","response":"left","rt":703.59999999963,"correct":false,"confidence":4},{"trial_n":76,"n_dots":3.15,"target":"left","response":"left","rt":301.59999999963,"correct":true,"confidence":5},{"trial_n":77,"n_dots":3.15,"target":"right","response":"left","rt":359,"correct":false,"confidence":6},{"trial_n":78,"n_dots":3.25,"target":"right","response":"left","rt":345.39999999944,"correct":false,"confidence":1},{"trial_n":79,"n_dots":3.35,"target":"left","response":"left","rt":454.89999999944,"correct":true,"confidence":4},{"trial_n":80,"n_dots":3.35,"target":"right","response":"left","rt":872.70000000019,"correct":false,"confidence":1},{"trial_n":81,"n_dots":3.45,"target":"left","response":"left","rt":478.29999999981,"correct":true,"confidence":6},{"trial_n":82,"n_dots":3.45,"target":"right","response":"right","rt":830.29999999981,"correct":true,"confidence":5},{"trial_n":83,"n_dots":3.35,"target":"right","response":"left","rt":608.29999999981,"correct":false,"confidence":4},{"trial_n":84,"n_dots":3.45,"target":"left","response":"left","rt":264.70000000019,"correct":true,"confidence":5},{"trial_n":85,"n_dots":3.45,"target":"left","response":"left","rt":347,"correct":true,"confidence":5},{"trial_n":86,"n_dots":3.35,"target":"right","response":"right","rt":515.19999999925,"correct":true,"confidence":1},{"trial_n":87,"n_dots":3.35,"target":"left","response":"left","rt":247.70000000019,"correct":true,"confidence":5},{"trial_n":88,"n_dots":3.25,"target":"left","response":"left","rt":251.29999999981,"correct":true,"confidence":6},{"trial_n":89,"n_dots":3.25,"target":"left","response":"left","rt":281.5,"correct":true,"confidence":3},{"trial_n":90,"n_dots":3.15,"target":"left","response":"left","rt":245.70000000019,"correct":true,"confidence":5},{"trial_n":91,"n_dots":3.15,"target":"right","response":"right","rt":558.19999999925,"correct":true,"confidence":4},{"trial_n":92,"n_dots":3.05,"target":"left","response":"right","rt":796.70000000019,"correct":false,"confidence":1},{"trial_n":93,"n_dots":3.15,"target":"left","response":"left","rt":486.39999999944,"correct":true,"confidence":6},{"trial_n":94,"n_dots":3.15,"target":"left","response":"right","rt":539.70000000019,"correct":false,"confidence":2},{"trial_n":95,"n_dots":3.25,"target":"right","response":"right","rt":407.39999999944,"correct":true,"confidence":5},{"trial_n":96,"n_dots":3.25,"target":"left","response":"left","rt":570.5,"correct":true,"confidence":3},{"trial_n":97,"n_dots":3.15,"target":"right","response":"right","rt":407.90000000037,"correct":true,"confidence":6},{"trial_n":98,"n_dots":3.15,"target":"right","response":"right","rt":883.20000000019,"correct":true,"confidence":1},{"trial_n":99,"n_dots":3.05,"target":"right","response":"right","rt":429.10000000056,"correct":true,"confidence":2},{"trial_n":100,"n_dots":3.05,"target":"right","response":"right","rt":457.09999999963,"correct":true,"confidence":2},{"trial_n":101,"n_dots":2.95,"target":"left","response":"left","rt":549,"correct":true,"confidence":5},{"trial_n":102,"n_dots":2.95,"target":"left","response":"left","rt":435.59999999963,"correct":true,"confidence":3},{"trial_n":103,"n_dots":2.85,"target":"right","response":"left","rt":787.5,"correct":false,"confidence":4},{"trial_n":104,"n_dots":2.95,"target":"left","response":"left","rt":475.5,"correct":true,"confidence":5},{"trial_n":105,"n_dots":2.95,"target":"left","response":"left","rt":312.70000000019,"correct":true,"confidence":4},{"trial_n":106,"n_dots":2.85,"target":"right","response":"right","rt":356.29999999981,"correct":true,"confidence":2},{"trial_n":107,"n_dots":2.85,"target":"right","response":"left","rt":731.90000000037,"correct":false,"confidence":1},{"trial_n":108,"n_dots":2.95,"target":"left","response":"left","rt":390.10000000056,"correct":true,"confidence":4},{"trial_n":109,"n_dots":2.95,"target":"right","response":"left","rt":320.29999999981,"correct":false,"confidence":2},{"trial_n":110,"n_dots":3.05,"target":"left","response":"left","rt":450.40000000037,"correct":true,"confidence":4},{"trial_n":111,"n_dots":3.05,"target":"left","response":"left","rt":463.80000000075,"correct":true,"confidence":4},{"trial_n":112,"n_dots":2.95,"target":"right","response":"left","rt":540.70000000019,"correct":false,"confidence":1},{"trial_n":113,"n_dots":3.05,"target":"right","response":"right","rt":642.20000000019,"correct":true,"confidence":1},{"trial_n":114,"n_dots":3.05,"target":"left","response":"left","rt":298.20000000019,"correct":true,"confidence":2},{"trial_n":115,"n_dots":2.95,"target":"right","response":"left","rt":1211.1000000015,"correct":false,"confidence":2},{"trial_n":116,"n_dots":3.05,"target":"left","response":"right","rt":2485.9000000004,"correct":false,"confidence":2},{"trial_n":117,"n_dots":3.15,"target":"left","response":"left","rt":1102.6999999993,"correct":true,"confidence":5},{"trial_n":118,"n_dots":3.15,"target":"right","response":"right","rt":761.5,"correct":true,"confidence":5},{"trial_n":119,"n_dots":3.05,"target":"left","response":"left","rt":323.69999999925,"correct":true,"confidence":1},{"trial_n":120,"n_dots":3.05,"target":"left","response":"left","rt":491.90000000037,"correct":true,"confidence":3},{"trial_n":121,"n_dots":2.95,"target":"left","response":"left","rt":287,"correct":true,"confidence":3},{"trial_n":122,"n_dots":2.95,"target":"left","response":"left","rt":258.10000000149,"correct":true,"confidence":5},{"trial_n":123,"n_dots":2.85,"target":"right","response":"left","rt":649.29999999888,"correct":false,"confidence":1},{"trial_n":124,"n_dots":2.95,"target":"left","response":"left","rt":146.40000000037,"correct":true,"confidence":4},{"trial_n":125,"n_dots":2.95,"target":"left","response":"left","rt":206.39999999851,"correct":true,"confidence":4},{"trial_n":126,"n_dots":2.85,"target":"right","response":"left","rt":209.5,"correct":false,"confidence":1},{"trial_n":127,"n_dots":2.95,"target":"left","response":"left","rt":526.40000000037,"correct":true,"confidence":3},{"trial_n":128,"n_dots":2.95,"target":"left","response":"left","rt":144.40000000037,"correct":true,"confidence":4},{"trial_n":129,"n_dots":2.85,"target":"right","response":"left","rt":22.599999999627,"correct":false,"confidence":4},{"trial_n":130,"n_dots":2.95,"target":"left","response":"left","rt":324,"correct":true,"confidence":5},{"trial_n":131,"n_dots":2.95,"target":"left","response":"left","rt":218.79999999888,"correct":true,"confidence":4},{"trial_n":132,"n_dots":2.85,"target":"right","response":"left","rt":403.5,"correct":false,"confidence":4},{"trial_n":133,"n_dots":2.95,"target":"left","response":"left","rt":1365.2999999989,"correct":true,"confidence":5},{"trial_n":134,"n_dots":2.95,"target":"right","response":"right","rt":619.69999999925,"correct":true,"confidence":3},{"trial_n":135,"n_dots":2.85,"target":"left","response":"left","rt":423.10000000149,"correct":true,"confidence":5},{"trial_n":136,"n_dots":2.85,"target":"right","response":"right","rt":977.30000000075,"correct":true,"confidence":2},{"trial_n":137,"n_dots":2.75,"target":"right","response":"left","rt":872.19999999925,"correct":false,"confidence":4},{"trial_n":138,"n_dots":2.85,"target":"right","response":"right","rt":735.70000000112,"correct":true,"confidence":4},{"trial_n":139,"n_dots":2.85,"target":"left","response":"left","rt":758.09999999963,"correct":true,"confidence":4},{"trial_n":140,"n_dots":2.75,"target":"left","response":"left","rt":699.09999999963,"correct":true,"confidence":6},{"trial_n":141,"n_dots":2.75,"target":"left","response":"right","rt":650.59999999963,"correct":false,"confidence":3},{"trial_n":142,"n_dots":2.85,"target":"left","response":"right","rt":694.5,"correct":false,"confidence":4},{"trial_n":143,"n_dots":2.95,"target":"left","response":"left","rt":475,"correct":true,"confidence":4},{"trial_n":144,"n_dots":2.95,"target":"left","response":"left","rt":732.59999999963,"correct":true,"confidence":4},{"trial_n":145,"n_dots":2.85,"target":"right","response":"right","rt":446,"correct":true,"confidence":4},{"trial_n":146,"n_dots":2.85,"target":"left","response":"left","rt":465.29999999888,"correct":true,"confidence":5},{"trial_n":147,"n_dots":2.75,"target":"left","response":"left","rt":475.40000000037,"correct":true,"confidence":6},{"trial_n":148,"n_dots":2.75,"target":"right","response":"left","rt":570.90000000037,"correct":false,"confidence":5},{"trial_n":149,"n_dots":2.85,"target":"right","response":"left","rt":367.5,"correct":false,"confidence":4},{"trial_n":150,"n_dots":2.95,"target":"right","response":"right","rt":273.5,"correct":true,"confidence":4},{"trial_n":151,"n_dots":2.95,"target":"right","response":"right","rt":474.5,"correct":true,"confidence":6},{"trial_n":152,"n_dots":2.85,"target":"right","response":"left","rt":475.69999999925,"correct":false,"confidence":5},{"trial_n":153,"n_dots":2.95,"target":"left","response":"left","rt":276.5,"correct":true,"confidence":1},{"trial_n":154,"n_dots":2.95,"target":"left","response":"left","rt":347.59999999963,"correct":true,"confidence":3},{"trial_n":155,"n_dots":2.85,"target":"right","response":"left","rt":440.80000000075,"correct":false,"confidence":4},{"trial_n":156,"n_dots":2.95,"target":"right","response":"left","rt":674.69999999925,"correct":false,"confidence":1},{"trial_n":157,"n_dots":3.05,"target":"left","response":"right","rt":1190.8999999985,"correct":false,"confidence":1},{"trial_n":158,"n_dots":3.15,"target":"left","response":"left","rt":283.40000000037,"correct":true,"confidence":4},{"trial_n":159,"n_dots":3.15,"target":"left","response":"left","rt":353.70000000112,"correct":true,"confidence":5},{"trial_n":160,"n_dots":3.05,"target":"left","response":"left","rt":301.10000000149,"correct":true,"confidence":5},{"trial_n":161,"n_dots":3.05,"target":"left","response":"left","rt":268.60000000149,"correct":true,"confidence":3},{"trial_n":162,"n_dots":2.95,"target":"left","response":"left","rt":554.09999999963,"correct":true,"confidence":5},{"trial_n":163,"n_dots":2.95,"target":"left","response":"left","rt":891.30000000075,"correct":true,"confidence":4},{"trial_n":164,"n_dots":2.85,"target":"right","response":"left","rt":1024.3000000007,"correct":false,"confidence":1},{"trial_n":165,"n_dots":2.95,"target":"left","response":"right","rt":936.70000000112,"correct":false,"confidence":1},{"trial_n":166,"n_dots":3.05,"target":"right","response":"right","rt":595.69999999925,"correct":true,"confidence":1},{"trial_n":167,"n_dots":3.05,"target":"right","response":"left","rt":1071.5999999996,"correct":false,"confidence":2},{"trial_n":168,"n_dots":3.15,"target":"right","response":"right","rt":1342.9000000004,"correct":true,"confidence":1},{"trial_n":169,"n_dots":3.15,"target":"right","response":"left","rt":2073.6999999993,"correct":false,"confidence":1},{"trial_n":170,"n_dots":3.25,"target":"right","response":"right","rt":1044.4000000004,"correct":true,"confidence":1},{"trial_n":171,"n_dots":3.25,"target":"right","response":"left","rt":629.90000000037,"correct":false,"confidence":2},{"trial_n":172,"n_dots":3.35,"target":"left","response":"left","rt":392,"correct":true,"confidence":3},{"trial_n":173,"n_dots":3.35,"target":"right","response":"left","rt":655,"correct":false,"confidence":1},{"trial_n":174,"n_dots":3.45,"target":"left","response":"right","rt":609.5,"correct":false,"confidence":1},{"trial_n":175,"n_dots":3.55,"target":"left","response":"left","rt":787.60000000149,"correct":true,"confidence":4},{"trial_n":176,"n_dots":3.55,"target":"left","response":"left","rt":853,"correct":true,"confidence":5},{"trial_n":177,"n_dots":3.45,"target":"left","response":"left","rt":210.5,"correct":true,"confidence":4},{"trial_n":178,"n_dots":3.45,"target":"right","response":"right","rt":466.79999999888,"correct":true,"confidence":5},{"trial_n":179,"n_dots":3.35,"target":"left","response":"left","rt":723.29999999888,"correct":true,"confidence":4},{"trial_n":180,"n_dots":3.35,"target":"right","response":"left","rt":433.80000000075,"correct":false,"confidence":2},{"trial_n":181,"n_dots":3.45,"target":"left","response":"left","rt":402.79999999888,"correct":true,"confidence":5},{"trial_n":182,"n_dots":3.45,"target":"right","response":"right","rt":759.09999999963,"correct":true,"confidence":1},{"trial_n":183,"n_dots":3.35,"target":"left","response":"left","rt":463.10000000149,"correct":true,"confidence":4},{"trial_n":184,"n_dots":3.35,"target":"right","response":"right","rt":601.69999999925,"correct":true,"confidence":3},{"trial_n":185,"n_dots":3.25,"target":"right","response":"right","rt":664.19999999925,"correct":true,"confidence":1},{"trial_n":186,"n_dots":3.25,"target":"right","response":"left","rt":626,"correct":false,"confidence":1},{"trial_n":187,"n_dots":3.35,"target":"right","response":"right","rt":758.19999999925,"correct":true,"confidence":1},{"trial_n":188,"n_dots":3.35,"target":"left","response":"left","rt":251.70000000112,"correct":true,"confidence":4},{"trial_n":189,"n_dots":3.25,"target":"right","response":"right","rt":601.90000000037,"correct":true,"confidence":1},{"trial_n":190,"n_dots":3.25,"target":"right","response":"right","rt":844.10000000149,"correct":true,"confidence":3},{"trial_n":191,"n_dots":3.15,"target":"right","response":"right","rt":641.5,"correct":true,"confidence":5},{"trial_n":192,"n_dots":3.15,"target":"right","response":"left","rt":591.30000000075,"correct":false,"confidence":1},{"trial_n":193,"n_dots":3.25,"target":"right","response":"right","rt":492.60000000149,"correct":true,"confidence":4},{"trial_n":194,"n_dots":3.25,"target":"left","response":"left","rt":544.90000000037,"correct":true,"confidence":3}]