[{"trial_n":1,"n_dots":4.25,"target":"left","response":"right","rt":2864.5,"correct":false,"confidence":-1},{"trial_n":2,"n_dots":4.25,"target":"right","response":"left","rt":1753.3999999985,"correct":false,"confidence":-1},{"trial_n":3,"n_dots":4.65,"target":"right","response":"right","rt":793,"correct":true,"confidence":-1},{"trial_n":4,"n_dots":4.65,"target":"left","response":"left","rt":677.30000000075,"correct":true,"confidence":-1},{"trial_n":5,"n_dots":4.25,"target":"right","response":"right","rt":909,"correct":true,"confidence":-1},{"trial_n":6,"n_dots":4.25,"target":"left","response":"left","rt":758.10000000149,"correct":true,"confidence":-1},{"trial_n":7,"n_dots":3.85,"target":"right","response":"left","rt":915.09999999776,"correct":false,"confidence":-1},{"trial_n":8,"n_dots":4.05,"target":"right","response":"right","rt":1375.3000000007,"correct":true,"confidence":-1},{"trial_n":9,"n_dots":4.05,"target":"right","response":"right","rt":1300.0999999978,"correct":true,"confidence":-1},{"trial_n":10,"n_dots":3.85,"target":"left","response":"left","rt":701.09999999776,"correct":true,"confidence":-1},{"trial_n":11,"n_dots":3.85,"target":"left","response":"left","rt":871.59999999776,"correct":true,"confidence":-1},{"trial_n":12,"n_dots":3.65,"target":"left","response":"left","rt":610.60000000149,"correct":true,"confidence":-1},{"trial_n":13,"n_dots":3.65,"target":"right","response":"right","rt":676.30000000075,"correct":true,"confidence":-1},{"trial_n":14,"n_dots":3.55,"target":"left","response":"left","rt":636.19999999925,"correct":true,"confidence":-1},{"trial_n":15,"n_dots":3.55,"target":"right","response":"right","rt":964,"correct":true,"confidence":-1},{"trial_n":16,"n_dots":3.45,"target":"left","response":"left","rt":756.5,"correct":true,"confidence":-1},{"trial_n":17,"n_dots":3.45,"target":"right","response":"left","rt":783.5,"correct":false,"confidence":-1},{"trial_n":18,"n_dots":3.55,"target":"left","response":"left","rt":520.30000000075,"correct":true,"confidence":-1},{"trial_n":19,"n_dots":3.55,"target":"right","response":"right","rt":719.5,"correct":true,"confidence":-1},{"trial_n":20,"n_dots":3.45,"target":"left","response":"left","rt":605.39999999851,"correct":true,"confidence":-1},{"trial_n":21,"n_dots":3.45,"target":"right","response":"left","rt":1011.3999999985,"correct":false,"confidence":-1},{"trial_n":22,"n_dots":3.55,"target":"left","response":"left","rt":901.39999999851,"correct":true,"confidence":-1},{"trial_n":23,"n_dots":3.55,"target":"left","response":"left","rt":553.89999999851,"correct":true,"confidence":-1},{"trial_n":24,"n_dots":3.45,"target":"left","response":"left","rt":842.60000000149,"correct":true,"confidence":-1},{"trial_n":25,"n_dots":3.45,"target":"right","response":"right","rt":609.59999999776,"correct":true,"confidence":-1},{"trial_n":26,"n_dots":3.35,"target":"right","response":"left","rt":597.80000000075,"correct":false,"confidence":-1},{"trial_n":27,"n_dots":3.45,"target":"left","response":"left","rt":739.30000000075,"correct":true,"confidence":5},{"trial_n":28,"n_dots":3.45,"target":"left","response":"left","rt":333.09999999776,"correct":true,"confidence":5},{"trial_n":29,"n_dots":3.35,"target":"right","response":"right","rt":1096.8000000007,"correct":true,"confidence":5},{"trial_n":30,"n_dots":3.35,"target":"right","response":"right","rt":950.19999999925,"correct":true,"confidence":3},{"trial_n":31,"n_dots":3.25,"target":"left","response":"right","rt":1267.3000000007,"correct":false,"confidence":3},{"trial_n":32,"n_dots":3.35,"target":"right","response":"right","rt":814.19999999925,"correct":true,"confidence":3},{"trial_n":33,"n_dots":3.35,"target":"left","response":"left","rt":2051.8999999985,"correct":true,"confidence":2},{"trial_n":34,"n_dots":3.25,"target":"left","response":"left","rt":1120.9000000022,"correct":true,"confidence":2},{"trial_n":35,"n_dots":3.25,"target":"right","response":"left","rt":1026.0999999978,"correct":false,"confidence":4},{"trial_n":36,"n_dots":3.35,"target":"left","response":"left","rt":957.09999999776,"correct":true,"confidence":3},{"trial_n":37,"n_dots":3.35,"target":"left","response":"left","rt":1154.1999999993,"correct":true,"confidence":3},{"trial_n":38,"n_dots":3.25,"target":"left","response":"left","rt":683.30000000075,"correct":true,"confidence":5},{"trial_n":39,"n_dots":3.25,"target":"right","response":"right","rt":1048.8000000007,"correct":true,"confidence":4},{"trial_n":40,"n_dots":3.15,"target":"left","response":"left","rt":744.89999999851,"correct":true,"confidence":4},{"trial_n":41,"n_dots":3.15,"target":"right","response":"left","rt":1346.8999999985,"correct":false,"confidence":3},{"trial_n":42,"n_dots":3.25,"target":"right","response":"right","rt":1749.0999999978,"correct":true,"confidence":2},{"trial_n":43,"n_dots":3.25,"target":"right","response":"right","rt":2620.1999999993,"correct":true,"confidence":4},{"trial_n":44,"n_dots":3.15,"target":"right","response":"right","rt":922,"correct":true,"confidence":5},{"trial_n":45,"n_dots":3.15,"target":"left","response":"left","rt":710.80000000075,"correct":true,"confidence":5},{"trial_n":46,"n_dots":3.05,"target":"right","response":"left","rt":1568.5999999978,"correct":false,"confidence":1},{"trial_n":47,"n_dots":3.15,"target":"left","response":"left","rt":686.89999999851,"correct":true,"confidence":5},{"trial_n":48,"n_dots":3.15,"target":"right","response":"right","rt":1032.799999997,"correct":true,"confidence":3},{"trial_n":49,"n_dots":3.05,"target":"right","response":"left","rt":2922.8000000007,"correct":false,"confidence":2},{"trial_n":50,"n_dots":3.15,"target":"left","response":"right","rt":1131.200000003,"correct":false,"confidence":3},{"trial_n":51,"n_dots":3.25,"target":"right","response":"left","rt":1689.3000000007,"correct":false,"confidence":2},{"trial_n":52,"n_dots":3.35,"target":"right","response":"left","rt":2381.4000000022,"correct":false,"confidence":1},{"trial_n":53,"n_dots":3.45,"target":"left","response":"left","rt":923.29999999702,"correct":true,"confidence":4},{"trial_n":54,"n_dots":3.45,"target":"right","response":"right","rt":1059.5,"correct":true,"confidence":3},{"trial_n":55,"n_dots":3.35,"target":"left","response":"left","rt":786,"correct":true,"confidence":3},{"trial_n":56,"n_dots":3.35,"target":"right","response":"right","rt":947.80000000075,"correct":true,"confidence":4},{"trial_n":57,"n_dots":3.25,"target":"left","response":"left","rt":2426.8000000007,"correct":true,"confidence":2},{"trial_n":58,"n_dots":3.25,"target":"right","response":"right","rt":823.60000000149,"correct":true,"confidence":5},{"trial_n":59,"n_dots":3.15,"target":"right","response":"right","rt":1730.9000000022,"correct":true,"confidence":5},{"trial_n":60,"n_dots":3.15,"target":"right","response":"right","rt":840.39999999851,"correct":true,"confidence":4},{"trial_n":61,"n_dots":3.05,"target":"right","response":"right","rt":1509.3000000007,"correct":true,"confidence":4},{"trial_n":62,"n_dots":3.05,"target":"right","response":"right","rt":945.19999999925,"correct":true,"confidence":3},{"trial_n":63,"n_dots":2.95,"target":"left","response":"left","rt":855.89999999851,"correct":true,"confidence":5},{"trial_n":64,"n_dots":2.95,"target":"right","response":"right","rt":560.90000000224,"correct":true,"confidence":4},{"trial_n":65,"n_dots":2.85,"target":"right","response":"left","rt":4666.1000000015,"correct":false,"confidence":1},{"trial_n":66,"n_dots":2.95,"target":"right","response":"right","rt":496,"correct":true,"confidence":3},{"trial_n":67,"n_dots":2.95,"target":"left","response":"right","rt":3881.299999997,"correct":false,"confidence":3},{"trial_n":68,"n_dots":3.05,"target":"right","response":"right","rt":768.20000000298,"correct":true,"confidence":3},{"trial_n":69,"n_dots":3.05,"target":"left","response":"left","rt":1379.5,"correct":true,"confidence":2},{"trial_n":70,"n_dots":2.95,"target":"left","response":"right","rt":889.10000000149,"correct":false,"confidence":3},{"trial_n":71,"n_dots":3.05,"target":"right","response":"right","rt":1260.5,"correct":true,"confidence":4},{"trial_n":72,"n_dots":3.05,"target":"left","response":"right","rt":1202.8000000007,"correct":false,"confidence":3},{"trial_n":73,"n_dots":3.15,"target":"right","response":"right","rt":1002.1000000015,"correct":true,"confidence":3},{"trial_n":74,"n_dots":3.15,"target":"right","response":"right","rt":885.60000000149,"correct":true,"confidence":4},{"trial_n":75,"n_dots":3.05,"target":"left","response":"right","rt":1373.1000000015,"correct":false,"confidence":4},{"trial_n":76,"n_dots":3.15,"target":"right","response":"left","rt":1207,"correct":false,"confidence":3},{"trial_n":77,"n_dots":3.25,"target":"right","response":"right","rt":1461.3999999985,"correct":true,"confidence":3},{"trial_n":78,"n_dots":3.25,"target":"right","response":"right","rt":1185.3000000007,"correct":true,"confidence":2},{"trial_n":79,"n_dots":3.15,"target":"right","response":"right","rt":2587.8000000007,"correct":true,"confidence":3},{"trial_n":80,"n_dots":3.15,"target":"left","response":"left","rt":1080.8000000007,"correct":true,"confidence":4},{"trial_n":81,"n_dots":3.05,"target":"left","response":"right","rt":1032.4000000022,"correct":false,"confidence":3},{"trial_n":82,"n_dots":3.15,"target":"left","response":"left","rt":859.5,"correct":true,"confidence":3},{"trial_n":83,"n_dots":3.15,"target":"left","response":"right","rt":2895.5,"correct":false,"confidence":4},{"trial_n":84,"n_dots":3.25,"target":"left","response":"left","rt":828.69999999925,"correct":true,"confidence":4},{"trial_n":85,"n_dots":3.25,"target":"left","response":"left","rt":973.89999999851,"correct":true,"confidence":5},{"trial_n":86,"n_dots":3.15,"target":"right","response":"left","rt":1873.8000000007,"correct":false,"confidence":2},{"trial_n":87,"n_dots":3.25,"target":"left","response":"right","rt":3233.1000000015,"correct":false,"confidence":4},{"trial_n":88,"n_dots":3.35,"target":"left","response":"left","rt":943.40000000224,"correct":true,"confidence":3},{"trial_n":89,"n_dots":3.35,"target":"left","response":"right","rt":3467.5,"correct":false,"confidence":2},{"trial_n":90,"n_dots":3.45,"target":"left","response":"left","rt":1368,"correct":true,"confidence":2},{"trial_n":91,"n_dots":3.45,"target":"right","response":"right","rt":774,"correct":true,"confidence":5},{"trial_n":92,"n_dots":3.35,"target":"left","response":"left","rt":2381.3999999985,"correct":true,"confidence":3},{"trial_n":93,"n_dots":3.35,"target":"left","response":"left","rt":2813.700000003,"correct":true,"confidence":2},{"trial_n":94,"n_dots":3.25,"target":"right","response":"right","rt":750.69999999925,"correct":true,"confidence":5},{"trial_n":95,"n_dots":3.25,"target":"left","response":"right","rt":1964.8999999985,"correct":false,"confidence":3},{"trial_n":96,"n_dots":3.35,"target":"right","response":"right","rt":770.19999999925,"correct":true,"confidence":5},{"trial_n":97,"n_dots":3.35,"target":"left","response":"left","rt":831,"correct":true,"confidence":5},{"trial_n":98,"n_dots":3.25,"target":"right","response":"right","rt":1060.700000003,"correct":true,"confidence":5},{"trial_n":99,"n_dots":3.25,"target":"right","response":"right","rt":1710.8000000007,"correct":true,"confidence":4},{"trial_n":100,"n_dots":3.15,"target":"left","response":"left","rt":877.09999999776,"correct":true,"confidence":5},{"trial_n":101,"n_dots":3.15,"target":"left","response":"right","rt":5349.6999999993,"correct":false,"confidence":3},{"trial_n":102,"n_dots":3.25,"target":"right","response":"right","rt":890.5,"correct":true,"confidence":5},{"trial_n":103,"n_dots":3.25,"target":"right","response":"right","rt":1745,"correct":true,"confidence":5},{"trial_n":104,"n_dots":3.15,"target":"left","response":"right","rt":1939.8000000007,"correct":false,"confidence":5},{"trial_n":105,"n_dots":3.25,"target":"left","response":"left","rt":816.5,"correct":true,"confidence":5},{"trial_n":106,"n_dots":3.25,"target":"left","response":"left","rt":1837.700000003,"correct":true,"confidence":2},{"trial_n":107,"n_dots":3.15,"target":"left","response":"right","rt":1286.1999999993,"correct":false,"confidence":3},{"trial_n":108,"n_dots":3.25,"target":"left","response":"left","rt":819.30000000075,"correct":true,"confidence":4},{"trial_n":109,"n_dots":3.25,"target":"left","response":"right","rt":1856.299999997,"correct":false,"confidence":1},{"trial_n":110,"n_dots":3.35,"target":"right","response":"right","rt":1894.1999999993,"correct":true,"confidence":2},{"trial_n":111,"n_dots":3.35,"target":"left","response":"left","rt":1347.8000000007,"correct":true,"confidence":2},{"trial_n":112,"n_dots":3.25,"target":"left","response":"left","rt":1303.6999999993,"correct":true,"confidence":4},{"trial_n":113,"n_dots":3.25,"target":"left","response":"left","rt":2085.5,"correct":true,"confidence":2},{"trial_n":114,"n_dots":3.15,"target":"right","response":"right","rt":1267.1000000015,"correct":true,"confidence":3},{"trial_n":115,"n_dots":3.15,"target":"right","response":"right","rt":1283.6999999993,"correct":true,"confidence":3},{"trial_n":116,"n_dots":3.05,"target":"right","response":"left","rt":1719.6000000015,"correct":false,"confidence":4},{"trial_n":117,"n_dots":3.15,"target":"right","response":"right","rt":1981.8000000007,"correct":true,"confidence":1},{"trial_n":118,"n_dots":3.15,"target":"left","response":"left","rt":1603.8000000007,"correct":true,"confidence":1},{"trial_n":119,"n_dots":3.05,"target":"right","response":"right","rt":806.60000000149,"correct":true,"confidence":5},{"trial_n":120,"n_dots":3.05,"target":"right","response":"right","rt":657.30000000075,"correct":true,"confidence":5},{"trial_n":121,"n_dots":2.95,"target":"left","response":"left","rt":532.90000000224,"correct":true,"confidence":4},{"trial_n":122,"n_dots":2.95,"target":"right","response":"right","rt":822.70000000298,"correct":true,"confidence":4},{"trial_n":123,"n_dots":2.85,"target":"right","response":"right","rt":1189.3999999985,"correct":true,"confidence":3},{"trial_n":124,"n_dots":2.85,"target":"right","response":"right","rt":1627.1999999993,"correct":true,"confidence":5},{"trial_n":125,"n_dots":2.75,"target":"right","response":"left","rt":1544,"correct":false,"confidence":2},{"trial_n":126,"n_dots":2.85,"target":"left","response":"left","rt":3138.5,"correct":true,"confidence":2},{"trial_n":127,"n_dots":2.85,"target":"right","response":"right","rt":763.69999999925,"correct":true,"confidence":5},{"trial_n":128,"n_dots":2.75,"target":"left","response":"right","rt":2049.3000000007,"correct":false,"confidence":2},{"trial_n":129,"n_dots":2.85,"target":"right","response":"left","rt":5398.8000000007,"correct":false,"confidence":2},{"trial_n":130,"n_dots":2.95,"target":"left","response":"right","rt":974.5,"correct":false,"confidence":4},{"trial_n":131,"n_dots":3.05,"target":"right","response":"right","rt":1592.6000000015,"correct":true,"confidence":4},{"trial_n":132,"n_dots":3.05,"target":"left","response":"right","rt":1792.5,"correct":false,"confidence":3},{"trial_n":133,"n_dots":3.15,"target":"right","response":"left","rt":1590.3000000007,"correct":false,"confidence":3},{"trial_n":134,"n_dots":3.25,"target":"left","response":"left","rt":2506.6000000015,"correct":true,"confidence":1},{"trial_n":135,"n_dots":3.25,"target":"left","response":"right","rt":3521,"correct":false,"confidence":1},{"trial_n":136,"n_dots":3.35,"target":"left","response":"left","rt":11082.600000001,"correct":true,"confidence":1},{"trial_n":137,"n_dots":3.35,"target":"right","response":"right","rt":1494.3999999985,"correct":true,"confidence":4},{"trial_n":138,"n_dots":3.25,"target":"right","response":"left","rt":2521.299999997,"correct":false,"confidence":1},{"trial_n":139,"n_dots":3.35,"target":"right","response":"right","rt":1044.8999999985,"correct":true,"confidence":4},{"trial_n":140,"n_dots":3.35,"target":"left","response":"left","rt":1796.8000000007,"correct":true,"confidence":3},{"trial_n":141,"n_dots":3.25,"target":"right","response":"right","rt":2289.5,"correct":true,"confidence":2},{"trial_n":142,"n_dots":3.25,"target":"left","response":"left","rt":1080.1000000015,"correct":true,"confidence":3},{"trial_n":143,"n_dots":3.15,"target":"right","response":"right","rt":903,"correct":true,"confidence":4},{"trial_n":144,"n_dots":3.15,"target":"left","response":"right","rt":1086.8000000007,"correct":false,"confidence":3},{"trial_n":145,"n_dots":3.25,"target":"right","response":"left","rt":1798.1000000015,"correct":false,"confidence":1},{"trial_n":146,"n_dots":3.35,"target":"right","response":"right","rt":986.30000000075,"correct":true,"confidence":4},{"trial_n":147,"n_dots":3.35,"target":"left","response":"left","rt":1269.200000003,"correct":true,"confidence":3},{"trial_n":148,"n_dots":3.25,"target":"right","response":"right","rt":640.39999999851,"correct":true,"confidence":5},{"trial_n":149,"n_dots":3.25,"target":"right","response":"right","rt":904.60000000149,"correct":true,"confidence":4},{"trial_n":150,"n_dots":3.15,"target":"left","response":"left","rt":11367.699999999,"correct":true,"confidence":1},{"trial_n":151,"n_dots":3.15,"target":"left","response":"right","rt":3126.8000000007,"correct":false,"confidence":2},{"trial_n":152,"n_dots":3.25,"target":"right","response":"right","rt":945.09999999776,"correct":true,"confidence":1},{"trial_n":153,"n_dots":3.25,"target":"left","response":"left","rt":1023.6999999993,"correct":true,"confidence":5},{"trial_n":154,"n_dots":3.15,"target":"right","response":"right","rt":895.89999999851,"correct":true,"confidence":5},{"trial_n":155,"n_dots":3.15,"target":"left","response":"right","rt":1368.1000000015,"correct":false,"confidence":3},{"trial_n":156,"n_dots":3.25,"target":"left","response":"left","rt":1576.3999999985,"correct":true,"confidence":2},{"trial_n":157,"n_dots":3.25,"target":"left","response":"right","rt":959.39999999851,"correct":false,"confidence":5},{"trial_n":158,"n_dots":3.35,"target":"right","response":"right","rt":2162.3000000007,"correct":true,"confidence":3},{"trial_n":159,"n_dots":3.35,"target":"right","response":"right","rt":880,"correct":true,"confidence":4},{"trial_n":160,"n_dots":3.25,"target":"right","response":"left","rt":1218.5999999978,"correct":false,"confidence":3},{"trial_n":161,"n_dots":3.35,"target":"left","response":"left","rt":1527.1000000015,"correct":true,"confidence":5},{"trial_n":162,"n_dots":3.35,"target":"left","response":"left","rt":1022.1000000015,"correct":true,"confidence":4},{"trial_n":163,"n_dots":3.25,"target":"left","response":"left","rt":5494.8000000007,"correct":true,"confidence":1},{"trial_n":164,"n_dots":3.25,"target":"left","response":"right","rt":3112.3999999985,"correct":false,"confidence":3},{"trial_n":165,"n_dots":3.35,"target":"right","response":"right","rt":1269.1999999993,"correct":true,"confidence":3},{"trial_n":166,"n_dots":3.35,"target":"left","response":"left","rt":1468.8999999985,"correct":true,"confidence":2},{"trial_n":167,"n_dots":3.25,"target":"left","response":"left","rt":1328.700000003,"correct":true,"confidence":2},{"trial_n":168,"n_dots":3.25,"target":"left","response":"right","rt":1474.3000000007,"correct":false,"confidence":2},{"trial_n":169,"n_dots":3.35,"target":"left","response":"left","rt":1054.6000000015,"correct":true,"confidence":4},{"trial_n":170,"n_dots":3.35,"target":"right","response":"right","rt":1086.3999999985,"correct":true,"confidence":3},{"trial_n":171,"n_dots":3.25,"target":"left","response":"right","rt":1223.6999999993,"correct":false,"confidence":2},{"trial_n":172,"n_dots":3.35,"target":"right","response":"right","rt":1587.3999999985,"correct":true,"confidence":2},{"trial_n":173,"n_dots":3.35,"target":"left","response":"left","rt":1104.5,"correct":true,"confidence":4},{"trial_n":174,"n_dots":3.25,"target":"left","response":"right","rt":2052.6999999993,"correct":false,"confidence":2},{"trial_n":175,"n_dots":3.35,"target":"right","response":"right","rt":1293.6999999993,"correct":true,"confidence":3},{"trial_n":176,"n_dots":3.35,"target":"right","response":"right","rt":850.89999999851,"correct":true,"confidence":5},{"trial_n":177,"n_dots":3.25,"target":"left","response":"left","rt":4547.3999999985,"correct":true,"confidence":2},{"trial_n":178,"n_dots":3.25,"target":"right","response":"right","rt":938.69999999925,"correct":true,"confidence":3},{"trial_n":179,"n_dots":3.15,"target":"right","response":"right","rt":1488.6000000015,"correct":true,"confidence":2},{"trial_n":180,"n_dots":3.15,"target":"right","response":"left","rt":2777,"correct":false,"confidence":1},{"trial_n":181,"n_dots":3.25,"target":"left","response":"right","rt":2913.5999999978,"correct":false,"confidence":1},{"trial_n":182,"n_dots":3.35,"target":"left","response":"left","rt":1532.5,"correct":true,"confidence":3},{"trial_n":183,"n_dots":3.35,"target":"left","response":"right","rt":2093.3999999985,"correct":false,"confidence":2},{"trial_n":184,"n_dots":3.45,"target":"right","response":"right","rt":1322.4000000022,"correct":true,"confidence":2},{"trial_n":185,"n_dots":3.45,"target":"left","response":"left","rt":1303.3000000007,"correct":true,"confidence":3},{"trial_n":186,"n_dots":3.35,"target":"right","response":"left","rt":1463.1999999993,"correct":false,"confidence":1},{"trial_n":187,"n_dots":3.45,"target":"left","response":"left","rt":1982.1999999993,"correct":true,"confidence":2},{"trial_n":188,"n_dots":3.45,"target":"right","response":"right","rt":820.90000000224,"correct":true,"confidence":3},{"trial_n":189,"n_dots":3.35,"target":"right","response":"right","rt":1501.4000000022,"correct":true,"confidence":4},{"trial_n":190,"n_dots":3.35,"target":"right","response":"right","rt":1963.0999999978,"correct":true,"confidence":2},{"trial_n":191,"n_dots":3.25,"target":"right","response":"right","rt":1258.8999999985,"correct":true,"confidence":4},{"trial_n":192,"n_dots":3.25,"target":"right","response":"right","rt":840.10000000149,"correct":true,"confidence":3},{"trial_n":193,"n_dots":3.15,"target":"left","response":"left","rt":683.89999999851,"correct":true,"confidence":2},{"trial_n":194,"n_dots":3.15,"target":"left","response":"right","rt":1210.5,"correct":false,"confidence":1}]