[{"trial_n":1,"n_dots":4.25,"target":"left","response":"right","rt":1695.8999999994,"correct":false,"confidence":-1},{"trial_n":2,"n_dots":4.25,"target":"left","response":"left","rt":376,"correct":true,"confidence":-1},{"trial_n":3,"n_dots":4.25,"target":"left","response":"left","rt":423.60000000056,"correct":true,"confidence":-1},{"trial_n":4,"n_dots":3.85,"target":"left","response":"left","rt":457.90000000037,"correct":true,"confidence":-1},{"trial_n":5,"n_dots":3.85,"target":"right","response":"right","rt":208.79999999981,"correct":true,"confidence":-1},{"trial_n":6,"n_dots":3.45,"target":"left","response":"right","rt":204.79999999981,"correct":false,"confidence":-1},{"trial_n":7,"n_dots":3.85,"target":"right","response":"right","rt":226.60000000056,"correct":true,"confidence":-1},{"trial_n":8,"n_dots":3.85,"target":"right","response":"right","rt":582.79999999981,"correct":true,"confidence":-1},{"trial_n":9,"n_dots":3.65,"target":"left","response":"left","rt":427.5,"correct":true,"confidence":-1},{"trial_n":10,"n_dots":3.65,"target":"left","response":"left","rt":411.29999999981,"correct":true,"confidence":-1},{"trial_n":11,"n_dots":3.45,"target":"left","response":"right","rt":206.79999999981,"correct":false,"confidence":-1},{"trial_n":12,"n_dots":3.65,"target":"left","response":"left","rt":280.5,"correct":true,"confidence":-1},{"trial_n":13,"n_dots":3.65,"target":"right","response":"right","rt":116.60000000056,"correct":true,"confidence":-1},{"trial_n":14,"n_dots":3.55,"target":"right","response":"right","rt":266.70000000019,"correct":true,"confidence":-1},{"trial_n":15,"n_dots":3.55,"target":"right","response":"right","rt":178.59999999963,"correct":true,"confidence":-1},{"trial_n":16,"n_dots":3.45,"target":"right","response":"right","rt":210.5,"correct":true,"confidence":-1},{"trial_n":17,"n_dots":3.45,"target":"left","response":"left","rt":230.79999999981,"correct":true,"confidence":-1},{"trial_n":18,"n_dots":3.35,"target":"right","response":"right","rt":161.60000000056,"correct":true,"confidence":-1},{"trial_n":19,"n_dots":3.35,"target":"right","response":"left","rt":784.79999999981,"correct":false,"confidence":-1},{"trial_n":20,"n_dots":3.45,"target":"left","response":"right","rt":1605,"correct":false,"confidence":-1},{"trial_n":21,"n_dots":3.55,"target":"right","response":"right","rt":334.20000000019,"correct":true,"confidence":-1},{"trial_n":22,"n_dots":3.55,"target":"right","response":"right","rt":470.09999999963,"correct":true,"confidence":-1},{"trial_n":23,"n_dots":3.45,"target":"left","response":"left","rt":151.60000000056,"correct":true,"confidence":-1},{"trial_n":24,"n_dots":3.45,"target":"right","response":"right","rt":66.700000000186,"correct":true,"confidence":-1},{"trial_n":25,"n_dots":3.35,"target":"left","response":"left","rt":1404.8999999994,"correct":true,"confidence":-1},{"trial_n":26,"n_dots":3.35,"target":"right","response":"right","rt":350.19999999925,"correct":true,"confidence":-1},{"trial_n":27,"n_dots":3.25,"target":"right","response":"right","rt":363.79999999981,"correct":true,"confidence":4},{"trial_n":28,"n_dots":3.25,"target":"left","response":"left","rt":400.69999999925,"correct":true,"confidence":4},{"trial_n":29,"n_dots":3.15,"target":"left","response":"left","rt":458.5,"correct":true,"confidence":5},{"trial_n":30,"n_dots":3.15,"target":"right","response":"left","rt":265.5,"correct":false,"confidence":4},{"trial_n":31,"n_dots":3.25,"target":"right","response":"right","rt":401.40000000037,"correct":true,"confidence":3},{"trial_n":32,"n_dots":3.25,"target":"left","response":"left","rt":248.39999999944,"correct":true,"confidence":5},{"trial_n":33,"n_dots":3.15,"target":"left","response":"left","rt":238.40000000037,"correct":true,"confidence":4},{"trial_n":34,"n_dots":3.15,"target":"right","response":"left","rt":497.69999999925,"correct":false,"confidence":4},{"trial_n":35,"n_dots":3.25,"target":"left","response":"right","rt":286.60000000056,"correct":false,"confidence":3},{"trial_n":36,"n_dots":3.35,"target":"left","response":"left","rt":389.10000000056,"correct":true,"confidence":3},{"trial_n":37,"n_dots":3.35,"target":"right","response":"right","rt":407,"correct":true,"confidence":3},{"trial_n":38,"n_dots":3.25,"target":"left","response":"right","rt":415.09999999963,"correct":false,"confidence":4},{"trial_n":39,"n_dots":3.35,"target":"right","response":"left","rt":426.90000000037,"correct":false,"confidence":4},{"trial_n":40,"n_dots":3.45,"target":"left","response":"right","rt":493,"correct":false,"confidence":4},{"trial_n":41,"n_dots":3.55,"target":"right","response":"right","rt":576.70000000019,"correct":true,"confidence":5},{"trial_n":42,"n_dots":3.55,"target":"right","response":"right","rt":632.40000000037,"correct":true,"confidence":4},{"trial_n":43,"n_dots":3.45,"target":"left","response":"left","rt":427.90000000037,"correct":true,"confidence":3},{"trial_n":44,"n_dots":3.45,"target":"left","response":"right","rt":685.90000000037,"correct":false,"confidence":4},{"trial_n":45,"n_dots":3.55,"target":"left","response":"left","rt":487.10000000056,"correct":true,"confidence":5},{"trial_n":46,"n_dots":3.55,"target":"left","response":"left","rt":518.90000000037,"correct":true,"confidence":5},{"trial_n":47,"n_dots":3.45,"target":"left","response":"left","rt":366.20000000019,"correct":true,"confidence":6},{"trial_n":48,"n_dots":3.45,"target":"left","response":"left","rt":235.90000000037,"correct":true,"confidence":4},{"trial_n":49,"n_dots":3.35,"target":"right","response":"right","rt":215.70000000019,"correct":true,"confidence":5},{"trial_n":50,"n_dots":3.35,"target":"left","response":"right","rt":664.70000000019,"correct":false,"confidence":2},{"trial_n":51,"n_dots":3.45,"target":"left","response":"left","rt":362.70000000019,"correct":true,"confidence":5},{"trial_n":52,"n_dots":3.45,"target":"right","response":"left","rt":392.5,"correct":false,"confidence":3},{"trial_n":53,"n_dots":3.55,"target":"right","response":"right","rt":442.5,"correct":true,"confidence":4},{"trial_n":54,"n_dots":3.55,"target":"left","response":"left","rt":280.20000000019,"correct":true,"confidence":5},{"trial_n":55,"n_dots":3.45,"target":"left","response":"left","rt":358.90000000037,"correct":true,"confidence":4},{"trial_n":56,"n_dots":3.45,"target":"left","response":"left","rt":262.40000000037,"correct":true,"confidence":5},{"trial_n":57,"n_dots":3.35,"target":"right","response":"right","rt":674.80000000075,"correct":true,"confidence":5},{"trial_n":58,"n_dots":3.35,"target":"left","response":"left","rt":546.80000000075,"correct":true,"confidence":4},{"trial_n":59,"n_dots":3.25,"target":"right","response":"right","rt":443.70000000019,"correct":true,"confidence":5},{"trial_n":60,"n_dots":3.25,"target":"right","response":"left","rt":376.5,"correct":false,"confidence":5},{"trial_n":61,"n_dots":3.35,"target":"right","response":"right","rt":417.70000000019,"correct":true,"confidence":4},{"trial_n":62,"n_dots":3.35,"target":"right","response":"right","rt":593.10000000056,"correct":true,"confidence":5},{"trial_n":63,"n_dots":3.25,"target":"right","response":"right","rt":338.70000000019,"correct":true,"confidence":4},{"trial_n":64,"n_dots":3.25,"target":"left","response":"left","rt":1815.5,"correct":true,"confidence":4},{"trial_n":65,"n_dots":3.15,"target":"left","response":"left","rt":1116.6000000006,"correct":true,"confidence":5},{"trial_n":66,"n_dots":3.15,"target":"right","response":"right","rt":224.90000000037,"correct":true,"confidence":5},{"trial_n":67,"n_dots":3.05,"target":"left","response":"right","rt":844.39999999944,"correct":false,"confidence":4},{"trial_n":68,"n_dots":3.15,"target":"left","response":"left","rt":225.79999999981,"correct":true,"confidence":5},{"trial_n":69,"n_dots":3.15,"target":"right","response":"right","rt":664,"correct":true,"confidence":4},{"trial_n":70,"n_dots":3.05,"target":"left","response":"left","rt":173.59999999963,"correct":true,"confidence":5},{"trial_n":71,"n_dots":3.05,"target":"left","response":"left","rt":194.70000000019,"correct":true,"confidence":5},{"trial_n":72,"n_dots":2.95,"target":"right","response":"right","rt":757.80000000075,"correct":true,"confidence":4},{"trial_n":73,"n_dots":2.95,"target":"left","response":"left","rt":313.79999999981,"correct":true,"confidence":5},{"trial_n":74,"n_dots":2.85,"target":"right","response":"right","rt":384,"correct":true,"confidence":4},{"trial_n":75,"n_dots":2.85,"target":"left","response":"left","rt":156.09999999963,"correct":true,"confidence":5},{"trial_n":76,"n_dots":2.75,"target":"right","response":"left","rt":302.29999999981,"correct":false,"confidence":5},{"trial_n":77,"n_dots":2.85,"target":"right","response":"left","rt":147.69999999925,"correct":false,"confidence":6},{"trial_n":78,"n_dots":2.95,"target":"right","response":"left","rt":339.89999999944,"correct":false,"confidence":4},{"trial_n":79,"n_dots":3.05,"target":"left","response":"left","rt":614.19999999925,"correct":true,"confidence":4},{"trial_n":80,"n_dots":3.05,"target":"left","response":"left","rt":377.90000000037,"correct":true,"confidence":4},{"trial_n":81,"n_dots":2.95,"target":"left","response":"right","rt":23.200000000186,"correct":false,"confidence":5},{"trial_n":82,"n_dots":3.05,"target":"right","response":"right","rt":218.90000000037,"correct":true,"confidence":4},{"trial_n":83,"n_dots":3.05,"target":"left","response":"left","rt":453.69999999925,"correct":true,"confidence":4},{"trial_n":84,"n_dots":2.95,"target":"right","response":"left","rt":628.29999999981,"correct":false,"confidence":5},{"trial_n":85,"n_dots":3.05,"target":"right","response":"right","rt":34,"correct":true,"confidence":5},{"trial_n":86,"n_dots":3.05,"target":"right","response":"right","rt":294.60000000056,"correct":true,"confidence":5},{"trial_n":87,"n_dots":2.95,"target":"left","response":"right","rt":572.10000000056,"correct":false,"confidence":4},{"trial_n":88,"n_dots":3.05,"target":"right","response":"left","rt":305,"correct":false,"confidence":4},{"trial_n":89,"n_dots":3.15,"target":"left","response":"left","rt":435.09999999963,"correct":true,"confidence":5},{"trial_n":90,"n_dots":3.15,"target":"left","response":"left","rt":181.40000000037,"correct":true,"confidence":5},{"trial_n":91,"n_dots":3.05,"target":"left","response":"left","rt":341.19999999925,"correct":true,"confidence":5},{"trial_n":92,"n_dots":3.05,"target":"left","response":"left","rt":213.69999999925,"correct":true,"confidence":4},{"trial_n":93,"n_dots":2.95,"target":"right","response":"left","rt":704.70000000019,"correct":false,"confidence":3},{"trial_n":94,"n_dots":3.05,"target":"left","response":"right","rt":432.5,"correct":false,"confidence":4},{"trial_n":95,"n_dots":3.15,"target":"left","response":"left","rt":597.5,"correct":true,"confidence":5},{"trial_n":96,"n_dots":3.15,"target":"left","response":"left","rt":378.79999999981,"correct":true,"confidence":5},{"trial_n":97,"n_dots":3.05,"target":"left","response":"right","rt":429.70000000019,"correct":false,"confidence":4},{"trial_n":98,"n_dots":3.15,"target":"right","response":"right","rt":246.29999999981,"correct":true,"confidence":5},{"trial_n":99,"n_dots":3.15,"target":"right","response":"right","rt":524.70000000019,"correct":true,"confidence":4},{"trial_n":100,"n_dots":3.05,"target":"left","response":"left","rt":461.79999999981,"correct":true,"confidence":5},{"trial_n":101,"n_dots":3.05,"target":"left","response":"left","rt":186.40000000037,"correct":true,"confidence":5},{"trial_n":102,"n_dots":2.95,"target":"right","response":"right","rt":261.90000000037,"correct":true,"confidence":4},{"trial_n":103,"n_dots":2.95,"target":"left","response":"left","rt":2883.8999999994,"correct":true,"confidence":1},{"trial_n":104,"n_dots":2.85,"target":"right","response":"right","rt":189.70000000019,"correct":true,"confidence":3},{"trial_n":105,"n_dots":2.85,"target":"right","response":"left","rt":371,"correct":false,"confidence":4},{"trial_n":106,"n_dots":2.95,"target":"left","response":"right","rt":343.70000000019,"correct":false,"confidence":4},{"trial_n":107,"n_dots":3.05,"target":"left","response":"left","rt":6681.4000000004,"correct":true,"confidence":4},{"trial_n":108,"n_dots":3.05,"target":"right","response":"left","rt":423,"correct":false,"confidence":4},{"trial_n":109,"n_dots":3.15,"target":"right","response":"right","rt":140.20000000019,"correct":true,"confidence":4},{"trial_n":110,"n_dots":3.15,"target":"left","response":"left","rt":339.5,"correct":true,"confidence":5},{"trial_n":111,"n_dots":3.05,"target":"left","response":"left","rt":196.60000000056,"correct":true,"confidence":4},{"trial_n":112,"n_dots":3.05,"target":"right","response":"right","rt":288.59999999963,"correct":true,"confidence":4},{"trial_n":113,"n_dots":2.95,"target":"right","response":"right","rt":95.700000000186,"correct":true,"confidence":5},{"trial_n":114,"n_dots":2.95,"target":"left","response":"left","rt":298.20000000019,"correct":true,"confidence":5},{"trial_n":115,"n_dots":2.85,"target":"right","response":"right","rt":421.70000000019,"correct":true,"confidence":5},{"trial_n":116,"n_dots":2.85,"target":"left","response":"left","rt":325.40000000037,"correct":true,"confidence":4},{"trial_n":117,"n_dots":2.75,"target":"right","response":"left","rt":273.79999999981,"correct":false,"confidence":5},{"trial_n":118,"n_dots":2.85,"target":"right","response":"left","rt":462.59999999963,"correct":false,"confidence":4},{"trial_n":119,"n_dots":2.95,"target":"left","response":"left","rt":389.20000000019,"correct":true,"confidence":4},{"trial_n":120,"n_dots":2.95,"target":"right","response":"right","rt":516.80000000075,"correct":true,"confidence":4},{"trial_n":121,"n_dots":2.85,"target":"left","response":"left","rt":337.5,"correct":true,"confidence":5},{"trial_n":122,"n_dots":2.85,"target":"left","response":"right","rt":433.90000000037,"correct":false,"confidence":4},{"trial_n":123,"n_dots":2.95,"target":"right","response":"right","rt":11791.2,"correct":true,"confidence":2},{"trial_n":124,"n_dots":2.95,"target":"left","response":"right","rt":259.30000000075,"correct":false,"confidence":2},{"trial_n":125,"n_dots":3.05,"target":"left","response":"left","rt":66.900000000373,"correct":true,"confidence":5},{"trial_n":126,"n_dots":3.05,"target":"left","response":"left","rt":456.5,"correct":true,"confidence":4},{"trial_n":127,"n_dots":2.95,"target":"right","response":"right","rt":194.89999999944,"correct":true,"confidence":3},{"trial_n":128,"n_dots":2.95,"target":"right","response":"right","rt":616.69999999925,"correct":true,"confidence":4},{"trial_n":129,"n_dots":2.85,"target":"right","response":"right","rt":266.90000000037,"correct":true,"confidence":4},{"trial_n":130,"n_dots":2.85,"target":"left","response":"left","rt":324.70000000019,"correct":true,"confidence":3},{"trial_n":131,"n_dots":2.75,"target":"left","response":"left","rt":281.10000000056,"correct":true,"confidence":4},{"trial_n":132,"n_dots":2.75,"target":"right","response":"left","rt":214.90000000037,"correct":false,"confidence":4},{"trial_n":133,"n_dots":2.85,"target":"right","response":"right","rt":556.29999999981,"correct":true,"confidence":3},{"trial_n":134,"n_dots":2.85,"target":"right","response":"left","rt":294.09999999963,"correct":false,"confidence":4},{"trial_n":135,"n_dots":2.95,"target":"left","response":"left","rt":158.60000000056,"correct":true,"confidence":4},{"trial_n":136,"n_dots":2.95,"target":"right","response":"right","rt":259.79999999981,"correct":true,"confidence":4},{"trial_n":137,"n_dots":2.85,"target":"right","response":"left","rt":191,"correct":false,"confidence":5},{"trial_n":138,"n_dots":2.95,"target":"right","response":"right","rt":292.70000000019,"correct":true,"confidence":4},{"trial_n":139,"n_dots":2.95,"target":"right","response":"right","rt":408.69999999925,"correct":true,"confidence":3},{"trial_n":140,"n_dots":2.85,"target":"left","response":"left","rt":294.09999999963,"correct":true,"confidence":4},{"trial_n":141,"n_dots":2.85,"target":"right","response":"right","rt":269.09999999963,"correct":true,"confidence":4},{"trial_n":142,"n_dots":2.75,"target":"right","response":"left","rt":541.20000000019,"correct":false,"confidence":4},{"trial_n":143,"n_dots":2.85,"target":"left","response":"left","rt":416,"correct":true,"confidence":5},{"trial_n":144,"n_dots":2.85,"target":"left","response":"left","rt":192.29999999981,"correct":true,"confidence":4},{"trial_n":145,"n_dots":2.75,"target":"right","response":"left","rt":235.90000000037,"correct":false,"confidence":3},{"trial_n":146,"n_dots":2.85,"target":"right","response":"right","rt":489.29999999981,"correct":true,"confidence":4},{"trial_n":147,"n_dots":2.85,"target":"left","response":"left","rt":306.79999999981,"correct":true,"confidence":5},{"trial_n":148,"n_dots":2.75,"target":"right","response":"right","rt":415.5,"correct":true,"confidence":3},{"trial_n":149,"n_dots":2.75,"target":"right","response":"right","rt":442.59999999963,"correct":true,"confidence":3},{"trial_n":150,"n_dots":2.65,"target":"right","response":"left","rt":402.59999999963,"correct":false,"confidence":4},{"trial_n":151,"n_dots":2.75,"target":"left","response":"left","rt":384.70000000019,"correct":true,"confidence":5},{"trial_n":152,"n_dots":2.75,"target":"left","response":"left","rt":633.5,"correct":true,"confidence":3},{"trial_n":153,"n_dots":2.65,"target":"left","response":"right","rt":397.90000000037,"correct":false,"confidence":4},{"trial_n":154,"n_dots":2.75,"target":"left","response":"right","rt":231,"correct":false,"confidence":5},{"trial_n":155,"n_dots":2.85,"target":"right","response":"left","rt":429.90000000037,"correct":false,"confidence":4},{"trial_n":156,"n_dots":2.95,"target":"left","response":"right","rt":397,"correct":false,"confidence":3},{"trial_n":157,"n_dots":3.05,"target":"right","response":"right","rt":335.20000000019,"correct":true,"confidence":4},{"trial_n":158,"n_dots":3.05,"target":"right","response":"right","rt":344.90000000037,"correct":true,"confidence":5},{"trial_n":159,"n_dots":2.95,"target":"right","response":"right","rt":692.09999999963,"correct":true,"confidence":3},{"trial_n":160,"n_dots":2.95,"target":"left","response":"left","rt":485.09999999963,"correct":true,"confidence":3},{"trial_n":161,"n_dots":2.85,"target":"left","response":"left","rt":243.40000000037,"correct":true,"confidence":5},{"trial_n":162,"n_dots":2.85,"target":"left","response":"left","rt":371.70000000019,"correct":true,"confidence":5},{"trial_n":163,"n_dots":2.75,"target":"left","response":"left","rt":368.60000000056,"correct":true,"confidence":4},{"trial_n":164,"n_dots":2.75,"target":"left","response":"left","rt":446.59999999963,"correct":true,"confidence":4},{"trial_n":165,"n_dots":2.65,"target":"left","response":"left","rt":427.79999999981,"correct":true,"confidence":4},{"trial_n":166,"n_dots":2.65,"target":"right","response":"right","rt":276.09999999963,"correct":true,"confidence":3},{"trial_n":167,"n_dots":2.55,"target":"left","response":"left","rt":328.80000000075,"correct":true,"confidence":5},{"trial_n":168,"n_dots":2.55,"target":"right","response":"left","rt":380.70000000019,"correct":false,"confidence":4},{"trial_n":169,"n_dots":2.65,"target":"right","response":"left","rt":443.09999999963,"correct":false,"confidence":5},{"trial_n":170,"n_dots":2.75,"target":"left","response":"left","rt":500,"correct":true,"confidence":5},{"trial_n":171,"n_dots":2.75,"target":"right","response":"left","rt":766.5,"correct":false,"confidence":4},{"trial_n":172,"n_dots":2.85,"target":"left","response":"right","rt":624,"correct":false,"confidence":3},{"trial_n":173,"n_dots":2.95,"target":"right","response":"left","rt":288.69999999925,"correct":false,"confidence":4},{"trial_n":174,"n_dots":3.05,"target":"right","response":"left","rt":442.90000000037,"correct":false,"confidence":5},{"trial_n":175,"n_dots":3.15,"target":"left","response":"left","rt":783.79999999981,"correct":true,"confidence":3},{"trial_n":176,"n_dots":3.15,"target":"right","response":"left","rt":855,"correct":false,"confidence":3},{"trial_n":177,"n_dots":3.25,"target":"right","response":"left","rt":578.70000000019,"correct":false,"confidence":4},{"trial_n":178,"n_dots":3.35,"target":"right","response":"right","rt":457.79999999981,"correct":true,"confidence":3},{"trial_n":179,"n_dots":3.35,"target":"left","response":"left","rt":300.40000000037,"correct":true,"confidence":5},{"trial_n":180,"n_dots":3.25,"target":"left","response":"left","rt":295.5,"correct":true,"confidence":5},{"trial_n":181,"n_dots":3.25,"target":"right","response":"right","rt":278.59999999963,"correct":true,"confidence":3},{"trial_n":182,"n_dots":3.15,"target":"left","response":"left","rt":154.90000000037,"correct":true,"confidence":4},{"trial_n":183,"n_dots":3.15,"target":"right","response":"right","rt":266.89999999944,"correct":true,"confidence":3},{"trial_n":184,"n_dots":3.05,"target":"left","response":"left","rt":169.40000000037,"correct":true,"confidence":5},{"trial_n":185,"n_dots":3.05,"target":"right","response":"right","rt":273.10000000056,"correct":true,"confidence":3},{"trial_n":186,"n_dots":2.95,"target":"right","response":"left","rt":339.79999999981,"correct":false,"confidence":5},{"trial_n":187,"n_dots":3.05,"target":"right","response":"right","rt":407.29999999981,"correct":true,"confidence":3},{"trial_n":188,"n_dots":3.05,"target":"left","response":"left","rt":754.60000000056,"correct":true,"confidence":3},{"trial_n":189,"n_dots":2.95,"target":"right","response":"right","rt":473.70000000019,"correct":true,"confidence":2},{"trial_n":190,"n_dots":2.95,"target":"right","response":"right","rt":444.60000000056,"correct":true,"confidence":4},{"trial_n":191,"n_dots":2.85,"target":"right","response":"left","rt":550.10000000056,"correct":false,"confidence":3},{"trial_n":192,"n_dots":2.95,"target":"left","response":"left","rt":606.90000000037,"correct":true,"confidence":3},{"trial_n":193,"n_dots":2.95,"target":"right","response":"left","rt":878.29999999981,"correct":false,"confidence":3},{"trial_n":194,"n_dots":3.05,"target":"right","response":"right","rt":236.60000000056,"correct":true,"confidence":4}]