[{"trial_n":1,"n_dots":4.25,"target":"left","response":"left","rt":6197.5,"correct":true,"confidence":-1},{"trial_n":2,"n_dots":4.25,"target":"right","response":"right","rt":488.59999990463,"correct":true,"confidence":-1},{"trial_n":3,"n_dots":3.85,"target":"left","response":"left","rt":605.10000014305,"correct":true,"confidence":-1},{"trial_n":4,"n_dots":3.85,"target":"left","response":"left","rt":292.70000004768,"correct":true,"confidence":-1},{"trial_n":5,"n_dots":3.45,"target":"right","response":"right","rt":167.80000019073,"correct":true,"confidence":-1},{"trial_n":6,"n_dots":3.45,"target":"left","response":"left","rt":348.90000009537,"correct":true,"confidence":-1},{"trial_n":7,"n_dots":3.05,"target":"left","response":"right","rt":506.19999980927,"correct":false,"confidence":-1},{"trial_n":8,"n_dots":3.25,"target":"left","response":"left","rt":375.39999985695,"correct":true,"confidence":-1},{"trial_n":9,"n_dots":3.25,"target":"left","response":"right","rt":356.10000014305,"correct":false,"confidence":-1},{"trial_n":10,"n_dots":3.45,"target":"left","response":"left","rt":355,"correct":true,"confidence":-1},{"trial_n":11,"n_dots":3.45,"target":"right","response":"right","rt":414.59999990463,"correct":true,"confidence":-1},{"trial_n":12,"n_dots":3.25,"target":"left","response":"right","rt":936.10000014305,"correct":false,"confidence":-1},{"trial_n":13,"n_dots":3.35,"target":"left","response":"right","rt":1149.2999999523,"correct":false,"confidence":-1},{"trial_n":14,"n_dots":3.45,"target":"left","response":"left","rt":333.20000004768,"correct":true,"confidence":-1},{"trial_n":15,"n_dots":3.45,"target":"right","response":"left","rt":777.90000009537,"correct":false,"confidence":-1},{"trial_n":16,"n_dots":3.55,"target":"right","response":"right","rt":254.29999995232,"correct":true,"confidence":-1},{"trial_n":17,"n_dots":3.55,"target":"left","response":"left","rt":126.59999990463,"correct":true,"confidence":-1},{"trial_n":18,"n_dots":3.45,"target":"left","response":"left","rt":268.20000004768,"correct":true,"confidence":-1},{"trial_n":19,"n_dots":3.45,"target":"right","response":"right","rt":78.799999952316,"correct":true,"confidence":-1},{"trial_n":20,"n_dots":3.35,"target":"right","response":"right","rt":56.599999904633,"correct":true,"confidence":-1},{"trial_n":21,"n_dots":3.35,"target":"left","response":"left","rt":453.29999995232,"correct":true,"confidence":-1},{"trial_n":22,"n_dots":3.25,"target":"right","response":"right","rt":454.20000004768,"correct":true,"confidence":-1},{"trial_n":23,"n_dots":3.25,"target":"right","response":"right","rt":293.09999990463,"correct":true,"confidence":-1},{"trial_n":24,"n_dots":3.15,"target":"right","response":"right","rt":188.5,"correct":true,"confidence":-1},{"trial_n":25,"n_dots":3.15,"target":"right","response":"right","rt":296.09999990463,"correct":true,"confidence":-1},{"trial_n":26,"n_dots":3.05,"target":"right","response":"right","rt":248.09999990463,"correct":true,"confidence":-1},{"trial_n":27,"n_dots":3.05,"target":"right","response":"left","rt":11919.400000095,"correct":false,"confidence":2},{"trial_n":28,"n_dots":3.15,"target":"right","response":"right","rt":875.20000004768,"correct":true,"confidence":4},{"trial_n":29,"n_dots":3.15,"target":"right","response":"right","rt":577.39999985695,"correct":true,"confidence":3},{"trial_n":30,"n_dots":3.05,"target":"left","response":"right","rt":449.29999995232,"correct":false,"confidence":4},{"trial_n":31,"n_dots":3.15,"target":"right","response":"right","rt":495.5,"correct":true,"confidence":3},{"trial_n":32,"n_dots":3.15,"target":"right","response":"right","rt":880.09999990463,"correct":true,"confidence":5},{"trial_n":33,"n_dots":3.05,"target":"left","response":"right","rt":567.89999985695,"correct":false,"confidence":4},{"trial_n":34,"n_dots":3.15,"target":"left","response":"right","rt":1540.7999999523,"correct":false,"confidence":3},{"trial_n":35,"n_dots":3.25,"target":"right","response":"right","rt":184.70000004768,"correct":true,"confidence":3},{"trial_n":36,"n_dots":3.25,"target":"right","response":"right","rt":612.90000009537,"correct":true,"confidence":4},{"trial_n":37,"n_dots":3.15,"target":"right","response":"right","rt":1109.2000000477,"correct":true,"confidence":2},{"trial_n":38,"n_dots":3.15,"target":"right","response":"right","rt":418.09999990463,"correct":true,"confidence":1},{"trial_n":39,"n_dots":3.05,"target":"right","response":"left","rt":2134.8999998569,"correct":false,"confidence":2},{"trial_n":40,"n_dots":3.15,"target":"right","response":"right","rt":644.29999995232,"correct":true,"confidence":3},{"trial_n":41,"n_dots":3.15,"target":"left","response":"left","rt":250.40000009537,"correct":true,"confidence":3},{"trial_n":42,"n_dots":3.05,"target":"right","response":"right","rt":1780,"correct":true,"confidence":1},{"trial_n":43,"n_dots":3.05,"target":"left","response":"left","rt":282.70000004768,"correct":true,"confidence":2},{"trial_n":44,"n_dots":2.95,"target":"right","response":"right","rt":77.799999952316,"correct":true,"confidence":3},{"trial_n":45,"n_dots":2.95,"target":"right","response":"right","rt":168.90000009537,"correct":true,"confidence":5},{"trial_n":46,"n_dots":2.85,"target":"right","response":"right","rt":639.20000004768,"correct":true,"confidence":4},{"trial_n":47,"n_dots":2.85,"target":"left","response":"left","rt":1193.2000000477,"correct":true,"confidence":2},{"trial_n":48,"n_dots":2.75,"target":"left","response":"left","rt":1017.8000001907,"correct":true,"confidence":3},{"trial_n":49,"n_dots":2.75,"target":"right","response":"right","rt":2547.0999999046,"correct":true,"confidence":3},{"trial_n":50,"n_dots":2.65,"target":"left","response":"right","rt":1126.0999999046,"correct":false,"confidence":3},{"trial_n":51,"n_dots":2.75,"target":"left","response":"left","rt":748.5,"correct":true,"confidence":4},{"trial_n":52,"n_dots":2.75,"target":"right","response":"right","rt":1250.2999999523,"correct":true,"confidence":4},{"trial_n":53,"n_dots":2.65,"target":"left","response":"right","rt":973.60000014305,"correct":false,"confidence":4},{"trial_n":54,"n_dots":2.75,"target":"right","response":"left","rt":2873.5,"correct":false,"confidence":1},{"trial_n":55,"n_dots":2.85,"target":"right","response":"right","rt":789.90000009537,"correct":true,"confidence":4},{"trial_n":56,"n_dots":2.85,"target":"left","response":"left","rt":458.29999995232,"correct":true,"confidence":5},{"trial_n":57,"n_dots":2.75,"target":"left","response":"left","rt":759.5,"correct":true,"confidence":3},{"trial_n":58,"n_dots":2.75,"target":"left","response":"left","rt":656.19999980927,"correct":true,"confidence":5},{"trial_n":59,"n_dots":2.65,"target":"left","response":"left","rt":655.70000004768,"correct":true,"confidence":2},{"trial_n":60,"n_dots":2.65,"target":"left","response":"right","rt":1020.4000000954,"correct":false,"confidence":3},{"trial_n":61,"n_dots":2.75,"target":"right","response":"left","rt":2370.9000000954,"correct":false,"confidence":1},{"trial_n":62,"n_dots":2.85,"target":"right","response":"left","rt":1928.5,"correct":false,"confidence":2},{"trial_n":63,"n_dots":2.95,"target":"left","response":"right","rt":1774.7999999523,"correct":false,"confidence":1},{"trial_n":64,"n_dots":3.05,"target":"right","response":"left","rt":1772.0999999046,"correct":false,"confidence":2},{"trial_n":65,"n_dots":3.15,"target":"left","response":"left","rt":621.59999990463,"correct":true,"confidence":5},{"trial_n":66,"n_dots":3.15,"target":"left","response":"left","rt":941.59999990463,"correct":true,"confidence":4},{"trial_n":67,"n_dots":3.05,"target":"left","response":"left","rt":1587.7999999523,"correct":true,"confidence":1},{"trial_n":68,"n_dots":3.05,"target":"left","response":"left","rt":586.20000004768,"correct":true,"confidence":5},{"trial_n":69,"n_dots":2.95,"target":"right","response":"right","rt":857.90000009537,"correct":true,"confidence":2},{"trial_n":70,"n_dots":2.95,"target":"right","response":"right","rt":535.79999995232,"correct":true,"confidence":3},{"trial_n":71,"n_dots":2.85,"target":"left","response":"left","rt":490.70000004768,"correct":true,"confidence":5},{"trial_n":72,"n_dots":2.85,"target":"left","response":"left","rt":462.09999990463,"correct":true,"confidence":5},{"trial_n":73,"n_dots":2.75,"target":"right","response":"right","rt":810.09999990463,"correct":true,"confidence":3},{"trial_n":74,"n_dots":2.75,"target":"left","response":"left","rt":377,"correct":true,"confidence":4},{"trial_n":75,"n_dots":2.65,"target":"left","response":"left","rt":659.5,"correct":true,"confidence":4},{"trial_n":76,"n_dots":2.65,"target":"left","response":"left","rt":615.69999980927,"correct":true,"confidence":3},{"trial_n":77,"n_dots":2.55,"target":"right","response":"right","rt":778,"correct":true,"confidence":1},{"trial_n":78,"n_dots":2.55,"target":"left","response":"left","rt":300.59999990463,"correct":true,"confidence":5},{"trial_n":79,"n_dots":2.45,"target":"left","response":"left","rt":1932.7000000477,"correct":true,"confidence":2},{"trial_n":80,"n_dots":2.45,"target":"right","response":"right","rt":649,"correct":true,"confidence":4},{"trial_n":81,"n_dots":2.35,"target":"left","response":"left","rt":634.79999995232,"correct":true,"confidence":3},{"trial_n":82,"n_dots":2.35,"target":"right","response":"left","rt":5980.0999999046,"correct":false,"confidence":1},{"trial_n":83,"n_dots":2.45,"target":"left","response":"left","rt":966.40000009537,"correct":true,"confidence":1},{"trial_n":84,"n_dots":2.45,"target":"right","response":"right","rt":587.10000014305,"correct":true,"confidence":4},{"trial_n":85,"n_dots":2.35,"target":"right","response":"right","rt":3438.2999999523,"correct":true,"confidence":3},{"trial_n":86,"n_dots":2.35,"target":"right","response":"right","rt":1181.7000000477,"correct":true,"confidence":4},{"trial_n":87,"n_dots":2.25,"target":"left","response":"right","rt":2450.3999998569,"correct":false,"confidence":1},{"trial_n":88,"n_dots":2.35,"target":"left","response":"left","rt":1635,"correct":true,"confidence":2},{"trial_n":89,"n_dots":2.35,"target":"right","response":"left","rt":838.20000004768,"correct":false,"confidence":4},{"trial_n":90,"n_dots":2.45,"target":"right","response":"right","rt":831,"correct":true,"confidence":1},{"trial_n":91,"n_dots":2.45,"target":"right","response":"right","rt":770.5,"correct":true,"confidence":4},{"trial_n":92,"n_dots":2.35,"target":"right","response":"right","rt":2878.5999999046,"correct":true,"confidence":1},{"trial_n":93,"n_dots":2.35,"target":"left","response":"left","rt":641.60000014305,"correct":true,"confidence":5},{"trial_n":94,"n_dots":2.25,"target":"right","response":"right","rt":821.59999990463,"correct":true,"confidence":2},{"trial_n":95,"n_dots":2.25,"target":"left","response":"left","rt":2345.9000000954,"correct":true,"confidence":1},{"trial_n":96,"n_dots":2.15,"target":"right","response":"right","rt":1899.0999999046,"correct":true,"confidence":1},{"trial_n":97,"n_dots":2.15,"target":"right","response":"right","rt":855.40000009537,"correct":true,"confidence":2},{"trial_n":98,"n_dots":2.05,"target":"right","response":"left","rt":823.20000004768,"correct":false,"confidence":1},{"trial_n":99,"n_dots":2.15,"target":"left","response":"right","rt":827.39999985695,"correct":false,"confidence":2},{"trial_n":100,"n_dots":2.25,"target":"right","response":"left","rt":1100.8999998569,"correct":false,"confidence":3},{"trial_n":101,"n_dots":2.35,"target":"right","response":"left","rt":986.39999985695,"correct":false,"confidence":3},{"trial_n":102,"n_dots":2.45,"target":"right","response":"right","rt":616.90000009537,"correct":true,"confidence":5},{"trial_n":103,"n_dots":2.45,"target":"right","response":"left","rt":1809.2000000477,"correct":false,"confidence":2},{"trial_n":104,"n_dots":2.55,"target":"left","response":"left","rt":463.89999985695,"correct":true,"confidence":5},{"trial_n":105,"n_dots":2.55,"target":"left","response":"right","rt":1073.1000001431,"correct":false,"confidence":3},{"trial_n":106,"n_dots":2.65,"target":"right","response":"right","rt":1376,"correct":true,"confidence":2},{"trial_n":107,"n_dots":2.65,"target":"right","response":"right","rt":1157.4000000954,"correct":true,"confidence":4},{"trial_n":108,"n_dots":2.55,"target":"left","response":"left","rt":912.20000004768,"correct":true,"confidence":4},{"trial_n":109,"n_dots":2.55,"target":"right","response":"right","rt":407.39999985695,"correct":true,"confidence":5},{"trial_n":110,"n_dots":2.45,"target":"left","response":"left","rt":645.29999995232,"correct":true,"confidence":4},{"trial_n":111,"n_dots":2.45,"target":"right","response":"left","rt":856.29999995232,"correct":false,"confidence":3},{"trial_n":112,"n_dots":2.55,"target":"left","response":"left","rt":1637.2000000477,"correct":true,"confidence":2},{"trial_n":113,"n_dots":2.55,"target":"right","response":"right","rt":1157.2999999523,"correct":true,"confidence":3},{"trial_n":114,"n_dots":2.45,"target":"right","response":"left","rt":1718.0999999046,"correct":false,"confidence":1},{"trial_n":115,"n_dots":2.55,"target":"left","response":"left","rt":794.60000014305,"correct":true,"confidence":5},{"trial_n":116,"n_dots":2.55,"target":"right","response":"left","rt":997.5,"correct":false,"confidence":1},{"trial_n":117,"n_dots":2.65,"target":"left","response":"left","rt":1842.5,"correct":true,"confidence":1},{"trial_n":118,"n_dots":2.65,"target":"right","response":"right","rt":1664.3000001907,"correct":true,"confidence":3},{"trial_n":119,"n_dots":2.55,"target":"left","response":"left","rt":1188.3000001907,"correct":true,"confidence":4},{"trial_n":120,"n_dots":2.55,"target":"right","response":"right","rt":1060.0999999046,"correct":true,"confidence":3},{"trial_n":121,"n_dots":2.45,"target":"right","response":"left","rt":898.09999990463,"correct":false,"confidence":4},{"trial_n":122,"n_dots":2.55,"target":"right","response":"right","rt":372,"correct":true,"confidence":5},{"trial_n":123,"n_dots":2.55,"target":"left","response":"right","rt":455.20000004768,"correct":false,"confidence":6},{"trial_n":124,"n_dots":2.65,"target":"left","response":"left","rt":668,"correct":true,"confidence":5},{"trial_n":125,"n_dots":2.65,"target":"right","response":"right","rt":683.40000009537,"correct":true,"confidence":4},{"trial_n":126,"n_dots":2.55,"target":"right","response":"left","rt":1098.2999999523,"correct":false,"confidence":3},{"trial_n":127,"n_dots":2.65,"target":"left","response":"left","rt":838.70000004768,"correct":true,"confidence":3},{"trial_n":128,"n_dots":2.65,"target":"right","response":"left","rt":1551,"correct":false,"confidence":2},{"trial_n":129,"n_dots":2.75,"target":"left","response":"left","rt":1340.7000000477,"correct":true,"confidence":4},{"trial_n":130,"n_dots":2.75,"target":"right","response":"right","rt":725.90000009537,"correct":true,"confidence":4},{"trial_n":131,"n_dots":2.65,"target":"right","response":"right","rt":2082.7000000477,"correct":true,"confidence":1},{"trial_n":132,"n_dots":2.65,"target":"right","response":"right","rt":1376.5999999046,"correct":true,"confidence":1},{"trial_n":133,"n_dots":2.55,"target":"left","response":"left","rt":1297.5999999046,"correct":true,"confidence":3},{"trial_n":134,"n_dots":2.55,"target":"left","response":"left","rt":564,"correct":true,"confidence":4},{"trial_n":135,"n_dots":2.45,"target":"left","response":"left","rt":1361,"correct":true,"confidence":2},{"trial_n":136,"n_dots":2.45,"target":"right","response":"left","rt":1557,"correct":false,"confidence":2},{"trial_n":137,"n_dots":2.55,"target":"right","response":"right","rt":2761.9000000954,"correct":true,"confidence":1},{"trial_n":138,"n_dots":2.55,"target":"right","response":"left","rt":1507.0999999046,"correct":false,"confidence":3},{"trial_n":139,"n_dots":2.65,"target":"right","response":"right","rt":744.80000019073,"correct":true,"confidence":4},{"trial_n":140,"n_dots":2.65,"target":"right","response":"right","rt":725.10000014305,"correct":true,"confidence":5},{"trial_n":141,"n_dots":2.55,"target":"right","response":"right","rt":771,"correct":true,"confidence":4},{"trial_n":142,"n_dots":2.55,"target":"left","response":"left","rt":976.29999995232,"correct":true,"confidence":3},{"trial_n":143,"n_dots":2.45,"target":"left","response":"left","rt":608.40000009537,"correct":true,"confidence":4},{"trial_n":144,"n_dots":2.45,"target":"left","response":"left","rt":978.20000004768,"correct":true,"confidence":3},{"trial_n":145,"n_dots":2.35,"target":"right","response":"left","rt":1087.5,"correct":false,"confidence":3},{"trial_n":146,"n_dots":2.45,"target":"left","response":"left","rt":1359.7999999523,"correct":true,"confidence":2},{"trial_n":147,"n_dots":2.45,"target":"left","response":"left","rt":609.20000004768,"correct":true,"confidence":2},{"trial_n":148,"n_dots":2.35,"target":"left","response":"right","rt":2434.8999998569,"correct":false,"confidence":1},{"trial_n":149,"n_dots":2.45,"target":"left","response":"left","rt":1017.2000000477,"correct":true,"confidence":1},{"trial_n":150,"n_dots":2.45,"target":"left","response":"right","rt":873.29999995232,"correct":false,"confidence":3},{"trial_n":151,"n_dots":2.55,"target":"left","response":"left","rt":788,"correct":true,"confidence":2},{"trial_n":152,"n_dots":2.55,"target":"left","response":"right","rt":1074.3000001907,"correct":false,"confidence":1},{"trial_n":153,"n_dots":2.65,"target":"right","response":"left","rt":1860.3000001907,"correct":false,"confidence":2},{"trial_n":154,"n_dots":2.75,"target":"left","response":"left","rt":1862.9000000954,"correct":true,"confidence":3},{"trial_n":155,"n_dots":2.75,"target":"left","response":"left","rt":637.40000009537,"correct":true,"confidence":4},{"trial_n":156,"n_dots":2.65,"target":"left","response":"left","rt":676.29999995232,"correct":true,"confidence":3},{"trial_n":157,"n_dots":2.65,"target":"left","response":"left","rt":1236,"correct":true,"confidence":1},{"trial_n":158,"n_dots":2.55,"target":"left","response":"left","rt":3860,"correct":true,"confidence":2},{"trial_n":159,"n_dots":2.55,"target":"left","response":"right","rt":376.29999995232,"correct":false,"confidence":4},{"trial_n":160,"n_dots":2.65,"target":"right","response":"right","rt":544.40000009537,"correct":true,"confidence":4},{"trial_n":161,"n_dots":2.65,"target":"left","response":"left","rt":512.5,"correct":true,"confidence":2},{"trial_n":162,"n_dots":2.55,"target":"left","response":"left","rt":661.20000004768,"correct":true,"confidence":3},{"trial_n":163,"n_dots":2.55,"target":"right","response":"right","rt":422.90000009537,"correct":true,"confidence":4},{"trial_n":164,"n_dots":2.45,"target":"left","response":"right","rt":626.69999980927,"correct":false,"confidence":3},{"trial_n":165,"n_dots":2.55,"target":"left","response":"right","rt":1194.4000000954,"correct":false,"confidence":3},{"trial_n":166,"n_dots":2.65,"target":"right","response":"right","rt":509.39999985695,"correct":true,"confidence":5},{"trial_n":167,"n_dots":2.65,"target":"right","response":"right","rt":597.70000004768,"correct":true,"confidence":5},{"trial_n":168,"n_dots":2.55,"target":"left","response":"left","rt":564.40000009537,"correct":true,"confidence":3},{"trial_n":169,"n_dots":2.55,"target":"left","response":"right","rt":551.09999990463,"correct":false,"confidence":3},{"trial_n":170,"n_dots":2.65,"target":"right","response":"left","rt":817.5,"correct":false,"confidence":2},{"trial_n":171,"n_dots":2.75,"target":"right","response":"right","rt":495.70000004768,"correct":true,"confidence":3},{"trial_n":172,"n_dots":2.75,"target":"right","response":"left","rt":575.79999995232,"correct":false,"confidence":4},{"trial_n":173,"n_dots":2.85,"target":"right","response":"left","rt":1057.5999999046,"correct":false,"confidence":2},{"trial_n":174,"n_dots":2.95,"target":"left","response":"right","rt":1627.7000000477,"correct":false,"confidence":2},{"trial_n":175,"n_dots":3.05,"target":"right","response":"right","rt":579.69999980927,"correct":true,"confidence":3},{"trial_n":176,"n_dots":3.05,"target":"left","response":"left","rt":745.90000009537,"correct":true,"confidence":3},{"trial_n":177,"n_dots":2.95,"target":"right","response":"right","rt":600.09999990463,"correct":true,"confidence":2},{"trial_n":178,"n_dots":2.95,"target":"left","response":"left","rt":304,"correct":true,"confidence":2},{"trial_n":179,"n_dots":2.85,"target":"left","response":"left","rt":438.89999985695,"correct":true,"confidence":5},{"trial_n":180,"n_dots":2.85,"target":"left","response":"left","rt":229.70000004768,"correct":true,"confidence":4},{"trial_n":181,"n_dots":2.75,"target":"left","response":"left","rt":440.20000004768,"correct":true,"confidence":4},{"trial_n":182,"n_dots":2.75,"target":"left","response":"right","rt":1477.6999998093,"correct":false,"confidence":1},{"trial_n":183,"n_dots":2.85,"target":"right","response":"left","rt":3344.9000000954,"correct":false,"confidence":1},{"trial_n":184,"n_dots":2.95,"target":"right","response":"right","rt":406,"correct":true,"confidence":3},{"trial_n":185,"n_dots":2.95,"target":"left","response":"left","rt":364.5,"correct":true,"confidence":4},{"trial_n":186,"n_dots":2.85,"target":"left","response":"right","rt":519.59999990463,"correct":false,"confidence":2},{"trial_n":187,"n_dots":2.95,"target":"right","response":"right","rt":539.89999985695,"correct":true,"confidence":3},{"trial_n":188,"n_dots":2.95,"target":"left","response":"left","rt":1159.0999999046,"correct":true,"confidence":1},{"trial_n":189,"n_dots":2.85,"target":"left","response":"left","rt":292.29999995232,"correct":true,"confidence":2},{"trial_n":190,"n_dots":2.85,"target":"right","response":"right","rt":676,"correct":true,"confidence":3},{"trial_n":191,"n_dots":2.75,"target":"right","response":"right","rt":600.29999995232,"correct":true,"confidence":3},{"trial_n":192,"n_dots":2.75,"target":"left","response":"left","rt":757.5,"correct":true,"confidence":1},{"trial_n":193,"n_dots":2.65,"target":"right","response":"right","rt":272.5,"correct":true,"confidence":4},{"trial_n":194,"n_dots":2.65,"target":"right","response":"left","rt":329.20000004768,"correct":false,"confidence":3}]