[{"trial_n":1,"n_dots":4.25,"target":"left","response":"left","rt":2391.2999999821,"correct":true,"confidence":-1},{"trial_n":2,"n_dots":4.25,"target":"right","response":"right","rt":1896.6000000238,"correct":true,"confidence":-1},{"trial_n":3,"n_dots":3.85,"target":"left","response":"left","rt":347,"correct":true,"confidence":-1},{"trial_n":4,"n_dots":3.85,"target":"left","response":"left","rt":292.69999998808,"correct":true,"confidence":-1},{"trial_n":5,"n_dots":3.45,"target":"right","response":"right","rt":381.19999998808,"correct":true,"confidence":-1},{"trial_n":6,"n_dots":3.45,"target":"right","response":"right","rt":407.70000001788,"correct":true,"confidence":-1},{"trial_n":7,"n_dots":3.05,"target":"right","response":"right","rt":438,"correct":true,"confidence":-1},{"trial_n":8,"n_dots":3.05,"target":"left","response":"left","rt":356.29999998212,"correct":true,"confidence":-1},{"trial_n":9,"n_dots":2.85,"target":"left","response":"left","rt":601.80000001192,"correct":true,"confidence":-1},{"trial_n":10,"n_dots":2.85,"target":"left","response":"left","rt":427.10000002384,"correct":true,"confidence":-1},{"trial_n":11,"n_dots":2.65,"target":"right","response":"left","rt":3446.8000000119,"correct":false,"confidence":-1},{"trial_n":12,"n_dots":2.85,"target":"right","response":"left","rt":361.69999998808,"correct":false,"confidence":-1},{"trial_n":13,"n_dots":2.95,"target":"left","response":"left","rt":962.90000000596,"correct":true,"confidence":-1},{"trial_n":14,"n_dots":2.95,"target":"right","response":"right","rt":351.69999998808,"correct":true,"confidence":-1},{"trial_n":15,"n_dots":2.85,"target":"right","response":"left","rt":339.60000002384,"correct":false,"confidence":-1},{"trial_n":16,"n_dots":2.95,"target":"right","response":"right","rt":274.10000002384,"correct":true,"confidence":-1},{"trial_n":17,"n_dots":2.95,"target":"left","response":"left","rt":382.59999999404,"correct":true,"confidence":-1},{"trial_n":18,"n_dots":2.85,"target":"left","response":"right","rt":352.69999998808,"correct":false,"confidence":-1},{"trial_n":19,"n_dots":2.95,"target":"left","response":"right","rt":480.30000001192,"correct":false,"confidence":-1},{"trial_n":20,"n_dots":3.05,"target":"left","response":"right","rt":517.90000000596,"correct":false,"confidence":-1},{"trial_n":21,"n_dots":3.15,"target":"right","response":"right","rt":312.60000002384,"correct":true,"confidence":-1},{"trial_n":22,"n_dots":3.15,"target":"left","response":"left","rt":310.90000000596,"correct":true,"confidence":-1},{"trial_n":23,"n_dots":3.05,"target":"left","response":"left","rt":296,"correct":true,"confidence":-1},{"trial_n":24,"n_dots":3.05,"target":"right","response":"right","rt":331.90000000596,"correct":true,"confidence":-1},{"trial_n":25,"n_dots":2.95,"target":"right","response":"left","rt":777.90000000596,"correct":false,"confidence":-1},{"trial_n":26,"n_dots":3.05,"target":"right","response":"right","rt":388.5,"correct":true,"confidence":-1},{"trial_n":27,"n_dots":3.05,"target":"left","response":"left","rt":271.5,"correct":true,"confidence":4},{"trial_n":28,"n_dots":2.95,"target":"left","response":"left","rt":2861.6999999881,"correct":true,"confidence":2},{"trial_n":29,"n_dots":2.95,"target":"left","response":"left","rt":589.90000000596,"correct":true,"confidence":5},{"trial_n":30,"n_dots":2.85,"target":"right","response":"right","rt":526,"correct":true,"confidence":3},{"trial_n":31,"n_dots":2.85,"target":"left","response":"left","rt":652.5,"correct":true,"confidence":4},{"trial_n":32,"n_dots":2.75,"target":"right","response":"left","rt":303.09999999404,"correct":false,"confidence":1},{"trial_n":33,"n_dots":2.85,"target":"left","response":"left","rt":376.60000002384,"correct":true,"confidence":5},{"trial_n":34,"n_dots":2.85,"target":"right","response":"right","rt":369.69999998808,"correct":true,"confidence":3},{"trial_n":35,"n_dots":2.75,"target":"left","response":"left","rt":306.40000000596,"correct":true,"confidence":3},{"trial_n":36,"n_dots":2.75,"target":"left","response":"left","rt":1222.7000000179,"correct":true,"confidence":1},{"trial_n":37,"n_dots":2.65,"target":"left","response":"right","rt":1089.1999999881,"correct":false,"confidence":3},{"trial_n":38,"n_dots":2.75,"target":"left","response":"right","rt":372,"correct":false,"confidence":3},{"trial_n":39,"n_dots":2.85,"target":"right","response":"right","rt":320.90000000596,"correct":true,"confidence":3},{"trial_n":40,"n_dots":2.85,"target":"right","response":"right","rt":237.90000000596,"correct":true,"confidence":1},{"trial_n":41,"n_dots":2.75,"target":"right","response":"right","rt":702.90000000596,"correct":true,"confidence":3},{"trial_n":42,"n_dots":2.75,"target":"right","response":"left","rt":579.40000000596,"correct":false,"confidence":3},{"trial_n":43,"n_dots":2.85,"target":"left","response":"left","rt":319,"correct":true,"confidence":5},{"trial_n":44,"n_dots":2.85,"target":"right","response":"right","rt":318.70000001788,"correct":true,"confidence":2},{"trial_n":45,"n_dots":2.75,"target":"left","response":"left","rt":344.59999999404,"correct":true,"confidence":5},{"trial_n":46,"n_dots":2.75,"target":"left","response":"left","rt":1.4000000059605,"correct":true,"confidence":6},{"trial_n":47,"n_dots":2.65,"target":"right","response":"left","rt":544.09999999404,"correct":false,"confidence":4},{"trial_n":48,"n_dots":2.75,"target":"right","response":"right","rt":1082.400000006,"correct":true,"confidence":3},{"trial_n":49,"n_dots":2.75,"target":"left","response":"left","rt":3.5999999940395,"correct":true,"confidence":5},{"trial_n":50,"n_dots":2.65,"target":"left","response":"left","rt":740.70000001788,"correct":true,"confidence":5},{"trial_n":51,"n_dots":2.65,"target":"left","response":"right","rt":372.40000000596,"correct":false,"confidence":3},{"trial_n":52,"n_dots":2.75,"target":"left","response":"left","rt":217.70000001788,"correct":true,"confidence":6},{"trial_n":53,"n_dots":2.75,"target":"left","response":"left","rt":440.60000002384,"correct":true,"confidence":6},{"trial_n":54,"n_dots":2.65,"target":"right","response":"right","rt":570.90000000596,"correct":true,"confidence":4},{"trial_n":55,"n_dots":2.65,"target":"left","response":"left","rt":61.59999999404,"correct":true,"confidence":4},{"trial_n":56,"n_dots":2.55,"target":"right","response":"left","rt":1346.599999994,"correct":false,"confidence":1},{"trial_n":57,"n_dots":2.65,"target":"left","response":"left","rt":347.40000000596,"correct":true,"confidence":3},{"trial_n":58,"n_dots":2.65,"target":"left","response":"left","rt":696.5,"correct":true,"confidence":1},{"trial_n":59,"n_dots":2.55,"target":"left","response":"left","rt":502,"correct":true,"confidence":6},{"trial_n":60,"n_dots":2.55,"target":"left","response":"left","rt":251.29999998212,"correct":true,"confidence":3},{"trial_n":61,"n_dots":2.45,"target":"right","response":"left","rt":197.69999998808,"correct":false,"confidence":4},{"trial_n":62,"n_dots":2.55,"target":"right","response":"left","rt":427.90000000596,"correct":false,"confidence":2},{"trial_n":63,"n_dots":2.65,"target":"right","response":"left","rt":554,"correct":false,"confidence":4},{"trial_n":64,"n_dots":2.75,"target":"right","response":"right","rt":641.69999998808,"correct":true,"confidence":4},{"trial_n":65,"n_dots":2.75,"target":"right","response":"right","rt":287.09999999404,"correct":true,"confidence":3},{"trial_n":66,"n_dots":2.65,"target":"left","response":"right","rt":1054.6999999881,"correct":false,"confidence":1},{"trial_n":67,"n_dots":2.75,"target":"right","response":"right","rt":65,"correct":true,"confidence":2},{"trial_n":68,"n_dots":2.75,"target":"right","response":"right","rt":466.40000000596,"correct":true,"confidence":5},{"trial_n":69,"n_dots":2.65,"target":"left","response":"left","rt":124.09999999404,"correct":true,"confidence":3},{"trial_n":70,"n_dots":2.65,"target":"left","response":"right","rt":362.09999999404,"correct":false,"confidence":4},{"trial_n":71,"n_dots":2.75,"target":"left","response":"left","rt":478,"correct":true,"confidence":3},{"trial_n":72,"n_dots":2.75,"target":"left","response":"right","rt":1118.1999999881,"correct":false,"confidence":3},{"trial_n":73,"n_dots":2.85,"target":"right","response":"left","rt":465,"correct":false,"confidence":2},{"trial_n":74,"n_dots":2.95,"target":"left","response":"left","rt":102.5,"correct":true,"confidence":6},{"trial_n":75,"n_dots":2.95,"target":"right","response":"left","rt":785.90000000596,"correct":false,"confidence":2},{"trial_n":76,"n_dots":3.05,"target":"right","response":"right","rt":375,"correct":true,"confidence":5},{"trial_n":77,"n_dots":3.05,"target":"right","response":"right","rt":372,"correct":true,"confidence":6},{"trial_n":78,"n_dots":2.95,"target":"right","response":"right","rt":632.09999999404,"correct":true,"confidence":2},{"trial_n":79,"n_dots":2.95,"target":"right","response":"right","rt":314.80000001192,"correct":true,"confidence":5},{"trial_n":80,"n_dots":2.85,"target":"left","response":"left","rt":309.90000000596,"correct":true,"confidence":6},{"trial_n":81,"n_dots":2.85,"target":"right","response":"right","rt":555.40000000596,"correct":true,"confidence":2},{"trial_n":82,"n_dots":2.75,"target":"right","response":"left","rt":291.09999999404,"correct":false,"confidence":2},{"trial_n":83,"n_dots":2.85,"target":"right","response":"right","rt":526,"correct":true,"confidence":3},{"trial_n":84,"n_dots":2.85,"target":"right","response":"left","rt":1219,"correct":false,"confidence":1},{"trial_n":85,"n_dots":2.95,"target":"right","response":"right","rt":723,"correct":true,"confidence":6},{"trial_n":86,"n_dots":2.95,"target":"right","response":"right","rt":500,"correct":true,"confidence":4},{"trial_n":87,"n_dots":2.85,"target":"left","response":"left","rt":347.09999999404,"correct":true,"confidence":5},{"trial_n":88,"n_dots":2.85,"target":"right","response":"right","rt":295.40000000596,"correct":true,"confidence":4},{"trial_n":89,"n_dots":2.75,"target":"left","response":"left","rt":307.79999998212,"correct":true,"confidence":5},{"trial_n":90,"n_dots":2.75,"target":"left","response":"left","rt":947,"correct":true,"confidence":3},{"trial_n":91,"n_dots":2.65,"target":"left","response":"left","rt":1703.900000006,"correct":true,"confidence":2},{"trial_n":92,"n_dots":2.65,"target":"right","response":"left","rt":3394.6999999881,"correct":false,"confidence":2},{"trial_n":93,"n_dots":2.75,"target":"left","response":"left","rt":615,"correct":true,"confidence":3},{"trial_n":94,"n_dots":2.75,"target":"left","response":"right","rt":601.40000000596,"correct":false,"confidence":3},{"trial_n":95,"n_dots":2.85,"target":"right","response":"right","rt":1364.1999999881,"correct":true,"confidence":4},{"trial_n":96,"n_dots":2.85,"target":"left","response":"left","rt":1172,"correct":true,"confidence":2},{"trial_n":97,"n_dots":2.75,"target":"left","response":"left","rt":850.90000000596,"correct":true,"confidence":4},{"trial_n":98,"n_dots":2.75,"target":"right","response":"right","rt":1445.5,"correct":true,"confidence":3},{"trial_n":99,"n_dots":2.65,"target":"right","response":"left","rt":667.19999998808,"correct":false,"confidence":4},{"trial_n":100,"n_dots":2.75,"target":"right","response":"right","rt":898.90000000596,"correct":true,"confidence":2},{"trial_n":101,"n_dots":2.75,"target":"right","response":"right","rt":471.69999998808,"correct":true,"confidence":4},{"trial_n":102,"n_dots":2.65,"target":"left","response":"left","rt":249.5,"correct":true,"confidence":6},{"trial_n":103,"n_dots":2.65,"target":"left","response":"left","rt":279.09999999404,"correct":true,"confidence":5},{"trial_n":104,"n_dots":2.55,"target":"right","response":"right","rt":897.40000000596,"correct":true,"confidence":3},{"trial_n":105,"n_dots":2.55,"target":"right","response":"left","rt":154.90000000596,"correct":false,"confidence":5},{"trial_n":106,"n_dots":2.65,"target":"right","response":"right","rt":344,"correct":true,"confidence":3},{"trial_n":107,"n_dots":2.65,"target":"left","response":"left","rt":323.90000000596,"correct":true,"confidence":4},{"trial_n":108,"n_dots":2.55,"target":"right","response":"right","rt":251.5,"correct":true,"confidence":2},{"trial_n":109,"n_dots":2.55,"target":"left","response":"left","rt":113.09999999404,"correct":true,"confidence":4},{"trial_n":110,"n_dots":2.45,"target":"left","response":"left","rt":725.69999998808,"correct":true,"confidence":3},{"trial_n":111,"n_dots":2.45,"target":"right","response":"right","rt":273.09999999404,"correct":true,"confidence":3},{"trial_n":112,"n_dots":2.35,"target":"left","response":"left","rt":341.09999999404,"correct":true,"confidence":3},{"trial_n":113,"n_dots":2.35,"target":"right","response":"left","rt":1322,"correct":false,"confidence":3},{"trial_n":114,"n_dots":2.45,"target":"right","response":"right","rt":428,"correct":true,"confidence":6},{"trial_n":115,"n_dots":2.45,"target":"right","response":"right","rt":580.40000000596,"correct":true,"confidence":5},{"trial_n":116,"n_dots":2.35,"target":"left","response":"left","rt":447.89999997616,"correct":true,"confidence":6},{"trial_n":117,"n_dots":2.35,"target":"left","response":"right","rt":355,"correct":false,"confidence":3},{"trial_n":118,"n_dots":2.45,"target":"right","response":"right","rt":321.90000000596,"correct":true,"confidence":5},{"trial_n":119,"n_dots":2.45,"target":"left","response":"left","rt":356.59999999404,"correct":true,"confidence":4},{"trial_n":120,"n_dots":2.35,"target":"right","response":"right","rt":576.90000000596,"correct":true,"confidence":4},{"trial_n":121,"n_dots":2.35,"target":"right","response":"left","rt":262.40000000596,"correct":false,"confidence":5},{"trial_n":122,"n_dots":2.45,"target":"left","response":"right","rt":605.70000001788,"correct":false,"confidence":3},{"trial_n":123,"n_dots":2.55,"target":"right","response":"right","rt":409.10000002384,"correct":true,"confidence":4},{"trial_n":124,"n_dots":2.55,"target":"left","response":"left","rt":302.79999998212,"correct":true,"confidence":5},{"trial_n":125,"n_dots":2.45,"target":"right","response":"right","rt":506.69999998808,"correct":true,"confidence":5},{"trial_n":126,"n_dots":2.45,"target":"left","response":"left","rt":220.90000000596,"correct":true,"confidence":5},{"trial_n":127,"n_dots":2.35,"target":"right","response":"right","rt":370.79999998212,"correct":true,"confidence":5},{"trial_n":128,"n_dots":2.35,"target":"left","response":"left","rt":694.19999998808,"correct":true,"confidence":4},{"trial_n":129,"n_dots":2.25,"target":"left","response":"left","rt":315.19999998808,"correct":true,"confidence":5},{"trial_n":130,"n_dots":2.25,"target":"left","response":"left","rt":344.30000001192,"correct":true,"confidence":4},{"trial_n":131,"n_dots":2.15,"target":"left","response":"left","rt":362.39999997616,"correct":true,"confidence":5},{"trial_n":132,"n_dots":2.15,"target":"left","response":"left","rt":302.40000000596,"correct":true,"confidence":2},{"trial_n":133,"n_dots":2.05,"target":"right","response":"right","rt":379.79999998212,"correct":true,"confidence":5},{"trial_n":134,"n_dots":2.05,"target":"left","response":"right","rt":340.90000000596,"correct":false,"confidence":5},{"trial_n":135,"n_dots":2.15,"target":"right","response":"right","rt":433.5,"correct":true,"confidence":5},{"trial_n":136,"n_dots":2.15,"target":"right","response":"left","rt":256,"correct":false,"confidence":5},{"trial_n":137,"n_dots":2.25,"target":"left","response":"right","rt":432.40000000596,"correct":false,"confidence":5},{"trial_n":138,"n_dots":2.35,"target":"right","response":"left","rt":332.30000001192,"correct":false,"confidence":4},{"trial_n":139,"n_dots":2.45,"target":"right","response":"right","rt":302,"correct":true,"confidence":4},{"trial_n":140,"n_dots":2.45,"target":"right","response":"left","rt":282.20000001788,"correct":false,"confidence":2},{"trial_n":141,"n_dots":2.55,"target":"right","response":"left","rt":162.89999997616,"correct":false,"confidence":5},{"trial_n":142,"n_dots":2.65,"target":"left","response":"right","rt":505.19999998808,"correct":false,"confidence":2},{"trial_n":143,"n_dots":2.75,"target":"right","response":"right","rt":337.19999998808,"correct":true,"confidence":2},{"trial_n":144,"n_dots":2.75,"target":"left","response":"left","rt":364.69999998808,"correct":true,"confidence":3},{"trial_n":145,"n_dots":2.65,"target":"left","response":"left","rt":327.80000001192,"correct":true,"confidence":2},{"trial_n":146,"n_dots":2.65,"target":"right","response":"left","rt":575.09999999404,"correct":false,"confidence":1},{"trial_n":147,"n_dots":2.75,"target":"right","response":"right","rt":316,"correct":true,"confidence":4},{"trial_n":148,"n_dots":2.75,"target":"right","response":"left","rt":203.59999999404,"correct":false,"confidence":1},{"trial_n":149,"n_dots":2.85,"target":"left","response":"left","rt":734.30000001192,"correct":true,"confidence":3},{"trial_n":150,"n_dots":2.85,"target":"left","response":"right","rt":261.29999998212,"correct":false,"confidence":3},{"trial_n":151,"n_dots":2.95,"target":"left","response":"left","rt":373.19999998808,"correct":true,"confidence":2},{"trial_n":152,"n_dots":2.95,"target":"left","response":"left","rt":350.59999999404,"correct":true,"confidence":1},{"trial_n":153,"n_dots":2.85,"target":"left","response":"right","rt":580.89999997616,"correct":false,"confidence":4},{"trial_n":154,"n_dots":2.95,"target":"right","response":"right","rt":503.19999998808,"correct":true,"confidence":1},{"trial_n":155,"n_dots":2.95,"target":"right","response":"right","rt":815.90000000596,"correct":true,"confidence":3},{"trial_n":156,"n_dots":2.85,"target":"right","response":"right","rt":456.90000000596,"correct":true,"confidence":2},{"trial_n":157,"n_dots":2.85,"target":"right","response":"right","rt":275,"correct":true,"confidence":6},{"trial_n":158,"n_dots":2.75,"target":"right","response":"right","rt":437.79999998212,"correct":true,"confidence":4},{"trial_n":159,"n_dots":2.75,"target":"right","response":"right","rt":302.30000001192,"correct":true,"confidence":4},{"trial_n":160,"n_dots":2.65,"target":"left","response":"left","rt":312.59999999404,"correct":true,"confidence":3},{"trial_n":161,"n_dots":2.65,"target":"right","response":"right","rt":345.5,"correct":true,"confidence":4},{"trial_n":162,"n_dots":2.55,"target":"right","response":"left","rt":296,"correct":false,"confidence":3},{"trial_n":163,"n_dots":2.65,"target":"right","response":"right","rt":261.80000001192,"correct":true,"confidence":4},{"trial_n":164,"n_dots":2.65,"target":"left","response":"left","rt":291.59999999404,"correct":true,"confidence":3},{"trial_n":165,"n_dots":2.55,"target":"right","response":"right","rt":329,"correct":true,"confidence":4},{"trial_n":166,"n_dots":2.55,"target":"left","response":"right","rt":309.60000002384,"correct":false,"confidence":4},{"trial_n":167,"n_dots":2.65,"target":"right","response":"right","rt":264,"correct":true,"confidence":5},{"trial_n":168,"n_dots":2.65,"target":"left","response":"left","rt":718.90000000596,"correct":true,"confidence":6},{"trial_n":169,"n_dots":2.55,"target":"right","response":"right","rt":911.40000000596,"correct":true,"confidence":1},{"trial_n":170,"n_dots":2.55,"target":"right","response":"right","rt":434.09999999404,"correct":true,"confidence":3},{"trial_n":171,"n_dots":2.45,"target":"left","response":"right","rt":470.80000001192,"correct":false,"confidence":2},{"trial_n":172,"n_dots":2.55,"target":"left","response":"left","rt":396.09999999404,"correct":true,"confidence":2},{"trial_n":173,"n_dots":2.55,"target":"left","response":"left","rt":387.80000001192,"correct":true,"confidence":4},{"trial_n":174,"n_dots":2.45,"target":"left","response":"left","rt":662.5,"correct":true,"confidence":2},{"trial_n":175,"n_dots":2.45,"target":"right","response":"right","rt":378.80000001192,"correct":true,"confidence":4},{"trial_n":176,"n_dots":2.35,"target":"right","response":"right","rt":1009.400000006,"correct":true,"confidence":3},{"trial_n":177,"n_dots":2.35,"target":"left","response":"right","rt":510.09999999404,"correct":false,"confidence":3},{"trial_n":178,"n_dots":2.45,"target":"left","response":"right","rt":472.80000001192,"correct":false,"confidence":2},{"trial_n":179,"n_dots":2.55,"target":"right","response":"right","rt":325.30000001192,"correct":true,"confidence":3},{"trial_n":180,"n_dots":2.55,"target":"left","response":"left","rt":880.5,"correct":true,"confidence":3},{"trial_n":181,"n_dots":2.45,"target":"left","response":"right","rt":239.59999999404,"correct":false,"confidence":3},{"trial_n":182,"n_dots":2.55,"target":"left","response":"left","rt":2214.5,"correct":true,"confidence":2},{"trial_n":183,"n_dots":2.55,"target":"left","response":"right","rt":2054.599999994,"correct":false,"confidence":4},{"trial_n":184,"n_dots":2.65,"target":"left","response":"right","rt":443.70000001788,"correct":false,"confidence":5},{"trial_n":185,"n_dots":2.75,"target":"left","response":"right","rt":610.60000002384,"correct":false,"confidence":3},{"trial_n":186,"n_dots":2.85,"target":"left","response":"left","rt":273.69999998808,"correct":true,"confidence":2},{"trial_n":187,"n_dots":2.85,"target":"right","response":"right","rt":282.30000001192,"correct":true,"confidence":6},{"trial_n":188,"n_dots":2.75,"target":"left","response":"left","rt":348.80000001192,"correct":true,"confidence":6},{"trial_n":189,"n_dots":2.75,"target":"left","response":"left","rt":393.80000001192,"correct":true,"confidence":5},{"trial_n":190,"n_dots":2.65,"target":"right","response":"right","rt":255.79999998212,"correct":true,"confidence":6},{"trial_n":191,"n_dots":2.65,"target":"right","response":"right","rt":235.29999998212,"correct":true,"confidence":5},{"trial_n":192,"n_dots":2.55,"target":"right","response":"left","rt":347.59999999404,"correct":false,"confidence":3},{"trial_n":193,"n_dots":2.65,"target":"right","response":"right","rt":339.19999998808,"correct":true,"confidence":3},{"trial_n":194,"n_dots":2.65,"target":"left","response":"left","rt":663.90000000596,"correct":true,"confidence":3}]