[{"trial_n":1,"n_dots":4.25,"target":"right","response":"left","rt":1877.6000000238,"correct":false,"confidence":-1},{"trial_n":2,"n_dots":4.25,"target":"left","response":"right","rt":935,"correct":false,"confidence":-1},{"trial_n":3,"n_dots":4.65,"target":"right","response":"left","rt":726.5,"correct":false,"confidence":-1},{"trial_n":4,"n_dots":5.05,"target":"left","response":"left","rt":268.69999992847,"correct":true,"confidence":-1},{"trial_n":5,"n_dots":5.05,"target":"left","response":"left","rt":324.29999995232,"correct":true,"confidence":-1},{"trial_n":6,"n_dots":4.65,"target":"right","response":"right","rt":312.79999995232,"correct":true,"confidence":-1},{"trial_n":7,"n_dots":4.65,"target":"right","response":"right","rt":317.40000009537,"correct":true,"confidence":-1},{"trial_n":8,"n_dots":4.45,"target":"left","response":"left","rt":298.10000002384,"correct":true,"confidence":-1},{"trial_n":9,"n_dots":4.45,"target":"left","response":"left","rt":233.59999990463,"correct":true,"confidence":-1},{"trial_n":10,"n_dots":4.25,"target":"right","response":"right","rt":233.69999992847,"correct":true,"confidence":-1},{"trial_n":11,"n_dots":4.25,"target":"left","response":"left","rt":329.89999997616,"correct":true,"confidence":-1},{"trial_n":12,"n_dots":4.05,"target":"right","response":"right","rt":310.5,"correct":true,"confidence":-1},{"trial_n":13,"n_dots":4.05,"target":"right","response":"right","rt":271.30000007153,"correct":true,"confidence":-1},{"trial_n":14,"n_dots":3.95,"target":"left","response":"right","rt":434.10000002384,"correct":false,"confidence":-1},{"trial_n":15,"n_dots":4.05,"target":"right","response":"right","rt":246.89999997616,"correct":true,"confidence":-1},{"trial_n":16,"n_dots":4.05,"target":"left","response":"left","rt":528,"correct":true,"confidence":-1},{"trial_n":17,"n_dots":3.95,"target":"left","response":"left","rt":329.79999995232,"correct":true,"confidence":-1},{"trial_n":18,"n_dots":3.95,"target":"right","response":"right","rt":218.20000004768,"correct":true,"confidence":-1},{"trial_n":19,"n_dots":3.85,"target":"left","response":"left","rt":232.69999992847,"correct":true,"confidence":-1},{"trial_n":20,"n_dots":3.85,"target":"right","response":"right","rt":275.10000002384,"correct":true,"confidence":-1},{"trial_n":21,"n_dots":3.75,"target":"right","response":"right","rt":327.10000002384,"correct":true,"confidence":-1},{"trial_n":22,"n_dots":3.75,"target":"left","response":"left","rt":164.19999992847,"correct":true,"confidence":-1},{"trial_n":23,"n_dots":3.65,"target":"left","response":"right","rt":358.80000007153,"correct":false,"confidence":-1},{"trial_n":24,"n_dots":3.75,"target":"left","response":"left","rt":371.19999992847,"correct":true,"confidence":-1},{"trial_n":25,"n_dots":3.75,"target":"right","response":"right","rt":240.69999992847,"correct":true,"confidence":-1},{"trial_n":26,"n_dots":3.65,"target":"right","response":"right","rt":262.10000002384,"correct":true,"confidence":-1},{"trial_n":27,"n_dots":3.65,"target":"right","response":"right","rt":387,"correct":true,"confidence":5},{"trial_n":28,"n_dots":3.55,"target":"right","response":"right","rt":263.69999992847,"correct":true,"confidence":5},{"trial_n":29,"n_dots":3.55,"target":"right","response":"right","rt":529.30000007153,"correct":true,"confidence":5},{"trial_n":30,"n_dots":3.45,"target":"right","response":"left","rt":1188,"correct":false,"confidence":3},{"trial_n":31,"n_dots":3.55,"target":"right","response":"right","rt":285,"correct":true,"confidence":4},{"trial_n":32,"n_dots":3.55,"target":"left","response":"left","rt":251.5,"correct":true,"confidence":4},{"trial_n":33,"n_dots":3.45,"target":"right","response":"right","rt":265.79999995232,"correct":true,"confidence":5},{"trial_n":34,"n_dots":3.45,"target":"left","response":"right","rt":608.39999997616,"correct":false,"confidence":3},{"trial_n":35,"n_dots":3.55,"target":"right","response":"right","rt":319.89999997616,"correct":true,"confidence":3},{"trial_n":36,"n_dots":3.55,"target":"left","response":"left","rt":1357.5,"correct":true,"confidence":3},{"trial_n":37,"n_dots":3.45,"target":"left","response":"left","rt":1021.8000000715,"correct":true,"confidence":4},{"trial_n":38,"n_dots":3.45,"target":"right","response":"right","rt":347.60000002384,"correct":true,"confidence":4},{"trial_n":39,"n_dots":3.35,"target":"left","response":"right","rt":664,"correct":false,"confidence":4},{"trial_n":40,"n_dots":3.45,"target":"right","response":"right","rt":533.20000004768,"correct":true,"confidence":3},{"trial_n":41,"n_dots":3.45,"target":"left","response":"left","rt":356.79999995232,"correct":true,"confidence":3},{"trial_n":42,"n_dots":3.35,"target":"right","response":"left","rt":442.70000004768,"correct":false,"confidence":3},{"trial_n":43,"n_dots":3.45,"target":"right","response":"right","rt":320.39999997616,"correct":true,"confidence":4},{"trial_n":44,"n_dots":3.45,"target":"right","response":"right","rt":490.39999997616,"correct":true,"confidence":4},{"trial_n":45,"n_dots":3.35,"target":"right","response":"right","rt":363,"correct":true,"confidence":6},{"trial_n":46,"n_dots":3.35,"target":"right","response":"right","rt":267.29999995232,"correct":true,"confidence":5},{"trial_n":47,"n_dots":3.25,"target":"left","response":"left","rt":282.19999992847,"correct":true,"confidence":3},{"trial_n":48,"n_dots":3.25,"target":"left","response":"left","rt":264.80000007153,"correct":true,"confidence":6},{"trial_n":49,"n_dots":3.15,"target":"left","response":"left","rt":1342.3999999762,"correct":true,"confidence":3},{"trial_n":50,"n_dots":3.15,"target":"left","response":"left","rt":990.20000004768,"correct":true,"confidence":5},{"trial_n":51,"n_dots":3.05,"target":"right","response":"right","rt":565.39999997616,"correct":true,"confidence":4},{"trial_n":52,"n_dots":3.05,"target":"left","response":"right","rt":496.30000007153,"correct":false,"confidence":3},{"trial_n":53,"n_dots":3.15,"target":"right","response":"right","rt":399.39999997616,"correct":true,"confidence":5},{"trial_n":54,"n_dots":3.15,"target":"left","response":"left","rt":457.30000007153,"correct":true,"confidence":4},{"trial_n":55,"n_dots":3.05,"target":"right","response":"right","rt":1217.5,"correct":true,"confidence":2},{"trial_n":56,"n_dots":3.05,"target":"right","response":"right","rt":587.69999992847,"correct":true,"confidence":4},{"trial_n":57,"n_dots":2.95,"target":"left","response":"right","rt":589.29999995232,"correct":false,"confidence":4},{"trial_n":58,"n_dots":3.05,"target":"right","response":"right","rt":247.60000002384,"correct":true,"confidence":6},{"trial_n":59,"n_dots":3.05,"target":"right","response":"right","rt":294.10000002384,"correct":true,"confidence":5},{"trial_n":60,"n_dots":2.95,"target":"left","response":"left","rt":291,"correct":true,"confidence":5},{"trial_n":61,"n_dots":2.95,"target":"right","response":"right","rt":266,"correct":true,"confidence":4},{"trial_n":62,"n_dots":2.85,"target":"left","response":"left","rt":281.90000009537,"correct":true,"confidence":4},{"trial_n":63,"n_dots":2.85,"target":"left","response":"left","rt":224.5,"correct":true,"confidence":5},{"trial_n":64,"n_dots":2.75,"target":"left","response":"left","rt":354.90000009537,"correct":true,"confidence":3},{"trial_n":65,"n_dots":2.75,"target":"left","response":"left","rt":317.70000004768,"correct":true,"confidence":4},{"trial_n":66,"n_dots":2.65,"target":"left","response":"left","rt":1066.8999999762,"correct":true,"confidence":2},{"trial_n":67,"n_dots":2.65,"target":"right","response":"left","rt":235.5,"correct":false,"confidence":3},{"trial_n":68,"n_dots":2.75,"target":"right","response":"right","rt":452.29999995232,"correct":true,"confidence":3},{"trial_n":69,"n_dots":2.75,"target":"left","response":"left","rt":299.89999997616,"correct":true,"confidence":4},{"trial_n":70,"n_dots":2.65,"target":"left","response":"left","rt":388.29999995232,"correct":true,"confidence":3},{"trial_n":71,"n_dots":2.65,"target":"right","response":"right","rt":808.10000002384,"correct":true,"confidence":2},{"trial_n":72,"n_dots":2.55,"target":"right","response":"right","rt":688.70000004768,"correct":true,"confidence":3},{"trial_n":73,"n_dots":2.55,"target":"left","response":"left","rt":357.5,"correct":true,"confidence":3},{"trial_n":74,"n_dots":2.45,"target":"left","response":"left","rt":330.39999997616,"correct":true,"confidence":3},{"trial_n":75,"n_dots":2.45,"target":"right","response":"left","rt":308.29999995232,"correct":false,"confidence":3},{"trial_n":76,"n_dots":2.55,"target":"left","response":"left","rt":358.60000002384,"correct":true,"confidence":2},{"trial_n":77,"n_dots":2.55,"target":"right","response":"left","rt":308.60000002384,"correct":false,"confidence":3},{"trial_n":78,"n_dots":2.65,"target":"right","response":"right","rt":367.60000002384,"correct":true,"confidence":4},{"trial_n":79,"n_dots":2.65,"target":"right","response":"right","rt":337.80000007153,"correct":true,"confidence":3},{"trial_n":80,"n_dots":2.55,"target":"left","response":"left","rt":493,"correct":true,"confidence":3},{"trial_n":81,"n_dots":2.55,"target":"right","response":"right","rt":516,"correct":true,"confidence":3},{"trial_n":82,"n_dots":2.45,"target":"right","response":"right","rt":617,"correct":true,"confidence":4},{"trial_n":83,"n_dots":2.45,"target":"right","response":"left","rt":1761,"correct":false,"confidence":1},{"trial_n":84,"n_dots":2.55,"target":"left","response":"left","rt":1194,"correct":true,"confidence":2},{"trial_n":85,"n_dots":2.55,"target":"left","response":"right","rt":936.79999995232,"correct":false,"confidence":3},{"trial_n":86,"n_dots":2.65,"target":"left","response":"right","rt":673.60000002384,"correct":false,"confidence":2},{"trial_n":87,"n_dots":2.75,"target":"right","response":"left","rt":296.19999992847,"correct":false,"confidence":2},{"trial_n":88,"n_dots":2.85,"target":"right","response":"left","rt":446.89999997616,"correct":false,"confidence":4},{"trial_n":89,"n_dots":2.95,"target":"left","response":"left","rt":496,"correct":true,"confidence":2},{"trial_n":90,"n_dots":2.95,"target":"right","response":"left","rt":440.39999997616,"correct":false,"confidence":1},{"trial_n":91,"n_dots":3.05,"target":"right","response":"right","rt":725.19999992847,"correct":true,"confidence":3},{"trial_n":92,"n_dots":3.05,"target":"right","response":"right","rt":1592.5,"correct":true,"confidence":2},{"trial_n":93,"n_dots":2.95,"target":"left","response":"left","rt":245.60000002384,"correct":true,"confidence":5},{"trial_n":94,"n_dots":2.95,"target":"left","response":"left","rt":278.5,"correct":true,"confidence":3},{"trial_n":95,"n_dots":2.85,"target":"right","response":"right","rt":385.39999997616,"correct":true,"confidence":4},{"trial_n":96,"n_dots":2.85,"target":"right","response":"right","rt":436.60000002384,"correct":true,"confidence":4},{"trial_n":97,"n_dots":2.75,"target":"left","response":"left","rt":345,"correct":true,"confidence":3},{"trial_n":98,"n_dots":2.75,"target":"left","response":"right","rt":358.80000007153,"correct":false,"confidence":2},{"trial_n":99,"n_dots":2.85,"target":"left","response":"left","rt":280.60000002384,"correct":true,"confidence":4},{"trial_n":100,"n_dots":2.85,"target":"right","response":"right","rt":434.10000002384,"correct":true,"confidence":4},{"trial_n":101,"n_dots":2.75,"target":"right","response":"right","rt":390.79999995232,"correct":true,"confidence":2},{"trial_n":102,"n_dots":2.75,"target":"left","response":"left","rt":248.5,"correct":true,"confidence":2},{"trial_n":103,"n_dots":2.65,"target":"left","response":"left","rt":296.19999992847,"correct":true,"confidence":3},{"trial_n":104,"n_dots":2.65,"target":"right","response":"right","rt":277.20000004768,"correct":true,"confidence":5},{"trial_n":105,"n_dots":2.55,"target":"right","response":"right","rt":372,"correct":true,"confidence":4},{"trial_n":106,"n_dots":2.55,"target":"right","response":"right","rt":796.20000004768,"correct":true,"confidence":2},{"trial_n":107,"n_dots":2.45,"target":"left","response":"left","rt":269.79999995232,"correct":true,"confidence":4},{"trial_n":108,"n_dots":2.45,"target":"right","response":"left","rt":867.40000009537,"correct":false,"confidence":4},{"trial_n":109,"n_dots":2.55,"target":"left","response":"right","rt":487.39999997616,"correct":false,"confidence":2},{"trial_n":110,"n_dots":2.65,"target":"left","response":"left","rt":1013.2000000477,"correct":true,"confidence":3},{"trial_n":111,"n_dots":2.65,"target":"left","response":"left","rt":908.80000007153,"correct":true,"confidence":4},{"trial_n":112,"n_dots":2.55,"target":"right","response":"right","rt":556.39999997616,"correct":true,"confidence":4},{"trial_n":113,"n_dots":2.55,"target":"left","response":"left","rt":506.40000009537,"correct":true,"confidence":5},{"trial_n":114,"n_dots":2.45,"target":"right","response":"right","rt":360.5,"correct":true,"confidence":3},{"trial_n":115,"n_dots":2.45,"target":"left","response":"right","rt":337.39999997616,"correct":false,"confidence":5},{"trial_n":116,"n_dots":2.55,"target":"left","response":"right","rt":361.29999995232,"correct":false,"confidence":5},{"trial_n":117,"n_dots":2.65,"target":"left","response":"left","rt":1010,"correct":true,"confidence":3},{"trial_n":118,"n_dots":2.65,"target":"left","response":"right","rt":755.39999997616,"correct":false,"confidence":3},{"trial_n":119,"n_dots":2.75,"target":"right","response":"right","rt":357.59999990463,"correct":true,"confidence":3},{"trial_n":120,"n_dots":2.75,"target":"right","response":"right","rt":282.80000007153,"correct":true,"confidence":5},{"trial_n":121,"n_dots":2.65,"target":"right","response":"left","rt":911.90000009537,"correct":false,"confidence":4},{"trial_n":122,"n_dots":2.75,"target":"left","response":"left","rt":553,"correct":true,"confidence":2},{"trial_n":123,"n_dots":2.75,"target":"left","response":"right","rt":450.70000004768,"correct":false,"confidence":2},{"trial_n":124,"n_dots":2.85,"target":"left","response":"left","rt":319.29999995232,"correct":true,"confidence":4},{"trial_n":125,"n_dots":2.85,"target":"right","response":"right","rt":290.89999997616,"correct":true,"confidence":3},{"trial_n":126,"n_dots":2.75,"target":"left","response":"left","rt":1263.3999999762,"correct":true,"confidence":2},{"trial_n":127,"n_dots":2.75,"target":"right","response":"right","rt":386.5,"correct":true,"confidence":3},{"trial_n":128,"n_dots":2.65,"target":"right","response":"left","rt":644.70000004768,"correct":false,"confidence":3},{"trial_n":129,"n_dots":2.75,"target":"left","response":"left","rt":1134.7000000477,"correct":true,"confidence":3},{"trial_n":130,"n_dots":2.75,"target":"right","response":"left","rt":309.70000004768,"correct":false,"confidence":4},{"trial_n":131,"n_dots":2.85,"target":"left","response":"left","rt":483.10000002384,"correct":true,"confidence":3},{"trial_n":132,"n_dots":2.85,"target":"right","response":"left","rt":1132.6000000238,"correct":false,"confidence":2},{"trial_n":133,"n_dots":2.95,"target":"right","response":"left","rt":839.20000004768,"correct":false,"confidence":4},{"trial_n":134,"n_dots":3.05,"target":"right","response":"right","rt":489.39999997616,"correct":true,"confidence":3},{"trial_n":135,"n_dots":3.05,"target":"right","response":"right","rt":517.5,"correct":true,"confidence":3},{"trial_n":136,"n_dots":2.95,"target":"left","response":"left","rt":970.29999995232,"correct":true,"confidence":2},{"trial_n":137,"n_dots":2.95,"target":"right","response":"left","rt":296.89999997616,"correct":false,"confidence":2},{"trial_n":138,"n_dots":3.05,"target":"right","response":"right","rt":662.30000007153,"correct":true,"confidence":4},{"trial_n":139,"n_dots":3.05,"target":"left","response":"left","rt":733.69999992847,"correct":true,"confidence":5},{"trial_n":140,"n_dots":2.95,"target":"right","response":"left","rt":1162.1000000238,"correct":false,"confidence":2},{"trial_n":141,"n_dots":3.05,"target":"left","response":"right","rt":342.20000004768,"correct":false,"confidence":3},{"trial_n":142,"n_dots":3.15,"target":"left","response":"left","rt":288.80000007153,"correct":true,"confidence":2},{"trial_n":143,"n_dots":3.15,"target":"right","response":"right","rt":257.89999997616,"correct":true,"confidence":4},{"trial_n":144,"n_dots":3.05,"target":"left","response":"left","rt":205,"correct":true,"confidence":5},{"trial_n":145,"n_dots":3.05,"target":"right","response":"left","rt":568.79999995232,"correct":false,"confidence":4},{"trial_n":146,"n_dots":3.15,"target":"right","response":"right","rt":230.60000002384,"correct":true,"confidence":3},{"trial_n":147,"n_dots":3.15,"target":"right","response":"right","rt":353.80000007153,"correct":true,"confidence":4},{"trial_n":148,"n_dots":3.05,"target":"left","response":"left","rt":358.30000007153,"correct":true,"confidence":4},{"trial_n":149,"n_dots":3.05,"target":"left","response":"right","rt":295.5,"correct":false,"confidence":4},{"trial_n":150,"n_dots":3.15,"target":"right","response":"left","rt":386.70000004768,"correct":false,"confidence":4},{"trial_n":151,"n_dots":3.25,"target":"left","response":"left","rt":925.09999990463,"correct":true,"confidence":4},{"trial_n":152,"n_dots":3.25,"target":"right","response":"right","rt":362.89999997616,"correct":true,"confidence":6},{"trial_n":153,"n_dots":3.15,"target":"left","response":"left","rt":691.80000007153,"correct":true,"confidence":5},{"trial_n":154,"n_dots":3.15,"target":"left","response":"left","rt":371.29999995232,"correct":true,"confidence":4},{"trial_n":155,"n_dots":3.05,"target":"right","response":"right","rt":237.70000004768,"correct":true,"confidence":5},{"trial_n":156,"n_dots":3.05,"target":"right","response":"left","rt":1793.2999999523,"correct":false,"confidence":2},{"trial_n":157,"n_dots":3.15,"target":"left","response":"left","rt":433,"correct":true,"confidence":4},{"trial_n":158,"n_dots":3.15,"target":"right","response":"right","rt":390.5,"correct":true,"confidence":5},{"trial_n":159,"n_dots":3.05,"target":"right","response":"right","rt":1282.1000000238,"correct":true,"confidence":3},{"trial_n":160,"n_dots":3.05,"target":"left","response":"right","rt":708.39999997616,"correct":false,"confidence":3},{"trial_n":161,"n_dots":3.15,"target":"right","response":"left","rt":848.70000004768,"correct":false,"confidence":4},{"trial_n":162,"n_dots":3.25,"target":"left","response":"left","rt":335.60000002384,"correct":true,"confidence":5},{"trial_n":163,"n_dots":3.25,"target":"left","response":"left","rt":324,"correct":true,"confidence":4},{"trial_n":164,"n_dots":3.15,"target":"left","response":"left","rt":281.10000002384,"correct":true,"confidence":5},{"trial_n":165,"n_dots":3.15,"target":"left","response":"left","rt":598.80000007153,"correct":true,"confidence":3},{"trial_n":166,"n_dots":3.05,"target":"left","response":"left","rt":551.29999995232,"correct":true,"confidence":2},{"trial_n":167,"n_dots":3.05,"target":"right","response":"left","rt":619.5,"correct":false,"confidence":2},{"trial_n":168,"n_dots":3.15,"target":"right","response":"right","rt":383.29999995232,"correct":true,"confidence":5},{"trial_n":169,"n_dots":3.15,"target":"left","response":"left","rt":304.5,"correct":true,"confidence":4},{"trial_n":170,"n_dots":3.05,"target":"right","response":"right","rt":338.5,"correct":true,"confidence":5},{"trial_n":171,"n_dots":3.05,"target":"left","response":"left","rt":916.89999997616,"correct":true,"confidence":2},{"trial_n":172,"n_dots":2.95,"target":"right","response":"right","rt":421,"correct":true,"confidence":3},{"trial_n":173,"n_dots":2.95,"target":"left","response":"right","rt":529.19999992847,"correct":false,"confidence":3},{"trial_n":174,"n_dots":3.05,"target":"left","response":"left","rt":263.10000002384,"correct":true,"confidence":5},{"trial_n":175,"n_dots":3.05,"target":"left","response":"left","rt":280.80000007153,"correct":true,"confidence":3},{"trial_n":176,"n_dots":2.95,"target":"left","response":"right","rt":320.80000007153,"correct":false,"confidence":4},{"trial_n":177,"n_dots":3.05,"target":"right","response":"right","rt":216.30000007153,"correct":true,"confidence":5},{"trial_n":178,"n_dots":3.05,"target":"right","response":"right","rt":298,"correct":true,"confidence":3},{"trial_n":179,"n_dots":2.95,"target":"right","response":"right","rt":442.39999997616,"correct":true,"confidence":5},{"trial_n":180,"n_dots":2.95,"target":"left","response":"right","rt":301.79999995232,"correct":false,"confidence":5},{"trial_n":181,"n_dots":3.05,"target":"left","response":"right","rt":1027.1000000238,"correct":false,"confidence":3},{"trial_n":182,"n_dots":3.15,"target":"left","response":"left","rt":718.40000009537,"correct":true,"confidence":3},{"trial_n":183,"n_dots":3.15,"target":"left","response":"left","rt":364.59999990463,"correct":true,"confidence":5},{"trial_n":184,"n_dots":3.05,"target":"left","response":"right","rt":295.69999992847,"correct":false,"confidence":4},{"trial_n":185,"n_dots":3.15,"target":"right","response":"left","rt":1142.3999999762,"correct":false,"confidence":3},{"trial_n":186,"n_dots":3.25,"target":"left","response":"left","rt":359,"correct":true,"confidence":3},{"trial_n":187,"n_dots":3.25,"target":"left","response":"left","rt":238.60000002384,"correct":true,"confidence":3},{"trial_n":188,"n_dots":3.15,"target":"right","response":"right","rt":530.10000002384,"correct":true,"confidence":3},{"trial_n":189,"n_dots":3.15,"target":"left","response":"left","rt":261.70000004768,"correct":true,"confidence":5},{"trial_n":190,"n_dots":3.05,"target":"right","response":"left","rt":904,"correct":false,"confidence":3},{"trial_n":191,"n_dots":3.15,"target":"left","response":"left","rt":238.29999995232,"correct":true,"confidence":5},{"trial_n":192,"n_dots":3.15,"target":"left","response":"left","rt":282.20000004768,"correct":true,"confidence":4},{"trial_n":193,"n_dots":3.05,"target":"right","response":"right","rt":803.39999997616,"correct":true,"confidence":2},{"trial_n":194,"n_dots":3.05,"target":"right","response":"right","rt":336.20000004768,"correct":true,"confidence":5}]