[{"trial_n":1,"n_dots":4.25,"target":"left","response":"right","rt":1701,"correct":false,"confidence":-1},{"trial_n":2,"n_dots":4.25,"target":"left","response":"left","rt":326,"correct":true,"confidence":-1},{"trial_n":3,"n_dots":4.25,"target":"right","response":"right","rt":406,"correct":true,"confidence":-1},{"trial_n":4,"n_dots":3.85,"target":"right","response":"right","rt":400,"correct":true,"confidence":-1},{"trial_n":5,"n_dots":3.85,"target":"right","response":"right","rt":265,"correct":true,"confidence":-1},{"trial_n":6,"n_dots":3.45,"target":"right","response":"right","rt":292,"correct":true,"confidence":-1},{"trial_n":7,"n_dots":3.45,"target":"left","response":"left","rt":211,"correct":true,"confidence":-1},{"trial_n":8,"n_dots":3.25,"target":"left","response":"left","rt":372,"correct":true,"confidence":-1},{"trial_n":9,"n_dots":3.25,"target":"left","response":"left","rt":271,"correct":true,"confidence":-1},{"trial_n":10,"n_dots":3.05,"target":"left","response":"left","rt":534,"correct":true,"confidence":-1},{"trial_n":11,"n_dots":3.05,"target":"left","response":"left","rt":374,"correct":true,"confidence":-1},{"trial_n":12,"n_dots":2.85,"target":"right","response":"left","rt":474,"correct":false,"confidence":-1},{"trial_n":13,"n_dots":2.95,"target":"right","response":"left","rt":364,"correct":false,"confidence":-1},{"trial_n":14,"n_dots":3.05,"target":"left","response":"left","rt":415,"correct":true,"confidence":-1},{"trial_n":15,"n_dots":3.05,"target":"left","response":"left","rt":351,"correct":true,"confidence":-1},{"trial_n":16,"n_dots":2.95,"target":"left","response":"right","rt":378,"correct":false,"confidence":-1},{"trial_n":17,"n_dots":3.05,"target":"right","response":"left","rt":398,"correct":false,"confidence":-1},{"trial_n":18,"n_dots":3.15,"target":"right","response":"right","rt":364,"correct":true,"confidence":-1},{"trial_n":19,"n_dots":3.15,"target":"left","response":"left","rt":297,"correct":true,"confidence":-1},{"trial_n":20,"n_dots":3.05,"target":"right","response":"right","rt":341,"correct":true,"confidence":-1},{"trial_n":21,"n_dots":3.05,"target":"left","response":"left","rt":171,"correct":true,"confidence":-1},{"trial_n":22,"n_dots":2.95,"target":"left","response":"left","rt":188,"correct":true,"confidence":-1},{"trial_n":23,"n_dots":2.95,"target":"left","response":"left","rt":175,"correct":true,"confidence":-1},{"trial_n":24,"n_dots":2.85,"target":"left","response":"left","rt":80,"correct":true,"confidence":-1},{"trial_n":25,"n_dots":2.85,"target":"right","response":"right","rt":273,"correct":true,"confidence":-1},{"trial_n":26,"n_dots":2.75,"target":"right","response":"left","rt":262,"correct":false,"confidence":-1},{"trial_n":27,"n_dots":2.85,"target":"left","response":"left","rt":230,"correct":true,"confidence":5},{"trial_n":28,"n_dots":2.85,"target":"left","response":"left","rt":252,"correct":true,"confidence":6},{"trial_n":29,"n_dots":2.75,"target":"left","response":"left","rt":951,"correct":true,"confidence":2},{"trial_n":30,"n_dots":2.75,"target":"right","response":"right","rt":305,"correct":true,"confidence":3},{"trial_n":31,"n_dots":2.65,"target":"left","response":"left","rt":356,"correct":true,"confidence":5},{"trial_n":32,"n_dots":2.65,"target":"left","response":"left","rt":274,"correct":true,"confidence":2},{"trial_n":33,"n_dots":2.55,"target":"left","response":"left","rt":337,"correct":true,"confidence":1},{"trial_n":34,"n_dots":2.55,"target":"left","response":"left","rt":290,"correct":true,"confidence":6},{"trial_n":35,"n_dots":2.45,"target":"right","response":"left","rt":799,"correct":false,"confidence":6},{"trial_n":36,"n_dots":2.55,"target":"left","response":"right","rt":1005,"correct":false,"confidence":3},{"trial_n":37,"n_dots":2.65,"target":"left","response":"left","rt":271,"correct":true,"confidence":5},{"trial_n":38,"n_dots":2.65,"target":"left","response":"left","rt":360,"correct":true,"confidence":6},{"trial_n":39,"n_dots":2.55,"target":"left","response":"left","rt":252,"correct":true,"confidence":6},{"trial_n":40,"n_dots":2.55,"target":"left","response":"right","rt":965,"correct":false,"confidence":2},{"trial_n":41,"n_dots":2.65,"target":"right","response":"left","rt":422,"correct":false,"confidence":5},{"trial_n":42,"n_dots":2.75,"target":"right","response":"right","rt":838,"correct":true,"confidence":2},{"trial_n":43,"n_dots":2.75,"target":"right","response":"left","rt":1684,"correct":false,"confidence":1},{"trial_n":44,"n_dots":2.85,"target":"right","response":"right","rt":632,"correct":true,"confidence":3},{"trial_n":45,"n_dots":2.85,"target":"right","response":"right","rt":1420,"correct":true,"confidence":2},{"trial_n":46,"n_dots":2.75,"target":"left","response":"left","rt":240,"correct":true,"confidence":6},{"trial_n":47,"n_dots":2.75,"target":"right","response":"left","rt":298,"correct":false,"confidence":5},{"trial_n":48,"n_dots":2.85,"target":"left","response":"right","rt":699,"correct":false,"confidence":3},{"trial_n":49,"n_dots":2.95,"target":"left","response":"left","rt":642,"correct":true,"confidence":4},{"trial_n":50,"n_dots":2.95,"target":"left","response":"right","rt":431,"correct":false,"confidence":5},{"trial_n":51,"n_dots":3.05,"target":"right","response":"right","rt":331,"correct":true,"confidence":4},{"trial_n":52,"n_dots":3.05,"target":"right","response":"left","rt":927,"correct":false,"confidence":2},{"trial_n":53,"n_dots":3.15,"target":"right","response":"left","rt":739,"correct":false,"confidence":4},{"trial_n":54,"n_dots":3.25,"target":"left","response":"left","rt":252,"correct":true,"confidence":5},{"trial_n":55,"n_dots":3.25,"target":"right","response":"left","rt":1048,"correct":false,"confidence":2},{"trial_n":56,"n_dots":3.35,"target":"left","response":"left","rt":411,"correct":true,"confidence":1},{"trial_n":57,"n_dots":3.35,"target":"right","response":"right","rt":388,"correct":true,"confidence":5},{"trial_n":58,"n_dots":3.25,"target":"right","response":"right","rt":685,"correct":true,"confidence":5},{"trial_n":59,"n_dots":3.25,"target":"right","response":"right","rt":409,"correct":true,"confidence":6},{"trial_n":60,"n_dots":3.15,"target":"left","response":"left","rt":234,"correct":true,"confidence":6},{"trial_n":61,"n_dots":3.15,"target":"right","response":"right","rt":743,"correct":true,"confidence":2},{"trial_n":62,"n_dots":3.05,"target":"right","response":"right","rt":905,"correct":true,"confidence":1},{"trial_n":63,"n_dots":3.05,"target":"left","response":"left","rt":342,"correct":true,"confidence":4},{"trial_n":64,"n_dots":2.95,"target":"left","response":"left","rt":289,"correct":true,"confidence":6},{"trial_n":65,"n_dots":2.95,"target":"left","response":"left","rt":138,"correct":true,"confidence":6},{"trial_n":66,"n_dots":2.85,"target":"left","response":"left","rt":301,"correct":true,"confidence":6},{"trial_n":67,"n_dots":2.85,"target":"left","response":"left","rt":403,"correct":true,"confidence":4},{"trial_n":68,"n_dots":2.75,"target":"right","response":"right","rt":1338,"correct":true,"confidence":2},{"trial_n":69,"n_dots":2.75,"target":"right","response":"left","rt":548,"correct":false,"confidence":4},{"trial_n":70,"n_dots":2.85,"target":"right","response":"right","rt":707,"correct":true,"confidence":3},{"trial_n":71,"n_dots":2.85,"target":"right","response":"left","rt":578,"correct":false,"confidence":1},{"trial_n":72,"n_dots":2.95,"target":"right","response":"right","rt":316,"correct":true,"confidence":3},{"trial_n":73,"n_dots":2.95,"target":"right","response":"left","rt":273,"correct":false,"confidence":5},{"trial_n":74,"n_dots":3.05,"target":"right","response":"right","rt":370,"correct":true,"confidence":2},{"trial_n":75,"n_dots":3.05,"target":"right","response":"right","rt":365,"correct":true,"confidence":5},{"trial_n":76,"n_dots":2.95,"target":"right","response":"right","rt":414,"correct":true,"confidence":6},{"trial_n":77,"n_dots":2.95,"target":"right","response":"left","rt":443,"correct":false,"confidence":6},{"trial_n":78,"n_dots":3.05,"target":"right","response":"right","rt":238,"correct":true,"confidence":3},{"trial_n":79,"n_dots":3.05,"target":"right","response":"left","rt":288,"correct":false,"confidence":6},{"trial_n":80,"n_dots":3.15,"target":"right","response":"right","rt":334,"correct":true,"confidence":4},{"trial_n":81,"n_dots":3.15,"target":"right","response":"left","rt":354,"correct":false,"confidence":2},{"trial_n":82,"n_dots":3.25,"target":"right","response":"left","rt":485,"correct":false,"confidence":4},{"trial_n":83,"n_dots":3.35,"target":"left","response":"left","rt":339,"correct":true,"confidence":6},{"trial_n":84,"n_dots":3.35,"target":"left","response":"left","rt":267,"correct":true,"confidence":3},{"trial_n":85,"n_dots":3.25,"target":"left","response":"left","rt":217,"correct":true,"confidence":6},{"trial_n":86,"n_dots":3.25,"target":"right","response":"left","rt":253,"correct":false,"confidence":5},{"trial_n":87,"n_dots":3.35,"target":"right","response":"right","rt":281,"correct":true,"confidence":5},{"trial_n":88,"n_dots":3.35,"target":"right","response":"right","rt":293,"correct":true,"confidence":6},{"trial_n":89,"n_dots":3.25,"target":"left","response":"left","rt":267,"correct":true,"confidence":6},{"trial_n":90,"n_dots":3.25,"target":"left","response":"left","rt":178,"correct":true,"confidence":6},{"trial_n":91,"n_dots":3.15,"target":"left","response":"right","rt":876,"correct":false,"confidence":3},{"trial_n":92,"n_dots":3.25,"target":"left","response":"left","rt":412,"correct":true,"confidence":6},{"trial_n":93,"n_dots":3.25,"target":"left","response":"left","rt":815,"correct":true,"confidence":2},{"trial_n":94,"n_dots":3.15,"target":"right","response":"left","rt":2127,"correct":false,"confidence":4},{"trial_n":95,"n_dots":3.25,"target":"left","response":"left","rt":454,"correct":true,"confidence":5},{"trial_n":96,"n_dots":3.25,"target":"right","response":"right","rt":363,"correct":true,"confidence":2},{"trial_n":97,"n_dots":3.15,"target":"left","response":"left","rt":1484,"correct":true,"confidence":4},{"trial_n":98,"n_dots":3.15,"target":"left","response":"right","rt":716,"correct":false,"confidence":2},{"trial_n":99,"n_dots":3.25,"target":"left","response":"left","rt":626,"correct":true,"confidence":3},{"trial_n":100,"n_dots":3.25,"target":"left","response":"left","rt":277,"correct":true,"confidence":6},{"trial_n":101,"n_dots":3.15,"target":"right","response":"right","rt":1063,"correct":true,"confidence":2},{"trial_n":102,"n_dots":3.15,"target":"left","response":"right","rt":914,"correct":false,"confidence":5},{"trial_n":103,"n_dots":3.25,"target":"right","response":"left","rt":316,"correct":false,"confidence":4},{"trial_n":104,"n_dots":3.35,"target":"right","response":"right","rt":710,"correct":true,"confidence":2},{"trial_n":105,"n_dots":3.35,"target":"right","response":"right","rt":787,"correct":true,"confidence":2},{"trial_n":106,"n_dots":3.25,"target":"left","response":"left","rt":291,"correct":true,"confidence":4},{"trial_n":107,"n_dots":3.25,"target":"right","response":"right","rt":1116,"correct":true,"confidence":2},{"trial_n":108,"n_dots":3.15,"target":"right","response":"right","rt":456,"correct":true,"confidence":5},{"trial_n":109,"n_dots":3.15,"target":"right","response":"right","rt":938,"correct":true,"confidence":3},{"trial_n":110,"n_dots":3.05,"target":"right","response":"right","rt":439,"correct":true,"confidence":2},{"trial_n":111,"n_dots":3.05,"target":"left","response":"right","rt":562,"correct":false,"confidence":1},{"trial_n":112,"n_dots":3.15,"target":"left","response":"left","rt":273,"correct":true,"confidence":6},{"trial_n":113,"n_dots":3.15,"target":"right","response":"right","rt":491,"correct":true,"confidence":2},{"trial_n":114,"n_dots":3.05,"target":"right","response":"right","rt":902,"correct":true,"confidence":2},{"trial_n":115,"n_dots":3.05,"target":"right","response":"left","rt":338,"correct":false,"confidence":5},{"trial_n":116,"n_dots":3.15,"target":"right","response":"right","rt":385,"correct":true,"confidence":1},{"trial_n":117,"n_dots":3.15,"target":"right","response":"left","rt":1217,"correct":false,"confidence":1},{"trial_n":118,"n_dots":3.25,"target":"right","response":"left","rt":655,"correct":false,"confidence":4},{"trial_n":119,"n_dots":3.35,"target":"left","response":"left","rt":255,"correct":true,"confidence":6},{"trial_n":120,"n_dots":3.35,"target":"left","response":"left","rt":211,"correct":true,"confidence":6},{"trial_n":121,"n_dots":3.25,"target":"right","response":"right","rt":2652,"correct":true,"confidence":1},{"trial_n":122,"n_dots":3.25,"target":"left","response":"left","rt":289,"correct":true,"confidence":6},{"trial_n":123,"n_dots":3.15,"target":"right","response":"right","rt":639,"correct":true,"confidence":3},{"trial_n":124,"n_dots":3.15,"target":"left","response":"left","rt":603,"correct":true,"confidence":6},{"trial_n":125,"n_dots":3.05,"target":"right","response":"right","rt":594,"correct":true,"confidence":1},{"trial_n":126,"n_dots":3.05,"target":"right","response":"left","rt":515,"correct":false,"confidence":5},{"trial_n":127,"n_dots":3.15,"target":"right","response":"left","rt":694,"correct":false,"confidence":4},{"trial_n":128,"n_dots":3.25,"target":"right","response":"left","rt":736,"correct":false,"confidence":6},{"trial_n":129,"n_dots":3.35,"target":"left","response":"left","rt":270,"correct":true,"confidence":6},{"trial_n":130,"n_dots":3.35,"target":"left","response":"left","rt":306,"correct":true,"confidence":6},{"trial_n":131,"n_dots":3.25,"target":"left","response":"left","rt":615,"correct":true,"confidence":2},{"trial_n":132,"n_dots":3.25,"target":"left","response":"left","rt":269,"correct":true,"confidence":6},{"trial_n":133,"n_dots":3.15,"target":"left","response":"right","rt":812,"correct":false,"confidence":1},{"trial_n":134,"n_dots":3.25,"target":"left","response":"left","rt":223,"correct":true,"confidence":6},{"trial_n":135,"n_dots":3.25,"target":"left","response":"right","rt":692,"correct":false,"confidence":2},{"trial_n":136,"n_dots":3.35,"target":"left","response":"left","rt":216,"correct":true,"confidence":6},{"trial_n":137,"n_dots":3.35,"target":"left","response":"left","rt":238,"correct":true,"confidence":6},{"trial_n":138,"n_dots":3.25,"target":"left","response":"left","rt":316,"correct":true,"confidence":5},{"trial_n":139,"n_dots":3.25,"target":"left","response":"left","rt":2412,"correct":true,"confidence":3},{"trial_n":140,"n_dots":3.15,"target":"right","response":"right","rt":913,"correct":true,"confidence":2},{"trial_n":141,"n_dots":3.15,"target":"right","response":"left","rt":462,"correct":false,"confidence":4},{"trial_n":142,"n_dots":3.25,"target":"left","response":"left","rt":241,"correct":true,"confidence":6},{"trial_n":143,"n_dots":3.25,"target":"left","response":"left","rt":528,"correct":true,"confidence":2},{"trial_n":144,"n_dots":3.15,"target":"right","response":"right","rt":313,"correct":true,"confidence":5},{"trial_n":145,"n_dots":3.15,"target":"left","response":"left","rt":137,"correct":true,"confidence":6},{"trial_n":146,"n_dots":3.05,"target":"left","response":"left","rt":248,"correct":true,"confidence":6},{"trial_n":147,"n_dots":3.05,"target":"left","response":"left","rt":250,"correct":true,"confidence":6},{"trial_n":148,"n_dots":2.95,"target":"right","response":"right","rt":220,"correct":true,"confidence":5},{"trial_n":149,"n_dots":2.95,"target":"right","response":"left","rt":304,"correct":false,"confidence":2},{"trial_n":150,"n_dots":3.05,"target":"left","response":"left","rt":256,"correct":true,"confidence":5},{"trial_n":151,"n_dots":3.05,"target":"right","response":"right","rt":959,"correct":true,"confidence":4},{"trial_n":152,"n_dots":2.95,"target":"left","response":"left","rt":325,"correct":true,"confidence":1},{"trial_n":153,"n_dots":2.95,"target":"left","response":"left","rt":295,"correct":true,"confidence":6},{"trial_n":154,"n_dots":2.85,"target":"right","response":"left","rt":479,"correct":false,"confidence":4},{"trial_n":155,"n_dots":2.95,"target":"left","response":"right","rt":1026,"correct":false,"confidence":2},{"trial_n":156,"n_dots":3.05,"target":"right","response":"left","rt":514,"correct":false,"confidence":3},{"trial_n":157,"n_dots":3.15,"target":"right","response":"left","rt":213,"correct":false,"confidence":5},{"trial_n":158,"n_dots":3.25,"target":"left","response":"right","rt":672,"correct":false,"confidence":4},{"trial_n":159,"n_dots":3.35,"target":"right","response":"right","rt":1020,"correct":true,"confidence":2},{"trial_n":160,"n_dots":3.35,"target":"left","response":"left","rt":785,"correct":true,"confidence":1},{"trial_n":161,"n_dots":3.25,"target":"left","response":"left","rt":865,"correct":true,"confidence":3},{"trial_n":162,"n_dots":3.25,"target":"left","response":"right","rt":792,"correct":false,"confidence":2},{"trial_n":163,"n_dots":3.35,"target":"right","response":"right","rt":1145,"correct":true,"confidence":2},{"trial_n":164,"n_dots":3.35,"target":"left","response":"right","rt":499,"correct":false,"confidence":1},{"trial_n":165,"n_dots":3.45,"target":"left","response":"left","rt":390,"correct":true,"confidence":4},{"trial_n":166,"n_dots":3.45,"target":"right","response":"right","rt":371,"correct":true,"confidence":4},{"trial_n":167,"n_dots":3.35,"target":"left","response":"left","rt":204,"correct":true,"confidence":6},{"trial_n":168,"n_dots":3.35,"target":"right","response":"right","rt":319,"correct":true,"confidence":6},{"trial_n":169,"n_dots":3.25,"target":"right","response":"right","rt":516,"correct":true,"confidence":6},{"trial_n":170,"n_dots":3.25,"target":"right","response":"right","rt":308,"correct":true,"confidence":6},{"trial_n":171,"n_dots":3.15,"target":"right","response":"right","rt":353,"correct":true,"confidence":5},{"trial_n":172,"n_dots":3.15,"target":"left","response":"left","rt":1082,"correct":true,"confidence":2},{"trial_n":173,"n_dots":3.05,"target":"left","response":"left","rt":1011,"correct":true,"confidence":2},{"trial_n":174,"n_dots":3.05,"target":"right","response":"right","rt":310,"correct":true,"confidence":4},{"trial_n":175,"n_dots":2.95,"target":"right","response":"right","rt":522,"correct":true,"confidence":5},{"trial_n":176,"n_dots":2.95,"target":"left","response":"left","rt":718,"correct":true,"confidence":2},{"trial_n":177,"n_dots":2.85,"target":"right","response":"right","rt":280,"correct":true,"confidence":4},{"trial_n":178,"n_dots":2.85,"target":"left","response":"right","rt":522,"correct":false,"confidence":5},{"trial_n":179,"n_dots":2.95,"target":"right","response":"right","rt":609,"correct":true,"confidence":6},{"trial_n":180,"n_dots":2.95,"target":"left","response":"right","rt":783,"correct":false,"confidence":1},{"trial_n":181,"n_dots":3.05,"target":"right","response":"right","rt":494,"correct":true,"confidence":2},{"trial_n":182,"n_dots":3.05,"target":"left","response":"right","rt":366,"correct":false,"confidence":5},{"trial_n":183,"n_dots":3.15,"target":"left","response":"right","rt":751,"correct":false,"confidence":2},{"trial_n":184,"n_dots":3.25,"target":"right","response":"right","rt":1103,"correct":true,"confidence":6},{"trial_n":185,"n_dots":3.25,"target":"left","response":"left","rt":447,"correct":true,"confidence":2},{"trial_n":186,"n_dots":3.15,"target":"left","response":"left","rt":418,"correct":true,"confidence":5},{"trial_n":187,"n_dots":3.15,"target":"right","response":"right","rt":259,"correct":true,"confidence":6},{"trial_n":188,"n_dots":3.05,"target":"left","response":"left","rt":240,"correct":true,"confidence":6},{"trial_n":189,"n_dots":3.05,"target":"right","response":"right","rt":424,"correct":true,"confidence":4},{"trial_n":190,"n_dots":2.95,"target":"right","response":"right","rt":274,"correct":true,"confidence":5},{"trial_n":191,"n_dots":2.95,"target":"right","response":"right","rt":888,"correct":true,"confidence":2},{"trial_n":192,"n_dots":2.85,"target":"right","response":"right","rt":576,"correct":true,"confidence":1},{"trial_n":193,"n_dots":2.85,"target":"right","response":"right","rt":474,"correct":true,"confidence":2},{"trial_n":194,"n_dots":2.75,"target":"right","response":"right","rt":245,"correct":true,"confidence":4}]