[{"trial_n":1,"n_dots":4.25,"target":"left","response":"left","rt":7344.6999999881,"correct":true,"confidence":-1},{"trial_n":2,"n_dots":4.25,"target":"right","response":"right","rt":3317.5,"correct":true,"confidence":-1},{"trial_n":3,"n_dots":3.85,"target":"right","response":"right","rt":810.5,"correct":true,"confidence":-1},{"trial_n":4,"n_dots":3.85,"target":"left","response":"left","rt":558.59999996424,"correct":true,"confidence":-1},{"trial_n":5,"n_dots":3.45,"target":"left","response":"left","rt":402.09999996424,"correct":true,"confidence":-1},{"trial_n":6,"n_dots":3.45,"target":"left","response":"left","rt":532.69999998808,"correct":true,"confidence":-1},{"trial_n":7,"n_dots":3.05,"target":"left","response":"right","rt":479,"correct":false,"confidence":-1},{"trial_n":8,"n_dots":3.25,"target":"left","response":"right","rt":170.30000001192,"correct":false,"confidence":-1},{"trial_n":9,"n_dots":3.45,"target":"right","response":"right","rt":497.39999997616,"correct":true,"confidence":-1},{"trial_n":10,"n_dots":3.45,"target":"right","response":"right","rt":388,"correct":true,"confidence":-1},{"trial_n":11,"n_dots":3.25,"target":"left","response":"right","rt":560.30000001192,"correct":false,"confidence":-1},{"trial_n":12,"n_dots":3.45,"target":"right","response":"right","rt":262.69999998808,"correct":true,"confidence":-1},{"trial_n":13,"n_dots":3.45,"target":"left","response":"right","rt":378.30000001192,"correct":false,"confidence":-1},{"trial_n":14,"n_dots":3.55,"target":"right","response":"right","rt":463.39999997616,"correct":true,"confidence":-1},{"trial_n":15,"n_dots":3.55,"target":"right","response":"right","rt":466.5,"correct":true,"confidence":-1},{"trial_n":16,"n_dots":3.45,"target":"left","response":"left","rt":380.69999998808,"correct":true,"confidence":-1},{"trial_n":17,"n_dots":3.45,"target":"left","response":"left","rt":1228.1999999881,"correct":true,"confidence":-1},{"trial_n":18,"n_dots":3.35,"target":"right","response":"right","rt":497.09999996424,"correct":true,"confidence":-1},{"trial_n":19,"n_dots":3.35,"target":"right","response":"right","rt":381.5,"correct":true,"confidence":-1},{"trial_n":20,"n_dots":3.25,"target":"right","response":"right","rt":451.5,"correct":true,"confidence":-1},{"trial_n":21,"n_dots":3.25,"target":"left","response":"right","rt":130.09999996424,"correct":false,"confidence":-1},{"trial_n":22,"n_dots":3.35,"target":"right","response":"left","rt":866,"correct":false,"confidence":-1},{"trial_n":23,"n_dots":3.45,"target":"right","response":"right","rt":492.39999997616,"correct":true,"confidence":-1},{"trial_n":24,"n_dots":3.45,"target":"right","response":"right","rt":492.5,"correct":true,"confidence":-1},{"trial_n":25,"n_dots":3.35,"target":"right","response":"right","rt":310.5,"correct":true,"confidence":-1},{"trial_n":26,"n_dots":3.35,"target":"right","response":"right","rt":489.40000003576,"correct":true,"confidence":-1},{"trial_n":27,"n_dots":3.25,"target":"left","response":"left","rt":828.60000002384,"correct":true,"confidence":3},{"trial_n":28,"n_dots":3.25,"target":"right","response":"right","rt":67.899999976158,"correct":true,"confidence":3},{"trial_n":29,"n_dots":3.15,"target":"right","response":"right","rt":419.80000001192,"correct":true,"confidence":4},{"trial_n":30,"n_dots":3.15,"target":"right","response":"right","rt":176.5,"correct":true,"confidence":4},{"trial_n":31,"n_dots":3.05,"target":"left","response":"left","rt":959,"correct":true,"confidence":2},{"trial_n":32,"n_dots":3.05,"target":"right","response":"right","rt":865.19999998808,"correct":true,"confidence":4},{"trial_n":33,"n_dots":2.95,"target":"right","response":"right","rt":351.19999998808,"correct":true,"confidence":5},{"trial_n":34,"n_dots":2.95,"target":"right","response":"right","rt":135.19999998808,"correct":true,"confidence":5},{"trial_n":35,"n_dots":2.85,"target":"right","response":"right","rt":112.89999997616,"correct":true,"confidence":2},{"trial_n":36,"n_dots":2.85,"target":"left","response":"right","rt":746.30000001192,"correct":false,"confidence":3},{"trial_n":37,"n_dots":2.95,"target":"right","response":"right","rt":526.90000003576,"correct":true,"confidence":4},{"trial_n":38,"n_dots":2.95,"target":"left","response":"right","rt":408,"correct":false,"confidence":6},{"trial_n":39,"n_dots":3.05,"target":"right","response":"left","rt":707.19999998808,"correct":false,"confidence":3},{"trial_n":40,"n_dots":3.15,"target":"right","response":"right","rt":495.60000002384,"correct":true,"confidence":4},{"trial_n":41,"n_dots":3.15,"target":"right","response":"right","rt":2323.1000000238,"correct":true,"confidence":3},{"trial_n":42,"n_dots":3.05,"target":"right","response":"right","rt":338.60000002384,"correct":true,"confidence":1},{"trial_n":43,"n_dots":3.05,"target":"left","response":"left","rt":903.30000001192,"correct":true,"confidence":3},{"trial_n":44,"n_dots":2.95,"target":"right","response":"right","rt":508.30000001192,"correct":true,"confidence":5},{"trial_n":45,"n_dots":2.95,"target":"left","response":"right","rt":503.59999996424,"correct":false,"confidence":6},{"trial_n":46,"n_dots":3.05,"target":"left","response":"right","rt":511.89999997616,"correct":false,"confidence":2},{"trial_n":47,"n_dots":3.15,"target":"right","response":"right","rt":506.19999998808,"correct":true,"confidence":5},{"trial_n":48,"n_dots":3.15,"target":"right","response":"right","rt":1574.5999999642,"correct":true,"confidence":3},{"trial_n":49,"n_dots":3.05,"target":"left","response":"right","rt":629.60000002384,"correct":false,"confidence":4},{"trial_n":50,"n_dots":3.15,"target":"left","response":"left","rt":380.60000002384,"correct":true,"confidence":5},{"trial_n":51,"n_dots":3.15,"target":"right","response":"right","rt":554.69999998808,"correct":true,"confidence":2},{"trial_n":52,"n_dots":3.05,"target":"left","response":"right","rt":624.80000001192,"correct":false,"confidence":3},{"trial_n":53,"n_dots":3.15,"target":"right","response":"right","rt":470.40000003576,"correct":true,"confidence":5},{"trial_n":54,"n_dots":3.15,"target":"left","response":"right","rt":427.69999998808,"correct":false,"confidence":5},{"trial_n":55,"n_dots":3.25,"target":"right","response":"right","rt":1173.8999999762,"correct":true,"confidence":6},{"trial_n":56,"n_dots":3.25,"target":"left","response":"right","rt":608.5,"correct":false,"confidence":2},{"trial_n":57,"n_dots":3.35,"target":"right","response":"right","rt":416.69999998808,"correct":true,"confidence":4},{"trial_n":58,"n_dots":3.35,"target":"left","response":"right","rt":407.69999998808,"correct":false,"confidence":5},{"trial_n":59,"n_dots":3.45,"target":"right","response":"right","rt":424.19999998808,"correct":true,"confidence":4},{"trial_n":60,"n_dots":3.45,"target":"left","response":"right","rt":439.89999997616,"correct":false,"confidence":3},{"trial_n":61,"n_dots":3.55,"target":"right","response":"right","rt":493,"correct":true,"confidence":5},{"trial_n":62,"n_dots":3.55,"target":"left","response":"right","rt":380.5,"correct":false,"confidence":5},{"trial_n":63,"n_dots":3.65,"target":"right","response":"right","rt":323.30000001192,"correct":true,"confidence":5},{"trial_n":64,"n_dots":3.65,"target":"left","response":"left","rt":289.10000002384,"correct":true,"confidence":6},{"trial_n":65,"n_dots":3.55,"target":"left","response":"left","rt":990.79999995232,"correct":true,"confidence":6},{"trial_n":66,"n_dots":3.55,"target":"left","response":"left","rt":296.40000003576,"correct":true,"confidence":6},{"trial_n":67,"n_dots":3.45,"target":"left","response":"left","rt":508.19999998808,"correct":true,"confidence":6},{"trial_n":68,"n_dots":3.45,"target":"right","response":"right","rt":158.80000001192,"correct":true,"confidence":6},{"trial_n":69,"n_dots":3.35,"target":"left","response":"left","rt":440.5,"correct":true,"confidence":6},{"trial_n":70,"n_dots":3.35,"target":"left","response":"left","rt":136.30000001192,"correct":true,"confidence":6},{"trial_n":71,"n_dots":3.25,"target":"right","response":"right","rt":135,"correct":true,"confidence":5},{"trial_n":72,"n_dots":3.25,"target":"left","response":"left","rt":504.59999996424,"correct":true,"confidence":6},{"trial_n":73,"n_dots":3.15,"target":"left","response":"right","rt":284.19999998808,"correct":false,"confidence":5},{"trial_n":74,"n_dots":3.25,"target":"left","response":"left","rt":245.30000001192,"correct":true,"confidence":6},{"trial_n":75,"n_dots":3.25,"target":"left","response":"left","rt":544.69999998808,"correct":true,"confidence":5},{"trial_n":76,"n_dots":3.15,"target":"left","response":"left","rt":164.30000001192,"correct":true,"confidence":5},{"trial_n":77,"n_dots":3.15,"target":"left","response":"left","rt":221.80000001192,"correct":true,"confidence":5},{"trial_n":78,"n_dots":3.05,"target":"left","response":"right","rt":1055,"correct":false,"confidence":5},{"trial_n":79,"n_dots":3.15,"target":"left","response":"left","rt":574.80000001192,"correct":true,"confidence":4},{"trial_n":80,"n_dots":3.15,"target":"right","response":"right","rt":182.30000001192,"correct":true,"confidence":5},{"trial_n":81,"n_dots":3.05,"target":"left","response":"right","rt":567.5,"correct":false,"confidence":6},{"trial_n":82,"n_dots":3.15,"target":"left","response":"left","rt":272.09999996424,"correct":true,"confidence":5},{"trial_n":83,"n_dots":3.15,"target":"right","response":"right","rt":368.89999997616,"correct":true,"confidence":5},{"trial_n":84,"n_dots":3.05,"target":"left","response":"left","rt":75.199999988079,"correct":true,"confidence":6},{"trial_n":85,"n_dots":3.05,"target":"right","response":"right","rt":24.599999964237,"correct":true,"confidence":5},{"trial_n":86,"n_dots":2.95,"target":"right","response":"right","rt":313.5,"correct":true,"confidence":5},{"trial_n":87,"n_dots":2.95,"target":"right","response":"right","rt":402.80000001192,"correct":true,"confidence":5},{"trial_n":88,"n_dots":2.85,"target":"right","response":"right","rt":651.30000001192,"correct":true,"confidence":5},{"trial_n":89,"n_dots":2.85,"target":"left","response":"left","rt":184.5,"correct":true,"confidence":6},{"trial_n":90,"n_dots":2.75,"target":"left","response":"right","rt":1594.5,"correct":false,"confidence":6},{"trial_n":91,"n_dots":2.85,"target":"left","response":"left","rt":589.5,"correct":true,"confidence":6},{"trial_n":92,"n_dots":2.85,"target":"left","response":"right","rt":447.80000001192,"correct":false,"confidence":6},{"trial_n":93,"n_dots":2.95,"target":"left","response":"right","rt":1218.8000000119,"correct":false,"confidence":4},{"trial_n":94,"n_dots":3.05,"target":"left","response":"right","rt":462.79999995232,"correct":false,"confidence":5},{"trial_n":95,"n_dots":3.15,"target":"right","response":"right","rt":172,"correct":true,"confidence":5},{"trial_n":96,"n_dots":3.15,"target":"right","response":"left","rt":307.69999998808,"correct":false,"confidence":5},{"trial_n":97,"n_dots":3.25,"target":"right","response":"right","rt":219.89999997616,"correct":true,"confidence":5},{"trial_n":98,"n_dots":3.25,"target":"right","response":"right","rt":252.19999998808,"correct":true,"confidence":5},{"trial_n":99,"n_dots":3.15,"target":"left","response":"right","rt":404.19999998808,"correct":false,"confidence":5},{"trial_n":100,"n_dots":3.25,"target":"right","response":"right","rt":150.69999998808,"correct":true,"confidence":4},{"trial_n":101,"n_dots":3.25,"target":"right","response":"right","rt":835.60000002384,"correct":true,"confidence":1},{"trial_n":102,"n_dots":3.15,"target":"left","response":"left","rt":46.300000011921,"correct":true,"confidence":5},{"trial_n":103,"n_dots":3.15,"target":"left","response":"right","rt":404.90000003576,"correct":false,"confidence":2},{"trial_n":104,"n_dots":3.25,"target":"left","response":"right","rt":643.39999997616,"correct":false,"confidence":5},{"trial_n":105,"n_dots":3.35,"target":"right","response":"right","rt":392,"correct":true,"confidence":4},{"trial_n":106,"n_dots":3.35,"target":"left","response":"right","rt":495.30000001192,"correct":false,"confidence":1},{"trial_n":107,"n_dots":3.45,"target":"right","response":"right","rt":1473.5999999642,"correct":true,"confidence":2},{"trial_n":108,"n_dots":3.45,"target":"right","response":"right","rt":314.89999997616,"correct":true,"confidence":4},{"trial_n":109,"n_dots":3.35,"target":"right","response":"right","rt":533.5,"correct":true,"confidence":3},{"trial_n":110,"n_dots":3.35,"target":"right","response":"right","rt":340.30000001192,"correct":true,"confidence":6},{"trial_n":111,"n_dots":3.25,"target":"left","response":"right","rt":451.59999996424,"correct":false,"confidence":5},{"trial_n":112,"n_dots":3.35,"target":"left","response":"right","rt":466.10000002384,"correct":false,"confidence":6},{"trial_n":113,"n_dots":3.45,"target":"left","response":"left","rt":852.5,"correct":true,"confidence":3},{"trial_n":114,"n_dots":3.45,"target":"left","response":"left","rt":250.80000001192,"correct":true,"confidence":6},{"trial_n":115,"n_dots":3.35,"target":"right","response":"right","rt":7177.6999999881,"correct":true,"confidence":4},{"trial_n":116,"n_dots":3.35,"target":"left","response":"right","rt":1236.5,"correct":false,"confidence":3},{"trial_n":117,"n_dots":3.45,"target":"left","response":"left","rt":723.19999998808,"correct":true,"confidence":4},{"trial_n":118,"n_dots":3.45,"target":"right","response":"right","rt":358,"correct":true,"confidence":4},{"trial_n":119,"n_dots":3.35,"target":"right","response":"right","rt":301.5,"correct":true,"confidence":5},{"trial_n":120,"n_dots":3.35,"target":"right","response":"right","rt":327,"correct":true,"confidence":5},{"trial_n":121,"n_dots":3.25,"target":"right","response":"right","rt":809.10000002384,"correct":true,"confidence":5},{"trial_n":122,"n_dots":3.25,"target":"right","response":"right","rt":2099.8000000119,"correct":true,"confidence":4},{"trial_n":123,"n_dots":3.15,"target":"left","response":"left","rt":319.5,"correct":true,"confidence":6},{"trial_n":124,"n_dots":3.15,"target":"left","response":"left","rt":486.90000003576,"correct":true,"confidence":6},{"trial_n":125,"n_dots":3.05,"target":"left","response":"left","rt":777,"correct":true,"confidence":6},{"trial_n":126,"n_dots":3.05,"target":"right","response":"left","rt":514.10000002384,"correct":false,"confidence":6},{"trial_n":127,"n_dots":3.15,"target":"right","response":"right","rt":1330.0999999642,"correct":true,"confidence":6},{"trial_n":128,"n_dots":3.15,"target":"left","response":"left","rt":411.09999996424,"correct":true,"confidence":6},{"trial_n":129,"n_dots":3.05,"target":"right","response":"right","rt":433.5,"correct":true,"confidence":5},{"trial_n":130,"n_dots":3.05,"target":"left","response":"right","rt":588,"correct":false,"confidence":5},{"trial_n":131,"n_dots":3.15,"target":"right","response":"left","rt":445.5,"correct":false,"confidence":6},{"trial_n":132,"n_dots":3.25,"target":"left","response":"left","rt":361.09999996424,"correct":true,"confidence":5},{"trial_n":133,"n_dots":3.25,"target":"left","response":"right","rt":852.90000003576,"correct":false,"confidence":5},{"trial_n":134,"n_dots":3.35,"target":"left","response":"left","rt":732.10000002384,"correct":true,"confidence":5},{"trial_n":135,"n_dots":3.35,"target":"right","response":"left","rt":4321,"correct":false,"confidence":4},{"trial_n":136,"n_dots":3.45,"target":"right","response":"right","rt":931.60000002384,"correct":true,"confidence":5},{"trial_n":137,"n_dots":3.45,"target":"right","response":"right","rt":808.30000001192,"correct":true,"confidence":6},{"trial_n":138,"n_dots":3.35,"target":"right","response":"right","rt":389.60000002384,"correct":true,"confidence":6},{"trial_n":139,"n_dots":3.35,"target":"left","response":"left","rt":13.700000047684,"correct":true,"confidence":6},{"trial_n":140,"n_dots":3.25,"target":"right","response":"left","rt":129.5,"correct":false,"confidence":6},{"trial_n":141,"n_dots":3.35,"target":"left","response":"left","rt":453.69999998808,"correct":true,"confidence":5},{"trial_n":142,"n_dots":3.35,"target":"left","response":"right","rt":473.79999995232,"correct":false,"confidence":1},{"trial_n":143,"n_dots":3.45,"target":"left","response":"left","rt":56.799999952316,"correct":true,"confidence":6},{"trial_n":144,"n_dots":3.45,"target":"left","response":"left","rt":225.60000002384,"correct":true,"confidence":6},{"trial_n":145,"n_dots":3.35,"target":"left","response":"left","rt":11.599999964237,"correct":true,"confidence":6},{"trial_n":146,"n_dots":3.35,"target":"right","response":"right","rt":239.69999998808,"correct":true,"confidence":6},{"trial_n":147,"n_dots":3.25,"target":"right","response":"right","rt":664.40000003576,"correct":true,"confidence":4},{"trial_n":148,"n_dots":3.25,"target":"left","response":"left","rt":345.19999998808,"correct":true,"confidence":4},{"trial_n":149,"n_dots":3.15,"target":"right","response":"right","rt":127.60000002384,"correct":true,"confidence":5},{"trial_n":150,"n_dots":3.15,"target":"left","response":"left","rt":84.300000011921,"correct":true,"confidence":5},{"trial_n":151,"n_dots":3.05,"target":"left","response":"left","rt":199.39999997616,"correct":true,"confidence":5},{"trial_n":152,"n_dots":3.05,"target":"right","response":"left","rt":342.90000003576,"correct":false,"confidence":5},{"trial_n":153,"n_dots":3.15,"target":"right","response":"right","rt":1068.6999999881,"correct":true,"confidence":3},{"trial_n":154,"n_dots":3.15,"target":"left","response":"left","rt":552.69999998808,"correct":true,"confidence":4},{"trial_n":155,"n_dots":3.05,"target":"left","response":"left","rt":113.90000003576,"correct":true,"confidence":5},{"trial_n":156,"n_dots":3.05,"target":"left","response":"right","rt":713.09999996424,"correct":false,"confidence":5},{"trial_n":157,"n_dots":3.15,"target":"left","response":"right","rt":1304.6000000238,"correct":false,"confidence":3},{"trial_n":158,"n_dots":3.25,"target":"left","response":"left","rt":635.19999998808,"correct":true,"confidence":5},{"trial_n":159,"n_dots":3.25,"target":"right","response":"right","rt":248.80000001192,"correct":true,"confidence":5},{"trial_n":160,"n_dots":3.15,"target":"right","response":"right","rt":538.69999998808,"correct":true,"confidence":4},{"trial_n":161,"n_dots":3.15,"target":"right","response":"right","rt":543.40000003576,"correct":true,"confidence":5},{"trial_n":162,"n_dots":3.05,"target":"left","response":"right","rt":375.80000001192,"correct":false,"confidence":5},{"trial_n":163,"n_dots":3.15,"target":"right","response":"right","rt":308.30000001192,"correct":true,"confidence":4},{"trial_n":164,"n_dots":3.15,"target":"left","response":"left","rt":596.5,"correct":true,"confidence":5},{"trial_n":165,"n_dots":3.05,"target":"right","response":"right","rt":355.09999996424,"correct":true,"confidence":5},{"trial_n":166,"n_dots":3.05,"target":"right","response":"left","rt":1070.3000000119,"correct":false,"confidence":3},{"trial_n":167,"n_dots":3.15,"target":"left","response":"left","rt":387.09999996424,"correct":true,"confidence":5},{"trial_n":168,"n_dots":3.15,"target":"right","response":"left","rt":561.30000001192,"correct":false,"confidence":5},{"trial_n":169,"n_dots":3.25,"target":"left","response":"left","rt":186.89999997616,"correct":true,"confidence":5},{"trial_n":170,"n_dots":3.25,"target":"left","response":"left","rt":563.39999997616,"correct":true,"confidence":5},{"trial_n":171,"n_dots":3.15,"target":"left","response":"left","rt":655.69999998808,"correct":true,"confidence":5},{"trial_n":172,"n_dots":3.15,"target":"right","response":"left","rt":962,"correct":false,"confidence":5},{"trial_n":173,"n_dots":3.25,"target":"left","response":"left","rt":450.89999997616,"correct":true,"confidence":4},{"trial_n":174,"n_dots":3.25,"target":"right","response":"right","rt":290.90000003576,"correct":true,"confidence":6},{"trial_n":175,"n_dots":3.15,"target":"right","response":"right","rt":289.69999998808,"correct":true,"confidence":5},{"trial_n":176,"n_dots":3.15,"target":"right","response":"right","rt":732.5,"correct":true,"confidence":5},{"trial_n":177,"n_dots":3.05,"target":"right","response":"right","rt":436.5,"correct":true,"confidence":5},{"trial_n":178,"n_dots":3.05,"target":"right","response":"right","rt":381,"correct":true,"confidence":6},{"trial_n":179,"n_dots":2.95,"target":"left","response":"left","rt":702.19999998808,"correct":true,"confidence":5},{"trial_n":180,"n_dots":2.95,"target":"left","response":"left","rt":472,"correct":true,"confidence":4},{"trial_n":181,"n_dots":2.85,"target":"left","response":"left","rt":660.39999997616,"correct":true,"confidence":4},{"trial_n":182,"n_dots":2.85,"target":"right","response":"right","rt":475,"correct":true,"confidence":5},{"trial_n":183,"n_dots":2.75,"target":"left","response":"left","rt":361.10000002384,"correct":true,"confidence":5},{"trial_n":184,"n_dots":2.75,"target":"right","response":"left","rt":96.199999988079,"correct":false,"confidence":5},{"trial_n":185,"n_dots":2.85,"target":"right","response":"right","rt":186.60000002384,"correct":true,"confidence":6},{"trial_n":186,"n_dots":2.85,"target":"left","response":"left","rt":158.10000002384,"correct":true,"confidence":5},{"trial_n":187,"n_dots":2.75,"target":"right","response":"right","rt":361.19999998808,"correct":true,"confidence":5},{"trial_n":188,"n_dots":2.75,"target":"left","response":"right","rt":1965.0999999642,"correct":false,"confidence":5},{"trial_n":189,"n_dots":2.85,"target":"right","response":"right","rt":1117.5,"correct":true,"confidence":5},{"trial_n":190,"n_dots":2.85,"target":"right","response":"right","rt":292.30000001192,"correct":true,"confidence":5},{"trial_n":191,"n_dots":2.75,"target":"right","response":"right","rt":353.10000002384,"correct":true,"confidence":5},{"trial_n":192,"n_dots":2.75,"target":"right","response":"right","rt":629.30000001192,"correct":true,"confidence":5},{"trial_n":193,"n_dots":2.65,"target":"left","response":"right","rt":556.60000002384,"correct":false,"confidence":5},{"trial_n":194,"n_dots":2.75,"target":"left","response":"right","rt":454.10000002384,"correct":false,"confidence":4}]