[{"trial_n":1,"n_dots":4.25,"target":"right","response":"right","rt":9042,"correct":true,"confidence":-1},{"trial_n":2,"n_dots":4.25,"target":"right","response":"right","rt":1410.3000000119,"correct":true,"confidence":-1},{"trial_n":3,"n_dots":3.85,"target":"right","response":"right","rt":730.19999998808,"correct":true,"confidence":-1},{"trial_n":4,"n_dots":3.85,"target":"right","response":"right","rt":1556.4000000358,"correct":true,"confidence":-1},{"trial_n":5,"n_dots":3.45,"target":"right","response":"right","rt":834.19999998808,"correct":true,"confidence":-1},{"trial_n":6,"n_dots":3.45,"target":"left","response":"left","rt":1194.3000000119,"correct":true,"confidence":-1},{"trial_n":7,"n_dots":3.05,"target":"left","response":"left","rt":1112.6999999881,"correct":true,"confidence":-1},{"trial_n":8,"n_dots":3.05,"target":"left","response":"right","rt":959.79999995232,"correct":false,"confidence":-1},{"trial_n":9,"n_dots":3.25,"target":"left","response":"right","rt":687.69999998808,"correct":false,"confidence":-1},{"trial_n":10,"n_dots":3.45,"target":"right","response":"right","rt":951.09999996424,"correct":true,"confidence":-1},{"trial_n":11,"n_dots":3.45,"target":"left","response":"left","rt":680.19999998808,"correct":true,"confidence":-1},{"trial_n":12,"n_dots":3.25,"target":"left","response":"left","rt":796,"correct":true,"confidence":-1},{"trial_n":13,"n_dots":3.25,"target":"right","response":"right","rt":388,"correct":true,"confidence":-1},{"trial_n":14,"n_dots":3.15,"target":"right","response":"right","rt":456.29999995232,"correct":true,"confidence":-1},{"trial_n":15,"n_dots":3.15,"target":"left","response":"left","rt":522.79999995232,"correct":true,"confidence":-1},{"trial_n":16,"n_dots":3.05,"target":"left","response":"left","rt":537.10000002384,"correct":true,"confidence":-1},{"trial_n":17,"n_dots":3.05,"target":"right","response":"right","rt":50.199999988079,"correct":true,"confidence":-1},{"trial_n":18,"n_dots":2.95,"target":"left","response":"right","rt":1062.3999999762,"correct":false,"confidence":-1},{"trial_n":19,"n_dots":3.05,"target":"left","response":"left","rt":682.40000003576,"correct":true,"confidence":-1},{"trial_n":20,"n_dots":3.05,"target":"left","response":"right","rt":708.19999998808,"correct":false,"confidence":-1},{"trial_n":21,"n_dots":3.15,"target":"left","response":"left","rt":521.19999998808,"correct":true,"confidence":-1},{"trial_n":22,"n_dots":3.15,"target":"right","response":"right","rt":548.80000001192,"correct":true,"confidence":-1},{"trial_n":23,"n_dots":3.05,"target":"left","response":"left","rt":422.19999998808,"correct":true,"confidence":-1},{"trial_n":24,"n_dots":3.05,"target":"right","response":"right","rt":388.40000003576,"correct":true,"confidence":-1},{"trial_n":25,"n_dots":2.95,"target":"right","response":"right","rt":413.79999995232,"correct":true,"confidence":-1},{"trial_n":26,"n_dots":2.95,"target":"right","response":"right","rt":401.09999996424,"correct":true,"confidence":-1},{"trial_n":27,"n_dots":2.85,"target":"left","response":"left","rt":343.69999998808,"correct":true,"confidence":6},{"trial_n":28,"n_dots":2.85,"target":"right","response":"right","rt":771.09999996424,"correct":true,"confidence":6},{"trial_n":29,"n_dots":2.75,"target":"right","response":"right","rt":659.29999995232,"correct":true,"confidence":5},{"trial_n":30,"n_dots":2.75,"target":"left","response":"left","rt":701.40000003576,"correct":true,"confidence":4},{"trial_n":31,"n_dots":2.65,"target":"left","response":"left","rt":403.5,"correct":true,"confidence":6},{"trial_n":32,"n_dots":2.65,"target":"left","response":"right","rt":1169.5999999642,"correct":false,"confidence":3},{"trial_n":33,"n_dots":2.75,"target":"right","response":"right","rt":430.5,"correct":true,"confidence":4},{"trial_n":34,"n_dots":2.75,"target":"left","response":"right","rt":565.5,"correct":false,"confidence":4},{"trial_n":35,"n_dots":2.85,"target":"right","response":"right","rt":590.09999996424,"correct":true,"confidence":3},{"trial_n":36,"n_dots":2.85,"target":"left","response":"left","rt":421.39999997616,"correct":true,"confidence":5},{"trial_n":37,"n_dots":2.75,"target":"left","response":"left","rt":775.80000001192,"correct":true,"confidence":4},{"trial_n":38,"n_dots":2.75,"target":"left","response":"left","rt":825.89999997616,"correct":true,"confidence":2},{"trial_n":39,"n_dots":2.65,"target":"right","response":"right","rt":437.5,"correct":true,"confidence":5},{"trial_n":40,"n_dots":2.65,"target":"left","response":"right","rt":1059.0999999642,"correct":false,"confidence":2},{"trial_n":41,"n_dots":2.75,"target":"right","response":"right","rt":1303,"correct":true,"confidence":3},{"trial_n":42,"n_dots":2.75,"target":"right","response":"right","rt":469.59999996424,"correct":true,"confidence":4},{"trial_n":43,"n_dots":2.65,"target":"right","response":"right","rt":845.60000002384,"correct":true,"confidence":2},{"trial_n":44,"n_dots":2.65,"target":"left","response":"right","rt":481.19999998808,"correct":false,"confidence":3},{"trial_n":45,"n_dots":2.75,"target":"right","response":"right","rt":504.19999998808,"correct":true,"confidence":5},{"trial_n":46,"n_dots":2.75,"target":"right","response":"right","rt":419,"correct":true,"confidence":5},{"trial_n":47,"n_dots":2.65,"target":"left","response":"right","rt":566.19999998808,"correct":false,"confidence":2},{"trial_n":48,"n_dots":2.75,"target":"left","response":"left","rt":826,"correct":true,"confidence":2},{"trial_n":49,"n_dots":2.75,"target":"right","response":"right","rt":433.19999998808,"correct":true,"confidence":2},{"trial_n":50,"n_dots":2.65,"target":"right","response":"left","rt":1189.3000000119,"correct":false,"confidence":2},{"trial_n":51,"n_dots":2.75,"target":"right","response":"right","rt":482.70000004768,"correct":true,"confidence":3},{"trial_n":52,"n_dots":2.75,"target":"right","response":"right","rt":637.30000001192,"correct":true,"confidence":2},{"trial_n":53,"n_dots":2.65,"target":"right","response":"right","rt":476.10000002384,"correct":true,"confidence":5},{"trial_n":54,"n_dots":2.65,"target":"left","response":"left","rt":909.10000002384,"correct":true,"confidence":3},{"trial_n":55,"n_dots":2.55,"target":"left","response":"left","rt":864,"correct":true,"confidence":2},{"trial_n":56,"n_dots":2.55,"target":"right","response":"right","rt":393.30000001192,"correct":true,"confidence":5},{"trial_n":57,"n_dots":2.45,"target":"right","response":"right","rt":496.90000003576,"correct":true,"confidence":4},{"trial_n":58,"n_dots":2.45,"target":"left","response":"right","rt":773.80000001192,"correct":false,"confidence":2},{"trial_n":59,"n_dots":2.55,"target":"right","response":"right","rt":609.19999998808,"correct":true,"confidence":2},{"trial_n":60,"n_dots":2.55,"target":"left","response":"right","rt":685.60000002384,"correct":false,"confidence":3},{"trial_n":61,"n_dots":2.65,"target":"left","response":"right","rt":421.30000001192,"correct":false,"confidence":5},{"trial_n":62,"n_dots":2.75,"target":"left","response":"right","rt":1007.5,"correct":false,"confidence":4},{"trial_n":63,"n_dots":2.85,"target":"right","response":"right","rt":436.30000001192,"correct":true,"confidence":5},{"trial_n":64,"n_dots":2.85,"target":"right","response":"right","rt":397.30000001192,"correct":true,"confidence":5},{"trial_n":65,"n_dots":2.75,"target":"left","response":"left","rt":654.20000004768,"correct":true,"confidence":2},{"trial_n":66,"n_dots":2.75,"target":"left","response":"left","rt":601.70000004768,"correct":true,"confidence":2},{"trial_n":67,"n_dots":2.65,"target":"left","response":"right","rt":512.40000003576,"correct":false,"confidence":2},{"trial_n":68,"n_dots":2.75,"target":"left","response":"left","rt":703.60000002384,"correct":true,"confidence":2},{"trial_n":69,"n_dots":2.75,"target":"left","response":"left","rt":367.5,"correct":true,"confidence":4},{"trial_n":70,"n_dots":2.65,"target":"left","response":"left","rt":768.80000001192,"correct":true,"confidence":4},{"trial_n":71,"n_dots":2.65,"target":"right","response":"right","rt":510.20000004768,"correct":true,"confidence":4},{"trial_n":72,"n_dots":2.55,"target":"right","response":"left","rt":909,"correct":false,"confidence":3},{"trial_n":73,"n_dots":2.65,"target":"left","response":"right","rt":503.10000002384,"correct":false,"confidence":5},{"trial_n":74,"n_dots":2.75,"target":"right","response":"right","rt":749.10000002384,"correct":true,"confidence":5},{"trial_n":75,"n_dots":2.75,"target":"right","response":"right","rt":518,"correct":true,"confidence":5},{"trial_n":76,"n_dots":2.65,"target":"right","response":"left","rt":602.89999997616,"correct":false,"confidence":3},{"trial_n":77,"n_dots":2.75,"target":"right","response":"right","rt":394.40000003576,"correct":true,"confidence":6},{"trial_n":78,"n_dots":2.75,"target":"right","response":"right","rt":395.89999997616,"correct":true,"confidence":6},{"trial_n":79,"n_dots":2.65,"target":"right","response":"right","rt":875.09999996424,"correct":true,"confidence":5},{"trial_n":80,"n_dots":2.65,"target":"right","response":"right","rt":506.59999996424,"correct":true,"confidence":5},{"trial_n":81,"n_dots":2.55,"target":"right","response":"right","rt":527.39999997616,"correct":true,"confidence":5},{"trial_n":82,"n_dots":2.55,"target":"left","response":"left","rt":1098.0999999642,"correct":true,"confidence":2},{"trial_n":83,"n_dots":2.45,"target":"left","response":"right","rt":1152.6999999881,"correct":false,"confidence":6},{"trial_n":84,"n_dots":2.55,"target":"right","response":"right","rt":1296.0999999642,"correct":true,"confidence":3},{"trial_n":85,"n_dots":2.55,"target":"right","response":"left","rt":1290.0999999642,"correct":false,"confidence":2},{"trial_n":86,"n_dots":2.65,"target":"left","response":"right","rt":484.89999997616,"correct":false,"confidence":5},{"trial_n":87,"n_dots":2.75,"target":"right","response":"right","rt":468.09999996424,"correct":true,"confidence":2},{"trial_n":88,"n_dots":2.75,"target":"left","response":"right","rt":443.89999997616,"correct":false,"confidence":2},{"trial_n":89,"n_dots":2.85,"target":"right","response":"right","rt":410.59999996424,"correct":true,"confidence":4},{"trial_n":90,"n_dots":2.85,"target":"left","response":"right","rt":470,"correct":false,"confidence":4},{"trial_n":91,"n_dots":2.95,"target":"right","response":"right","rt":468.69999998808,"correct":true,"confidence":3},{"trial_n":92,"n_dots":2.95,"target":"right","response":"right","rt":409.30000001192,"correct":true,"confidence":5},{"trial_n":93,"n_dots":2.85,"target":"right","response":"right","rt":457,"correct":true,"confidence":5},{"trial_n":94,"n_dots":2.85,"target":"right","response":"right","rt":524.89999997616,"correct":true,"confidence":3},{"trial_n":95,"n_dots":2.75,"target":"left","response":"right","rt":399,"correct":false,"confidence":2},{"trial_n":96,"n_dots":2.85,"target":"left","response":"right","rt":409.59999996424,"correct":false,"confidence":3},{"trial_n":97,"n_dots":2.95,"target":"right","response":"right","rt":629.30000001192,"correct":true,"confidence":5},{"trial_n":98,"n_dots":2.95,"target":"left","response":"left","rt":880.69999998808,"correct":true,"confidence":2},{"trial_n":99,"n_dots":2.85,"target":"right","response":"right","rt":474.60000002384,"correct":true,"confidence":4},{"trial_n":100,"n_dots":2.85,"target":"left","response":"left","rt":627.90000003576,"correct":true,"confidence":2},{"trial_n":101,"n_dots":2.75,"target":"right","response":"right","rt":376.5,"correct":true,"confidence":4},{"trial_n":102,"n_dots":2.75,"target":"left","response":"right","rt":664.90000003576,"correct":false,"confidence":2},{"trial_n":103,"n_dots":2.85,"target":"left","response":"left","rt":586.89999997616,"correct":true,"confidence":3},{"trial_n":104,"n_dots":2.85,"target":"left","response":"right","rt":496.60000002384,"correct":false,"confidence":3},{"trial_n":105,"n_dots":2.95,"target":"right","response":"right","rt":372.40000003576,"correct":true,"confidence":4},{"trial_n":106,"n_dots":2.95,"target":"left","response":"right","rt":597.40000003576,"correct":false,"confidence":4},{"trial_n":107,"n_dots":3.05,"target":"left","response":"right","rt":1384.1999999881,"correct":false,"confidence":3},{"trial_n":108,"n_dots":3.15,"target":"left","response":"left","rt":1117.3999999762,"correct":true,"confidence":3},{"trial_n":109,"n_dots":3.15,"target":"left","response":"left","rt":519.69999998808,"correct":true,"confidence":2},{"trial_n":110,"n_dots":3.05,"target":"left","response":"right","rt":564.19999998808,"correct":false,"confidence":2},{"trial_n":111,"n_dots":3.15,"target":"left","response":"left","rt":387.19999998808,"correct":true,"confidence":3},{"trial_n":112,"n_dots":3.15,"target":"left","response":"right","rt":1088.1000000238,"correct":false,"confidence":3},{"trial_n":113,"n_dots":3.25,"target":"left","response":"left","rt":458.40000003576,"correct":true,"confidence":6},{"trial_n":114,"n_dots":3.25,"target":"left","response":"left","rt":520,"correct":true,"confidence":3},{"trial_n":115,"n_dots":3.15,"target":"left","response":"right","rt":447.5,"correct":false,"confidence":6},{"trial_n":116,"n_dots":3.25,"target":"left","response":"left","rt":576.10000002384,"correct":true,"confidence":3},{"trial_n":117,"n_dots":3.25,"target":"left","response":"left","rt":702.29999995232,"correct":true,"confidence":2},{"trial_n":118,"n_dots":3.15,"target":"left","response":"right","rt":600.19999998808,"correct":false,"confidence":6},{"trial_n":119,"n_dots":3.25,"target":"right","response":"right","rt":601.79999995232,"correct":true,"confidence":4},{"trial_n":120,"n_dots":3.25,"target":"right","response":"right","rt":439.40000003576,"correct":true,"confidence":5},{"trial_n":121,"n_dots":3.15,"target":"right","response":"right","rt":428.10000002384,"correct":true,"confidence":5},{"trial_n":122,"n_dots":3.15,"target":"right","response":"right","rt":485.30000001192,"correct":true,"confidence":5},{"trial_n":123,"n_dots":3.05,"target":"right","response":"right","rt":393.5,"correct":true,"confidence":5},{"trial_n":124,"n_dots":3.05,"target":"left","response":"right","rt":570.5,"correct":false,"confidence":2},{"trial_n":125,"n_dots":3.15,"target":"right","response":"right","rt":489.09999996424,"correct":true,"confidence":2},{"trial_n":126,"n_dots":3.15,"target":"right","response":"right","rt":434.39999997616,"correct":true,"confidence":3},{"trial_n":127,"n_dots":3.05,"target":"right","response":"right","rt":439.5,"correct":true,"confidence":5},{"trial_n":128,"n_dots":3.05,"target":"left","response":"left","rt":3216.0999999642,"correct":true,"confidence":2},{"trial_n":129,"n_dots":2.95,"target":"left","response":"right","rt":486.5,"correct":false,"confidence":3},{"trial_n":130,"n_dots":3.05,"target":"left","response":"left","rt":1285.2999999523,"correct":true,"confidence":2},{"trial_n":131,"n_dots":3.05,"target":"right","response":"right","rt":411.19999998808,"correct":true,"confidence":5},{"trial_n":132,"n_dots":2.95,"target":"left","response":"right","rt":827.39999997616,"correct":false,"confidence":3},{"trial_n":133,"n_dots":3.05,"target":"left","response":"left","rt":602.69999998808,"correct":true,"confidence":2},{"trial_n":134,"n_dots":3.05,"target":"left","response":"right","rt":725.39999997616,"correct":false,"confidence":5},{"trial_n":135,"n_dots":3.15,"target":"left","response":"left","rt":535.5,"correct":true,"confidence":2},{"trial_n":136,"n_dots":3.15,"target":"right","response":"right","rt":593.60000002384,"correct":true,"confidence":4},{"trial_n":137,"n_dots":3.05,"target":"right","response":"right","rt":497.89999997616,"correct":true,"confidence":3},{"trial_n":138,"n_dots":3.05,"target":"left","response":"left","rt":479.29999995232,"correct":true,"confidence":2},{"trial_n":139,"n_dots":2.95,"target":"right","response":"right","rt":541.60000002384,"correct":true,"confidence":4},{"trial_n":140,"n_dots":2.95,"target":"right","response":"right","rt":519.5,"correct":true,"confidence":4},{"trial_n":141,"n_dots":2.85,"target":"left","response":"left","rt":1042.8000000119,"correct":true,"confidence":3},{"trial_n":142,"n_dots":2.85,"target":"right","response":"right","rt":711.39999997616,"correct":true,"confidence":3},{"trial_n":143,"n_dots":2.75,"target":"right","response":"right","rt":466.69999998808,"correct":true,"confidence":6},{"trial_n":144,"n_dots":2.75,"target":"left","response":"left","rt":946.39999997616,"correct":true,"confidence":3},{"trial_n":145,"n_dots":2.65,"target":"right","response":"right","rt":483.39999997616,"correct":true,"confidence":6},{"trial_n":146,"n_dots":2.65,"target":"left","response":"right","rt":593.5,"correct":false,"confidence":6},{"trial_n":147,"n_dots":2.75,"target":"left","response":"left","rt":572.89999997616,"correct":true,"confidence":3},{"trial_n":148,"n_dots":2.75,"target":"left","response":"left","rt":704.80000001192,"correct":true,"confidence":5},{"trial_n":149,"n_dots":2.65,"target":"right","response":"right","rt":1041.8000000119,"correct":true,"confidence":5},{"trial_n":150,"n_dots":2.65,"target":"left","response":"right","rt":591.90000003576,"correct":false,"confidence":3},{"trial_n":151,"n_dots":2.75,"target":"right","response":"right","rt":518.10000002384,"correct":true,"confidence":3},{"trial_n":152,"n_dots":2.75,"target":"right","response":"left","rt":846.39999997616,"correct":false,"confidence":2},{"trial_n":153,"n_dots":2.85,"target":"left","response":"left","rt":550.39999997616,"correct":true,"confidence":3},{"trial_n":154,"n_dots":2.85,"target":"right","response":"right","rt":532,"correct":true,"confidence":5},{"trial_n":155,"n_dots":2.75,"target":"left","response":"right","rt":1338.3999999762,"correct":false,"confidence":2},{"trial_n":156,"n_dots":2.85,"target":"right","response":"right","rt":389.60000002384,"correct":true,"confidence":6},{"trial_n":157,"n_dots":2.85,"target":"right","response":"left","rt":739.60000002384,"correct":false,"confidence":3},{"trial_n":158,"n_dots":2.95,"target":"left","response":"left","rt":483.90000003576,"correct":true,"confidence":3},{"trial_n":159,"n_dots":2.95,"target":"left","response":"right","rt":782.80000001192,"correct":false,"confidence":3},{"trial_n":160,"n_dots":3.05,"target":"right","response":"right","rt":1425.5,"correct":true,"confidence":5},{"trial_n":161,"n_dots":3.05,"target":"right","response":"left","rt":1138.8000000119,"correct":false,"confidence":2},{"trial_n":162,"n_dots":3.15,"target":"right","response":"right","rt":381.40000003576,"correct":true,"confidence":5},{"trial_n":163,"n_dots":3.15,"target":"left","response":"left","rt":534,"correct":true,"confidence":3},{"trial_n":164,"n_dots":3.05,"target":"right","response":"right","rt":467.80000001192,"correct":true,"confidence":6},{"trial_n":165,"n_dots":3.05,"target":"left","response":"left","rt":508.5,"correct":true,"confidence":6},{"trial_n":166,"n_dots":2.95,"target":"left","response":"left","rt":741.89999997616,"correct":true,"confidence":6},{"trial_n":167,"n_dots":2.95,"target":"left","response":"left","rt":624.20000004768,"correct":true,"confidence":6},{"trial_n":168,"n_dots":2.85,"target":"left","response":"right","rt":466.10000002384,"correct":false,"confidence":6},{"trial_n":169,"n_dots":2.95,"target":"right","response":"right","rt":346.09999996424,"correct":true,"confidence":6},{"trial_n":170,"n_dots":2.95,"target":"right","response":"right","rt":530.80000001192,"correct":true,"confidence":6},{"trial_n":171,"n_dots":2.85,"target":"right","response":"left","rt":648.5,"correct":false,"confidence":2},{"trial_n":172,"n_dots":2.95,"target":"right","response":"right","rt":351.5,"correct":true,"confidence":6},{"trial_n":173,"n_dots":2.95,"target":"right","response":"right","rt":355.59999996424,"correct":true,"confidence":6},{"trial_n":174,"n_dots":2.85,"target":"right","response":"right","rt":445,"correct":true,"confidence":6},{"trial_n":175,"n_dots":2.85,"target":"right","response":"left","rt":643.30000001192,"correct":false,"confidence":2},{"trial_n":176,"n_dots":2.95,"target":"left","response":"right","rt":2007.6999999881,"correct":false,"confidence":4},{"trial_n":177,"n_dots":3.05,"target":"left","response":"right","rt":551.90000003576,"correct":false,"confidence":6},{"trial_n":178,"n_dots":3.15,"target":"left","response":"left","rt":2005.4000000358,"correct":true,"confidence":3},{"trial_n":179,"n_dots":3.15,"target":"left","response":"left","rt":456.90000003576,"correct":true,"confidence":4},{"trial_n":180,"n_dots":3.05,"target":"right","response":"right","rt":304.89999997616,"correct":true,"confidence":6},{"trial_n":181,"n_dots":3.05,"target":"left","response":"left","rt":764.70000004768,"correct":true,"confidence":5},{"trial_n":182,"n_dots":2.95,"target":"right","response":"right","rt":409.30000001192,"correct":true,"confidence":6},{"trial_n":183,"n_dots":2.95,"target":"left","response":"right","rt":643.5,"correct":false,"confidence":5},{"trial_n":184,"n_dots":3.05,"target":"right","response":"right","rt":2065.3999999762,"correct":true,"confidence":3},{"trial_n":185,"n_dots":3.05,"target":"right","response":"right","rt":1707.6999999881,"correct":true,"confidence":4},{"trial_n":186,"n_dots":2.95,"target":"right","response":"left","rt":627.59999996424,"correct":false,"confidence":3},{"trial_n":187,"n_dots":3.05,"target":"right","response":"right","rt":3930.5,"correct":true,"confidence":5},{"trial_n":188,"n_dots":3.05,"target":"right","response":"right","rt":1032.9000000358,"correct":true,"confidence":5},{"trial_n":189,"n_dots":2.95,"target":"left","response":"left","rt":846.19999998808,"correct":true,"confidence":4},{"trial_n":190,"n_dots":2.95,"target":"right","response":"right","rt":458.69999998808,"correct":true,"confidence":5},{"trial_n":191,"n_dots":2.85,"target":"left","response":"right","rt":748.10000002384,"correct":false,"confidence":4},{"trial_n":192,"n_dots":2.95,"target":"left","response":"right","rt":629,"correct":false,"confidence":3},{"trial_n":193,"n_dots":3.05,"target":"right","response":"right","rt":370,"correct":true,"confidence":5},{"trial_n":194,"n_dots":3.05,"target":"left","response":"right","rt":1042.4000000358,"correct":false,"confidence":3}]