[{"trial_n":1,"n_dots":4.25,"target":"left","response":"left","rt":9283,"correct":true,"confidence":-1},{"trial_n":2,"n_dots":4.25,"target":"left","response":"left","rt":6993.2999999998,"correct":true,"confidence":-1},{"trial_n":3,"n_dots":3.85,"target":"left","response":"right","rt":3315.2000000002,"correct":false,"confidence":-1},{"trial_n":4,"n_dots":4.25,"target":"left","response":"left","rt":2614.4000000004,"correct":true,"confidence":-1},{"trial_n":5,"n_dots":4.25,"target":"right","response":"left","rt":3293.2000000002,"correct":false,"confidence":-1},{"trial_n":6,"n_dots":4.65,"target":"right","response":"right","rt":1792,"correct":true,"confidence":-1},{"trial_n":7,"n_dots":4.65,"target":"right","response":"right","rt":1117.7000000002,"correct":true,"confidence":-1},{"trial_n":8,"n_dots":4.45,"target":"right","response":"right","rt":1232.3999999994,"correct":true,"confidence":-1},{"trial_n":9,"n_dots":4.45,"target":"left","response":"left","rt":1641.7999999998,"correct":true,"confidence":-1},{"trial_n":10,"n_dots":4.25,"target":"right","response":"left","rt":1579.1000000006,"correct":false,"confidence":-1},{"trial_n":11,"n_dots":4.45,"target":"right","response":"right","rt":751.40000000037,"correct":true,"confidence":-1},{"trial_n":12,"n_dots":4.45,"target":"right","response":"right","rt":492.79999999981,"correct":true,"confidence":-1},{"trial_n":13,"n_dots":4.35,"target":"left","response":"left","rt":2526,"correct":true,"confidence":-1},{"trial_n":14,"n_dots":4.35,"target":"left","response":"left","rt":550.40000000037,"correct":true,"confidence":-1},{"trial_n":15,"n_dots":4.25,"target":"right","response":"right","rt":934.5,"correct":true,"confidence":-1},{"trial_n":16,"n_dots":4.25,"target":"left","response":"right","rt":1029.4000000004,"correct":false,"confidence":-1},{"trial_n":17,"n_dots":4.35,"target":"left","response":"left","rt":740.20000000019,"correct":true,"confidence":-1},{"trial_n":18,"n_dots":4.35,"target":"left","response":"left","rt":556.20000000019,"correct":true,"confidence":-1},{"trial_n":19,"n_dots":4.25,"target":"left","response":"right","rt":929.90000000037,"correct":false,"confidence":-1},{"trial_n":20,"n_dots":4.35,"target":"left","response":"right","rt":795.79999999981,"correct":false,"confidence":-1},{"trial_n":21,"n_dots":4.45,"target":"left","response":"right","rt":930.40000000037,"correct":false,"confidence":-1},{"trial_n":22,"n_dots":4.55,"target":"left","response":"left","rt":469.79999999981,"correct":true,"confidence":-1},{"trial_n":23,"n_dots":4.55,"target":"left","response":"left","rt":561.09999999963,"correct":true,"confidence":-1},{"trial_n":24,"n_dots":4.45,"target":"left","response":"right","rt":976.59999999963,"correct":false,"confidence":-1},{"trial_n":25,"n_dots":4.55,"target":"right","response":"right","rt":1145.0999999996,"correct":true,"confidence":-1},{"trial_n":26,"n_dots":4.55,"target":"right","response":"right","rt":430.40000000037,"correct":true,"confidence":-1},{"trial_n":27,"n_dots":4.45,"target":"right","response":"right","rt":1154.3999999994,"correct":true,"confidence":4},{"trial_n":28,"n_dots":4.45,"target":"left","response":"left","rt":1623.4000000004,"correct":true,"confidence":2},{"trial_n":29,"n_dots":4.35,"target":"right","response":"right","rt":4791,"correct":true,"confidence":4},{"trial_n":30,"n_dots":4.35,"target":"right","response":"right","rt":1880.7000000002,"correct":true,"confidence":4},{"trial_n":31,"n_dots":4.25,"target":"left","response":"left","rt":1790.7999999998,"correct":true,"confidence":2},{"trial_n":32,"n_dots":4.25,"target":"right","response":"right","rt":1683.5,"correct":true,"confidence":4},{"trial_n":33,"n_dots":4.15,"target":"left","response":"left","rt":3082.4000000004,"correct":true,"confidence":1},{"trial_n":34,"n_dots":4.15,"target":"left","response":"right","rt":1490.2999999998,"correct":false,"confidence":2},{"trial_n":35,"n_dots":4.25,"target":"left","response":"right","rt":4207.8999999994,"correct":false,"confidence":2},{"trial_n":36,"n_dots":4.35,"target":"right","response":"right","rt":806.10000000056,"correct":true,"confidence":3},{"trial_n":37,"n_dots":4.35,"target":"left","response":"right","rt":1250.5,"correct":false,"confidence":2},{"trial_n":38,"n_dots":4.45,"target":"left","response":"left","rt":2289.2999999998,"correct":true,"confidence":4},{"trial_n":39,"n_dots":4.45,"target":"left","response":"left","rt":6585.1000000006,"correct":true,"confidence":1},{"trial_n":40,"n_dots":4.35,"target":"right","response":"right","rt":1664.5,"correct":true,"confidence":4},{"trial_n":41,"n_dots":4.35,"target":"right","response":"right","rt":2029.5999999996,"correct":true,"confidence":4},{"trial_n":42,"n_dots":4.25,"target":"right","response":"right","rt":1040.4000000004,"correct":true,"confidence":4},{"trial_n":43,"n_dots":4.25,"target":"left","response":"left","rt":1179.9000000004,"correct":true,"confidence":4},{"trial_n":44,"n_dots":4.15,"target":"right","response":"right","rt":1091.4000000004,"correct":true,"confidence":5},{"trial_n":45,"n_dots":4.15,"target":"left","response":"left","rt":665.60000000056,"correct":true,"confidence":5},{"trial_n":46,"n_dots":4.05,"target":"right","response":"right","rt":903.70000000019,"correct":true,"confidence":4},{"trial_n":47,"n_dots":4.05,"target":"right","response":"right","rt":1305.5999999996,"correct":true,"confidence":4},{"trial_n":48,"n_dots":3.95,"target":"left","response":"left","rt":1179.8000000007,"correct":true,"confidence":3},{"trial_n":49,"n_dots":3.95,"target":"left","response":"left","rt":1665.5999999996,"correct":true,"confidence":1},{"trial_n":50,"n_dots":3.85,"target":"left","response":"left","rt":1332,"correct":true,"confidence":2},{"trial_n":51,"n_dots":3.85,"target":"right","response":"right","rt":1112.0999999996,"correct":true,"confidence":2},{"trial_n":52,"n_dots":3.75,"target":"right","response":"left","rt":1034.3000000007,"correct":false,"confidence":3},{"trial_n":53,"n_dots":3.85,"target":"left","response":"left","rt":832.90000000037,"correct":true,"confidence":4},{"trial_n":54,"n_dots":3.85,"target":"right","response":"right","rt":1299.5999999996,"correct":true,"confidence":4},{"trial_n":55,"n_dots":3.75,"target":"right","response":"right","rt":689.5,"correct":true,"confidence":5},{"trial_n":56,"n_dots":3.75,"target":"right","response":"left","rt":976.09999999963,"correct":false,"confidence":2},{"trial_n":57,"n_dots":3.85,"target":"left","response":"left","rt":592.80000000075,"correct":true,"confidence":4},{"trial_n":58,"n_dots":3.85,"target":"left","response":"left","rt":804.19999999925,"correct":true,"confidence":3},{"trial_n":59,"n_dots":3.75,"target":"right","response":"right","rt":783.5,"correct":true,"confidence":2},{"trial_n":60,"n_dots":3.75,"target":"left","response":"right","rt":1602.5,"correct":false,"confidence":3},{"trial_n":61,"n_dots":3.85,"target":"left","response":"left","rt":1215.9000000004,"correct":true,"confidence":2},{"trial_n":62,"n_dots":3.85,"target":"left","response":"left","rt":738.19999999925,"correct":true,"confidence":2},{"trial_n":63,"n_dots":3.75,"target":"right","response":"right","rt":1245.8000000007,"correct":true,"confidence":2},{"trial_n":64,"n_dots":3.75,"target":"left","response":"left","rt":576.80000000075,"correct":true,"confidence":2},{"trial_n":65,"n_dots":3.65,"target":"left","response":"left","rt":714.09999999963,"correct":true,"confidence":3},{"trial_n":66,"n_dots":3.65,"target":"left","response":"left","rt":636.30000000075,"correct":true,"confidence":3},{"trial_n":67,"n_dots":3.55,"target":"left","response":"left","rt":831,"correct":true,"confidence":2},{"trial_n":68,"n_dots":3.55,"target":"right","response":"right","rt":827.69999999925,"correct":true,"confidence":3},{"trial_n":69,"n_dots":3.45,"target":"left","response":"left","rt":1254.3000000007,"correct":true,"confidence":2},{"trial_n":70,"n_dots":3.45,"target":"left","response":"right","rt":2065.5,"correct":false,"confidence":1},{"trial_n":71,"n_dots":3.55,"target":"left","response":"left","rt":1202.5,"correct":true,"confidence":3},{"trial_n":72,"n_dots":3.55,"target":"left","response":"left","rt":827.80000000075,"correct":true,"confidence":3},{"trial_n":73,"n_dots":3.45,"target":"left","response":"right","rt":805.40000000037,"correct":false,"confidence":2},{"trial_n":74,"n_dots":3.55,"target":"left","response":"left","rt":625,"correct":true,"confidence":2},{"trial_n":75,"n_dots":3.55,"target":"left","response":"left","rt":1557.5,"correct":true,"confidence":1},{"trial_n":76,"n_dots":3.45,"target":"right","response":"right","rt":2259.8999999985,"correct":true,"confidence":1},{"trial_n":77,"n_dots":3.45,"target":"right","response":"right","rt":1044.5999999996,"correct":true,"confidence":2},{"trial_n":78,"n_dots":3.35,"target":"right","response":"left","rt":788.69999999925,"correct":false,"confidence":1},{"trial_n":79,"n_dots":3.45,"target":"right","response":"right","rt":627.19999999925,"correct":true,"confidence":2},{"trial_n":80,"n_dots":3.45,"target":"left","response":"left","rt":421,"correct":true,"confidence":1},{"trial_n":81,"n_dots":3.35,"target":"right","response":"right","rt":812.5,"correct":true,"confidence":2},{"trial_n":82,"n_dots":3.35,"target":"right","response":"left","rt":1439.4000000004,"correct":false,"confidence":1},{"trial_n":83,"n_dots":3.45,"target":"left","response":"left","rt":595.79999999888,"correct":true,"confidence":2},{"trial_n":84,"n_dots":3.45,"target":"left","response":"right","rt":1721.5,"correct":false,"confidence":1},{"trial_n":85,"n_dots":3.55,"target":"right","response":"left","rt":724.5,"correct":false,"confidence":1},{"trial_n":86,"n_dots":3.65,"target":"left","response":"left","rt":1479.5,"correct":true,"confidence":1},{"trial_n":87,"n_dots":3.65,"target":"right","response":"right","rt":1072,"correct":true,"confidence":2},{"trial_n":88,"n_dots":3.55,"target":"right","response":"right","rt":915.40000000037,"correct":true,"confidence":1},{"trial_n":89,"n_dots":3.55,"target":"right","response":"right","rt":886.90000000037,"correct":true,"confidence":3},{"trial_n":90,"n_dots":3.45,"target":"right","response":"left","rt":8060.6000000015,"correct":false,"confidence":1},{"trial_n":91,"n_dots":3.55,"target":"left","response":"left","rt":688.20000000112,"correct":true,"confidence":4},{"trial_n":92,"n_dots":3.55,"target":"right","response":"right","rt":1349.5999999996,"correct":true,"confidence":2},{"trial_n":93,"n_dots":3.45,"target":"left","response":"left","rt":702.10000000149,"correct":true,"confidence":4},{"trial_n":94,"n_dots":3.45,"target":"left","response":"left","rt":956.5,"correct":true,"confidence":2},{"trial_n":95,"n_dots":3.35,"target":"right","response":"right","rt":844.5,"correct":true,"confidence":1},{"trial_n":96,"n_dots":3.35,"target":"left","response":"left","rt":549.59999999963,"correct":true,"confidence":3},{"trial_n":97,"n_dots":3.25,"target":"left","response":"right","rt":1308.9000000004,"correct":false,"confidence":2},{"trial_n":98,"n_dots":3.35,"target":"right","response":"right","rt":1139.0999999996,"correct":true,"confidence":1},{"trial_n":99,"n_dots":3.35,"target":"left","response":"right","rt":1275.5999999996,"correct":false,"confidence":1},{"trial_n":100,"n_dots":3.45,"target":"left","response":"left","rt":496.39999999851,"correct":true,"confidence":3},{"trial_n":101,"n_dots":3.45,"target":"left","response":"left","rt":892.09999999963,"correct":true,"confidence":1},{"trial_n":102,"n_dots":3.35,"target":"right","response":"left","rt":989.40000000037,"correct":false,"confidence":2},{"trial_n":103,"n_dots":3.45,"target":"left","response":"left","rt":854.40000000037,"correct":true,"confidence":2},{"trial_n":104,"n_dots":3.45,"target":"left","response":"left","rt":1016.4000000004,"correct":true,"confidence":2},{"trial_n":105,"n_dots":3.35,"target":"right","response":"left","rt":1341.9000000004,"correct":false,"confidence":1},{"trial_n":106,"n_dots":3.45,"target":"left","response":"right","rt":933.5,"correct":false,"confidence":2},{"trial_n":107,"n_dots":3.55,"target":"right","response":"right","rt":1119.6999999993,"correct":true,"confidence":1},{"trial_n":108,"n_dots":3.55,"target":"right","response":"right","rt":956.20000000112,"correct":true,"confidence":3},{"trial_n":109,"n_dots":3.45,"target":"right","response":"left","rt":2404.3000000007,"correct":false,"confidence":2},{"trial_n":110,"n_dots":3.55,"target":"right","response":"right","rt":906.5,"correct":true,"confidence":3},{"trial_n":111,"n_dots":3.55,"target":"right","response":"right","rt":777.79999999888,"correct":true,"confidence":2},{"trial_n":112,"n_dots":3.45,"target":"right","response":"right","rt":755.70000000112,"correct":true,"confidence":2},{"trial_n":113,"n_dots":3.45,"target":"left","response":"left","rt":605.09999999963,"correct":true,"confidence":3},{"trial_n":114,"n_dots":3.35,"target":"left","response":"left","rt":1181.3000000007,"correct":true,"confidence":2},{"trial_n":115,"n_dots":3.35,"target":"right","response":"left","rt":968.80000000075,"correct":false,"confidence":1},{"trial_n":116,"n_dots":3.45,"target":"right","response":"right","rt":541.20000000112,"correct":true,"confidence":1},{"trial_n":117,"n_dots":3.45,"target":"left","response":"left","rt":644.19999999925,"correct":true,"confidence":2},{"trial_n":118,"n_dots":3.35,"target":"left","response":"left","rt":1015.4000000004,"correct":true,"confidence":1},{"trial_n":119,"n_dots":3.35,"target":"right","response":"right","rt":1192.3000000007,"correct":true,"confidence":1},{"trial_n":120,"n_dots":3.25,"target":"right","response":"right","rt":1068.4000000004,"correct":true,"confidence":2},{"trial_n":121,"n_dots":3.25,"target":"right","response":"right","rt":772.5,"correct":true,"confidence":3},{"trial_n":122,"n_dots":3.15,"target":"left","response":"left","rt":603.30000000075,"correct":true,"confidence":2},{"trial_n":123,"n_dots":3.15,"target":"right","response":"right","rt":642.10000000149,"correct":true,"confidence":3},{"trial_n":124,"n_dots":3.05,"target":"right","response":"right","rt":866.09999999963,"correct":true,"confidence":2},{"trial_n":125,"n_dots":3.05,"target":"left","response":"left","rt":472,"correct":true,"confidence":3},{"trial_n":126,"n_dots":2.95,"target":"right","response":"right","rt":1262.1999999993,"correct":true,"confidence":1},{"trial_n":127,"n_dots":2.95,"target":"right","response":"left","rt":1150.2000000011,"correct":false,"confidence":2},{"trial_n":128,"n_dots":3.05,"target":"left","response":"left","rt":897.5,"correct":true,"confidence":1},{"trial_n":129,"n_dots":3.05,"target":"right","response":"right","rt":748.09999999963,"correct":true,"confidence":2},{"trial_n":130,"n_dots":2.95,"target":"right","response":"right","rt":950.69999999925,"correct":true,"confidence":2},{"trial_n":131,"n_dots":2.95,"target":"right","response":"left","rt":2247.1999999993,"correct":false,"confidence":1},{"trial_n":132,"n_dots":3.05,"target":"right","response":"right","rt":1804.1999999993,"correct":true,"confidence":2},{"trial_n":133,"n_dots":3.05,"target":"left","response":"left","rt":2639.3000000007,"correct":true,"confidence":1},{"trial_n":134,"n_dots":2.95,"target":"left","response":"left","rt":3225.7000000011,"correct":true,"confidence":1},{"trial_n":135,"n_dots":2.95,"target":"left","response":"left","rt":1145.2999999989,"correct":true,"confidence":3},{"trial_n":136,"n_dots":2.85,"target":"right","response":"left","rt":1461.9000000004,"correct":false,"confidence":1},{"trial_n":137,"n_dots":2.95,"target":"right","response":"left","rt":1107.9000000004,"correct":false,"confidence":1},{"trial_n":138,"n_dots":3.05,"target":"right","response":"right","rt":1105.7999999989,"correct":true,"confidence":2},{"trial_n":139,"n_dots":3.05,"target":"right","response":"left","rt":923.40000000037,"correct":false,"confidence":1},{"trial_n":140,"n_dots":3.15,"target":"left","response":"left","rt":2662.7000000011,"correct":true,"confidence":1},{"trial_n":141,"n_dots":3.15,"target":"left","response":"left","rt":862.59999999963,"correct":true,"confidence":2},{"trial_n":142,"n_dots":3.05,"target":"right","response":"left","rt":1206.1999999993,"correct":false,"confidence":1},{"trial_n":143,"n_dots":3.15,"target":"left","response":"left","rt":869.40000000037,"correct":true,"confidence":2},{"trial_n":144,"n_dots":3.15,"target":"left","response":"right","rt":1246.8999999985,"correct":false,"confidence":1},{"trial_n":145,"n_dots":3.25,"target":"left","response":"left","rt":3548.0999999996,"correct":true,"confidence":2},{"trial_n":146,"n_dots":3.25,"target":"left","response":"left","rt":3736.1999999993,"correct":true,"confidence":1},{"trial_n":147,"n_dots":3.15,"target":"right","response":"right","rt":1332,"correct":true,"confidence":4},{"trial_n":148,"n_dots":3.15,"target":"right","response":"right","rt":904.5,"correct":true,"confidence":4},{"trial_n":149,"n_dots":3.05,"target":"right","response":"right","rt":575.70000000112,"correct":true,"confidence":3},{"trial_n":150,"n_dots":3.05,"target":"left","response":"left","rt":677.80000000075,"correct":true,"confidence":4},{"trial_n":151,"n_dots":2.95,"target":"left","response":"right","rt":932.20000000112,"correct":false,"confidence":3},{"trial_n":152,"n_dots":3.05,"target":"left","response":"right","rt":1154.5999999996,"correct":false,"confidence":2},{"trial_n":153,"n_dots":3.15,"target":"right","response":"right","rt":1480,"correct":true,"confidence":2},{"trial_n":154,"n_dots":3.15,"target":"left","response":"left","rt":553.20000000112,"correct":true,"confidence":2},{"trial_n":155,"n_dots":3.05,"target":"left","response":"left","rt":1003.0999999996,"correct":true,"confidence":3},{"trial_n":156,"n_dots":3.05,"target":"left","response":"right","rt":584.59999999963,"correct":false,"confidence":2},{"trial_n":157,"n_dots":3.15,"target":"right","response":"right","rt":530.70000000112,"correct":true,"confidence":3},{"trial_n":158,"n_dots":3.15,"target":"left","response":"left","rt":480.09999999963,"correct":true,"confidence":3},{"trial_n":159,"n_dots":3.05,"target":"right","response":"right","rt":901,"correct":true,"confidence":2},{"trial_n":160,"n_dots":3.05,"target":"right","response":"left","rt":511.30000000075,"correct":false,"confidence":1},{"trial_n":161,"n_dots":3.15,"target":"right","response":"left","rt":954.90000000037,"correct":false,"confidence":2},{"trial_n":162,"n_dots":3.25,"target":"right","response":"right","rt":1214.0999999996,"correct":true,"confidence":2},{"trial_n":163,"n_dots":3.25,"target":"left","response":"left","rt":1445.4000000004,"correct":true,"confidence":1},{"trial_n":164,"n_dots":3.15,"target":"right","response":"right","rt":905.19999999925,"correct":true,"confidence":1},{"trial_n":165,"n_dots":3.15,"target":"right","response":"right","rt":1141.6999999993,"correct":true,"confidence":2},{"trial_n":166,"n_dots":3.05,"target":"left","response":"left","rt":408.19999999925,"correct":true,"confidence":2},{"trial_n":167,"n_dots":3.05,"target":"left","response":"left","rt":409.80000000075,"correct":true,"confidence":2},{"trial_n":168,"n_dots":2.95,"target":"right","response":"right","rt":348.40000000037,"correct":true,"confidence":1},{"trial_n":169,"n_dots":2.95,"target":"left","response":"left","rt":689.59999999963,"correct":true,"confidence":2},{"trial_n":170,"n_dots":2.85,"target":"right","response":"left","rt":799.30000000075,"correct":false,"confidence":1},{"trial_n":171,"n_dots":2.95,"target":"left","response":"left","rt":668.59999999963,"correct":true,"confidence":2},{"trial_n":172,"n_dots":2.95,"target":"right","response":"right","rt":433.69999999925,"correct":true,"confidence":1},{"trial_n":173,"n_dots":2.85,"target":"left","response":"left","rt":537.19999999925,"correct":true,"confidence":1},{"trial_n":174,"n_dots":2.85,"target":"right","response":"left","rt":894.30000000075,"correct":false,"confidence":3},{"trial_n":175,"n_dots":2.95,"target":"left","response":"left","rt":997,"correct":true,"confidence":2},{"trial_n":176,"n_dots":2.95,"target":"right","response":"right","rt":975.19999999925,"correct":true,"confidence":1},{"trial_n":177,"n_dots":2.85,"target":"left","response":"left","rt":599.30000000075,"correct":true,"confidence":2},{"trial_n":178,"n_dots":2.85,"target":"right","response":"right","rt":812.90000000037,"correct":true,"confidence":2},{"trial_n":179,"n_dots":2.75,"target":"right","response":"right","rt":760.40000000037,"correct":true,"confidence":1},{"trial_n":180,"n_dots":2.75,"target":"right","response":"left","rt":1133.5,"correct":false,"confidence":2},{"trial_n":181,"n_dots":2.85,"target":"left","response":"right","rt":698.80000000075,"correct":false,"confidence":1},{"trial_n":182,"n_dots":2.95,"target":"left","response":"left","rt":948.20000000112,"correct":true,"confidence":1},{"trial_n":183,"n_dots":2.95,"target":"right","response":"right","rt":515.09999999963,"correct":true,"confidence":2},{"trial_n":184,"n_dots":2.85,"target":"right","response":"left","rt":1270.0999999996,"correct":false,"confidence":2},{"trial_n":185,"n_dots":2.95,"target":"right","response":"left","rt":1069,"correct":false,"confidence":3},{"trial_n":186,"n_dots":3.05,"target":"left","response":"left","rt":1011.4000000004,"correct":true,"confidence":3},{"trial_n":187,"n_dots":3.05,"target":"left","response":"left","rt":1891.4000000004,"correct":true,"confidence":2},{"trial_n":188,"n_dots":2.95,"target":"right","response":"right","rt":745.19999999925,"correct":true,"confidence":4},{"trial_n":189,"n_dots":2.95,"target":"left","response":"left","rt":1125.7999999989,"correct":true,"confidence":3},{"trial_n":190,"n_dots":2.85,"target":"right","response":"right","rt":1809.5,"correct":true,"confidence":5},{"trial_n":191,"n_dots":2.85,"target":"right","response":"right","rt":1371.3000000007,"correct":true,"confidence":3},{"trial_n":192,"n_dots":2.75,"target":"right","response":"left","rt":1035.5,"correct":false,"confidence":3},{"trial_n":193,"n_dots":2.85,"target":"right","response":"left","rt":1435.3000000007,"correct":false,"confidence":1},{"trial_n":194,"n_dots":2.95,"target":"right","response":"left","rt":2824.6999999993,"correct":false,"confidence":2}]