[{"trial_n":1,"n_dots":4.25,"target":"left","response":"left","rt":9780,"correct":true,"confidence":-1},{"trial_n":2,"n_dots":4.25,"target":"right","response":"right","rt":447,"correct":true,"confidence":-1},{"trial_n":3,"n_dots":3.85,"target":"left","response":"left","rt":202,"correct":true,"confidence":-1},{"trial_n":4,"n_dots":3.85,"target":"left","response":"right","rt":586,"correct":false,"confidence":-1},{"trial_n":5,"n_dots":4.25,"target":"right","response":"right","rt":294,"correct":true,"confidence":-1},{"trial_n":6,"n_dots":4.25,"target":"left","response":"left","rt":242,"correct":true,"confidence":-1},{"trial_n":7,"n_dots":3.85,"target":"right","response":"right","rt":537,"correct":true,"confidence":-1},{"trial_n":8,"n_dots":3.85,"target":"right","response":"left","rt":604,"correct":false,"confidence":-1},{"trial_n":9,"n_dots":4.05,"target":"left","response":"left","rt":347,"correct":true,"confidence":-1},{"trial_n":10,"n_dots":4.05,"target":"left","response":"left","rt":484,"correct":true,"confidence":-1},{"trial_n":11,"n_dots":3.85,"target":"left","response":"left","rt":621,"correct":true,"confidence":-1},{"trial_n":12,"n_dots":3.85,"target":"right","response":"right","rt":257,"correct":true,"confidence":-1},{"trial_n":13,"n_dots":3.75,"target":"right","response":"right","rt":50,"correct":true,"confidence":-1},{"trial_n":14,"n_dots":3.75,"target":"right","response":"left","rt":569,"correct":false,"confidence":-1},{"trial_n":15,"n_dots":3.85,"target":"left","response":"left","rt":606,"correct":true,"confidence":-1},{"trial_n":16,"n_dots":3.85,"target":"left","response":"left","rt":676,"correct":true,"confidence":-1},{"trial_n":17,"n_dots":3.75,"target":"right","response":"right","rt":698,"correct":true,"confidence":-1},{"trial_n":18,"n_dots":3.75,"target":"right","response":"right","rt":444,"correct":true,"confidence":-1},{"trial_n":19,"n_dots":3.65,"target":"right","response":"right","rt":604,"correct":true,"confidence":-1},{"trial_n":20,"n_dots":3.65,"target":"left","response":"left","rt":614,"correct":true,"confidence":-1},{"trial_n":21,"n_dots":3.55,"target":"left","response":"right","rt":887,"correct":false,"confidence":-1},{"trial_n":22,"n_dots":3.65,"target":"right","response":"left","rt":878,"correct":false,"confidence":-1},{"trial_n":23,"n_dots":3.75,"target":"left","response":"left","rt":636,"correct":true,"confidence":-1},{"trial_n":24,"n_dots":3.75,"target":"right","response":"right","rt":342,"correct":true,"confidence":-1},{"trial_n":25,"n_dots":3.65,"target":"left","response":"left","rt":388,"correct":true,"confidence":-1},{"trial_n":26,"n_dots":3.65,"target":"left","response":"right","rt":558,"correct":false,"confidence":-1},{"trial_n":27,"n_dots":3.75,"target":"left","response":"left","rt":239,"correct":true,"confidence":5},{"trial_n":28,"n_dots":3.75,"target":"left","response":"left","rt":291,"correct":true,"confidence":5},{"trial_n":29,"n_dots":3.65,"target":"left","response":"left","rt":468,"correct":true,"confidence":4},{"trial_n":30,"n_dots":3.65,"target":"right","response":"right","rt":523,"correct":true,"confidence":4},{"trial_n":31,"n_dots":3.55,"target":"left","response":"right","rt":335,"correct":false,"confidence":4},{"trial_n":32,"n_dots":3.65,"target":"left","response":"right","rt":541,"correct":false,"confidence":4},{"trial_n":33,"n_dots":3.75,"target":"left","response":"right","rt":547,"correct":false,"confidence":4},{"trial_n":34,"n_dots":3.85,"target":"right","response":"right","rt":411,"correct":true,"confidence":5},{"trial_n":35,"n_dots":3.85,"target":"right","response":"left","rt":807,"correct":false,"confidence":3},{"trial_n":36,"n_dots":3.95,"target":"right","response":"right","rt":268,"correct":true,"confidence":5},{"trial_n":37,"n_dots":3.95,"target":"right","response":"right","rt":330,"correct":true,"confidence":5},{"trial_n":38,"n_dots":3.85,"target":"right","response":"left","rt":618,"correct":false,"confidence":3},{"trial_n":39,"n_dots":3.95,"target":"left","response":"left","rt":572,"correct":true,"confidence":4},{"trial_n":40,"n_dots":3.95,"target":"right","response":"right","rt":297,"correct":true,"confidence":4},{"trial_n":41,"n_dots":3.85,"target":"left","response":"left","rt":302,"correct":true,"confidence":4},{"trial_n":42,"n_dots":3.85,"target":"left","response":"left","rt":478,"correct":true,"confidence":4},{"trial_n":43,"n_dots":3.75,"target":"left","response":"left","rt":433,"correct":true,"confidence":4},{"trial_n":44,"n_dots":3.75,"target":"left","response":"right","rt":511,"correct":false,"confidence":4},{"trial_n":45,"n_dots":3.85,"target":"right","response":"right","rt":881,"correct":true,"confidence":5},{"trial_n":46,"n_dots":3.85,"target":"left","response":"left","rt":520,"correct":true,"confidence":4},{"trial_n":47,"n_dots":3.75,"target":"right","response":"right","rt":321,"correct":true,"confidence":4},{"trial_n":48,"n_dots":3.75,"target":"left","response":"right","rt":391,"correct":false,"confidence":4},{"trial_n":49,"n_dots":3.85,"target":"left","response":"right","rt":1890,"correct":false,"confidence":4},{"trial_n":50,"n_dots":3.95,"target":"left","response":"left","rt":464,"correct":true,"confidence":5},{"trial_n":51,"n_dots":3.95,"target":"right","response":"right","rt":471,"correct":true,"confidence":4},{"trial_n":52,"n_dots":3.85,"target":"left","response":"right","rt":598,"correct":false,"confidence":4},{"trial_n":53,"n_dots":3.95,"target":"left","response":"left","rt":787,"correct":true,"confidence":4},{"trial_n":54,"n_dots":3.95,"target":"left","response":"left","rt":1786,"correct":true,"confidence":4},{"trial_n":55,"n_dots":3.85,"target":"left","response":"right","rt":419,"correct":false,"confidence":4},{"trial_n":56,"n_dots":3.95,"target":"left","response":"left","rt":643,"correct":true,"confidence":4},{"trial_n":57,"n_dots":3.95,"target":"right","response":"right","rt":964,"correct":true,"confidence":5},{"trial_n":58,"n_dots":3.85,"target":"right","response":"right","rt":282,"correct":true,"confidence":4},{"trial_n":59,"n_dots":3.85,"target":"right","response":"left","rt":677,"correct":false,"confidence":3},{"trial_n":60,"n_dots":3.95,"target":"right","response":"right","rt":413,"correct":true,"confidence":3},{"trial_n":61,"n_dots":3.95,"target":"left","response":"left","rt":476,"correct":true,"confidence":4},{"trial_n":62,"n_dots":3.85,"target":"right","response":"right","rt":366,"correct":true,"confidence":4},{"trial_n":63,"n_dots":3.85,"target":"right","response":"right","rt":645,"correct":true,"confidence":4},{"trial_n":64,"n_dots":3.75,"target":"left","response":"left","rt":721,"correct":true,"confidence":3},{"trial_n":65,"n_dots":3.75,"target":"right","response":"right","rt":416,"correct":true,"confidence":5},{"trial_n":66,"n_dots":3.65,"target":"left","response":"left","rt":474,"correct":true,"confidence":5},{"trial_n":67,"n_dots":3.65,"target":"left","response":"left","rt":316,"correct":true,"confidence":5},{"trial_n":68,"n_dots":3.55,"target":"left","response":"left","rt":513,"correct":true,"confidence":4},{"trial_n":69,"n_dots":3.55,"target":"right","response":"right","rt":571,"correct":true,"confidence":4},{"trial_n":70,"n_dots":3.45,"target":"left","response":"left","rt":549,"correct":true,"confidence":4},{"trial_n":71,"n_dots":3.45,"target":"right","response":"right","rt":497,"correct":true,"confidence":4},{"trial_n":72,"n_dots":3.35,"target":"right","response":"right","rt":523,"correct":true,"confidence":5},{"trial_n":73,"n_dots":3.35,"target":"right","response":"right","rt":722,"correct":true,"confidence":5},{"trial_n":74,"n_dots":3.25,"target":"right","response":"right","rt":636,"correct":true,"confidence":5},{"trial_n":75,"n_dots":3.25,"target":"left","response":"right","rt":827,"correct":false,"confidence":4},{"trial_n":76,"n_dots":3.35,"target":"left","response":"right","rt":612,"correct":false,"confidence":4},{"trial_n":77,"n_dots":3.45,"target":"left","response":"left","rt":421,"correct":true,"confidence":4},{"trial_n":78,"n_dots":3.45,"target":"right","response":"right","rt":653,"correct":true,"confidence":5},{"trial_n":79,"n_dots":3.35,"target":"right","response":"right","rt":1465,"correct":true,"confidence":5},{"trial_n":80,"n_dots":3.35,"target":"left","response":"left","rt":612,"correct":true,"confidence":5},{"trial_n":81,"n_dots":3.25,"target":"right","response":"right","rt":502,"correct":true,"confidence":5},{"trial_n":82,"n_dots":3.25,"target":"left","response":"left","rt":600,"correct":true,"confidence":3},{"trial_n":83,"n_dots":3.15,"target":"left","response":"left","rt":913,"correct":true,"confidence":3},{"trial_n":84,"n_dots":3.15,"target":"right","response":"left","rt":569,"correct":false,"confidence":5},{"trial_n":85,"n_dots":3.25,"target":"right","response":"right","rt":448,"correct":true,"confidence":4},{"trial_n":86,"n_dots":3.25,"target":"left","response":"left","rt":1751,"correct":true,"confidence":5},{"trial_n":87,"n_dots":3.15,"target":"right","response":"right","rt":762,"correct":true,"confidence":5},{"trial_n":88,"n_dots":3.15,"target":"left","response":"right","rt":410,"correct":false,"confidence":5},{"trial_n":89,"n_dots":3.25,"target":"left","response":"right","rt":605,"correct":false,"confidence":5},{"trial_n":90,"n_dots":3.35,"target":"left","response":"right","rt":1361,"correct":false,"confidence":4},{"trial_n":91,"n_dots":3.45,"target":"right","response":"right","rt":472,"correct":true,"confidence":4},{"trial_n":92,"n_dots":3.45,"target":"left","response":"left","rt":536,"correct":true,"confidence":4},{"trial_n":93,"n_dots":3.35,"target":"right","response":"left","rt":530,"correct":false,"confidence":4},{"trial_n":94,"n_dots":3.45,"target":"right","response":"right","rt":512,"correct":true,"confidence":4},{"trial_n":95,"n_dots":3.45,"target":"left","response":"left","rt":589,"correct":true,"confidence":4},{"trial_n":96,"n_dots":3.35,"target":"left","response":"right","rt":1297,"correct":false,"confidence":5},{"trial_n":97,"n_dots":3.45,"target":"left","response":"left","rt":1272,"correct":true,"confidence":3},{"trial_n":98,"n_dots":3.45,"target":"right","response":"right","rt":903,"correct":true,"confidence":5},{"trial_n":99,"n_dots":3.35,"target":"right","response":"right","rt":501,"correct":true,"confidence":5},{"trial_n":100,"n_dots":3.35,"target":"right","response":"left","rt":368,"correct":false,"confidence":3},{"trial_n":101,"n_dots":3.45,"target":"left","response":"left","rt":356,"correct":true,"confidence":4},{"trial_n":102,"n_dots":3.45,"target":"right","response":"right","rt":387,"correct":true,"confidence":4},{"trial_n":103,"n_dots":3.35,"target":"left","response":"left","rt":592,"correct":true,"confidence":5},{"trial_n":104,"n_dots":3.35,"target":"left","response":"left","rt":484,"correct":true,"confidence":4},{"trial_n":105,"n_dots":3.25,"target":"right","response":"right","rt":382,"correct":true,"confidence":5},{"trial_n":106,"n_dots":3.25,"target":"left","response":"right","rt":552,"correct":false,"confidence":5},{"trial_n":107,"n_dots":3.35,"target":"left","response":"left","rt":376,"correct":true,"confidence":5},{"trial_n":108,"n_dots":3.35,"target":"left","response":"left","rt":1013,"correct":true,"confidence":5},{"trial_n":109,"n_dots":3.25,"target":"right","response":"right","rt":528,"correct":true,"confidence":4},{"trial_n":110,"n_dots":3.25,"target":"right","response":"right","rt":382,"correct":true,"confidence":4},{"trial_n":111,"n_dots":3.15,"target":"right","response":"right","rt":1584,"correct":true,"confidence":4},{"trial_n":112,"n_dots":3.15,"target":"right","response":"right","rt":1348,"correct":true,"confidence":5},{"trial_n":113,"n_dots":3.05,"target":"left","response":"right","rt":1703,"correct":false,"confidence":4},{"trial_n":114,"n_dots":3.15,"target":"right","response":"right","rt":1405,"correct":true,"confidence":5},{"trial_n":115,"n_dots":3.15,"target":"left","response":"right","rt":1753,"correct":false,"confidence":4},{"trial_n":116,"n_dots":3.25,"target":"left","response":"left","rt":1811,"correct":true,"confidence":3},{"trial_n":117,"n_dots":3.25,"target":"left","response":"left","rt":2110,"correct":true,"confidence":3},{"trial_n":118,"n_dots":3.15,"target":"left","response":"right","rt":1584,"correct":false,"confidence":3},{"trial_n":119,"n_dots":3.25,"target":"right","response":"right","rt":1602,"correct":true,"confidence":4},{"trial_n":120,"n_dots":3.25,"target":"left","response":"right","rt":1581,"correct":false,"confidence":3},{"trial_n":121,"n_dots":3.35,"target":"left","response":"left","rt":1108,"correct":true,"confidence":5},{"trial_n":122,"n_dots":3.35,"target":"right","response":"right","rt":1659,"correct":true,"confidence":5},{"trial_n":123,"n_dots":3.25,"target":"right","response":"right","rt":1249,"correct":true,"confidence":4},{"trial_n":124,"n_dots":3.25,"target":"left","response":"right","rt":1174,"correct":false,"confidence":3},{"trial_n":125,"n_dots":3.35,"target":"left","response":"right","rt":1567,"correct":false,"confidence":3},{"trial_n":126,"n_dots":3.45,"target":"left","response":"left","rt":1337,"correct":true,"confidence":3},{"trial_n":127,"n_dots":3.45,"target":"right","response":"right","rt":1378,"correct":true,"confidence":3},{"trial_n":128,"n_dots":3.35,"target":"left","response":"right","rt":1710,"correct":false,"confidence":3},{"trial_n":129,"n_dots":3.45,"target":"right","response":"right","rt":997,"correct":true,"confidence":4},{"trial_n":130,"n_dots":3.45,"target":"right","response":"right","rt":1041,"correct":true,"confidence":4},{"trial_n":131,"n_dots":3.35,"target":"right","response":"right","rt":1122,"correct":true,"confidence":4},{"trial_n":132,"n_dots":3.35,"target":"left","response":"right","rt":3465,"correct":false,"confidence":4},{"trial_n":133,"n_dots":3.45,"target":"left","response":"right","rt":4220,"correct":false,"confidence":4},{"trial_n":134,"n_dots":3.55,"target":"left","response":"right","rt":1803,"correct":false,"confidence":4},{"trial_n":135,"n_dots":3.65,"target":"right","response":"left","rt":16823,"correct":false,"confidence":2},{"trial_n":136,"n_dots":3.75,"target":"left","response":"left","rt":1028,"correct":true,"confidence":5},{"trial_n":137,"n_dots":3.75,"target":"left","response":"left","rt":1284,"correct":true,"confidence":5},{"trial_n":138,"n_dots":3.65,"target":"right","response":"right","rt":1260,"correct":true,"confidence":5},{"trial_n":139,"n_dots":3.65,"target":"right","response":"right","rt":957,"correct":true,"confidence":5},{"trial_n":140,"n_dots":3.55,"target":"left","response":"left","rt":1320,"correct":true,"confidence":4},{"trial_n":141,"n_dots":3.55,"target":"right","response":"left","rt":2798,"correct":false,"confidence":4},{"trial_n":142,"n_dots":3.65,"target":"left","response":"right","rt":1904,"correct":false,"confidence":4},{"trial_n":143,"n_dots":3.75,"target":"right","response":"right","rt":1649,"correct":true,"confidence":4},{"trial_n":144,"n_dots":3.75,"target":"left","response":"right","rt":1354,"correct":false,"confidence":4},{"trial_n":145,"n_dots":3.85,"target":"right","response":"right","rt":1406,"correct":true,"confidence":5},{"trial_n":146,"n_dots":3.85,"target":"right","response":"right","rt":1135,"correct":true,"confidence":5},{"trial_n":147,"n_dots":3.75,"target":"left","response":"left","rt":1132,"correct":true,"confidence":4},{"trial_n":148,"n_dots":3.75,"target":"right","response":"right","rt":2233,"correct":true,"confidence":4},{"trial_n":149,"n_dots":3.65,"target":"right","response":"right","rt":1191,"correct":true,"confidence":4},{"trial_n":150,"n_dots":3.65,"target":"right","response":"right","rt":1102,"correct":true,"confidence":4},{"trial_n":151,"n_dots":3.55,"target":"right","response":"right","rt":1371,"correct":true,"confidence":4},{"trial_n":152,"n_dots":3.55,"target":"left","response":"left","rt":1257,"correct":true,"confidence":5},{"trial_n":153,"n_dots":3.45,"target":"left","response":"right","rt":1074,"correct":false,"confidence":5},{"trial_n":154,"n_dots":3.55,"target":"right","response":"right","rt":353,"correct":true,"confidence":5},{"trial_n":155,"n_dots":3.55,"target":"right","response":"right","rt":1768,"correct":true,"confidence":3},{"trial_n":156,"n_dots":3.45,"target":"right","response":"right","rt":971,"correct":true,"confidence":4},{"trial_n":157,"n_dots":3.45,"target":"right","response":"right","rt":1037,"correct":true,"confidence":5},{"trial_n":158,"n_dots":3.35,"target":"right","response":"right","rt":1318,"correct":true,"confidence":5},{"trial_n":159,"n_dots":3.35,"target":"left","response":"right","rt":1922,"correct":false,"confidence":4},{"trial_n":160,"n_dots":3.45,"target":"left","response":"left","rt":1486,"correct":true,"confidence":4},{"trial_n":161,"n_dots":3.45,"target":"right","response":"right","rt":1750,"correct":true,"confidence":4},{"trial_n":162,"n_dots":3.35,"target":"right","response":"right","rt":983,"correct":true,"confidence":5},{"trial_n":163,"n_dots":3.35,"target":"left","response":"right","rt":1602,"correct":false,"confidence":4},{"trial_n":164,"n_dots":3.45,"target":"right","response":"right","rt":997,"correct":true,"confidence":6},{"trial_n":165,"n_dots":3.45,"target":"right","response":"right","rt":959,"correct":true,"confidence":6},{"trial_n":166,"n_dots":3.35,"target":"right","response":"right","rt":1040,"correct":true,"confidence":6},{"trial_n":167,"n_dots":3.35,"target":"right","response":"right","rt":918,"correct":true,"confidence":5},{"trial_n":168,"n_dots":3.25,"target":"right","response":"right","rt":1377,"correct":true,"confidence":5},{"trial_n":169,"n_dots":3.25,"target":"right","response":"right","rt":1030,"correct":true,"confidence":5},{"trial_n":170,"n_dots":3.15,"target":"right","response":"left","rt":1483,"correct":false,"confidence":4},{"trial_n":171,"n_dots":3.25,"target":"left","response":"left","rt":1502,"correct":true,"confidence":5},{"trial_n":172,"n_dots":3.25,"target":"left","response":"left","rt":1453,"correct":true,"confidence":5},{"trial_n":173,"n_dots":3.15,"target":"right","response":"left","rt":1518,"correct":false,"confidence":3},{"trial_n":174,"n_dots":3.25,"target":"right","response":"left","rt":1194,"correct":false,"confidence":3},{"trial_n":175,"n_dots":3.35,"target":"right","response":"right","rt":1308,"correct":true,"confidence":4},{"trial_n":176,"n_dots":3.35,"target":"left","response":"left","rt":1075,"correct":true,"confidence":3},{"trial_n":177,"n_dots":3.25,"target":"left","response":"left","rt":1479,"correct":true,"confidence":4},{"trial_n":178,"n_dots":3.25,"target":"left","response":"left","rt":1580,"correct":true,"confidence":3},{"trial_n":179,"n_dots":3.15,"target":"right","response":"left","rt":1292,"correct":false,"confidence":3},{"trial_n":180,"n_dots":3.25,"target":"left","response":"left","rt":946,"correct":true,"confidence":3},{"trial_n":181,"n_dots":3.25,"target":"left","response":"left","rt":1209,"correct":true,"confidence":3},{"trial_n":182,"n_dots":3.15,"target":"right","response":"right","rt":2318,"correct":true,"confidence":2},{"trial_n":183,"n_dots":3.15,"target":"right","response":"left","rt":1684,"correct":false,"confidence":2},{"trial_n":184,"n_dots":3.25,"target":"right","response":"left","rt":1503,"correct":false,"confidence":3},{"trial_n":185,"n_dots":3.35,"target":"right","response":"right","rt":2209,"correct":true,"confidence":3},{"trial_n":186,"n_dots":3.35,"target":"right","response":"left","rt":1699,"correct":false,"confidence":2},{"trial_n":187,"n_dots":3.45,"target":"left","response":"left","rt":1205,"correct":true,"confidence":4},{"trial_n":188,"n_dots":3.45,"target":"left","response":"left","rt":1315,"correct":true,"confidence":4},{"trial_n":189,"n_dots":3.35,"target":"right","response":"right","rt":2231,"correct":true,"confidence":4},{"trial_n":190,"n_dots":3.35,"target":"right","response":"right","rt":1867,"correct":true,"confidence":4},{"trial_n":191,"n_dots":3.25,"target":"left","response":"right","rt":2011,"correct":false,"confidence":3},{"trial_n":192,"n_dots":3.35,"target":"left","response":"left","rt":1239,"correct":true,"confidence":3},{"trial_n":193,"n_dots":3.35,"target":"left","response":"left","rt":1834,"correct":true,"confidence":3},{"trial_n":194,"n_dots":3.25,"target":"right","response":"left","rt":1333,"correct":false,"confidence":3}]