[{"trial_n":1,"n_dots":4.25,"target":"left","response":"right","rt":4149.1000000001,"correct":false,"confidence":-1},{"trial_n":2,"n_dots":4.25,"target":"right","response":"right","rt":1742.2000000002,"correct":true,"confidence":-1},{"trial_n":3,"n_dots":4.25,"target":"right","response":"right","rt":1153.5,"correct":true,"confidence":-1},{"trial_n":4,"n_dots":3.85,"target":"right","response":"left","rt":976.10000000009,"correct":false,"confidence":-1},{"trial_n":5,"n_dots":4.25,"target":"left","response":"left","rt":1462.2000000002,"correct":true,"confidence":-1},{"trial_n":6,"n_dots":4.25,"target":"left","response":"right","rt":1327.7000000002,"correct":false,"confidence":-1},{"trial_n":7,"n_dots":4.65,"target":"right","response":"left","rt":4282.5,"correct":false,"confidence":-1},{"trial_n":8,"n_dots":4.85,"target":"left","response":"left","rt":1014.6999999997,"correct":true,"confidence":-1},{"trial_n":9,"n_dots":4.85,"target":"left","response":"left","rt":705.89999999991,"correct":true,"confidence":-1},{"trial_n":10,"n_dots":4.65,"target":"right","response":"right","rt":1218.5,"correct":true,"confidence":-1},{"trial_n":11,"n_dots":4.65,"target":"right","response":"right","rt":1233.1000000001,"correct":true,"confidence":-1},{"trial_n":12,"n_dots":4.45,"target":"left","response":"left","rt":820.29999999981,"correct":true,"confidence":-1},{"trial_n":13,"n_dots":4.45,"target":"left","response":"left","rt":657.10000000009,"correct":true,"confidence":-1},{"trial_n":14,"n_dots":4.35,"target":"right","response":"right","rt":650.69999999972,"correct":true,"confidence":-1},{"trial_n":15,"n_dots":4.35,"target":"right","response":"right","rt":428.80000000028,"correct":true,"confidence":-1},{"trial_n":16,"n_dots":4.25,"target":"right","response":"right","rt":520.69999999972,"correct":true,"confidence":-1},{"trial_n":17,"n_dots":4.25,"target":"right","response":"right","rt":715.59999999963,"correct":true,"confidence":-1},{"trial_n":18,"n_dots":4.15,"target":"left","response":"left","rt":582,"correct":true,"confidence":-1},{"trial_n":19,"n_dots":4.15,"target":"right","response":"right","rt":758.40000000037,"correct":true,"confidence":-1},{"trial_n":20,"n_dots":4.05,"target":"left","response":"left","rt":758.60000000009,"correct":true,"confidence":-1},{"trial_n":21,"n_dots":4.05,"target":"right","response":"right","rt":464.79999999981,"correct":true,"confidence":-1},{"trial_n":22,"n_dots":3.95,"target":"right","response":"right","rt":603,"correct":true,"confidence":-1},{"trial_n":23,"n_dots":3.95,"target":"right","response":"right","rt":471.40000000037,"correct":true,"confidence":-1},{"trial_n":24,"n_dots":3.85,"target":"right","response":"right","rt":552.79999999981,"correct":true,"confidence":-1},{"trial_n":25,"n_dots":3.85,"target":"right","response":"left","rt":814.80000000028,"correct":false,"confidence":-1},{"trial_n":26,"n_dots":3.95,"target":"right","response":"right","rt":707.80000000028,"correct":true,"confidence":-1},{"trial_n":27,"n_dots":3.95,"target":"left","response":"right","rt":1092.7000000002,"correct":false,"confidence":3},{"trial_n":28,"n_dots":4.05,"target":"right","response":"right","rt":589.10000000009,"correct":true,"confidence":5},{"trial_n":29,"n_dots":4.05,"target":"right","response":"right","rt":714.29999999981,"correct":true,"confidence":5},{"trial_n":30,"n_dots":3.95,"target":"right","response":"right","rt":942,"correct":true,"confidence":6},{"trial_n":31,"n_dots":3.95,"target":"right","response":"right","rt":836.70000000019,"correct":true,"confidence":4},{"trial_n":32,"n_dots":3.85,"target":"left","response":"left","rt":1071.3999999999,"correct":true,"confidence":5},{"trial_n":33,"n_dots":3.85,"target":"left","response":"left","rt":753.10000000009,"correct":true,"confidence":4},{"trial_n":34,"n_dots":3.75,"target":"left","response":"left","rt":1115.8000000003,"correct":true,"confidence":5},{"trial_n":35,"n_dots":3.75,"target":"left","response":"left","rt":438,"correct":true,"confidence":6},{"trial_n":36,"n_dots":3.65,"target":"left","response":"left","rt":1841,"correct":true,"confidence":2},{"trial_n":37,"n_dots":3.65,"target":"right","response":"right","rt":603.20000000019,"correct":true,"confidence":3},{"trial_n":38,"n_dots":3.55,"target":"right","response":"right","rt":6604.7999999998,"correct":true,"confidence":2},{"trial_n":39,"n_dots":3.55,"target":"left","response":"left","rt":729.20000000019,"correct":true,"confidence":5},{"trial_n":40,"n_dots":3.45,"target":"left","response":"left","rt":609.89999999991,"correct":true,"confidence":5},{"trial_n":41,"n_dots":3.45,"target":"left","response":"left","rt":629.10000000009,"correct":true,"confidence":5},{"trial_n":42,"n_dots":3.35,"target":"left","response":"right","rt":558.70000000019,"correct":false,"confidence":3},{"trial_n":43,"n_dots":3.45,"target":"right","response":"left","rt":618.20000000019,"correct":false,"confidence":4},{"trial_n":44,"n_dots":3.55,"target":"right","response":"right","rt":592.60000000009,"correct":true,"confidence":5},{"trial_n":45,"n_dots":3.55,"target":"left","response":"left","rt":286.89999999991,"correct":true,"confidence":5},{"trial_n":46,"n_dots":3.45,"target":"right","response":"right","rt":746.39999999991,"correct":true,"confidence":4},{"trial_n":47,"n_dots":3.45,"target":"left","response":"left","rt":359.20000000019,"correct":true,"confidence":4},{"trial_n":48,"n_dots":3.35,"target":"left","response":"left","rt":36.899999999907,"correct":true,"confidence":5},{"trial_n":49,"n_dots":3.35,"target":"left","response":"left","rt":403.59999999963,"correct":true,"confidence":5},{"trial_n":50,"n_dots":3.25,"target":"left","response":"right","rt":680.29999999981,"correct":false,"confidence":3},{"trial_n":51,"n_dots":3.35,"target":"left","response":"right","rt":836.29999999981,"correct":false,"confidence":3},{"trial_n":52,"n_dots":3.45,"target":"right","response":"left","rt":614,"correct":false,"confidence":4},{"trial_n":53,"n_dots":3.55,"target":"left","response":"left","rt":767.70000000019,"correct":true,"confidence":3},{"trial_n":54,"n_dots":3.55,"target":"left","response":"left","rt":803,"correct":true,"confidence":4},{"trial_n":55,"n_dots":3.45,"target":"right","response":"right","rt":4080.1000000001,"correct":true,"confidence":3},{"trial_n":56,"n_dots":3.45,"target":"left","response":"right","rt":968.20000000019,"correct":false,"confidence":3},{"trial_n":57,"n_dots":3.55,"target":"right","response":"right","rt":3078.7000000002,"correct":true,"confidence":3},{"trial_n":58,"n_dots":3.55,"target":"right","response":"right","rt":608.30000000028,"correct":true,"confidence":3},{"trial_n":59,"n_dots":3.45,"target":"left","response":"left","rt":802.39999999991,"correct":true,"confidence":4},{"trial_n":60,"n_dots":3.45,"target":"right","response":"right","rt":907.89999999991,"correct":true,"confidence":4},{"trial_n":61,"n_dots":3.35,"target":"right","response":"right","rt":866.10000000009,"correct":true,"confidence":4},{"trial_n":62,"n_dots":3.35,"target":"left","response":"left","rt":88.299999999814,"correct":true,"confidence":3},{"trial_n":63,"n_dots":3.25,"target":"right","response":"right","rt":476.79999999981,"correct":true,"confidence":4},{"trial_n":64,"n_dots":3.25,"target":"right","response":"right","rt":761.20000000019,"correct":true,"confidence":3},{"trial_n":65,"n_dots":3.15,"target":"left","response":"right","rt":2059.7999999998,"correct":false,"confidence":2},{"trial_n":66,"n_dots":3.25,"target":"right","response":"right","rt":371,"correct":true,"confidence":2},{"trial_n":67,"n_dots":3.25,"target":"right","response":"right","rt":565.5,"correct":true,"confidence":2},{"trial_n":68,"n_dots":3.15,"target":"right","response":"left","rt":457.5,"correct":false,"confidence":2},{"trial_n":69,"n_dots":3.25,"target":"right","response":"right","rt":328.80000000028,"correct":true,"confidence":5},{"trial_n":70,"n_dots":3.25,"target":"right","response":"right","rt":551.60000000009,"correct":true,"confidence":5},{"trial_n":71,"n_dots":3.15,"target":"left","response":"left","rt":237.69999999972,"correct":true,"confidence":5},{"trial_n":72,"n_dots":3.15,"target":"left","response":"right","rt":1136.7000000002,"correct":false,"confidence":4},{"trial_n":73,"n_dots":3.25,"target":"right","response":"right","rt":516.80000000028,"correct":true,"confidence":5},{"trial_n":74,"n_dots":3.25,"target":"left","response":"left","rt":478.60000000009,"correct":true,"confidence":5},{"trial_n":75,"n_dots":3.15,"target":"left","response":"left","rt":996.60000000009,"correct":true,"confidence":4},{"trial_n":76,"n_dots":3.15,"target":"left","response":"right","rt":609.89999999991,"correct":false,"confidence":5},{"trial_n":77,"n_dots":3.25,"target":"left","response":"left","rt":249.89999999991,"correct":true,"confidence":4},{"trial_n":78,"n_dots":3.25,"target":"right","response":"right","rt":385.80000000028,"correct":true,"confidence":5},{"trial_n":79,"n_dots":3.15,"target":"left","response":"right","rt":436.29999999981,"correct":false,"confidence":3},{"trial_n":80,"n_dots":3.25,"target":"right","response":"left","rt":138.70000000019,"correct":false,"confidence":3},{"trial_n":81,"n_dots":3.35,"target":"left","response":"left","rt":332.10000000009,"correct":true,"confidence":5},{"trial_n":82,"n_dots":3.35,"target":"left","response":"left","rt":619.89999999991,"correct":true,"confidence":4},{"trial_n":83,"n_dots":3.25,"target":"right","response":"left","rt":104.20000000019,"correct":false,"confidence":5},{"trial_n":84,"n_dots":3.35,"target":"left","response":"right","rt":53.400000000373,"correct":false,"confidence":3},{"trial_n":85,"n_dots":3.45,"target":"right","response":"right","rt":582.89999999991,"correct":true,"confidence":5},{"trial_n":86,"n_dots":3.45,"target":"right","response":"right","rt":627,"correct":true,"confidence":5},{"trial_n":87,"n_dots":3.35,"target":"left","response":"left","rt":212.80000000028,"correct":true,"confidence":4},{"trial_n":88,"n_dots":3.35,"target":"left","response":"left","rt":717.60000000009,"correct":true,"confidence":2},{"trial_n":89,"n_dots":3.25,"target":"left","response":"right","rt":244.89999999991,"correct":false,"confidence":4},{"trial_n":90,"n_dots":3.35,"target":"left","response":"left","rt":450.20000000019,"correct":true,"confidence":2},{"trial_n":91,"n_dots":3.35,"target":"right","response":"right","rt":236.5,"correct":true,"confidence":4},{"trial_n":92,"n_dots":3.25,"target":"right","response":"right","rt":350.79999999981,"correct":true,"confidence":3},{"trial_n":93,"n_dots":3.25,"target":"right","response":"left","rt":796.09999999963,"correct":false,"confidence":2},{"trial_n":94,"n_dots":3.35,"target":"left","response":"right","rt":487.5,"correct":false,"confidence":2},{"trial_n":95,"n_dots":3.45,"target":"left","response":"left","rt":489.79999999981,"correct":true,"confidence":3},{"trial_n":96,"n_dots":3.45,"target":"right","response":"right","rt":281.90000000037,"correct":true,"confidence":5},{"trial_n":97,"n_dots":3.35,"target":"left","response":"left","rt":389.10000000009,"correct":true,"confidence":3},{"trial_n":98,"n_dots":3.35,"target":"right","response":"right","rt":287.90000000037,"correct":true,"confidence":5},{"trial_n":99,"n_dots":3.25,"target":"left","response":"right","rt":322.79999999981,"correct":false,"confidence":5},{"trial_n":100,"n_dots":3.35,"target":"left","response":"left","rt":346,"correct":true,"confidence":4},{"trial_n":101,"n_dots":3.35,"target":"left","response":"right","rt":151,"correct":false,"confidence":4},{"trial_n":102,"n_dots":3.45,"target":"right","response":"right","rt":937.60000000009,"correct":true,"confidence":3},{"trial_n":103,"n_dots":3.45,"target":"right","response":"right","rt":101.90000000037,"correct":true,"confidence":3},{"trial_n":104,"n_dots":3.35,"target":"right","response":"right","rt":1365.0999999996,"correct":true,"confidence":4},{"trial_n":105,"n_dots":3.35,"target":"right","response":"right","rt":929.59999999963,"correct":true,"confidence":3},{"trial_n":106,"n_dots":3.25,"target":"left","response":"left","rt":658,"correct":true,"confidence":4},{"trial_n":107,"n_dots":3.25,"target":"right","response":"right","rt":552.60000000009,"correct":true,"confidence":3},{"trial_n":108,"n_dots":3.15,"target":"left","response":"right","rt":2514.8000000003,"correct":false,"confidence":4},{"trial_n":109,"n_dots":3.25,"target":"right","response":"right","rt":1870.1000000001,"correct":true,"confidence":2},{"trial_n":110,"n_dots":3.25,"target":"right","response":"left","rt":1284.2999999998,"correct":false,"confidence":2},{"trial_n":111,"n_dots":3.35,"target":"left","response":"right","rt":801,"correct":false,"confidence":5},{"trial_n":112,"n_dots":3.45,"target":"right","response":"right","rt":1266.5,"correct":true,"confidence":6},{"trial_n":113,"n_dots":3.45,"target":"left","response":"left","rt":366.09999999963,"correct":true,"confidence":4},{"trial_n":114,"n_dots":3.35,"target":"left","response":"left","rt":659.60000000009,"correct":true,"confidence":3},{"trial_n":115,"n_dots":3.35,"target":"right","response":"right","rt":976.5,"correct":true,"confidence":5},{"trial_n":116,"n_dots":3.25,"target":"right","response":"right","rt":775.30000000028,"correct":true,"confidence":5},{"trial_n":117,"n_dots":3.25,"target":"left","response":"left","rt":722.60000000009,"correct":true,"confidence":4},{"trial_n":118,"n_dots":3.15,"target":"left","response":"right","rt":1060.7000000002,"correct":false,"confidence":3},{"trial_n":119,"n_dots":3.25,"target":"right","response":"right","rt":637.5,"correct":true,"confidence":3},{"trial_n":120,"n_dots":3.25,"target":"right","response":"right","rt":1145.2000000002,"correct":true,"confidence":4},{"trial_n":121,"n_dots":3.15,"target":"left","response":"left","rt":558.30000000028,"correct":true,"confidence":2},{"trial_n":122,"n_dots":3.15,"target":"left","response":"left","rt":1388.7000000002,"correct":true,"confidence":2},{"trial_n":123,"n_dots":3.05,"target":"left","response":"right","rt":1212.8000000003,"correct":false,"confidence":3},{"trial_n":124,"n_dots":3.15,"target":"right","response":"right","rt":778.60000000009,"correct":true,"confidence":1},{"trial_n":125,"n_dots":3.15,"target":"left","response":"right","rt":2497.6999999997,"correct":false,"confidence":3},{"trial_n":126,"n_dots":3.25,"target":"right","response":"left","rt":592.30000000028,"correct":false,"confidence":2},{"trial_n":127,"n_dots":3.35,"target":"left","response":"left","rt":509.29999999981,"correct":true,"confidence":2},{"trial_n":128,"n_dots":3.35,"target":"left","response":"right","rt":1092.5,"correct":false,"confidence":2},{"trial_n":129,"n_dots":3.45,"target":"right","response":"right","rt":591.5,"correct":true,"confidence":2},{"trial_n":130,"n_dots":3.45,"target":"left","response":"right","rt":526.89999999991,"correct":false,"confidence":3},{"trial_n":131,"n_dots":3.55,"target":"right","response":"left","rt":2613.8999999999,"correct":false,"confidence":2},{"trial_n":132,"n_dots":3.65,"target":"left","response":"right","rt":725.20000000019,"correct":false,"confidence":4},{"trial_n":133,"n_dots":3.75,"target":"left","response":"left","rt":630,"correct":true,"confidence":5},{"trial_n":134,"n_dots":3.75,"target":"right","response":"right","rt":500.90000000037,"correct":true,"confidence":5},{"trial_n":135,"n_dots":3.65,"target":"left","response":"left","rt":971.39999999991,"correct":true,"confidence":4},{"trial_n":136,"n_dots":3.65,"target":"left","response":"left","rt":2745.1000000001,"correct":true,"confidence":3},{"trial_n":137,"n_dots":3.55,"target":"right","response":"right","rt":454.39999999991,"correct":true,"confidence":5},{"trial_n":138,"n_dots":3.55,"target":"left","response":"left","rt":774.80000000028,"correct":true,"confidence":4},{"trial_n":139,"n_dots":3.45,"target":"left","response":"right","rt":378,"correct":false,"confidence":4},{"trial_n":140,"n_dots":3.55,"target":"left","response":"left","rt":534.29999999981,"correct":true,"confidence":4},{"trial_n":141,"n_dots":3.55,"target":"left","response":"left","rt":542,"correct":true,"confidence":4},{"trial_n":142,"n_dots":3.45,"target":"left","response":"right","rt":1148.8000000003,"correct":false,"confidence":3},{"trial_n":143,"n_dots":3.55,"target":"left","response":"left","rt":996.19999999972,"correct":true,"confidence":2},{"trial_n":144,"n_dots":3.55,"target":"left","response":"left","rt":997.29999999981,"correct":true,"confidence":3},{"trial_n":145,"n_dots":3.45,"target":"left","response":"right","rt":716.80000000028,"correct":false,"confidence":3},{"trial_n":146,"n_dots":3.55,"target":"right","response":"right","rt":594.89999999991,"correct":true,"confidence":5},{"trial_n":147,"n_dots":3.55,"target":"left","response":"left","rt":456.10000000009,"correct":true,"confidence":6},{"trial_n":148,"n_dots":3.45,"target":"left","response":"left","rt":2005.7000000002,"correct":true,"confidence":2},{"trial_n":149,"n_dots":3.45,"target":"left","response":"left","rt":974.10000000009,"correct":true,"confidence":3},{"trial_n":150,"n_dots":3.35,"target":"left","response":"right","rt":1478.9000000004,"correct":false,"confidence":3},{"trial_n":151,"n_dots":3.45,"target":"right","response":"right","rt":1774.3999999999,"correct":true,"confidence":5},{"trial_n":152,"n_dots":3.45,"target":"right","response":"left","rt":951.89999999991,"correct":false,"confidence":3},{"trial_n":153,"n_dots":3.55,"target":"right","response":"left","rt":1219,"correct":false,"confidence":5},{"trial_n":154,"n_dots":3.65,"target":"right","response":"right","rt":1765.3999999999,"correct":true,"confidence":5},{"trial_n":155,"n_dots":3.65,"target":"right","response":"right","rt":333.80000000028,"correct":true,"confidence":6},{"trial_n":156,"n_dots":3.55,"target":"right","response":"right","rt":444.80000000028,"correct":true,"confidence":6},{"trial_n":157,"n_dots":3.55,"target":"left","response":"left","rt":440.5,"correct":true,"confidence":5},{"trial_n":158,"n_dots":3.45,"target":"left","response":"left","rt":709.60000000009,"correct":true,"confidence":4},{"trial_n":159,"n_dots":3.45,"target":"left","response":"right","rt":34859.3,"correct":false,"confidence":2},{"trial_n":160,"n_dots":3.55,"target":"right","response":"left","rt":433.80000000028,"correct":false,"confidence":4},{"trial_n":161,"n_dots":3.65,"target":"left","response":"left","rt":795.89999999991,"correct":true,"confidence":4},{"trial_n":162,"n_dots":3.65,"target":"right","response":"right","rt":246.29999999981,"correct":true,"confidence":4},{"trial_n":163,"n_dots":3.55,"target":"left","response":"left","rt":274.80000000028,"correct":true,"confidence":6},{"trial_n":164,"n_dots":3.55,"target":"left","response":"left","rt":389.10000000009,"correct":true,"confidence":5},{"trial_n":165,"n_dots":3.45,"target":"left","response":"right","rt":957.20000000019,"correct":false,"confidence":2},{"trial_n":166,"n_dots":3.55,"target":"right","response":"right","rt":631.60000000009,"correct":true,"confidence":5},{"trial_n":167,"n_dots":3.55,"target":"right","response":"right","rt":6241,"correct":true,"confidence":1},{"trial_n":168,"n_dots":3.45,"target":"right","response":"right","rt":1278.8999999999,"correct":true,"confidence":4},{"trial_n":169,"n_dots":3.45,"target":"right","response":"right","rt":440.89999999991,"correct":true,"confidence":4},{"trial_n":170,"n_dots":3.35,"target":"left","response":"left","rt":861.20000000019,"correct":true,"confidence":3},{"trial_n":171,"n_dots":3.35,"target":"right","response":"right","rt":218.60000000009,"correct":true,"confidence":4},{"trial_n":172,"n_dots":3.25,"target":"right","response":"right","rt":367.5,"correct":true,"confidence":4},{"trial_n":173,"n_dots":3.25,"target":"left","response":"left","rt":416.40000000037,"correct":true,"confidence":3},{"trial_n":174,"n_dots":3.15,"target":"left","response":"right","rt":232.29999999981,"correct":false,"confidence":4},{"trial_n":175,"n_dots":3.25,"target":"right","response":"right","rt":162.29999999981,"correct":true,"confidence":4},{"trial_n":176,"n_dots":3.25,"target":"left","response":"left","rt":349.89999999991,"correct":true,"confidence":5},{"trial_n":177,"n_dots":3.15,"target":"right","response":"right","rt":190.10000000009,"correct":true,"confidence":4},{"trial_n":178,"n_dots":3.15,"target":"left","response":"right","rt":2883.8000000003,"correct":false,"confidence":2},{"trial_n":179,"n_dots":3.25,"target":"right","response":"right","rt":217.79999999981,"correct":true,"confidence":4},{"trial_n":180,"n_dots":3.25,"target":"right","response":"right","rt":142.40000000037,"correct":true,"confidence":5},{"trial_n":181,"n_dots":3.15,"target":"right","response":"right","rt":238.39999999991,"correct":true,"confidence":4},{"trial_n":182,"n_dots":3.15,"target":"left","response":"left","rt":270.10000000009,"correct":true,"confidence":5},{"trial_n":183,"n_dots":3.05,"target":"left","response":"right","rt":247,"correct":false,"confidence":3},{"trial_n":184,"n_dots":3.15,"target":"right","response":"right","rt":284.5,"correct":true,"confidence":5},{"trial_n":185,"n_dots":3.15,"target":"right","response":"right","rt":1078.2999999998,"correct":true,"confidence":5},{"trial_n":186,"n_dots":3.05,"target":"right","response":"left","rt":1088,"correct":false,"confidence":2},{"trial_n":187,"n_dots":3.15,"target":"right","response":"left","rt":604.79999999981,"correct":false,"confidence":2},{"trial_n":188,"n_dots":3.25,"target":"right","response":"right","rt":189.30000000028,"correct":true,"confidence":2},{"trial_n":189,"n_dots":3.25,"target":"right","response":"right","rt":212.80000000028,"correct":true,"confidence":3},{"trial_n":190,"n_dots":3.15,"target":"left","response":"left","rt":1128.1000000001,"correct":true,"confidence":4},{"trial_n":191,"n_dots":3.15,"target":"right","response":"left","rt":661.40000000037,"correct":false,"confidence":3},{"trial_n":192,"n_dots":3.25,"target":"right","response":"right","rt":329.89999999991,"correct":true,"confidence":5},{"trial_n":193,"n_dots":3.25,"target":"left","response":"left","rt":585.5,"correct":true,"confidence":4},{"trial_n":194,"n_dots":3.15,"target":"right","response":"right","rt":313.79999999981,"correct":true,"confidence":4}]