[{"trial_n":1,"n_dots":4.25,"target":"right","response":"right","rt":30384.699999809,"correct":true,"confidence":-1},{"trial_n":2,"n_dots":4.25,"target":"left","response":"left","rt":882.39999961853,"correct":true,"confidence":-1},{"trial_n":3,"n_dots":3.85,"target":"left","response":"right","rt":849.5999994278,"correct":false,"confidence":-1},{"trial_n":4,"n_dots":4.25,"target":"right","response":"left","rt":748,"correct":false,"confidence":-1},{"trial_n":5,"n_dots":4.65,"target":"right","response":"right","rt":600.39999961853,"correct":true,"confidence":-1},{"trial_n":6,"n_dots":4.65,"target":"left","response":"left","rt":698.10000038147,"correct":true,"confidence":-1},{"trial_n":7,"n_dots":4.25,"target":"right","response":"left","rt":1015.4000005722,"correct":false,"confidence":-1},{"trial_n":8,"n_dots":4.45,"target":"right","response":"right","rt":779.5,"correct":true,"confidence":-1},{"trial_n":9,"n_dots":4.45,"target":"right","response":"right","rt":577.19999980927,"correct":true,"confidence":-1},{"trial_n":10,"n_dots":4.25,"target":"right","response":"right","rt":591.89999961853,"correct":true,"confidence":-1},{"trial_n":11,"n_dots":4.25,"target":"right","response":"right","rt":612.10000038147,"correct":true,"confidence":-1},{"trial_n":12,"n_dots":4.05,"target":"right","response":"right","rt":928.89999961853,"correct":true,"confidence":-1},{"trial_n":13,"n_dots":4.05,"target":"right","response":"right","rt":643.69999980927,"correct":true,"confidence":-1},{"trial_n":14,"n_dots":3.95,"target":"right","response":"right","rt":466.0999994278,"correct":true,"confidence":-1},{"trial_n":15,"n_dots":3.95,"target":"left","response":"left","rt":698.69999980927,"correct":true,"confidence":-1},{"trial_n":16,"n_dots":3.85,"target":"left","response":"left","rt":723.5,"correct":true,"confidence":-1},{"trial_n":17,"n_dots":3.85,"target":"left","response":"left","rt":624,"correct":true,"confidence":-1},{"trial_n":18,"n_dots":3.75,"target":"right","response":"left","rt":814.29999923706,"correct":false,"confidence":-1},{"trial_n":19,"n_dots":3.85,"target":"left","response":"left","rt":669.19999980927,"correct":true,"confidence":-1},{"trial_n":20,"n_dots":3.85,"target":"right","response":"left","rt":671.39999961853,"correct":false,"confidence":-1},{"trial_n":21,"n_dots":3.95,"target":"right","response":"right","rt":546.9000005722,"correct":true,"confidence":-1},{"trial_n":22,"n_dots":3.95,"target":"right","response":"right","rt":508.89999961853,"correct":true,"confidence":-1},{"trial_n":23,"n_dots":3.85,"target":"left","response":"left","rt":1129.7999992371,"correct":true,"confidence":-1},{"trial_n":24,"n_dots":3.85,"target":"right","response":"left","rt":739.29999923706,"correct":false,"confidence":-1},{"trial_n":25,"n_dots":3.95,"target":"right","response":"right","rt":563.69999980927,"correct":true,"confidence":-1},{"trial_n":26,"n_dots":3.95,"target":"left","response":"right","rt":649.19999980927,"correct":false,"confidence":-1},{"trial_n":27,"n_dots":4.05,"target":"right","response":"right","rt":1338.5,"correct":true,"confidence":4},{"trial_n":28,"n_dots":4.05,"target":"right","response":"right","rt":1033.6999998093,"correct":true,"confidence":6},{"trial_n":29,"n_dots":3.95,"target":"right","response":"right","rt":767.19999980927,"correct":true,"confidence":5},{"trial_n":30,"n_dots":3.95,"target":"left","response":"left","rt":1887.4000005722,"correct":true,"confidence":3},{"trial_n":31,"n_dots":3.85,"target":"right","response":"right","rt":2323.6999998093,"correct":true,"confidence":4},{"trial_n":32,"n_dots":3.85,"target":"left","response":"right","rt":805.89999961853,"correct":false,"confidence":5},{"trial_n":33,"n_dots":3.95,"target":"right","response":"right","rt":648.5999994278,"correct":true,"confidence":4},{"trial_n":34,"n_dots":3.95,"target":"right","response":"right","rt":890.5999994278,"correct":true,"confidence":4},{"trial_n":35,"n_dots":3.85,"target":"left","response":"left","rt":827.69999980927,"correct":true,"confidence":4},{"trial_n":36,"n_dots":3.85,"target":"left","response":"left","rt":597.80000019073,"correct":true,"confidence":4},{"trial_n":37,"n_dots":3.75,"target":"left","response":"left","rt":462.79999923706,"correct":true,"confidence":4},{"trial_n":38,"n_dots":3.75,"target":"right","response":"right","rt":805.30000019073,"correct":true,"confidence":3},{"trial_n":39,"n_dots":3.65,"target":"left","response":"right","rt":960.10000038147,"correct":false,"confidence":4},{"trial_n":40,"n_dots":3.75,"target":"left","response":"left","rt":707,"correct":true,"confidence":5},{"trial_n":41,"n_dots":3.75,"target":"left","response":"right","rt":835.30000019073,"correct":false,"confidence":4},{"trial_n":42,"n_dots":3.85,"target":"right","response":"left","rt":1655.1000003815,"correct":false,"confidence":4},{"trial_n":43,"n_dots":3.95,"target":"right","response":"right","rt":574.30000019073,"correct":true,"confidence":4},{"trial_n":44,"n_dots":3.95,"target":"left","response":"left","rt":518.80000019073,"correct":true,"confidence":4},{"trial_n":45,"n_dots":3.85,"target":"left","response":"left","rt":507.89999961853,"correct":true,"confidence":5},{"trial_n":46,"n_dots":3.85,"target":"right","response":"right","rt":922.30000019073,"correct":true,"confidence":4},{"trial_n":47,"n_dots":3.75,"target":"left","response":"left","rt":1011,"correct":true,"confidence":4},{"trial_n":48,"n_dots":3.75,"target":"left","response":"left","rt":730.30000019073,"correct":true,"confidence":2},{"trial_n":49,"n_dots":3.65,"target":"left","response":"left","rt":499.9000005722,"correct":true,"confidence":5},{"trial_n":50,"n_dots":3.65,"target":"right","response":"left","rt":627.30000019073,"correct":false,"confidence":5},{"trial_n":51,"n_dots":3.75,"target":"left","response":"right","rt":1424.8999996185,"correct":false,"confidence":2},{"trial_n":52,"n_dots":3.85,"target":"left","response":"left","rt":1590.4000005722,"correct":true,"confidence":4},{"trial_n":53,"n_dots":3.85,"target":"left","response":"left","rt":140.70000076294,"correct":true,"confidence":4},{"trial_n":54,"n_dots":3.75,"target":"right","response":"right","rt":1199.3000001907,"correct":true,"confidence":4},{"trial_n":55,"n_dots":3.75,"target":"left","response":"left","rt":500.10000038147,"correct":true,"confidence":4},{"trial_n":56,"n_dots":3.65,"target":"right","response":"right","rt":706.19999980927,"correct":true,"confidence":4},{"trial_n":57,"n_dots":3.65,"target":"left","response":"left","rt":87.800000190735,"correct":true,"confidence":4},{"trial_n":58,"n_dots":3.55,"target":"right","response":"left","rt":569.30000019073,"correct":false,"confidence":4},{"trial_n":59,"n_dots":3.65,"target":"left","response":"left","rt":504,"correct":true,"confidence":4},{"trial_n":60,"n_dots":3.65,"target":"right","response":"left","rt":471.10000038147,"correct":false,"confidence":4},{"trial_n":61,"n_dots":3.75,"target":"left","response":"left","rt":3622,"correct":true,"confidence":4},{"trial_n":62,"n_dots":3.75,"target":"right","response":"right","rt":21801.399999619,"correct":true,"confidence":4},{"trial_n":63,"n_dots":3.65,"target":"right","response":"right","rt":687.20000076294,"correct":true,"confidence":4},{"trial_n":64,"n_dots":3.65,"target":"left","response":"right","rt":389.5999994278,"correct":false,"confidence":4},{"trial_n":65,"n_dots":3.75,"target":"left","response":"left","rt":609,"correct":true,"confidence":4},{"trial_n":66,"n_dots":3.75,"target":"right","response":"right","rt":93.299999237061,"correct":true,"confidence":4},{"trial_n":67,"n_dots":3.65,"target":"right","response":"right","rt":122.29999923706,"correct":true,"confidence":4},{"trial_n":68,"n_dots":3.65,"target":"left","response":"right","rt":616.69999980927,"correct":false,"confidence":4},{"trial_n":69,"n_dots":3.75,"target":"left","response":"left","rt":562,"correct":true,"confidence":3},{"trial_n":70,"n_dots":3.75,"target":"left","response":"left","rt":318.5,"correct":true,"confidence":3},{"trial_n":71,"n_dots":3.65,"target":"left","response":"right","rt":551.80000019073,"correct":false,"confidence":4},{"trial_n":72,"n_dots":3.75,"target":"left","response":"left","rt":485.5999994278,"correct":true,"confidence":4},{"trial_n":73,"n_dots":3.75,"target":"left","response":"right","rt":683,"correct":false,"confidence":4},{"trial_n":74,"n_dots":3.85,"target":"right","response":"right","rt":571.5,"correct":true,"confidence":4},{"trial_n":75,"n_dots":3.85,"target":"right","response":"left","rt":1273.1999998093,"correct":false,"confidence":4},{"trial_n":76,"n_dots":3.95,"target":"right","response":"right","rt":603.0999994278,"correct":true,"confidence":4},{"trial_n":77,"n_dots":3.95,"target":"left","response":"left","rt":805.80000019073,"correct":true,"confidence":3},{"trial_n":78,"n_dots":3.85,"target":"left","response":"left","rt":174.5999994278,"correct":true,"confidence":4},{"trial_n":79,"n_dots":3.85,"target":"right","response":"right","rt":862.9000005722,"correct":true,"confidence":5},{"trial_n":80,"n_dots":3.75,"target":"right","response":"right","rt":550.5,"correct":true,"confidence":5},{"trial_n":81,"n_dots":3.75,"target":"right","response":"right","rt":556.4000005722,"correct":true,"confidence":3},{"trial_n":82,"n_dots":3.65,"target":"left","response":"left","rt":485.80000019073,"correct":true,"confidence":3},{"trial_n":83,"n_dots":3.65,"target":"left","response":"right","rt":739.5999994278,"correct":false,"confidence":4},{"trial_n":84,"n_dots":3.75,"target":"left","response":"left","rt":299.5,"correct":true,"confidence":5},{"trial_n":85,"n_dots":3.75,"target":"left","response":"left","rt":545.60000038147,"correct":true,"confidence":5},{"trial_n":86,"n_dots":3.65,"target":"right","response":"right","rt":339.89999961853,"correct":true,"confidence":5},{"trial_n":87,"n_dots":3.65,"target":"left","response":"left","rt":313.30000019073,"correct":true,"confidence":4},{"trial_n":88,"n_dots":3.55,"target":"right","response":"right","rt":489.19999980927,"correct":true,"confidence":5},{"trial_n":89,"n_dots":3.55,"target":"left","response":"left","rt":1331.6999998093,"correct":true,"confidence":4},{"trial_n":90,"n_dots":3.45,"target":"left","response":"left","rt":583.69999980927,"correct":true,"confidence":4},{"trial_n":91,"n_dots":3.45,"target":"left","response":"left","rt":801,"correct":true,"confidence":4},{"trial_n":92,"n_dots":3.35,"target":"left","response":"right","rt":3871.3999996185,"correct":false,"confidence":1},{"trial_n":93,"n_dots":3.45,"target":"left","response":"left","rt":548.80000019073,"correct":true,"confidence":4},{"trial_n":94,"n_dots":3.45,"target":"left","response":"left","rt":494.10000038147,"correct":true,"confidence":4},{"trial_n":95,"n_dots":3.35,"target":"left","response":"right","rt":643.89999961853,"correct":false,"confidence":4},{"trial_n":96,"n_dots":3.45,"target":"left","response":"left","rt":507.80000019073,"correct":true,"confidence":3},{"trial_n":97,"n_dots":3.45,"target":"left","response":"left","rt":591.19999980927,"correct":true,"confidence":4},{"trial_n":98,"n_dots":3.35,"target":"right","response":"right","rt":271.0999994278,"correct":true,"confidence":4},{"trial_n":99,"n_dots":3.35,"target":"left","response":"right","rt":534.5,"correct":false,"confidence":4},{"trial_n":100,"n_dots":3.45,"target":"right","response":"right","rt":433.5999994278,"correct":true,"confidence":5},{"trial_n":101,"n_dots":3.45,"target":"right","response":"right","rt":859.5,"correct":true,"confidence":4},{"trial_n":102,"n_dots":3.35,"target":"left","response":"left","rt":513.69999980927,"correct":true,"confidence":4},{"trial_n":103,"n_dots":3.35,"target":"left","response":"left","rt":405.89999961853,"correct":true,"confidence":5},{"trial_n":104,"n_dots":3.25,"target":"right","response":"right","rt":256.4000005722,"correct":true,"confidence":5},{"trial_n":105,"n_dots":3.25,"target":"left","response":"left","rt":1288,"correct":true,"confidence":4},{"trial_n":106,"n_dots":3.15,"target":"left","response":"left","rt":228.4000005722,"correct":true,"confidence":3},{"trial_n":107,"n_dots":3.15,"target":"right","response":"left","rt":459.0999994278,"correct":false,"confidence":4},{"trial_n":108,"n_dots":3.25,"target":"left","response":"left","rt":542.89999961853,"correct":true,"confidence":4},{"trial_n":109,"n_dots":3.25,"target":"left","response":"left","rt":178.9000005722,"correct":true,"confidence":2},{"trial_n":110,"n_dots":3.15,"target":"right","response":"left","rt":179.69999980927,"correct":false,"confidence":5},{"trial_n":111,"n_dots":3.25,"target":"left","response":"left","rt":853.4000005722,"correct":true,"confidence":3},{"trial_n":112,"n_dots":3.25,"target":"right","response":"right","rt":338.30000019073,"correct":true,"confidence":4},{"trial_n":113,"n_dots":3.15,"target":"right","response":"right","rt":681.20000076294,"correct":true,"confidence":4},{"trial_n":114,"n_dots":3.15,"target":"right","response":"right","rt":676.69999980927,"correct":true,"confidence":4},{"trial_n":115,"n_dots":3.05,"target":"right","response":"right","rt":641,"correct":true,"confidence":4},{"trial_n":116,"n_dots":3.05,"target":"left","response":"right","rt":383.30000019073,"correct":false,"confidence":4},{"trial_n":117,"n_dots":3.15,"target":"right","response":"left","rt":537.20000076294,"correct":false,"confidence":4},{"trial_n":118,"n_dots":3.25,"target":"left","response":"left","rt":3742.5,"correct":true,"confidence":4},{"trial_n":119,"n_dots":3.25,"target":"left","response":"right","rt":743.5999994278,"correct":false,"confidence":4},{"trial_n":120,"n_dots":3.35,"target":"right","response":"right","rt":574.70000076294,"correct":true,"confidence":4},{"trial_n":121,"n_dots":3.35,"target":"left","response":"left","rt":915.5,"correct":true,"confidence":4},{"trial_n":122,"n_dots":3.25,"target":"right","response":"left","rt":647.5,"correct":false,"confidence":4},{"trial_n":123,"n_dots":3.35,"target":"right","response":"left","rt":675.30000019073,"correct":false,"confidence":4},{"trial_n":124,"n_dots":3.45,"target":"right","response":"left","rt":225.30000019073,"correct":false,"confidence":5},{"trial_n":125,"n_dots":3.55,"target":"right","response":"right","rt":332.5,"correct":true,"confidence":4},{"trial_n":126,"n_dots":3.55,"target":"left","response":"left","rt":177.5999994278,"correct":true,"confidence":4},{"trial_n":127,"n_dots":3.45,"target":"right","response":"right","rt":563.10000038147,"correct":true,"confidence":4},{"trial_n":128,"n_dots":3.45,"target":"left","response":"left","rt":71.699999809265,"correct":true,"confidence":4},{"trial_n":129,"n_dots":3.35,"target":"left","response":"right","rt":503.5,"correct":false,"confidence":4},{"trial_n":130,"n_dots":3.45,"target":"right","response":"right","rt":181.89999961853,"correct":true,"confidence":4},{"trial_n":131,"n_dots":3.45,"target":"left","response":"right","rt":582.5,"correct":false,"confidence":3},{"trial_n":132,"n_dots":3.55,"target":"right","response":"right","rt":105.10000038147,"correct":true,"confidence":4},{"trial_n":133,"n_dots":3.55,"target":"left","response":"left","rt":874.20000076294,"correct":true,"confidence":4},{"trial_n":134,"n_dots":3.45,"target":"left","response":"left","rt":578.5,"correct":true,"confidence":4},{"trial_n":135,"n_dots":3.45,"target":"right","response":"left","rt":1978.1999998093,"correct":false,"confidence":4},{"trial_n":136,"n_dots":3.55,"target":"right","response":"right","rt":577.19999980927,"correct":true,"confidence":4},{"trial_n":137,"n_dots":3.55,"target":"right","response":"left","rt":3939.4000005722,"correct":false,"confidence":4},{"trial_n":138,"n_dots":3.65,"target":"left","response":"left","rt":315.0999994278,"correct":true,"confidence":5},{"trial_n":139,"n_dots":3.65,"target":"right","response":"left","rt":231.69999980927,"correct":false,"confidence":4},{"trial_n":140,"n_dots":3.75,"target":"left","response":"left","rt":462.10000038147,"correct":true,"confidence":4},{"trial_n":141,"n_dots":3.75,"target":"left","response":"left","rt":357.0999994278,"correct":true,"confidence":4},{"trial_n":142,"n_dots":3.65,"target":"right","response":"right","rt":38.800000190735,"correct":true,"confidence":4},{"trial_n":143,"n_dots":3.65,"target":"left","response":"left","rt":360.5,"correct":true,"confidence":4},{"trial_n":144,"n_dots":3.55,"target":"left","response":"left","rt":591.80000019073,"correct":true,"confidence":5},{"trial_n":145,"n_dots":3.55,"target":"left","response":"left","rt":404,"correct":true,"confidence":5},{"trial_n":146,"n_dots":3.45,"target":"left","response":"right","rt":623,"correct":false,"confidence":4},{"trial_n":147,"n_dots":3.55,"target":"left","response":"left","rt":552.30000019073,"correct":true,"confidence":4},{"trial_n":148,"n_dots":3.55,"target":"left","response":"right","rt":708,"correct":false,"confidence":4},{"trial_n":149,"n_dots":3.65,"target":"left","response":"left","rt":13811.299999237,"correct":true,"confidence":4},{"trial_n":150,"n_dots":3.65,"target":"right","response":"right","rt":4608.3000001907,"correct":true,"confidence":4},{"trial_n":151,"n_dots":3.55,"target":"right","response":"right","rt":8621,"correct":true,"confidence":4},{"trial_n":152,"n_dots":3.55,"target":"right","response":"right","rt":7220.3000001907,"correct":true,"confidence":4},{"trial_n":153,"n_dots":3.45,"target":"right","response":"left","rt":511.19999980927,"correct":false,"confidence":4},{"trial_n":154,"n_dots":3.55,"target":"right","response":"right","rt":1293.6999998093,"correct":true,"confidence":4},{"trial_n":155,"n_dots":3.55,"target":"right","response":"right","rt":716.60000038147,"correct":true,"confidence":5},{"trial_n":156,"n_dots":3.45,"target":"left","response":"left","rt":489.89999961853,"correct":true,"confidence":4},{"trial_n":157,"n_dots":3.45,"target":"left","response":"left","rt":268.80000019073,"correct":true,"confidence":5},{"trial_n":158,"n_dots":3.35,"target":"right","response":"right","rt":1117.3999996185,"correct":true,"confidence":4},{"trial_n":159,"n_dots":3.35,"target":"left","response":"right","rt":729.30000019073,"correct":false,"confidence":4},{"trial_n":160,"n_dots":3.45,"target":"right","response":"right","rt":493.30000019073,"correct":true,"confidence":4},{"trial_n":161,"n_dots":3.45,"target":"right","response":"right","rt":235.30000019073,"correct":true,"confidence":5},{"trial_n":162,"n_dots":3.35,"target":"right","response":"right","rt":405.5,"correct":true,"confidence":3},{"trial_n":163,"n_dots":3.35,"target":"left","response":"left","rt":251.60000038147,"correct":true,"confidence":5},{"trial_n":164,"n_dots":3.25,"target":"right","response":"left","rt":493.5,"correct":false,"confidence":5},{"trial_n":165,"n_dots":3.35,"target":"left","response":"left","rt":343.9000005722,"correct":true,"confidence":5},{"trial_n":166,"n_dots":3.35,"target":"right","response":"right","rt":196.70000076294,"correct":true,"confidence":3},{"trial_n":167,"n_dots":3.25,"target":"right","response":"left","rt":741.5,"correct":false,"confidence":4},{"trial_n":168,"n_dots":3.35,"target":"left","response":"right","rt":3134.2000007629,"correct":false,"confidence":4},{"trial_n":169,"n_dots":3.45,"target":"right","response":"right","rt":389.5,"correct":true,"confidence":4},{"trial_n":170,"n_dots":3.45,"target":"left","response":"left","rt":930.4000005722,"correct":true,"confidence":4},{"trial_n":171,"n_dots":3.35,"target":"right","response":"right","rt":611.19999980927,"correct":true,"confidence":4},{"trial_n":172,"n_dots":3.35,"target":"right","response":"right","rt":676.30000019073,"correct":true,"confidence":4},{"trial_n":173,"n_dots":3.25,"target":"right","response":"right","rt":363.39999961853,"correct":true,"confidence":3},{"trial_n":174,"n_dots":3.25,"target":"left","response":"right","rt":1230.1999998093,"correct":false,"confidence":4},{"trial_n":175,"n_dots":3.35,"target":"right","response":"right","rt":497.89999961853,"correct":true,"confidence":4},{"trial_n":176,"n_dots":3.35,"target":"left","response":"left","rt":1103.3999996185,"correct":true,"confidence":4},{"trial_n":177,"n_dots":3.25,"target":"right","response":"right","rt":3076,"correct":true,"confidence":4},{"trial_n":178,"n_dots":3.25,"target":"right","response":"right","rt":4310.5,"correct":true,"confidence":4},{"trial_n":179,"n_dots":3.15,"target":"left","response":"left","rt":251.0999994278,"correct":true,"confidence":5},{"trial_n":180,"n_dots":3.15,"target":"left","response":"right","rt":637.60000038147,"correct":false,"confidence":5},{"trial_n":181,"n_dots":3.25,"target":"left","response":"right","rt":283.39999961853,"correct":false,"confidence":4},{"trial_n":182,"n_dots":3.35,"target":"left","response":"right","rt":286.39999961853,"correct":false,"confidence":5},{"trial_n":183,"n_dots":3.45,"target":"right","response":"right","rt":1565.5,"correct":true,"confidence":5},{"trial_n":184,"n_dots":3.45,"target":"right","response":"right","rt":488.5999994278,"correct":true,"confidence":5},{"trial_n":185,"n_dots":3.35,"target":"left","response":"left","rt":372.39999961853,"correct":true,"confidence":4},{"trial_n":186,"n_dots":3.35,"target":"right","response":"right","rt":492,"correct":true,"confidence":5},{"trial_n":187,"n_dots":3.25,"target":"right","response":"left","rt":818.0999994278,"correct":false,"confidence":5},{"trial_n":188,"n_dots":3.35,"target":"right","response":"right","rt":803.5,"correct":true,"confidence":4},{"trial_n":189,"n_dots":3.35,"target":"right","response":"left","rt":3775.1000003815,"correct":false,"confidence":4},{"trial_n":190,"n_dots":3.45,"target":"right","response":"right","rt":301.79999923706,"correct":true,"confidence":4},{"trial_n":191,"n_dots":3.45,"target":"left","response":"right","rt":529.5,"correct":false,"confidence":5},{"trial_n":192,"n_dots":3.55,"target":"right","response":"right","rt":888.19999980927,"correct":true,"confidence":5},{"trial_n":193,"n_dots":3.55,"target":"left","response":"right","rt":302.80000019073,"correct":false,"confidence":4},{"trial_n":194,"n_dots":3.65,"target":"right","response":"left","rt":797.5,"correct":false,"confidence":5}]