[{"trial_n":1,"n_dots":4.25,"target":"left","response":"left","rt":1531.8000000119,"correct":true,"confidence":-1},{"trial_n":2,"n_dots":4.25,"target":"right","response":"right","rt":885.60000002384,"correct":true,"confidence":-1},{"trial_n":3,"n_dots":3.85,"target":"left","response":"left","rt":1301.6999999881,"correct":true,"confidence":-1},{"trial_n":4,"n_dots":3.85,"target":"left","response":"right","rt":769.19999998808,"correct":false,"confidence":-1},{"trial_n":5,"n_dots":4.25,"target":"left","response":"right","rt":1525.6000000238,"correct":false,"confidence":-1},{"trial_n":6,"n_dots":4.65,"target":"left","response":"left","rt":819.70000004768,"correct":true,"confidence":-1},{"trial_n":7,"n_dots":4.65,"target":"left","response":"left","rt":945,"correct":true,"confidence":-1},{"trial_n":8,"n_dots":4.45,"target":"right","response":"right","rt":706.89999997616,"correct":true,"confidence":-1},{"trial_n":9,"n_dots":4.45,"target":"right","response":"right","rt":758.69999998808,"correct":true,"confidence":-1},{"trial_n":10,"n_dots":4.25,"target":"left","response":"right","rt":746.39999997616,"correct":false,"confidence":-1},{"trial_n":11,"n_dots":4.45,"target":"right","response":"right","rt":911.40000003576,"correct":true,"confidence":-1},{"trial_n":12,"n_dots":4.45,"target":"right","response":"right","rt":1027,"correct":true,"confidence":-1},{"trial_n":13,"n_dots":4.35,"target":"left","response":"right","rt":1605.2000000477,"correct":false,"confidence":-1},{"trial_n":14,"n_dots":4.45,"target":"right","response":"right","rt":922.10000002384,"correct":true,"confidence":-1},{"trial_n":15,"n_dots":4.45,"target":"left","response":"left","rt":1471.5,"correct":true,"confidence":-1},{"trial_n":16,"n_dots":4.35,"target":"left","response":"left","rt":861.29999995232,"correct":true,"confidence":-1},{"trial_n":17,"n_dots":4.35,"target":"left","response":"right","rt":1358.2000000477,"correct":false,"confidence":-1},{"trial_n":18,"n_dots":4.45,"target":"left","response":"left","rt":815.69999998808,"correct":true,"confidence":-1},{"trial_n":19,"n_dots":4.45,"target":"right","response":"right","rt":765.80000001192,"correct":true,"confidence":-1},{"trial_n":20,"n_dots":4.35,"target":"right","response":"right","rt":482.39999997616,"correct":true,"confidence":-1},{"trial_n":21,"n_dots":4.35,"target":"right","response":"right","rt":193.40000003576,"correct":true,"confidence":-1},{"trial_n":22,"n_dots":4.25,"target":"right","response":"right","rt":477.59999996424,"correct":true,"confidence":-1},{"trial_n":23,"n_dots":4.25,"target":"right","response":"right","rt":340.5,"correct":true,"confidence":-1},{"trial_n":24,"n_dots":4.15,"target":"right","response":"right","rt":77.299999952316,"correct":true,"confidence":-1},{"trial_n":25,"n_dots":4.15,"target":"right","response":"right","rt":823.30000001192,"correct":true,"confidence":-1},{"trial_n":26,"n_dots":4.05,"target":"left","response":"left","rt":1200.1000000238,"correct":true,"confidence":-1},{"trial_n":27,"n_dots":4.05,"target":"left","response":"left","rt":1059.8000000119,"correct":true,"confidence":4},{"trial_n":28,"n_dots":3.95,"target":"right","response":"left","rt":1695.4000000358,"correct":false,"confidence":5},{"trial_n":29,"n_dots":4.05,"target":"right","response":"right","rt":874.90000003576,"correct":true,"confidence":5},{"trial_n":30,"n_dots":4.05,"target":"left","response":"left","rt":878.40000003576,"correct":true,"confidence":5},{"trial_n":31,"n_dots":3.95,"target":"left","response":"left","rt":1094.9000000358,"correct":true,"confidence":5},{"trial_n":32,"n_dots":3.95,"target":"right","response":"right","rt":1160.3000000119,"correct":true,"confidence":5},{"trial_n":33,"n_dots":3.85,"target":"left","response":"left","rt":1510.9000000358,"correct":true,"confidence":5},{"trial_n":34,"n_dots":3.85,"target":"left","response":"left","rt":1220.8000000119,"correct":true,"confidence":5},{"trial_n":35,"n_dots":3.75,"target":"left","response":"left","rt":1019.7000000477,"correct":true,"confidence":5},{"trial_n":36,"n_dots":3.75,"target":"left","response":"right","rt":2620.0999999642,"correct":false,"confidence":5},{"trial_n":37,"n_dots":3.85,"target":"right","response":"right","rt":2447.5,"correct":true,"confidence":2},{"trial_n":38,"n_dots":3.85,"target":"left","response":"left","rt":1497.5,"correct":true,"confidence":5},{"trial_n":39,"n_dots":3.75,"target":"left","response":"left","rt":3619,"correct":true,"confidence":4},{"trial_n":40,"n_dots":3.75,"target":"right","response":"left","rt":2202.5,"correct":false,"confidence":5},{"trial_n":41,"n_dots":3.85,"target":"left","response":"left","rt":1789.2999999523,"correct":true,"confidence":5},{"trial_n":42,"n_dots":3.85,"target":"right","response":"right","rt":1031.4000000358,"correct":true,"confidence":5},{"trial_n":43,"n_dots":3.75,"target":"left","response":"left","rt":3457,"correct":true,"confidence":5},{"trial_n":44,"n_dots":3.75,"target":"left","response":"left","rt":1410.9000000358,"correct":true,"confidence":5},{"trial_n":45,"n_dots":3.65,"target":"left","response":"left","rt":1062,"correct":true,"confidence":5},{"trial_n":46,"n_dots":3.65,"target":"left","response":"left","rt":1860.6000000238,"correct":true,"confidence":2},{"trial_n":47,"n_dots":3.55,"target":"left","response":"right","rt":1710.9000000358,"correct":false,"confidence":4},{"trial_n":48,"n_dots":3.65,"target":"left","response":"right","rt":1076.7000000477,"correct":false,"confidence":4},{"trial_n":49,"n_dots":3.75,"target":"right","response":"left","rt":2172.7000000477,"correct":false,"confidence":4},{"trial_n":50,"n_dots":3.85,"target":"left","response":"right","rt":1693.9000000358,"correct":false,"confidence":4},{"trial_n":51,"n_dots":3.95,"target":"left","response":"right","rt":1204,"correct":false,"confidence":4},{"trial_n":52,"n_dots":4.05,"target":"left","response":"left","rt":1174.3999999762,"correct":true,"confidence":4},{"trial_n":53,"n_dots":4.05,"target":"right","response":"right","rt":887,"correct":true,"confidence":4},{"trial_n":54,"n_dots":3.95,"target":"left","response":"right","rt":1127,"correct":false,"confidence":4},{"trial_n":55,"n_dots":4.05,"target":"left","response":"left","rt":972,"correct":true,"confidence":5},{"trial_n":56,"n_dots":4.05,"target":"right","response":"left","rt":1258.9000000358,"correct":false,"confidence":5},{"trial_n":57,"n_dots":4.15,"target":"right","response":"right","rt":1126.6999999881,"correct":true,"confidence":4},{"trial_n":58,"n_dots":4.15,"target":"right","response":"right","rt":881.69999998808,"correct":true,"confidence":5},{"trial_n":59,"n_dots":4.05,"target":"left","response":"left","rt":1311.1000000238,"correct":true,"confidence":5},{"trial_n":60,"n_dots":4.05,"target":"left","response":"left","rt":726.19999998808,"correct":true,"confidence":5},{"trial_n":61,"n_dots":3.95,"target":"left","response":"left","rt":754.89999997616,"correct":true,"confidence":6},{"trial_n":62,"n_dots":3.95,"target":"left","response":"left","rt":726,"correct":true,"confidence":6},{"trial_n":63,"n_dots":3.85,"target":"left","response":"left","rt":651.5,"correct":true,"confidence":6},{"trial_n":64,"n_dots":3.85,"target":"right","response":"left","rt":1247.8999999762,"correct":false,"confidence":6},{"trial_n":65,"n_dots":3.95,"target":"right","response":"right","rt":1008.1000000238,"correct":true,"confidence":5},{"trial_n":66,"n_dots":3.95,"target":"right","response":"left","rt":2035.3000000119,"correct":false,"confidence":5},{"trial_n":67,"n_dots":4.05,"target":"right","response":"right","rt":1084.5,"correct":true,"confidence":6},{"trial_n":68,"n_dots":4.05,"target":"right","response":"right","rt":1037.5999999642,"correct":true,"confidence":6},{"trial_n":69,"n_dots":3.95,"target":"right","response":"right","rt":5149.5,"correct":true,"confidence":1},{"trial_n":70,"n_dots":3.95,"target":"left","response":"left","rt":1037.5,"correct":true,"confidence":6},{"trial_n":71,"n_dots":3.85,"target":"left","response":"left","rt":866.09999996424,"correct":true,"confidence":6},{"trial_n":72,"n_dots":3.85,"target":"left","response":"right","rt":955.79999995232,"correct":false,"confidence":6},{"trial_n":73,"n_dots":3.95,"target":"left","response":"left","rt":798.29999995232,"correct":true,"confidence":6},{"trial_n":74,"n_dots":3.95,"target":"right","response":"right","rt":970.30000001192,"correct":true,"confidence":5},{"trial_n":75,"n_dots":3.85,"target":"right","response":"right","rt":1771.1999999881,"correct":true,"confidence":4},{"trial_n":76,"n_dots":3.85,"target":"right","response":"left","rt":1185.6999999881,"correct":false,"confidence":5},{"trial_n":77,"n_dots":3.95,"target":"right","response":"left","rt":1269.4000000358,"correct":false,"confidence":6},{"trial_n":78,"n_dots":4.05,"target":"left","response":"left","rt":815.30000001192,"correct":true,"confidence":6},{"trial_n":79,"n_dots":4.05,"target":"right","response":"left","rt":1052,"correct":false,"confidence":6},{"trial_n":80,"n_dots":4.15,"target":"left","response":"left","rt":784,"correct":true,"confidence":6},{"trial_n":81,"n_dots":4.15,"target":"right","response":"right","rt":895.69999998808,"correct":true,"confidence":5},{"trial_n":82,"n_dots":4.05,"target":"right","response":"right","rt":1127.6999999881,"correct":true,"confidence":5},{"trial_n":83,"n_dots":4.05,"target":"left","response":"left","rt":899.20000004768,"correct":true,"confidence":6},{"trial_n":84,"n_dots":3.95,"target":"right","response":"right","rt":2515.5,"correct":true,"confidence":4},{"trial_n":85,"n_dots":3.95,"target":"left","response":"left","rt":1278.5,"correct":true,"confidence":6},{"trial_n":86,"n_dots":3.85,"target":"left","response":"left","rt":879.39999997616,"correct":true,"confidence":6},{"trial_n":87,"n_dots":3.85,"target":"right","response":"left","rt":1104.1000000238,"correct":false,"confidence":6},{"trial_n":88,"n_dots":3.95,"target":"left","response":"left","rt":788.59999996424,"correct":true,"confidence":6},{"trial_n":89,"n_dots":3.95,"target":"right","response":"right","rt":1796.6999999881,"correct":true,"confidence":3},{"trial_n":90,"n_dots":3.85,"target":"right","response":"left","rt":2419.1999999881,"correct":false,"confidence":1},{"trial_n":91,"n_dots":3.95,"target":"left","response":"left","rt":1033.6000000238,"correct":true,"confidence":5},{"trial_n":92,"n_dots":3.95,"target":"left","response":"left","rt":1493.5,"correct":true,"confidence":5},{"trial_n":93,"n_dots":3.85,"target":"right","response":"right","rt":960.10000002384,"correct":true,"confidence":6},{"trial_n":94,"n_dots":3.85,"target":"right","response":"right","rt":918,"correct":true,"confidence":6},{"trial_n":95,"n_dots":3.75,"target":"left","response":"left","rt":1001.8999999762,"correct":true,"confidence":5},{"trial_n":96,"n_dots":3.75,"target":"left","response":"left","rt":884.19999998808,"correct":true,"confidence":5},{"trial_n":97,"n_dots":3.65,"target":"left","response":"right","rt":1379,"correct":false,"confidence":5},{"trial_n":98,"n_dots":3.75,"target":"left","response":"left","rt":2062.7999999523,"correct":true,"confidence":3},{"trial_n":99,"n_dots":3.75,"target":"right","response":"left","rt":1276.3999999762,"correct":false,"confidence":5},{"trial_n":100,"n_dots":3.85,"target":"right","response":"left","rt":894.40000003576,"correct":false,"confidence":4},{"trial_n":101,"n_dots":3.95,"target":"right","response":"left","rt":1908.1999999881,"correct":false,"confidence":1},{"trial_n":102,"n_dots":4.05,"target":"right","response":"right","rt":923.19999998808,"correct":true,"confidence":5},{"trial_n":103,"n_dots":4.05,"target":"right","response":"left","rt":2362.0999999642,"correct":false,"confidence":5},{"trial_n":104,"n_dots":4.15,"target":"right","response":"right","rt":900.59999996424,"correct":true,"confidence":5},{"trial_n":105,"n_dots":4.15,"target":"right","response":"right","rt":1016.8999999762,"correct":true,"confidence":5},{"trial_n":106,"n_dots":4.05,"target":"left","response":"right","rt":2046.6999999881,"correct":false,"confidence":5},{"trial_n":107,"n_dots":4.15,"target":"left","response":"left","rt":1673.7000000477,"correct":true,"confidence":5},{"trial_n":108,"n_dots":4.15,"target":"left","response":"left","rt":1867,"correct":true,"confidence":4},{"trial_n":109,"n_dots":4.05,"target":"right","response":"right","rt":928,"correct":true,"confidence":6},{"trial_n":110,"n_dots":4.05,"target":"right","response":"right","rt":848.89999997616,"correct":true,"confidence":6},{"trial_n":111,"n_dots":3.95,"target":"left","response":"left","rt":893.39999997616,"correct":true,"confidence":5},{"trial_n":112,"n_dots":3.95,"target":"right","response":"right","rt":769.80000001192,"correct":true,"confidence":6},{"trial_n":113,"n_dots":3.85,"target":"right","response":"left","rt":1029.8999999762,"correct":false,"confidence":3},{"trial_n":114,"n_dots":3.95,"target":"right","response":"right","rt":1294.4000000358,"correct":true,"confidence":4},{"trial_n":115,"n_dots":3.95,"target":"left","response":"right","rt":1088.3999999762,"correct":false,"confidence":6},{"trial_n":116,"n_dots":4.05,"target":"left","response":"left","rt":1670.8999999762,"correct":true,"confidence":5},{"trial_n":117,"n_dots":4.05,"target":"left","response":"right","rt":1732,"correct":false,"confidence":5},{"trial_n":118,"n_dots":4.15,"target":"right","response":"right","rt":850.70000004768,"correct":true,"confidence":5},{"trial_n":119,"n_dots":4.15,"target":"right","response":"right","rt":783.5,"correct":true,"confidence":6},{"trial_n":120,"n_dots":4.05,"target":"left","response":"right","rt":1147.3000000119,"correct":false,"confidence":5},{"trial_n":121,"n_dots":4.15,"target":"left","response":"left","rt":1497.1999999881,"correct":true,"confidence":5},{"trial_n":122,"n_dots":4.15,"target":"left","response":"left","rt":1170.6999999881,"correct":true,"confidence":5},{"trial_n":123,"n_dots":4.05,"target":"right","response":"right","rt":1015.7999999523,"correct":true,"confidence":5},{"trial_n":124,"n_dots":4.05,"target":"left","response":"left","rt":2783.3000000119,"correct":true,"confidence":5},{"trial_n":125,"n_dots":3.95,"target":"right","response":"right","rt":838.80000001192,"correct":true,"confidence":4},{"trial_n":126,"n_dots":3.95,"target":"left","response":"left","rt":843.69999998808,"correct":true,"confidence":5},{"trial_n":127,"n_dots":3.85,"target":"right","response":"right","rt":814.79999995232,"correct":true,"confidence":5},{"trial_n":128,"n_dots":3.85,"target":"right","response":"right","rt":687.70000004768,"correct":true,"confidence":5},{"trial_n":129,"n_dots":3.75,"target":"left","response":"left","rt":728.69999998808,"correct":true,"confidence":5},{"trial_n":130,"n_dots":3.75,"target":"right","response":"right","rt":940.80000001192,"correct":true,"confidence":5},{"trial_n":131,"n_dots":3.65,"target":"right","response":"right","rt":827.5,"correct":true,"confidence":6},{"trial_n":132,"n_dots":3.65,"target":"right","response":"right","rt":922.29999995232,"correct":true,"confidence":6},{"trial_n":133,"n_dots":3.55,"target":"left","response":"left","rt":914.70000004768,"correct":true,"confidence":6},{"trial_n":134,"n_dots":3.55,"target":"left","response":"left","rt":983.80000001192,"correct":true,"confidence":5},{"trial_n":135,"n_dots":3.45,"target":"right","response":"right","rt":1274,"correct":true,"confidence":5},{"trial_n":136,"n_dots":3.45,"target":"right","response":"right","rt":1860.8000000119,"correct":true,"confidence":5},{"trial_n":137,"n_dots":3.35,"target":"left","response":"left","rt":967.39999997616,"correct":true,"confidence":6},{"trial_n":138,"n_dots":3.35,"target":"left","response":"left","rt":1435.1999999881,"correct":true,"confidence":6},{"trial_n":139,"n_dots":3.25,"target":"left","response":"left","rt":853.89999997616,"correct":true,"confidence":6},{"trial_n":140,"n_dots":3.25,"target":"left","response":"left","rt":780.60000002384,"correct":true,"confidence":6},{"trial_n":141,"n_dots":3.15,"target":"right","response":"left","rt":730.69999998808,"correct":false,"confidence":5},{"trial_n":142,"n_dots":3.25,"target":"right","response":"left","rt":923.69999998808,"correct":false,"confidence":6},{"trial_n":143,"n_dots":3.35,"target":"left","response":"left","rt":960.10000002384,"correct":true,"confidence":5},{"trial_n":144,"n_dots":3.35,"target":"right","response":"left","rt":1343.8999999762,"correct":false,"confidence":5},{"trial_n":145,"n_dots":3.45,"target":"right","response":"right","rt":8248,"correct":true,"confidence":1},{"trial_n":146,"n_dots":3.45,"target":"right","response":"right","rt":889.10000002384,"correct":true,"confidence":5},{"trial_n":147,"n_dots":3.35,"target":"left","response":"left","rt":1249.1999999881,"correct":true,"confidence":4},{"trial_n":148,"n_dots":3.35,"target":"left","response":"left","rt":1337.6999999881,"correct":true,"confidence":4},{"trial_n":149,"n_dots":3.25,"target":"right","response":"right","rt":7999.9000000358,"correct":true,"confidence":5},{"trial_n":150,"n_dots":3.25,"target":"right","response":"right","rt":916.89999997616,"correct":true,"confidence":5},{"trial_n":151,"n_dots":3.15,"target":"left","response":"right","rt":628.30000001192,"correct":false,"confidence":4},{"trial_n":152,"n_dots":3.25,"target":"right","response":"right","rt":1221.5,"correct":true,"confidence":5},{"trial_n":153,"n_dots":3.25,"target":"right","response":"left","rt":895.39999997616,"correct":false,"confidence":5},{"trial_n":154,"n_dots":3.35,"target":"left","response":"left","rt":997.89999997616,"correct":true,"confidence":5},{"trial_n":155,"n_dots":3.35,"target":"left","response":"right","rt":976.10000002384,"correct":false,"confidence":5},{"trial_n":156,"n_dots":3.45,"target":"right","response":"right","rt":972.19999998808,"correct":true,"confidence":5},{"trial_n":157,"n_dots":3.45,"target":"right","response":"left","rt":1166.8000000119,"correct":false,"confidence":1},{"trial_n":158,"n_dots":3.55,"target":"right","response":"right","rt":1009.6999999881,"correct":true,"confidence":5},{"trial_n":159,"n_dots":3.55,"target":"left","response":"left","rt":755.60000002384,"correct":true,"confidence":5},{"trial_n":160,"n_dots":3.45,"target":"left","response":"left","rt":652.10000002384,"correct":true,"confidence":5},{"trial_n":161,"n_dots":3.45,"target":"right","response":"left","rt":1175.5999999642,"correct":false,"confidence":5},{"trial_n":162,"n_dots":3.55,"target":"left","response":"left","rt":911.5,"correct":true,"confidence":5},{"trial_n":163,"n_dots":3.55,"target":"right","response":"right","rt":1107.6999999881,"correct":true,"confidence":5},{"trial_n":164,"n_dots":3.45,"target":"left","response":"left","rt":897.60000002384,"correct":true,"confidence":5},{"trial_n":165,"n_dots":3.45,"target":"right","response":"left","rt":1191.8999999762,"correct":false,"confidence":5},{"trial_n":166,"n_dots":3.55,"target":"left","response":"left","rt":647.89999997616,"correct":true,"confidence":5},{"trial_n":167,"n_dots":3.55,"target":"right","response":"left","rt":702.19999998808,"correct":false,"confidence":5},{"trial_n":168,"n_dots":3.65,"target":"right","response":"right","rt":855.19999998808,"correct":true,"confidence":5},{"trial_n":169,"n_dots":3.65,"target":"right","response":"left","rt":1812.8000000119,"correct":false,"confidence":5},{"trial_n":170,"n_dots":3.75,"target":"left","response":"left","rt":654.40000003576,"correct":true,"confidence":5},{"trial_n":171,"n_dots":3.75,"target":"left","response":"left","rt":844.5,"correct":true,"confidence":5},{"trial_n":172,"n_dots":3.65,"target":"right","response":"left","rt":926.59999996424,"correct":false,"confidence":5},{"trial_n":173,"n_dots":3.75,"target":"right","response":"left","rt":1047.0999999642,"correct":false,"confidence":5},{"trial_n":174,"n_dots":3.85,"target":"right","response":"left","rt":799.80000001192,"correct":false,"confidence":5},{"trial_n":175,"n_dots":3.95,"target":"right","response":"right","rt":1114.7999999523,"correct":true,"confidence":5},{"trial_n":176,"n_dots":3.95,"target":"right","response":"left","rt":1343,"correct":false,"confidence":5},{"trial_n":177,"n_dots":4.05,"target":"right","response":"left","rt":1045.7000000477,"correct":false,"confidence":5},{"trial_n":178,"n_dots":4.15,"target":"right","response":"right","rt":6275.6999999881,"correct":true,"confidence":1},{"trial_n":179,"n_dots":4.15,"target":"left","response":"left","rt":1357.5,"correct":true,"confidence":6},{"trial_n":180,"n_dots":4.05,"target":"left","response":"left","rt":812.30000001192,"correct":true,"confidence":6},{"trial_n":181,"n_dots":4.05,"target":"right","response":"right","rt":2542.3999999762,"correct":true,"confidence":3},{"trial_n":182,"n_dots":3.95,"target":"right","response":"right","rt":1196.3000000119,"correct":true,"confidence":3},{"trial_n":183,"n_dots":3.95,"target":"right","response":"right","rt":879.69999998808,"correct":true,"confidence":6},{"trial_n":184,"n_dots":3.85,"target":"left","response":"left","rt":852.69999998808,"correct":true,"confidence":5},{"trial_n":185,"n_dots":3.85,"target":"left","response":"left","rt":2022.8000000119,"correct":true,"confidence":4},{"trial_n":186,"n_dots":3.75,"target":"left","response":"left","rt":1280.6000000238,"correct":true,"confidence":4},{"trial_n":187,"n_dots":3.75,"target":"left","response":"left","rt":942.5,"correct":true,"confidence":5},{"trial_n":188,"n_dots":3.65,"target":"right","response":"right","rt":1619.6999999881,"correct":true,"confidence":4},{"trial_n":189,"n_dots":3.65,"target":"right","response":"left","rt":1023.0999999642,"correct":false,"confidence":5},{"trial_n":190,"n_dots":3.75,"target":"right","response":"right","rt":921.69999998808,"correct":true,"confidence":5},{"trial_n":191,"n_dots":3.75,"target":"left","response":"left","rt":845.90000003576,"correct":true,"confidence":5},{"trial_n":192,"n_dots":3.65,"target":"left","response":"left","rt":800.10000002384,"correct":true,"confidence":5},{"trial_n":193,"n_dots":3.65,"target":"left","response":"left","rt":876.39999997616,"correct":true,"confidence":5},{"trial_n":194,"n_dots":3.55,"target":"left","response":"right","rt":1197.5999999642,"correct":false,"confidence":5}]