[{"trial_n":1,"n_dots":4.25,"target":"left","response":"left","rt":1080.5999999978,"correct":true,"confidence":-1},{"trial_n":2,"n_dots":4.25,"target":"right","response":"right","rt":264.89999999851,"correct":true,"confidence":-1},{"trial_n":3,"n_dots":3.85,"target":"right","response":"left","rt":280,"correct":false,"confidence":-1},{"trial_n":4,"n_dots":4.25,"target":"right","response":"right","rt":491.80000000075,"correct":true,"confidence":-1},{"trial_n":5,"n_dots":4.25,"target":"left","response":"left","rt":377.89999999851,"correct":true,"confidence":-1},{"trial_n":6,"n_dots":3.85,"target":"left","response":"left","rt":308.59999999776,"correct":true,"confidence":-1},{"trial_n":7,"n_dots":3.85,"target":"right","response":"right","rt":866.59999999776,"correct":true,"confidence":-1},{"trial_n":8,"n_dots":3.65,"target":"right","response":"left","rt":432.69999999925,"correct":false,"confidence":-1},{"trial_n":9,"n_dots":3.85,"target":"right","response":"left","rt":418.5,"correct":false,"confidence":-1},{"trial_n":10,"n_dots":4.05,"target":"right","response":"right","rt":240.39999999851,"correct":true,"confidence":-1},{"trial_n":11,"n_dots":4.05,"target":"right","response":"left","rt":617.60000000149,"correct":false,"confidence":-1},{"trial_n":12,"n_dots":4.25,"target":"left","response":"left","rt":375,"correct":true,"confidence":-1},{"trial_n":13,"n_dots":4.25,"target":"right","response":"right","rt":275.39999999851,"correct":true,"confidence":-1},{"trial_n":14,"n_dots":4.15,"target":"right","response":"left","rt":397.19999999925,"correct":false,"confidence":-1},{"trial_n":15,"n_dots":4.25,"target":"left","response":"left","rt":492.80000000075,"correct":true,"confidence":-1},{"trial_n":16,"n_dots":4.25,"target":"right","response":"left","rt":1110.8999999985,"correct":false,"confidence":-1},{"trial_n":17,"n_dots":4.35,"target":"right","response":"right","rt":307.30000000075,"correct":true,"confidence":-1},{"trial_n":18,"n_dots":4.35,"target":"right","response":"right","rt":219.80000000075,"correct":true,"confidence":-1},{"trial_n":19,"n_dots":4.25,"target":"left","response":"left","rt":189.60000000149,"correct":true,"confidence":-1},{"trial_n":20,"n_dots":4.25,"target":"right","response":"right","rt":341.39999999851,"correct":true,"confidence":-1},{"trial_n":21,"n_dots":4.15,"target":"left","response":"left","rt":345.80000000075,"correct":true,"confidence":-1},{"trial_n":22,"n_dots":4.15,"target":"left","response":"left","rt":141.69999999925,"correct":true,"confidence":-1},{"trial_n":23,"n_dots":4.05,"target":"left","response":"left","rt":233,"correct":true,"confidence":-1},{"trial_n":24,"n_dots":4.05,"target":"right","response":"right","rt":224.89999999851,"correct":true,"confidence":-1},{"trial_n":25,"n_dots":3.95,"target":"left","response":"left","rt":167.5,"correct":true,"confidence":-1},{"trial_n":26,"n_dots":3.95,"target":"right","response":"right","rt":179.69999999925,"correct":true,"confidence":-1},{"trial_n":27,"n_dots":3.85,"target":"right","response":"right","rt":342.59999999776,"correct":true,"confidence":3},{"trial_n":28,"n_dots":3.85,"target":"left","response":"left","rt":314.5,"correct":true,"confidence":4},{"trial_n":29,"n_dots":3.75,"target":"left","response":"left","rt":349.5,"correct":true,"confidence":5},{"trial_n":30,"n_dots":3.75,"target":"left","response":"left","rt":310.59999999776,"correct":true,"confidence":4},{"trial_n":31,"n_dots":3.65,"target":"right","response":"right","rt":555.30000000075,"correct":true,"confidence":3},{"trial_n":32,"n_dots":3.65,"target":"left","response":"left","rt":258.20000000298,"correct":true,"confidence":4},{"trial_n":33,"n_dots":3.55,"target":"left","response":"left","rt":303.60000000149,"correct":true,"confidence":4},{"trial_n":34,"n_dots":3.55,"target":"right","response":"left","rt":16.300000000745,"correct":false,"confidence":2},{"trial_n":35,"n_dots":3.65,"target":"right","response":"right","rt":692.90000000224,"correct":true,"confidence":3},{"trial_n":36,"n_dots":3.65,"target":"right","response":"right","rt":426.89999999851,"correct":true,"confidence":4},{"trial_n":37,"n_dots":3.55,"target":"right","response":"right","rt":319.89999999851,"correct":true,"confidence":4},{"trial_n":38,"n_dots":3.55,"target":"right","response":"right","rt":1016.8999999985,"correct":true,"confidence":3},{"trial_n":39,"n_dots":3.45,"target":"right","response":"right","rt":228.69999999925,"correct":true,"confidence":4},{"trial_n":40,"n_dots":3.45,"target":"left","response":"left","rt":302.89999999851,"correct":true,"confidence":5},{"trial_n":41,"n_dots":3.35,"target":"right","response":"left","rt":448.5,"correct":false,"confidence":4},{"trial_n":42,"n_dots":3.45,"target":"left","response":"left","rt":177.59999999776,"correct":true,"confidence":4},{"trial_n":43,"n_dots":3.45,"target":"left","response":"left","rt":274.30000000075,"correct":true,"confidence":5},{"trial_n":44,"n_dots":3.35,"target":"left","response":"left","rt":247.30000000075,"correct":true,"confidence":5},{"trial_n":45,"n_dots":3.35,"target":"left","response":"left","rt":574.39999999851,"correct":true,"confidence":4},{"trial_n":46,"n_dots":3.25,"target":"left","response":"right","rt":669.39999999851,"correct":false,"confidence":3},{"trial_n":47,"n_dots":3.35,"target":"left","response":"left","rt":259.19999999925,"correct":true,"confidence":4},{"trial_n":48,"n_dots":3.35,"target":"right","response":"right","rt":752,"correct":true,"confidence":3},{"trial_n":49,"n_dots":3.25,"target":"left","response":"left","rt":539.19999999925,"correct":true,"confidence":3},{"trial_n":50,"n_dots":3.25,"target":"left","response":"left","rt":161.80000000075,"correct":true,"confidence":5},{"trial_n":51,"n_dots":3.15,"target":"left","response":"left","rt":279.10000000149,"correct":true,"confidence":3},{"trial_n":52,"n_dots":3.15,"target":"left","response":"left","rt":462.60000000149,"correct":true,"confidence":4},{"trial_n":53,"n_dots":3.05,"target":"right","response":"left","rt":702.59999999776,"correct":false,"confidence":3},{"trial_n":54,"n_dots":3.15,"target":"left","response":"left","rt":907.60000000149,"correct":true,"confidence":5},{"trial_n":55,"n_dots":3.15,"target":"right","response":"right","rt":283.5,"correct":true,"confidence":4},{"trial_n":56,"n_dots":3.05,"target":"left","response":"left","rt":109.39999999851,"correct":true,"confidence":5},{"trial_n":57,"n_dots":3.05,"target":"left","response":"right","rt":764.5,"correct":false,"confidence":3},{"trial_n":58,"n_dots":3.15,"target":"left","response":"left","rt":426.30000000075,"correct":true,"confidence":4},{"trial_n":59,"n_dots":3.15,"target":"right","response":"right","rt":300.30000000075,"correct":true,"confidence":4},{"trial_n":60,"n_dots":3.05,"target":"right","response":"right","rt":583,"correct":true,"confidence":3},{"trial_n":61,"n_dots":3.05,"target":"right","response":"left","rt":814.30000000075,"correct":false,"confidence":1},{"trial_n":62,"n_dots":3.15,"target":"left","response":"left","rt":995.19999999925,"correct":true,"confidence":3},{"trial_n":63,"n_dots":3.15,"target":"left","response":"left","rt":296.89999999851,"correct":true,"confidence":3},{"trial_n":64,"n_dots":3.05,"target":"left","response":"left","rt":621.70000000298,"correct":true,"confidence":4},{"trial_n":65,"n_dots":3.05,"target":"right","response":"right","rt":330.69999999925,"correct":true,"confidence":5},{"trial_n":66,"n_dots":2.95,"target":"left","response":"right","rt":473.5,"correct":false,"confidence":3},{"trial_n":67,"n_dots":3.05,"target":"right","response":"right","rt":350.69999999925,"correct":true,"confidence":4},{"trial_n":68,"n_dots":3.05,"target":"right","response":"left","rt":437.5,"correct":false,"confidence":3},{"trial_n":69,"n_dots":3.15,"target":"left","response":"left","rt":378.39999999851,"correct":true,"confidence":5},{"trial_n":70,"n_dots":3.15,"target":"left","response":"left","rt":659.39999999851,"correct":true,"confidence":4},{"trial_n":71,"n_dots":3.05,"target":"right","response":"right","rt":503.89999999851,"correct":true,"confidence":4},{"trial_n":72,"n_dots":3.05,"target":"left","response":"left","rt":650.09999999776,"correct":true,"confidence":4},{"trial_n":73,"n_dots":2.95,"target":"right","response":"right","rt":284.19999999925,"correct":true,"confidence":5},{"trial_n":74,"n_dots":2.95,"target":"right","response":"left","rt":510.90000000224,"correct":false,"confidence":4},{"trial_n":75,"n_dots":3.05,"target":"right","response":"right","rt":414.10000000149,"correct":true,"confidence":3},{"trial_n":76,"n_dots":3.05,"target":"right","response":"left","rt":888.10000000149,"correct":false,"confidence":3},{"trial_n":77,"n_dots":3.15,"target":"right","response":"left","rt":652,"correct":false,"confidence":4},{"trial_n":78,"n_dots":3.25,"target":"left","response":"left","rt":293.59999999776,"correct":true,"confidence":5},{"trial_n":79,"n_dots":3.25,"target":"left","response":"left","rt":123.89999999851,"correct":true,"confidence":5},{"trial_n":80,"n_dots":3.15,"target":"right","response":"left","rt":1193.6999999993,"correct":false,"confidence":4},{"trial_n":81,"n_dots":3.25,"target":"left","response":"left","rt":299.59999999776,"correct":true,"confidence":5},{"trial_n":82,"n_dots":3.25,"target":"left","response":"left","rt":205.30000000075,"correct":true,"confidence":5},{"trial_n":83,"n_dots":3.15,"target":"left","response":"left","rt":168.5,"correct":true,"confidence":5},{"trial_n":84,"n_dots":3.15,"target":"right","response":"right","rt":438.5,"correct":true,"confidence":3},{"trial_n":85,"n_dots":3.05,"target":"right","response":"left","rt":671.09999999776,"correct":false,"confidence":3},{"trial_n":86,"n_dots":3.15,"target":"right","response":"right","rt":414.19999999925,"correct":true,"confidence":3},{"trial_n":87,"n_dots":3.15,"target":"left","response":"right","rt":580.10000000149,"correct":false,"confidence":4},{"trial_n":88,"n_dots":3.25,"target":"right","response":"right","rt":599.5,"correct":true,"confidence":3},{"trial_n":89,"n_dots":3.25,"target":"right","response":"left","rt":839.39999999851,"correct":false,"confidence":3},{"trial_n":90,"n_dots":3.35,"target":"right","response":"right","rt":758.80000000075,"correct":true,"confidence":4},{"trial_n":91,"n_dots":3.35,"target":"right","response":"right","rt":325.59999999776,"correct":true,"confidence":3},{"trial_n":92,"n_dots":3.25,"target":"right","response":"left","rt":664.39999999851,"correct":false,"confidence":4},{"trial_n":93,"n_dots":3.35,"target":"left","response":"left","rt":554.20000000298,"correct":true,"confidence":5},{"trial_n":94,"n_dots":3.35,"target":"right","response":"left","rt":2802.0999999978,"correct":false,"confidence":4},{"trial_n":95,"n_dots":3.45,"target":"left","response":"left","rt":371.30000000075,"correct":true,"confidence":5},{"trial_n":96,"n_dots":3.45,"target":"right","response":"left","rt":842.09999999776,"correct":false,"confidence":3},{"trial_n":97,"n_dots":3.55,"target":"right","response":"left","rt":318.30000000075,"correct":false,"confidence":5},{"trial_n":98,"n_dots":3.65,"target":"right","response":"left","rt":344.89999999851,"correct":false,"confidence":5},{"trial_n":99,"n_dots":3.75,"target":"left","response":"left","rt":189.89999999851,"correct":true,"confidence":5},{"trial_n":100,"n_dots":3.75,"target":"left","response":"left","rt":526.59999999776,"correct":true,"confidence":4},{"trial_n":101,"n_dots":3.65,"target":"right","response":"right","rt":1149.3000000007,"correct":true,"confidence":5},{"trial_n":102,"n_dots":3.65,"target":"right","response":"right","rt":86.699999999255,"correct":true,"confidence":6},{"trial_n":103,"n_dots":3.55,"target":"right","response":"right","rt":504.89999999851,"correct":true,"confidence":4},{"trial_n":104,"n_dots":3.55,"target":"left","response":"left","rt":252.19999999925,"correct":true,"confidence":5},{"trial_n":105,"n_dots":3.45,"target":"right","response":"right","rt":393.10000000149,"correct":true,"confidence":5},{"trial_n":106,"n_dots":3.45,"target":"left","response":"left","rt":-0.30000000074506,"correct":true,"confidence":5},{"trial_n":107,"n_dots":3.35,"target":"right","response":"left","rt":1007.1999999993,"correct":false,"confidence":4},{"trial_n":108,"n_dots":3.45,"target":"right","response":"right","rt":365.89999999851,"correct":true,"confidence":4},{"trial_n":109,"n_dots":3.45,"target":"left","response":"left","rt":320.5,"correct":true,"confidence":5},{"trial_n":110,"n_dots":3.35,"target":"right","response":"right","rt":273.5,"correct":true,"confidence":5},{"trial_n":111,"n_dots":3.35,"target":"left","response":"left","rt":243.5,"correct":true,"confidence":4},{"trial_n":112,"n_dots":3.25,"target":"left","response":"left","rt":286.30000000075,"correct":true,"confidence":4},{"trial_n":113,"n_dots":3.25,"target":"left","response":"left","rt":464.60000000149,"correct":true,"confidence":4},{"trial_n":114,"n_dots":3.15,"target":"right","response":"left","rt":415.19999999925,"correct":false,"confidence":3},{"trial_n":115,"n_dots":3.25,"target":"right","response":"left","rt":487.39999999851,"correct":false,"confidence":3},{"trial_n":116,"n_dots":3.35,"target":"left","response":"left","rt":258,"correct":true,"confidence":5},{"trial_n":117,"n_dots":3.35,"target":"right","response":"right","rt":449.90000000224,"correct":true,"confidence":3},{"trial_n":118,"n_dots":3.25,"target":"left","response":"left","rt":273,"correct":true,"confidence":5},{"trial_n":119,"n_dots":3.25,"target":"left","response":"left","rt":455.69999999925,"correct":true,"confidence":3},{"trial_n":120,"n_dots":3.15,"target":"right","response":"right","rt":433.19999999925,"correct":true,"confidence":5},{"trial_n":121,"n_dots":3.15,"target":"right","response":"right","rt":382.59999999776,"correct":true,"confidence":4},{"trial_n":122,"n_dots":3.05,"target":"right","response":"right","rt":407.5,"correct":true,"confidence":5},{"trial_n":123,"n_dots":3.05,"target":"left","response":"right","rt":396.59999999776,"correct":false,"confidence":4},{"trial_n":124,"n_dots":3.15,"target":"left","response":"left","rt":369.30000000075,"correct":true,"confidence":4},{"trial_n":125,"n_dots":3.15,"target":"left","response":"left","rt":675.29999999702,"correct":true,"confidence":5},{"trial_n":126,"n_dots":3.05,"target":"left","response":"left","rt":269.10000000149,"correct":true,"confidence":5},{"trial_n":127,"n_dots":3.05,"target":"left","response":"left","rt":253.30000000075,"correct":true,"confidence":3},{"trial_n":128,"n_dots":2.95,"target":"left","response":"left","rt":1199.6999999993,"correct":true,"confidence":3},{"trial_n":129,"n_dots":2.95,"target":"left","response":"right","rt":751.69999999925,"correct":false,"confidence":5},{"trial_n":130,"n_dots":3.05,"target":"left","response":"right","rt":511.80000000075,"correct":false,"confidence":4},{"trial_n":131,"n_dots":3.15,"target":"left","response":"left","rt":352.80000000075,"correct":true,"confidence":3},{"trial_n":132,"n_dots":3.15,"target":"right","response":"right","rt":378.69999999925,"correct":true,"confidence":4},{"trial_n":133,"n_dots":3.05,"target":"right","response":"right","rt":717.59999999776,"correct":true,"confidence":4},{"trial_n":134,"n_dots":3.05,"target":"right","response":"left","rt":911.59999999776,"correct":false,"confidence":3},{"trial_n":135,"n_dots":3.15,"target":"right","response":"right","rt":262.69999999925,"correct":true,"confidence":4},{"trial_n":136,"n_dots":3.15,"target":"left","response":"left","rt":346.39999999851,"correct":true,"confidence":4},{"trial_n":137,"n_dots":3.05,"target":"right","response":"right","rt":567.5,"correct":true,"confidence":4},{"trial_n":138,"n_dots":3.05,"target":"right","response":"right","rt":400.09999999776,"correct":true,"confidence":4},{"trial_n":139,"n_dots":2.95,"target":"right","response":"right","rt":163.39999999851,"correct":true,"confidence":4},{"trial_n":140,"n_dots":2.95,"target":"left","response":"left","rt":779.30000000075,"correct":true,"confidence":4},{"trial_n":141,"n_dots":2.85,"target":"right","response":"right","rt":887.40000000224,"correct":true,"confidence":4},{"trial_n":142,"n_dots":2.85,"target":"left","response":"left","rt":690.69999999925,"correct":true,"confidence":4},{"trial_n":143,"n_dots":2.75,"target":"right","response":"right","rt":445.80000000075,"correct":true,"confidence":4},{"trial_n":144,"n_dots":2.75,"target":"left","response":"left","rt":319.69999999925,"correct":true,"confidence":4},{"trial_n":145,"n_dots":2.65,"target":"right","response":"left","rt":233.60000000149,"correct":false,"confidence":4},{"trial_n":146,"n_dots":2.75,"target":"left","response":"left","rt":282.5,"correct":true,"confidence":4},{"trial_n":147,"n_dots":2.75,"target":"left","response":"left","rt":713.5,"correct":true,"confidence":4},{"trial_n":148,"n_dots":2.65,"target":"left","response":"left","rt":596.30000000075,"correct":true,"confidence":4},{"trial_n":149,"n_dots":2.65,"target":"left","response":"left","rt":354.5,"correct":true,"confidence":4},{"trial_n":150,"n_dots":2.55,"target":"left","response":"left","rt":489.5,"correct":true,"confidence":4},{"trial_n":151,"n_dots":2.55,"target":"right","response":"right","rt":30.199999999255,"correct":true,"confidence":3},{"trial_n":152,"n_dots":2.45,"target":"left","response":"left","rt":424,"correct":true,"confidence":3},{"trial_n":153,"n_dots":2.45,"target":"left","response":"left","rt":519.10000000149,"correct":true,"confidence":4},{"trial_n":154,"n_dots":2.35,"target":"left","response":"right","rt":375.89999999851,"correct":false,"confidence":4},{"trial_n":155,"n_dots":2.45,"target":"left","response":"left","rt":393.10000000149,"correct":true,"confidence":3},{"trial_n":156,"n_dots":2.45,"target":"right","response":"right","rt":392.79999999702,"correct":true,"confidence":3},{"trial_n":157,"n_dots":2.35,"target":"right","response":"right","rt":16.800000000745,"correct":true,"confidence":4},{"trial_n":158,"n_dots":2.35,"target":"right","response":"left","rt":362.59999999776,"correct":false,"confidence":4},{"trial_n":159,"n_dots":2.45,"target":"right","response":"right","rt":200.80000000075,"correct":true,"confidence":4},{"trial_n":160,"n_dots":2.45,"target":"left","response":"left","rt":262.39999999851,"correct":true,"confidence":4},{"trial_n":161,"n_dots":2.35,"target":"left","response":"left","rt":371.39999999851,"correct":true,"confidence":4},{"trial_n":162,"n_dots":2.35,"target":"right","response":"right","rt":226.30000000075,"correct":true,"confidence":4},{"trial_n":163,"n_dots":2.25,"target":"left","response":"left","rt":599.5,"correct":true,"confidence":4},{"trial_n":164,"n_dots":2.25,"target":"right","response":"left","rt":449.10000000149,"correct":false,"confidence":4},{"trial_n":165,"n_dots":2.35,"target":"left","response":"left","rt":96,"correct":true,"confidence":5},{"trial_n":166,"n_dots":2.35,"target":"right","response":"right","rt":723.80000000075,"correct":true,"confidence":2},{"trial_n":167,"n_dots":2.25,"target":"left","response":"left","rt":393.10000000149,"correct":true,"confidence":4},{"trial_n":168,"n_dots":2.25,"target":"left","response":"left","rt":802.80000000075,"correct":true,"confidence":4},{"trial_n":169,"n_dots":2.15,"target":"left","response":"left","rt":562.69999999925,"correct":true,"confidence":4},{"trial_n":170,"n_dots":2.15,"target":"left","response":"right","rt":1319.5,"correct":false,"confidence":3},{"trial_n":171,"n_dots":2.25,"target":"left","response":"left","rt":603.39999999851,"correct":true,"confidence":5},{"trial_n":172,"n_dots":2.25,"target":"left","response":"left","rt":345.39999999851,"correct":true,"confidence":4},{"trial_n":173,"n_dots":2.15,"target":"left","response":"left","rt":260.30000000075,"correct":true,"confidence":4},{"trial_n":174,"n_dots":2.15,"target":"left","response":"left","rt":277.5,"correct":true,"confidence":5},{"trial_n":175,"n_dots":2.05,"target":"right","response":"left","rt":681.09999999776,"correct":false,"confidence":4},{"trial_n":176,"n_dots":2.15,"target":"left","response":"left","rt":322.29999999702,"correct":true,"confidence":5},{"trial_n":177,"n_dots":2.15,"target":"left","response":"right","rt":278.5,"correct":false,"confidence":5},{"trial_n":178,"n_dots":2.25,"target":"left","response":"right","rt":419.89999999851,"correct":false,"confidence":4},{"trial_n":179,"n_dots":2.35,"target":"left","response":"left","rt":714.80000000075,"correct":true,"confidence":3},{"trial_n":180,"n_dots":2.35,"target":"right","response":"right","rt":355.80000000075,"correct":true,"confidence":4},{"trial_n":181,"n_dots":2.25,"target":"right","response":"left","rt":289.10000000149,"correct":false,"confidence":3},{"trial_n":182,"n_dots":2.35,"target":"left","response":"left","rt":455.5,"correct":true,"confidence":5},{"trial_n":183,"n_dots":2.35,"target":"right","response":"right","rt":443.80000000075,"correct":true,"confidence":4},{"trial_n":184,"n_dots":2.25,"target":"right","response":"right","rt":311.39999999851,"correct":true,"confidence":4},{"trial_n":185,"n_dots":2.25,"target":"right","response":"right","rt":508.30000000075,"correct":true,"confidence":4},{"trial_n":186,"n_dots":2.15,"target":"right","response":"left","rt":437.39999999851,"correct":false,"confidence":4},{"trial_n":187,"n_dots":2.25,"target":"left","response":"left","rt":398.19999999925,"correct":true,"confidence":2},{"trial_n":188,"n_dots":2.25,"target":"right","response":"right","rt":606.39999999851,"correct":true,"confidence":4},{"trial_n":189,"n_dots":2.15,"target":"right","response":"right","rt":502.80000000075,"correct":true,"confidence":4},{"trial_n":190,"n_dots":2.15,"target":"left","response":"left","rt":312.69999999925,"correct":true,"confidence":5},{"trial_n":191,"n_dots":2.05,"target":"right","response":"right","rt":469.69999999925,"correct":true,"confidence":3},{"trial_n":192,"n_dots":2.05,"target":"right","response":"right","rt":352.89999999851,"correct":true,"confidence":4},{"trial_n":193,"n_dots":1.95,"target":"right","response":"right","rt":297.40000000224,"correct":true,"confidence":4},{"trial_n":194,"n_dots":1.95,"target":"right","response":"right","rt":213.5,"correct":true,"confidence":4}]