[{"trial_n":1,"n_dots":4.25,"target":"right","response":"left","rt":853.40000009537,"correct":false,"confidence":-1},{"trial_n":2,"n_dots":4.25,"target":"right","response":"right","rt":2038.7000002861,"correct":true,"confidence":-1},{"trial_n":3,"n_dots":4.25,"target":"left","response":"left","rt":836.10000038147,"correct":true,"confidence":-1},{"trial_n":4,"n_dots":3.85,"target":"right","response":"right","rt":921.09999990463,"correct":true,"confidence":-1},{"trial_n":5,"n_dots":3.85,"target":"right","response":"left","rt":901.30000019073,"correct":false,"confidence":-1},{"trial_n":6,"n_dots":4.25,"target":"right","response":"left","rt":533,"correct":false,"confidence":-1},{"trial_n":7,"n_dots":4.65,"target":"left","response":"left","rt":513.5,"correct":true,"confidence":-1},{"trial_n":8,"n_dots":4.65,"target":"right","response":"right","rt":552.80000019073,"correct":true,"confidence":-1},{"trial_n":9,"n_dots":4.45,"target":"right","response":"right","rt":455.90000009537,"correct":true,"confidence":-1},{"trial_n":10,"n_dots":4.45,"target":"right","response":"right","rt":467.19999980927,"correct":true,"confidence":-1},{"trial_n":11,"n_dots":4.25,"target":"left","response":"left","rt":576,"correct":true,"confidence":-1},{"trial_n":12,"n_dots":4.25,"target":"left","response":"right","rt":874.7000002861,"correct":false,"confidence":-1},{"trial_n":13,"n_dots":4.35,"target":"right","response":"right","rt":528.7000002861,"correct":true,"confidence":-1},{"trial_n":14,"n_dots":4.35,"target":"left","response":"left","rt":501,"correct":true,"confidence":-1},{"trial_n":15,"n_dots":4.25,"target":"left","response":"left","rt":453.80000019073,"correct":true,"confidence":-1},{"trial_n":16,"n_dots":4.25,"target":"left","response":"left","rt":327.89999961853,"correct":true,"confidence":-1},{"trial_n":17,"n_dots":4.15,"target":"left","response":"left","rt":410.7000002861,"correct":true,"confidence":-1},{"trial_n":18,"n_dots":4.15,"target":"right","response":"right","rt":549.89999961853,"correct":true,"confidence":-1},{"trial_n":19,"n_dots":4.05,"target":"right","response":"left","rt":397.80000019073,"correct":false,"confidence":-1},{"trial_n":20,"n_dots":4.15,"target":"left","response":"left","rt":422.59999990463,"correct":true,"confidence":-1},{"trial_n":21,"n_dots":4.15,"target":"left","response":"left","rt":455,"correct":true,"confidence":-1},{"trial_n":22,"n_dots":4.05,"target":"left","response":"right","rt":137.7999997139,"correct":false,"confidence":-1},{"trial_n":23,"n_dots":4.15,"target":"right","response":"right","rt":393.09999990463,"correct":true,"confidence":-1},{"trial_n":24,"n_dots":4.15,"target":"left","response":"left","rt":462.89999961853,"correct":true,"confidence":-1},{"trial_n":25,"n_dots":4.05,"target":"right","response":"right","rt":512.5,"correct":true,"confidence":-1},{"trial_n":26,"n_dots":4.05,"target":"left","response":"left","rt":407.7999997139,"correct":true,"confidence":-1},{"trial_n":27,"n_dots":3.95,"target":"right","response":"right","rt":568.59999990463,"correct":true,"confidence":3},{"trial_n":28,"n_dots":3.95,"target":"left","response":"left","rt":435.09999990463,"correct":true,"confidence":6},{"trial_n":29,"n_dots":3.85,"target":"right","response":"right","rt":547.69999980927,"correct":true,"confidence":4},{"trial_n":30,"n_dots":3.85,"target":"right","response":"left","rt":609.39999961853,"correct":false,"confidence":4},{"trial_n":31,"n_dots":3.95,"target":"left","response":"left","rt":575.09999990463,"correct":true,"confidence":6},{"trial_n":32,"n_dots":3.95,"target":"right","response":"right","rt":557.90000009537,"correct":true,"confidence":5},{"trial_n":33,"n_dots":3.85,"target":"right","response":"left","rt":661.10000038147,"correct":false,"confidence":3},{"trial_n":34,"n_dots":3.95,"target":"left","response":"left","rt":931.19999980927,"correct":true,"confidence":3},{"trial_n":35,"n_dots":3.95,"target":"right","response":"right","rt":431.5,"correct":true,"confidence":4},{"trial_n":36,"n_dots":3.85,"target":"left","response":"left","rt":399.09999990463,"correct":true,"confidence":6},{"trial_n":37,"n_dots":3.85,"target":"left","response":"left","rt":1033.2999997139,"correct":true,"confidence":6},{"trial_n":38,"n_dots":3.75,"target":"right","response":"left","rt":553.5,"correct":false,"confidence":3},{"trial_n":39,"n_dots":3.85,"target":"left","response":"left","rt":481.59999990463,"correct":true,"confidence":5},{"trial_n":40,"n_dots":3.85,"target":"right","response":"right","rt":745.80000019073,"correct":true,"confidence":4},{"trial_n":41,"n_dots":3.75,"target":"left","response":"left","rt":399.7000002861,"correct":true,"confidence":4},{"trial_n":42,"n_dots":3.75,"target":"left","response":"left","rt":396.09999990463,"correct":true,"confidence":5},{"trial_n":43,"n_dots":3.65,"target":"left","response":"left","rt":426.19999980927,"correct":true,"confidence":6},{"trial_n":44,"n_dots":3.65,"target":"left","response":"left","rt":400.2999997139,"correct":true,"confidence":3},{"trial_n":45,"n_dots":3.55,"target":"right","response":"right","rt":607.30000019073,"correct":true,"confidence":3},{"trial_n":46,"n_dots":3.55,"target":"left","response":"left","rt":391.69999980927,"correct":true,"confidence":4},{"trial_n":47,"n_dots":3.45,"target":"left","response":"left","rt":509.90000009537,"correct":true,"confidence":4},{"trial_n":48,"n_dots":3.45,"target":"left","response":"left","rt":389.69999980927,"correct":true,"confidence":5},{"trial_n":49,"n_dots":3.35,"target":"left","response":"left","rt":886.5,"correct":true,"confidence":6},{"trial_n":50,"n_dots":3.35,"target":"left","response":"left","rt":470.09999990463,"correct":true,"confidence":6},{"trial_n":51,"n_dots":3.25,"target":"left","response":"left","rt":453.59999990463,"correct":true,"confidence":5},{"trial_n":52,"n_dots":3.25,"target":"right","response":"right","rt":607.69999980927,"correct":true,"confidence":4},{"trial_n":53,"n_dots":3.15,"target":"right","response":"left","rt":874.40000009537,"correct":false,"confidence":2},{"trial_n":54,"n_dots":3.25,"target":"left","response":"left","rt":360.90000009537,"correct":true,"confidence":5},{"trial_n":55,"n_dots":3.25,"target":"left","response":"left","rt":663.59999990463,"correct":true,"confidence":5},{"trial_n":56,"n_dots":3.15,"target":"right","response":"right","rt":1152.8000001907,"correct":true,"confidence":3},{"trial_n":57,"n_dots":3.15,"target":"right","response":"left","rt":1064.0999999046,"correct":false,"confidence":4},{"trial_n":58,"n_dots":3.25,"target":"right","response":"right","rt":489,"correct":true,"confidence":4},{"trial_n":59,"n_dots":3.25,"target":"left","response":"left","rt":662.60000038147,"correct":true,"confidence":3},{"trial_n":60,"n_dots":3.15,"target":"right","response":"right","rt":629.30000019073,"correct":true,"confidence":3},{"trial_n":61,"n_dots":3.15,"target":"left","response":"left","rt":439.19999980927,"correct":true,"confidence":4},{"trial_n":62,"n_dots":3.05,"target":"right","response":"right","rt":434.90000009537,"correct":true,"confidence":4},{"trial_n":63,"n_dots":3.05,"target":"right","response":"right","rt":1569.8000001907,"correct":true,"confidence":2},{"trial_n":64,"n_dots":2.95,"target":"right","response":"right","rt":464,"correct":true,"confidence":3},{"trial_n":65,"n_dots":2.95,"target":"right","response":"right","rt":178.90000009537,"correct":true,"confidence":4},{"trial_n":66,"n_dots":2.85,"target":"right","response":"left","rt":483,"correct":false,"confidence":3},{"trial_n":67,"n_dots":2.95,"target":"left","response":"left","rt":395.09999990463,"correct":true,"confidence":3},{"trial_n":68,"n_dots":2.95,"target":"right","response":"right","rt":1277.0999999046,"correct":true,"confidence":4},{"trial_n":69,"n_dots":2.85,"target":"right","response":"left","rt":394.40000009537,"correct":false,"confidence":4},{"trial_n":70,"n_dots":2.95,"target":"left","response":"left","rt":435.80000019073,"correct":true,"confidence":3},{"trial_n":71,"n_dots":2.95,"target":"left","response":"left","rt":651,"correct":true,"confidence":3},{"trial_n":72,"n_dots":2.85,"target":"left","response":"right","rt":611.19999980927,"correct":false,"confidence":3},{"trial_n":73,"n_dots":2.95,"target":"left","response":"left","rt":360.5,"correct":true,"confidence":4},{"trial_n":74,"n_dots":2.95,"target":"right","response":"left","rt":1002.3999996185,"correct":false,"confidence":2},{"trial_n":75,"n_dots":3.05,"target":"right","response":"left","rt":673,"correct":false,"confidence":4},{"trial_n":76,"n_dots":3.15,"target":"right","response":"right","rt":552.7999997139,"correct":true,"confidence":4},{"trial_n":77,"n_dots":3.15,"target":"left","response":"left","rt":714.40000009537,"correct":true,"confidence":5},{"trial_n":78,"n_dots":3.05,"target":"left","response":"left","rt":414.19999980927,"correct":true,"confidence":5},{"trial_n":79,"n_dots":3.05,"target":"left","response":"left","rt":800.40000009537,"correct":true,"confidence":2},{"trial_n":80,"n_dots":2.95,"target":"right","response":"left","rt":1090.0999999046,"correct":false,"confidence":4},{"trial_n":81,"n_dots":3.05,"target":"left","response":"left","rt":859.2999997139,"correct":true,"confidence":4},{"trial_n":82,"n_dots":3.05,"target":"right","response":"left","rt":781.19999980927,"correct":false,"confidence":4},{"trial_n":83,"n_dots":3.15,"target":"left","response":"left","rt":765.19999980927,"correct":true,"confidence":5},{"trial_n":84,"n_dots":3.15,"target":"left","response":"left","rt":809,"correct":true,"confidence":6},{"trial_n":85,"n_dots":3.05,"target":"left","response":"left","rt":1289.3000001907,"correct":true,"confidence":4},{"trial_n":86,"n_dots":3.05,"target":"left","response":"left","rt":439.39999961853,"correct":true,"confidence":3},{"trial_n":87,"n_dots":2.95,"target":"left","response":"left","rt":520.10000038147,"correct":true,"confidence":2},{"trial_n":88,"n_dots":2.95,"target":"right","response":"right","rt":443.7999997139,"correct":true,"confidence":3},{"trial_n":89,"n_dots":2.85,"target":"left","response":"left","rt":378.60000038147,"correct":true,"confidence":4},{"trial_n":90,"n_dots":2.85,"target":"left","response":"left","rt":541.2999997139,"correct":true,"confidence":5},{"trial_n":91,"n_dots":2.75,"target":"right","response":"right","rt":599.90000009537,"correct":true,"confidence":3},{"trial_n":92,"n_dots":2.75,"target":"right","response":"right","rt":357.90000009537,"correct":true,"confidence":3},{"trial_n":93,"n_dots":2.65,"target":"right","response":"right","rt":445.40000009537,"correct":true,"confidence":4},{"trial_n":94,"n_dots":2.65,"target":"left","response":"left","rt":390.30000019073,"correct":true,"confidence":4},{"trial_n":95,"n_dots":2.55,"target":"left","response":"left","rt":528.5,"correct":true,"confidence":4},{"trial_n":96,"n_dots":2.55,"target":"right","response":"right","rt":379,"correct":true,"confidence":5},{"trial_n":97,"n_dots":2.45,"target":"right","response":"left","rt":371.90000009537,"correct":false,"confidence":6},{"trial_n":98,"n_dots":2.55,"target":"right","response":"right","rt":416.5,"correct":true,"confidence":5},{"trial_n":99,"n_dots":2.55,"target":"right","response":"left","rt":389.80000019073,"correct":false,"confidence":5},{"trial_n":100,"n_dots":2.65,"target":"left","response":"left","rt":614.7999997139,"correct":true,"confidence":3},{"trial_n":101,"n_dots":2.65,"target":"right","response":"left","rt":365.5,"correct":false,"confidence":5},{"trial_n":102,"n_dots":2.75,"target":"right","response":"left","rt":824.69999980927,"correct":false,"confidence":4},{"trial_n":103,"n_dots":2.85,"target":"left","response":"left","rt":382.2999997139,"correct":true,"confidence":6},{"trial_n":104,"n_dots":2.85,"target":"left","response":"left","rt":619.90000009537,"correct":true,"confidence":6},{"trial_n":105,"n_dots":2.75,"target":"right","response":"right","rt":666.09999990463,"correct":true,"confidence":4},{"trial_n":106,"n_dots":2.75,"target":"left","response":"left","rt":518.09999990463,"correct":true,"confidence":4},{"trial_n":107,"n_dots":2.65,"target":"left","response":"left","rt":362.09999990463,"correct":true,"confidence":4},{"trial_n":108,"n_dots":2.65,"target":"left","response":"left","rt":452.5,"correct":true,"confidence":5},{"trial_n":109,"n_dots":2.55,"target":"right","response":"left","rt":419.59999990463,"correct":false,"confidence":5},{"trial_n":110,"n_dots":2.65,"target":"left","response":"left","rt":130.40000009537,"correct":true,"confidence":4},{"trial_n":111,"n_dots":2.65,"target":"right","response":"right","rt":684.2999997139,"correct":true,"confidence":4},{"trial_n":112,"n_dots":2.55,"target":"left","response":"left","rt":717.2000002861,"correct":true,"confidence":3},{"trial_n":113,"n_dots":2.55,"target":"right","response":"right","rt":666.09999990463,"correct":true,"confidence":3},{"trial_n":114,"n_dots":2.45,"target":"right","response":"right","rt":776.09999990463,"correct":true,"confidence":3},{"trial_n":115,"n_dots":2.45,"target":"left","response":"left","rt":362,"correct":true,"confidence":3},{"trial_n":116,"n_dots":2.35,"target":"right","response":"right","rt":1541.0999999046,"correct":true,"confidence":4},{"trial_n":117,"n_dots":2.35,"target":"left","response":"left","rt":410.69999980927,"correct":true,"confidence":4},{"trial_n":118,"n_dots":2.25,"target":"left","response":"right","rt":577.40000009537,"correct":false,"confidence":4},{"trial_n":119,"n_dots":2.35,"target":"right","response":"right","rt":435.10000038147,"correct":true,"confidence":5},{"trial_n":120,"n_dots":2.35,"target":"right","response":"left","rt":415.5,"correct":false,"confidence":4},{"trial_n":121,"n_dots":2.45,"target":"left","response":"left","rt":462.5,"correct":true,"confidence":4},{"trial_n":122,"n_dots":2.45,"target":"left","response":"left","rt":1000.7000002861,"correct":true,"confidence":5},{"trial_n":123,"n_dots":2.35,"target":"right","response":"left","rt":550.40000009537,"correct":false,"confidence":4},{"trial_n":124,"n_dots":2.45,"target":"left","response":"left","rt":421.2000002861,"correct":true,"confidence":4},{"trial_n":125,"n_dots":2.45,"target":"right","response":"left","rt":476,"correct":false,"confidence":5},{"trial_n":126,"n_dots":2.55,"target":"left","response":"left","rt":404.7000002861,"correct":true,"confidence":5},{"trial_n":127,"n_dots":2.55,"target":"right","response":"right","rt":663.80000019073,"correct":true,"confidence":5},{"trial_n":128,"n_dots":2.45,"target":"left","response":"left","rt":564.59999990463,"correct":true,"confidence":6},{"trial_n":129,"n_dots":2.45,"target":"right","response":"left","rt":708,"correct":false,"confidence":3},{"trial_n":130,"n_dots":2.55,"target":"left","response":"left","rt":474.19999980927,"correct":true,"confidence":3},{"trial_n":131,"n_dots":2.55,"target":"right","response":"left","rt":1049.2999997139,"correct":false,"confidence":3},{"trial_n":132,"n_dots":2.65,"target":"left","response":"left","rt":390.89999961853,"correct":true,"confidence":4},{"trial_n":133,"n_dots":2.65,"target":"left","response":"right","rt":969.80000019073,"correct":false,"confidence":3},{"trial_n":134,"n_dots":2.75,"target":"right","response":"left","rt":552.40000009537,"correct":false,"confidence":6},{"trial_n":135,"n_dots":2.85,"target":"right","response":"left","rt":617.69999980927,"correct":false,"confidence":6},{"trial_n":136,"n_dots":2.95,"target":"right","response":"right","rt":524.40000009537,"correct":true,"confidence":5},{"trial_n":137,"n_dots":2.95,"target":"right","response":"right","rt":1032.9000000954,"correct":true,"confidence":5},{"trial_n":138,"n_dots":2.85,"target":"right","response":"right","rt":420.40000009537,"correct":true,"confidence":4},{"trial_n":139,"n_dots":2.85,"target":"left","response":"left","rt":881.69999980927,"correct":true,"confidence":5},{"trial_n":140,"n_dots":2.75,"target":"left","response":"left","rt":476.5,"correct":true,"confidence":5},{"trial_n":141,"n_dots":2.75,"target":"right","response":"right","rt":690.89999961853,"correct":true,"confidence":4},{"trial_n":142,"n_dots":2.65,"target":"left","response":"left","rt":887.89999961853,"correct":true,"confidence":5},{"trial_n":143,"n_dots":2.65,"target":"left","response":"right","rt":958.09999990463,"correct":false,"confidence":4},{"trial_n":144,"n_dots":2.75,"target":"left","response":"left","rt":499.59999990463,"correct":true,"confidence":5},{"trial_n":145,"n_dots":2.75,"target":"left","response":"right","rt":634,"correct":false,"confidence":4},{"trial_n":146,"n_dots":2.85,"target":"right","response":"right","rt":379.90000009537,"correct":true,"confidence":5},{"trial_n":147,"n_dots":2.85,"target":"right","response":"right","rt":467.5,"correct":true,"confidence":3},{"trial_n":148,"n_dots":2.75,"target":"right","response":"left","rt":394.40000009537,"correct":false,"confidence":4},{"trial_n":149,"n_dots":2.85,"target":"left","response":"left","rt":405.2999997139,"correct":true,"confidence":4},{"trial_n":150,"n_dots":2.85,"target":"right","response":"right","rt":672.69999980927,"correct":true,"confidence":4},{"trial_n":151,"n_dots":2.75,"target":"right","response":"right","rt":466.5,"correct":true,"confidence":4},{"trial_n":152,"n_dots":2.75,"target":"left","response":"left","rt":509.90000009537,"correct":true,"confidence":5},{"trial_n":153,"n_dots":2.65,"target":"right","response":"right","rt":893.5,"correct":true,"confidence":3},{"trial_n":154,"n_dots":2.65,"target":"left","response":"left","rt":462.90000009537,"correct":true,"confidence":3},{"trial_n":155,"n_dots":2.55,"target":"left","response":"right","rt":427,"correct":false,"confidence":4},{"trial_n":156,"n_dots":2.65,"target":"left","response":"left","rt":860,"correct":true,"confidence":3},{"trial_n":157,"n_dots":2.65,"target":"left","response":"left","rt":406.40000009537,"correct":true,"confidence":5},{"trial_n":158,"n_dots":2.55,"target":"right","response":"right","rt":508.30000019073,"correct":true,"confidence":5},{"trial_n":159,"n_dots":2.55,"target":"right","response":"left","rt":351.09999990463,"correct":false,"confidence":3},{"trial_n":160,"n_dots":2.65,"target":"left","response":"left","rt":378.59999990463,"correct":true,"confidence":4},{"trial_n":161,"n_dots":2.65,"target":"right","response":"right","rt":802.90000009537,"correct":true,"confidence":4},{"trial_n":162,"n_dots":2.55,"target":"right","response":"right","rt":354.59999990463,"correct":true,"confidence":5},{"trial_n":163,"n_dots":2.55,"target":"right","response":"left","rt":413.2000002861,"correct":false,"confidence":3},{"trial_n":164,"n_dots":2.65,"target":"left","response":"left","rt":377.40000009537,"correct":true,"confidence":4},{"trial_n":165,"n_dots":2.65,"target":"left","response":"left","rt":452.90000009537,"correct":true,"confidence":3},{"trial_n":166,"n_dots":2.55,"target":"right","response":"right","rt":523.5,"correct":true,"confidence":4},{"trial_n":167,"n_dots":2.55,"target":"left","response":"left","rt":397.30000019073,"correct":true,"confidence":5},{"trial_n":168,"n_dots":2.45,"target":"right","response":"left","rt":478.2999997139,"correct":false,"confidence":5},{"trial_n":169,"n_dots":2.55,"target":"left","response":"left","rt":417.40000009537,"correct":true,"confidence":4},{"trial_n":170,"n_dots":2.55,"target":"right","response":"right","rt":398,"correct":true,"confidence":5},{"trial_n":171,"n_dots":2.45,"target":"right","response":"left","rt":386.30000019073,"correct":false,"confidence":3},{"trial_n":172,"n_dots":2.55,"target":"right","response":"left","rt":434,"correct":false,"confidence":4},{"trial_n":173,"n_dots":2.65,"target":"left","response":"left","rt":412,"correct":true,"confidence":3},{"trial_n":174,"n_dots":2.65,"target":"left","response":"left","rt":428.59999990463,"correct":true,"confidence":4},{"trial_n":175,"n_dots":2.55,"target":"left","response":"left","rt":590.30000019073,"correct":true,"confidence":4},{"trial_n":176,"n_dots":2.55,"target":"right","response":"right","rt":393,"correct":true,"confidence":4},{"trial_n":177,"n_dots":2.45,"target":"right","response":"left","rt":92.5,"correct":false,"confidence":3},{"trial_n":178,"n_dots":2.55,"target":"right","response":"right","rt":222,"correct":true,"confidence":3},{"trial_n":179,"n_dots":2.55,"target":"right","response":"right","rt":180.10000038147,"correct":true,"confidence":3},{"trial_n":180,"n_dots":2.45,"target":"right","response":"right","rt":383.90000009537,"correct":true,"confidence":4},{"trial_n":181,"n_dots":2.45,"target":"right","response":"left","rt":331.69999980927,"correct":false,"confidence":4},{"trial_n":182,"n_dots":2.55,"target":"right","response":"left","rt":369.09999990463,"correct":false,"confidence":4},{"trial_n":183,"n_dots":2.65,"target":"left","response":"left","rt":434,"correct":true,"confidence":5},{"trial_n":184,"n_dots":2.65,"target":"right","response":"left","rt":337.2000002861,"correct":false,"confidence":5},{"trial_n":185,"n_dots":2.75,"target":"left","response":"left","rt":475,"correct":true,"confidence":5},{"trial_n":186,"n_dots":2.75,"target":"left","response":"left","rt":403.2000002861,"correct":true,"confidence":4},{"trial_n":187,"n_dots":2.65,"target":"left","response":"right","rt":370.7999997139,"correct":false,"confidence":3},{"trial_n":188,"n_dots":2.75,"target":"right","response":"right","rt":362.39999961853,"correct":true,"confidence":4},{"trial_n":189,"n_dots":2.75,"target":"left","response":"left","rt":297.89999961853,"correct":true,"confidence":6},{"trial_n":190,"n_dots":2.65,"target":"right","response":"right","rt":642.39999961853,"correct":true,"confidence":5},{"trial_n":191,"n_dots":2.65,"target":"right","response":"right","rt":411.2000002861,"correct":true,"confidence":4},{"trial_n":192,"n_dots":2.55,"target":"left","response":"left","rt":375.7000002861,"correct":true,"confidence":5},{"trial_n":193,"n_dots":2.55,"target":"left","response":"left","rt":461.30000019073,"correct":true,"confidence":6},{"trial_n":194,"n_dots":2.45,"target":"right","response":"right","rt":350.19999980927,"correct":true,"confidence":4}]