[{"trial_n":1,"n_dots":4.25,"target":"left","response":"left","rt":9161.6000000238,"correct":true,"confidence":-1},{"trial_n":2,"n_dots":4.25,"target":"right","response":"right","rt":1332.2999999523,"correct":true,"confidence":-1},{"trial_n":3,"n_dots":3.85,"target":"left","response":"left","rt":2079.6000000238,"correct":true,"confidence":-1},{"trial_n":4,"n_dots":3.85,"target":"left","response":"left","rt":917.80000007153,"correct":true,"confidence":-1},{"trial_n":5,"n_dots":3.45,"target":"right","response":"right","rt":3312,"correct":true,"confidence":-1},{"trial_n":6,"n_dots":3.45,"target":"right","response":"left","rt":1130.2999999523,"correct":false,"confidence":-1},{"trial_n":7,"n_dots":3.85,"target":"right","response":"left","rt":706.20000004768,"correct":false,"confidence":-1},{"trial_n":8,"n_dots":4.05,"target":"right","response":"right","rt":873.39999997616,"correct":true,"confidence":-1},{"trial_n":9,"n_dots":4.05,"target":"right","response":"right","rt":889.70000004768,"correct":true,"confidence":-1},{"trial_n":10,"n_dots":3.85,"target":"left","response":"left","rt":690.10000002384,"correct":true,"confidence":-1},{"trial_n":11,"n_dots":3.85,"target":"right","response":"left","rt":976.60000002384,"correct":false,"confidence":-1},{"trial_n":12,"n_dots":4.05,"target":"right","response":"right","rt":1081.2999999523,"correct":true,"confidence":-1},{"trial_n":13,"n_dots":4.05,"target":"right","response":"right","rt":272.10000002384,"correct":true,"confidence":-1},{"trial_n":14,"n_dots":3.95,"target":"right","response":"left","rt":446.5,"correct":false,"confidence":-1},{"trial_n":15,"n_dots":4.05,"target":"right","response":"right","rt":1094.7999999523,"correct":true,"confidence":-1},{"trial_n":16,"n_dots":4.05,"target":"right","response":"right","rt":948.89999997616,"correct":true,"confidence":-1},{"trial_n":17,"n_dots":3.95,"target":"left","response":"right","rt":3046.5,"correct":false,"confidence":-1},{"trial_n":18,"n_dots":4.05,"target":"left","response":"left","rt":874.10000002384,"correct":true,"confidence":-1},{"trial_n":19,"n_dots":4.05,"target":"right","response":"left","rt":994.69999992847,"correct":false,"confidence":-1},{"trial_n":20,"n_dots":4.15,"target":"left","response":"right","rt":938,"correct":false,"confidence":-1},{"trial_n":21,"n_dots":4.25,"target":"left","response":"left","rt":2184.2999999523,"correct":true,"confidence":-1},{"trial_n":22,"n_dots":4.25,"target":"right","response":"right","rt":1250,"correct":true,"confidence":-1},{"trial_n":23,"n_dots":4.15,"target":"right","response":"left","rt":729.70000004768,"correct":false,"confidence":-1},{"trial_n":24,"n_dots":4.25,"target":"right","response":"right","rt":754.5,"correct":true,"confidence":-1},{"trial_n":25,"n_dots":4.25,"target":"left","response":"right","rt":883,"correct":false,"confidence":-1},{"trial_n":26,"n_dots":4.35,"target":"left","response":"left","rt":3473.7999999523,"correct":true,"confidence":-1},{"trial_n":27,"n_dots":4.35,"target":"right","response":"right","rt":410,"correct":true,"confidence":4},{"trial_n":28,"n_dots":4.25,"target":"right","response":"right","rt":358.90000009537,"correct":true,"confidence":4},{"trial_n":29,"n_dots":4.25,"target":"left","response":"left","rt":441.89999997616,"correct":true,"confidence":3},{"trial_n":30,"n_dots":4.15,"target":"right","response":"right","rt":450.79999995232,"correct":true,"confidence":4},{"trial_n":31,"n_dots":4.15,"target":"left","response":"left","rt":850.60000002384,"correct":true,"confidence":3},{"trial_n":32,"n_dots":4.05,"target":"right","response":"right","rt":609.70000004768,"correct":true,"confidence":3},{"trial_n":33,"n_dots":4.05,"target":"right","response":"right","rt":237.10000002384,"correct":true,"confidence":4},{"trial_n":34,"n_dots":3.95,"target":"right","response":"left","rt":206.5,"correct":false,"confidence":4},{"trial_n":35,"n_dots":4.05,"target":"left","response":"left","rt":250.10000002384,"correct":true,"confidence":3},{"trial_n":36,"n_dots":4.05,"target":"right","response":"right","rt":789.79999995232,"correct":true,"confidence":4},{"trial_n":37,"n_dots":3.95,"target":"right","response":"left","rt":645.5,"correct":false,"confidence":3},{"trial_n":38,"n_dots":4.05,"target":"left","response":"left","rt":172.39999997616,"correct":true,"confidence":4},{"trial_n":39,"n_dots":4.05,"target":"left","response":"left","rt":186,"correct":true,"confidence":3},{"trial_n":40,"n_dots":3.95,"target":"left","response":"right","rt":320.10000002384,"correct":false,"confidence":3},{"trial_n":41,"n_dots":4.05,"target":"left","response":"left","rt":148.89999997616,"correct":true,"confidence":3},{"trial_n":42,"n_dots":4.05,"target":"left","response":"right","rt":2401.1999999285,"correct":false,"confidence":3},{"trial_n":43,"n_dots":4.15,"target":"left","response":"left","rt":361,"correct":true,"confidence":3},{"trial_n":44,"n_dots":4.15,"target":"left","response":"left","rt":303.60000002384,"correct":true,"confidence":4},{"trial_n":45,"n_dots":4.05,"target":"left","response":"left","rt":497.10000002384,"correct":true,"confidence":4},{"trial_n":46,"n_dots":4.05,"target":"right","response":"right","rt":3937.2000000477,"correct":true,"confidence":4},{"trial_n":47,"n_dots":3.95,"target":"left","response":"left","rt":494.30000007153,"correct":true,"confidence":3},{"trial_n":48,"n_dots":3.95,"target":"right","response":"right","rt":2447.2000000477,"correct":true,"confidence":5},{"trial_n":49,"n_dots":3.85,"target":"left","response":"left","rt":543.30000007153,"correct":true,"confidence":3},{"trial_n":50,"n_dots":3.85,"target":"left","response":"left","rt":306.79999995232,"correct":true,"confidence":5},{"trial_n":51,"n_dots":3.75,"target":"right","response":"right","rt":516.29999995232,"correct":true,"confidence":5},{"trial_n":52,"n_dots":3.75,"target":"left","response":"right","rt":490.60000002384,"correct":false,"confidence":4},{"trial_n":53,"n_dots":3.85,"target":"left","response":"left","rt":1980.3999999762,"correct":true,"confidence":4},{"trial_n":54,"n_dots":3.85,"target":"left","response":"left","rt":230.39999997616,"correct":true,"confidence":4},{"trial_n":55,"n_dots":3.75,"target":"left","response":"left","rt":2106.6000000238,"correct":true,"confidence":4},{"trial_n":56,"n_dots":3.75,"target":"left","response":"left","rt":62.399999976158,"correct":true,"confidence":4},{"trial_n":57,"n_dots":3.65,"target":"right","response":"right","rt":199.89999997616,"correct":true,"confidence":4},{"trial_n":58,"n_dots":3.65,"target":"right","response":"left","rt":1487.5,"correct":false,"confidence":2},{"trial_n":59,"n_dots":3.75,"target":"right","response":"left","rt":1149.8999999762,"correct":false,"confidence":3},{"trial_n":60,"n_dots":3.85,"target":"left","response":"right","rt":2904,"correct":false,"confidence":2},{"trial_n":61,"n_dots":3.95,"target":"left","response":"left","rt":122.89999997616,"correct":true,"confidence":5},{"trial_n":62,"n_dots":3.95,"target":"left","response":"left","rt":145.30000007153,"correct":true,"confidence":5},{"trial_n":63,"n_dots":3.85,"target":"left","response":"left","rt":2103.3999999762,"correct":true,"confidence":4},{"trial_n":64,"n_dots":3.85,"target":"right","response":"left","rt":159.60000002384,"correct":false,"confidence":4},{"trial_n":65,"n_dots":3.95,"target":"left","response":"left","rt":1895,"correct":true,"confidence":3},{"trial_n":66,"n_dots":3.95,"target":"left","response":"left","rt":2903.6000000238,"correct":true,"confidence":4},{"trial_n":67,"n_dots":3.85,"target":"left","response":"right","rt":207.70000004768,"correct":false,"confidence":2},{"trial_n":68,"n_dots":3.95,"target":"left","response":"left","rt":1719.4000000954,"correct":true,"confidence":5},{"trial_n":69,"n_dots":3.95,"target":"right","response":"right","rt":934.89999997616,"correct":true,"confidence":4},{"trial_n":70,"n_dots":3.85,"target":"right","response":"left","rt":79.5,"correct":false,"confidence":3},{"trial_n":71,"n_dots":3.95,"target":"right","response":"right","rt":247.60000002384,"correct":true,"confidence":3},{"trial_n":72,"n_dots":3.95,"target":"right","response":"left","rt":55.899999976158,"correct":false,"confidence":3},{"trial_n":73,"n_dots":4.05,"target":"right","response":"left","rt":114.79999995232,"correct":false,"confidence":2},{"trial_n":74,"n_dots":4.15,"target":"left","response":"left","rt":1351.5,"correct":true,"confidence":3},{"trial_n":75,"n_dots":4.15,"target":"right","response":"right","rt":245.5,"correct":true,"confidence":4},{"trial_n":76,"n_dots":4.05,"target":"right","response":"right","rt":709.70000004768,"correct":true,"confidence":4},{"trial_n":77,"n_dots":4.05,"target":"left","response":"left","rt":87.700000047684,"correct":true,"confidence":5},{"trial_n":78,"n_dots":3.95,"target":"left","response":"left","rt":17.600000023842,"correct":true,"confidence":5},{"trial_n":79,"n_dots":3.95,"target":"right","response":"right","rt":99.399999976158,"correct":true,"confidence":4},{"trial_n":80,"n_dots":3.85,"target":"left","response":"left","rt":20,"correct":true,"confidence":4},{"trial_n":81,"n_dots":3.85,"target":"left","response":"left","rt":1139.2000000477,"correct":true,"confidence":4},{"trial_n":82,"n_dots":3.75,"target":"left","response":"right","rt":143.70000004768,"correct":false,"confidence":4},{"trial_n":83,"n_dots":3.85,"target":"left","response":"right","rt":1095.1999999285,"correct":false,"confidence":2},{"trial_n":84,"n_dots":3.95,"target":"right","response":"left","rt":1853.6000000238,"correct":false,"confidence":3},{"trial_n":85,"n_dots":4.05,"target":"right","response":"left","rt":44.799999952316,"correct":false,"confidence":3},{"trial_n":86,"n_dots":4.15,"target":"left","response":"left","rt":700.60000002384,"correct":true,"confidence":5},{"trial_n":87,"n_dots":4.15,"target":"right","response":"right","rt":494,"correct":true,"confidence":4},{"trial_n":88,"n_dots":4.05,"target":"right","response":"right","rt":674,"correct":true,"confidence":5},{"trial_n":89,"n_dots":4.05,"target":"right","response":"left","rt":2612.5999999046,"correct":false,"confidence":2},{"trial_n":90,"n_dots":4.15,"target":"right","response":"left","rt":173,"correct":false,"confidence":3},{"trial_n":91,"n_dots":4.25,"target":"left","response":"left","rt":648.70000004768,"correct":true,"confidence":1},{"trial_n":92,"n_dots":4.25,"target":"left","response":"left","rt":31.700000047684,"correct":true,"confidence":4},{"trial_n":93,"n_dots":4.15,"target":"left","response":"left","rt":126.19999992847,"correct":true,"confidence":4},{"trial_n":94,"n_dots":4.15,"target":"left","response":"left","rt":84.199999928474,"correct":true,"confidence":4},{"trial_n":95,"n_dots":4.05,"target":"right","response":"right","rt":181.70000004768,"correct":true,"confidence":4},{"trial_n":96,"n_dots":4.05,"target":"left","response":"left","rt":470,"correct":true,"confidence":4},{"trial_n":97,"n_dots":3.95,"target":"left","response":"left","rt":294.20000004768,"correct":true,"confidence":5},{"trial_n":98,"n_dots":3.95,"target":"left","response":"left","rt":609.29999995232,"correct":true,"confidence":4},{"trial_n":99,"n_dots":3.85,"target":"left","response":"left","rt":470.60000002384,"correct":true,"confidence":4},{"trial_n":100,"n_dots":3.85,"target":"left","response":"left","rt":454.5,"correct":true,"confidence":5},{"trial_n":101,"n_dots":3.75,"target":"left","response":"left","rt":504,"correct":true,"confidence":4},{"trial_n":102,"n_dots":3.75,"target":"right","response":"left","rt":526.20000004768,"correct":false,"confidence":4},{"trial_n":103,"n_dots":3.85,"target":"right","response":"right","rt":295.5,"correct":true,"confidence":4},{"trial_n":104,"n_dots":3.85,"target":"right","response":"right","rt":415.70000004768,"correct":true,"confidence":4},{"trial_n":105,"n_dots":3.75,"target":"right","response":"left","rt":239,"correct":false,"confidence":2},{"trial_n":106,"n_dots":3.85,"target":"right","response":"right","rt":237,"correct":true,"confidence":4},{"trial_n":107,"n_dots":3.85,"target":"right","response":"left","rt":454,"correct":false,"confidence":2},{"trial_n":108,"n_dots":3.95,"target":"left","response":"right","rt":49.399999976158,"correct":false,"confidence":4},{"trial_n":109,"n_dots":4.05,"target":"right","response":"right","rt":493.79999995232,"correct":true,"confidence":4},{"trial_n":110,"n_dots":4.05,"target":"left","response":"left","rt":1182.3999999762,"correct":true,"confidence":4},{"trial_n":111,"n_dots":3.95,"target":"right","response":"right","rt":66.699999928474,"correct":true,"confidence":4},{"trial_n":112,"n_dots":3.95,"target":"left","response":"left","rt":192.10000002384,"correct":true,"confidence":4},{"trial_n":113,"n_dots":3.85,"target":"right","response":"left","rt":57.599999904633,"correct":false,"confidence":5},{"trial_n":114,"n_dots":3.95,"target":"right","response":"left","rt":1117.8999999762,"correct":false,"confidence":3},{"trial_n":115,"n_dots":4.05,"target":"right","response":"right","rt":229.29999995232,"correct":true,"confidence":4},{"trial_n":116,"n_dots":4.05,"target":"left","response":"left","rt":86.099999904633,"correct":true,"confidence":4},{"trial_n":117,"n_dots":3.95,"target":"right","response":"left","rt":69.099999904633,"correct":false,"confidence":4},{"trial_n":118,"n_dots":4.05,"target":"right","response":"left","rt":1046,"correct":false,"confidence":4},{"trial_n":119,"n_dots":4.15,"target":"left","response":"left","rt":45.300000071526,"correct":true,"confidence":5},{"trial_n":120,"n_dots":4.15,"target":"left","response":"left","rt":333.40000009537,"correct":true,"confidence":4},{"trial_n":121,"n_dots":4.05,"target":"left","response":"left","rt":94.299999952316,"correct":true,"confidence":4},{"trial_n":122,"n_dots":4.05,"target":"left","response":"left","rt":1214.4000000954,"correct":true,"confidence":4},{"trial_n":123,"n_dots":3.95,"target":"right","response":"right","rt":60.199999928474,"correct":true,"confidence":3},{"trial_n":124,"n_dots":3.95,"target":"right","response":"left","rt":14.300000071526,"correct":false,"confidence":4},{"trial_n":125,"n_dots":4.05,"target":"right","response":"right","rt":246,"correct":true,"confidence":4},{"trial_n":126,"n_dots":4.05,"target":"left","response":"left","rt":5186.1000000238,"correct":true,"confidence":4},{"trial_n":127,"n_dots":3.95,"target":"right","response":"right","rt":1485.3999999762,"correct":true,"confidence":2},{"trial_n":128,"n_dots":3.95,"target":"left","response":"left","rt":21.200000047684,"correct":true,"confidence":3},{"trial_n":129,"n_dots":3.85,"target":"left","response":"left","rt":81.300000071526,"correct":true,"confidence":3},{"trial_n":130,"n_dots":3.85,"target":"left","response":"right","rt":126,"correct":false,"confidence":3},{"trial_n":131,"n_dots":3.95,"target":"right","response":"left","rt":37.899999976158,"correct":false,"confidence":3},{"trial_n":132,"n_dots":4.05,"target":"left","response":"left","rt":69.600000023842,"correct":true,"confidence":5},{"trial_n":133,"n_dots":4.05,"target":"left","response":"left","rt":125.79999995232,"correct":true,"confidence":5},{"trial_n":134,"n_dots":3.95,"target":"left","response":"left","rt":80.5,"correct":true,"confidence":5},{"trial_n":135,"n_dots":3.95,"target":"right","response":"right","rt":1252.8999999762,"correct":true,"confidence":5},{"trial_n":136,"n_dots":3.85,"target":"right","response":"right","rt":1314.3999999762,"correct":true,"confidence":4},{"trial_n":137,"n_dots":3.85,"target":"right","response":"right","rt":236.29999995232,"correct":true,"confidence":1},{"trial_n":138,"n_dots":3.75,"target":"left","response":"left","rt":134.30000007153,"correct":true,"confidence":4},{"trial_n":139,"n_dots":3.75,"target":"right","response":"right","rt":421.29999995232,"correct":true,"confidence":4},{"trial_n":140,"n_dots":3.65,"target":"right","response":"right","rt":1105.6000000238,"correct":true,"confidence":5},{"trial_n":141,"n_dots":3.65,"target":"right","response":"right","rt":1500,"correct":true,"confidence":5},{"trial_n":142,"n_dots":3.55,"target":"right","response":"right","rt":116.29999995232,"correct":true,"confidence":4},{"trial_n":143,"n_dots":3.55,"target":"right","response":"right","rt":20.399999976158,"correct":true,"confidence":5},{"trial_n":144,"n_dots":3.45,"target":"left","response":"right","rt":342.30000007153,"correct":false,"confidence":5},{"trial_n":145,"n_dots":3.55,"target":"right","response":"left","rt":325.19999992847,"correct":false,"confidence":4},{"trial_n":146,"n_dots":3.65,"target":"right","response":"right","rt":533.60000002384,"correct":true,"confidence":4},{"trial_n":147,"n_dots":3.65,"target":"left","response":"left","rt":165.09999990463,"correct":true,"confidence":4},{"trial_n":148,"n_dots":3.55,"target":"left","response":"left","rt":45,"correct":true,"confidence":3},{"trial_n":149,"n_dots":3.55,"target":"right","response":"right","rt":211.89999997616,"correct":true,"confidence":5},{"trial_n":150,"n_dots":3.45,"target":"left","response":"left","rt":61.5,"correct":true,"confidence":5},{"trial_n":151,"n_dots":3.45,"target":"right","response":"right","rt":221.80000007153,"correct":true,"confidence":2},{"trial_n":152,"n_dots":3.35,"target":"right","response":"right","rt":506.30000007153,"correct":true,"confidence":4},{"trial_n":153,"n_dots":3.35,"target":"left","response":"left","rt":549.5,"correct":true,"confidence":4},{"trial_n":154,"n_dots":3.25,"target":"left","response":"left","rt":89.700000047684,"correct":true,"confidence":5},{"trial_n":155,"n_dots":3.25,"target":"left","response":"left","rt":2381.2000000477,"correct":true,"confidence":4},{"trial_n":156,"n_dots":3.15,"target":"right","response":"right","rt":17.600000023842,"correct":true,"confidence":4},{"trial_n":157,"n_dots":3.15,"target":"right","response":"right","rt":1108.7000000477,"correct":true,"confidence":2},{"trial_n":158,"n_dots":3.05,"target":"left","response":"left","rt":212.79999995232,"correct":true,"confidence":5},{"trial_n":159,"n_dots":3.05,"target":"left","response":"left","rt":31819.700000048,"correct":true,"confidence":3},{"trial_n":160,"n_dots":2.95,"target":"left","response":"right","rt":301.20000004768,"correct":false,"confidence":3},{"trial_n":161,"n_dots":3.05,"target":"right","response":"right","rt":123.89999997616,"correct":true,"confidence":4},{"trial_n":162,"n_dots":3.05,"target":"left","response":"left","rt":452.79999995232,"correct":true,"confidence":4},{"trial_n":163,"n_dots":2.95,"target":"left","response":"left","rt":1179.8999999762,"correct":true,"confidence":3},{"trial_n":164,"n_dots":2.95,"target":"right","response":"right","rt":237.5,"correct":true,"confidence":4},{"trial_n":165,"n_dots":2.85,"target":"right","response":"left","rt":132.89999997616,"correct":false,"confidence":4},{"trial_n":166,"n_dots":2.95,"target":"right","response":"right","rt":397,"correct":true,"confidence":4},{"trial_n":167,"n_dots":2.95,"target":"left","response":"left","rt":762,"correct":true,"confidence":4},{"trial_n":168,"n_dots":2.85,"target":"right","response":"right","rt":657.79999995232,"correct":true,"confidence":2},{"trial_n":169,"n_dots":2.85,"target":"left","response":"left","rt":2155.2000000477,"correct":true,"confidence":4},{"trial_n":170,"n_dots":2.75,"target":"left","response":"right","rt":353.79999995232,"correct":false,"confidence":2},{"trial_n":171,"n_dots":2.85,"target":"right","response":"left","rt":2653.8999999762,"correct":false,"confidence":3},{"trial_n":172,"n_dots":2.95,"target":"right","response":"right","rt":614.5,"correct":true,"confidence":4},{"trial_n":173,"n_dots":2.95,"target":"right","response":"left","rt":765.70000004768,"correct":false,"confidence":3},{"trial_n":174,"n_dots":3.05,"target":"left","response":"right","rt":193.79999995232,"correct":false,"confidence":3},{"trial_n":175,"n_dots":3.15,"target":"right","response":"left","rt":26.099999904633,"correct":false,"confidence":4},{"trial_n":176,"n_dots":3.25,"target":"left","response":"left","rt":48.600000023842,"correct":true,"confidence":1},{"trial_n":177,"n_dots":3.25,"target":"right","response":"right","rt":84.5,"correct":true,"confidence":3},{"trial_n":178,"n_dots":3.15,"target":"right","response":"left","rt":33.600000023842,"correct":false,"confidence":4},{"trial_n":179,"n_dots":3.25,"target":"right","response":"right","rt":1879.1999999285,"correct":true,"confidence":4},{"trial_n":180,"n_dots":3.25,"target":"left","response":"left","rt":833.69999992847,"correct":true,"confidence":4},{"trial_n":181,"n_dots":3.15,"target":"right","response":"right","rt":0,"correct":true,"confidence":4},{"trial_n":182,"n_dots":3.15,"target":"right","response":"right","rt":1242.1999999285,"correct":true,"confidence":3},{"trial_n":183,"n_dots":3.05,"target":"left","response":"right","rt":1587.2999999523,"correct":false,"confidence":3},{"trial_n":184,"n_dots":3.15,"target":"right","response":"right","rt":1940.2999999523,"correct":true,"confidence":4},{"trial_n":185,"n_dots":3.15,"target":"left","response":"left","rt":1549.7999999523,"correct":true,"confidence":6},{"trial_n":186,"n_dots":3.05,"target":"left","response":"left","rt":546.80000007153,"correct":true,"confidence":5},{"trial_n":187,"n_dots":3.05,"target":"left","response":"right","rt":270.09999990463,"correct":false,"confidence":3},{"trial_n":188,"n_dots":3.15,"target":"right","response":"left","rt":90.299999952316,"correct":false,"confidence":4},{"trial_n":189,"n_dots":3.25,"target":"left","response":"left","rt":2065.5999999046,"correct":true,"confidence":4},{"trial_n":190,"n_dots":3.25,"target":"right","response":"right","rt":43,"correct":true,"confidence":4},{"trial_n":191,"n_dots":3.15,"target":"left","response":"left","rt":1633.8999999762,"correct":true,"confidence":4},{"trial_n":192,"n_dots":3.15,"target":"left","response":"right","rt":1391.3999999762,"correct":false,"confidence":5},{"trial_n":193,"n_dots":3.25,"target":"left","response":"left","rt":123.5,"correct":true,"confidence":4},{"trial_n":194,"n_dots":3.25,"target":"right","response":"left","rt":210.10000002384,"correct":false,"confidence":4}]