[{"trial_n":1,"n_dots":4.25,"target":"left","response":"left","rt":2917.799999997,"correct":true,"confidence":-1},{"trial_n":2,"n_dots":4.25,"target":"right","response":"right","rt":615.59999999404,"correct":true,"confidence":-1},{"trial_n":3,"n_dots":3.85,"target":"right","response":"right","rt":627.5,"correct":true,"confidence":-1},{"trial_n":4,"n_dots":3.85,"target":"right","response":"right","rt":585.89999999106,"correct":true,"confidence":-1},{"trial_n":5,"n_dots":3.45,"target":"right","response":"left","rt":1057,"correct":false,"confidence":-1},{"trial_n":6,"n_dots":3.85,"target":"left","response":"left","rt":484.29999999702,"correct":true,"confidence":-1},{"trial_n":7,"n_dots":3.85,"target":"right","response":"right","rt":474.30000001192,"correct":true,"confidence":-1},{"trial_n":8,"n_dots":3.65,"target":"left","response":"left","rt":357.09999999404,"correct":true,"confidence":-1},{"trial_n":9,"n_dots":3.65,"target":"left","response":"left","rt":305.09999999404,"correct":true,"confidence":-1},{"trial_n":10,"n_dots":3.45,"target":"right","response":"right","rt":345,"correct":true,"confidence":-1},{"trial_n":11,"n_dots":3.45,"target":"left","response":"left","rt":373.29999999702,"correct":true,"confidence":-1},{"trial_n":12,"n_dots":3.25,"target":"left","response":"right","rt":298.60000000894,"correct":false,"confidence":-1},{"trial_n":13,"n_dots":3.35,"target":"right","response":"right","rt":416.40000000596,"correct":true,"confidence":-1},{"trial_n":14,"n_dots":3.35,"target":"left","response":"left","rt":258.20000000298,"correct":true,"confidence":-1},{"trial_n":15,"n_dots":3.25,"target":"right","response":"right","rt":354.40000000596,"correct":true,"confidence":-1},{"trial_n":16,"n_dots":3.25,"target":"left","response":"left","rt":458.09999999404,"correct":true,"confidence":-1},{"trial_n":17,"n_dots":3.15,"target":"right","response":"left","rt":362.90000000596,"correct":false,"confidence":-1},{"trial_n":18,"n_dots":3.25,"target":"left","response":"left","rt":539.19999998808,"correct":true,"confidence":-1},{"trial_n":19,"n_dots":3.25,"target":"left","response":"right","rt":369,"correct":false,"confidence":-1},{"trial_n":20,"n_dots":3.35,"target":"left","response":"left","rt":355.30000001192,"correct":true,"confidence":-1},{"trial_n":21,"n_dots":3.35,"target":"left","response":"right","rt":453.70000000298,"correct":false,"confidence":-1},{"trial_n":22,"n_dots":3.45,"target":"right","response":"right","rt":455,"correct":true,"confidence":-1},{"trial_n":23,"n_dots":3.45,"target":"right","response":"left","rt":633.09999999404,"correct":false,"confidence":-1},{"trial_n":24,"n_dots":3.55,"target":"left","response":"left","rt":350.09999999404,"correct":true,"confidence":-1},{"trial_n":25,"n_dots":3.55,"target":"right","response":"right","rt":361.90000000596,"correct":true,"confidence":-1},{"trial_n":26,"n_dots":3.45,"target":"right","response":"left","rt":391.60000000894,"correct":false,"confidence":-1},{"trial_n":27,"n_dots":3.55,"target":"left","response":"left","rt":303.89999999106,"correct":true,"confidence":4},{"trial_n":28,"n_dots":3.55,"target":"left","response":"left","rt":355.40000000596,"correct":true,"confidence":3},{"trial_n":29,"n_dots":3.45,"target":"right","response":"right","rt":424.10000000894,"correct":true,"confidence":5},{"trial_n":30,"n_dots":3.45,"target":"right","response":"right","rt":572.40000000596,"correct":true,"confidence":2},{"trial_n":31,"n_dots":3.35,"target":"left","response":"left","rt":395.40000000596,"correct":true,"confidence":4},{"trial_n":32,"n_dots":3.35,"target":"left","response":"left","rt":333.90000000596,"correct":true,"confidence":6},{"trial_n":33,"n_dots":3.25,"target":"left","response":"left","rt":689.70000000298,"correct":true,"confidence":2},{"trial_n":34,"n_dots":3.25,"target":"right","response":"right","rt":347.5,"correct":true,"confidence":3},{"trial_n":35,"n_dots":3.15,"target":"right","response":"right","rt":2459.299999997,"correct":true,"confidence":1},{"trial_n":36,"n_dots":3.15,"target":"right","response":"right","rt":397.5,"correct":true,"confidence":3},{"trial_n":37,"n_dots":3.05,"target":"right","response":"right","rt":618.30000001192,"correct":true,"confidence":1},{"trial_n":38,"n_dots":3.05,"target":"right","response":"right","rt":621.79999999702,"correct":true,"confidence":1},{"trial_n":39,"n_dots":2.95,"target":"left","response":"left","rt":535.70000000298,"correct":true,"confidence":4},{"trial_n":40,"n_dots":2.95,"target":"right","response":"left","rt":748.20000000298,"correct":false,"confidence":3},{"trial_n":41,"n_dots":3.05,"target":"left","response":"left","rt":412.40000000596,"correct":true,"confidence":4},{"trial_n":42,"n_dots":3.05,"target":"left","response":"left","rt":564.89999999106,"correct":true,"confidence":6},{"trial_n":43,"n_dots":2.95,"target":"right","response":"right","rt":488.20000000298,"correct":true,"confidence":4},{"trial_n":44,"n_dots":2.95,"target":"left","response":"left","rt":551.09999999404,"correct":true,"confidence":4},{"trial_n":45,"n_dots":2.85,"target":"left","response":"left","rt":429.60000000894,"correct":true,"confidence":5},{"trial_n":46,"n_dots":2.85,"target":"left","response":"left","rt":541.5,"correct":true,"confidence":3},{"trial_n":47,"n_dots":2.75,"target":"right","response":"right","rt":2535.099999994,"correct":true,"confidence":1},{"trial_n":48,"n_dots":2.75,"target":"left","response":"right","rt":4108.1000000089,"correct":false,"confidence":2},{"trial_n":49,"n_dots":2.85,"target":"left","response":"left","rt":477.5,"correct":true,"confidence":5},{"trial_n":50,"n_dots":2.85,"target":"left","response":"right","rt":390.60000000894,"correct":false,"confidence":2},{"trial_n":51,"n_dots":2.95,"target":"left","response":"left","rt":633.29999999702,"correct":true,"confidence":4},{"trial_n":52,"n_dots":2.95,"target":"right","response":"left","rt":432.10000000894,"correct":false,"confidence":1},{"trial_n":53,"n_dots":3.05,"target":"right","response":"left","rt":6722.1000000089,"correct":false,"confidence":2},{"trial_n":54,"n_dots":3.15,"target":"left","response":"left","rt":490.40000000596,"correct":true,"confidence":4},{"trial_n":55,"n_dots":3.15,"target":"left","response":"left","rt":394.09999999404,"correct":true,"confidence":5},{"trial_n":56,"n_dots":3.05,"target":"left","response":"left","rt":306.10000000894,"correct":true,"confidence":6},{"trial_n":57,"n_dots":3.05,"target":"right","response":"right","rt":733,"correct":true,"confidence":4},{"trial_n":58,"n_dots":2.95,"target":"right","response":"right","rt":431.90000000596,"correct":true,"confidence":4},{"trial_n":59,"n_dots":2.95,"target":"left","response":"left","rt":363.09999999404,"correct":true,"confidence":4},{"trial_n":60,"n_dots":2.85,"target":"right","response":"left","rt":789,"correct":false,"confidence":4},{"trial_n":61,"n_dots":2.95,"target":"right","response":"right","rt":750.69999998808,"correct":true,"confidence":3},{"trial_n":62,"n_dots":2.95,"target":"right","response":"right","rt":312.09999999404,"correct":true,"confidence":4},{"trial_n":63,"n_dots":2.85,"target":"right","response":"left","rt":530.40000000596,"correct":false,"confidence":4},{"trial_n":64,"n_dots":2.95,"target":"left","response":"left","rt":641.5,"correct":true,"confidence":3},{"trial_n":65,"n_dots":2.95,"target":"right","response":"right","rt":407.29999999702,"correct":true,"confidence":4},{"trial_n":66,"n_dots":2.85,"target":"left","response":"left","rt":306.29999999702,"correct":true,"confidence":5},{"trial_n":67,"n_dots":2.85,"target":"right","response":"right","rt":308.59999999404,"correct":true,"confidence":4},{"trial_n":68,"n_dots":2.75,"target":"left","response":"right","rt":566.5,"correct":false,"confidence":3},{"trial_n":69,"n_dots":2.85,"target":"left","response":"left","rt":293.30000001192,"correct":true,"confidence":5},{"trial_n":70,"n_dots":2.85,"target":"left","response":"left","rt":360.09999999404,"correct":true,"confidence":4},{"trial_n":71,"n_dots":2.75,"target":"left","response":"left","rt":270.90000000596,"correct":true,"confidence":5},{"trial_n":72,"n_dots":2.75,"target":"left","response":"left","rt":405.59999999404,"correct":true,"confidence":6},{"trial_n":73,"n_dots":2.65,"target":"right","response":"right","rt":259,"correct":true,"confidence":5},{"trial_n":74,"n_dots":2.65,"target":"left","response":"left","rt":521.90000000596,"correct":true,"confidence":2},{"trial_n":75,"n_dots":2.55,"target":"right","response":"right","rt":271.20000000298,"correct":true,"confidence":6},{"trial_n":76,"n_dots":2.55,"target":"left","response":"left","rt":344.09999999404,"correct":true,"confidence":5},{"trial_n":77,"n_dots":2.45,"target":"right","response":"left","rt":350.30000001192,"correct":false,"confidence":6},{"trial_n":78,"n_dots":2.55,"target":"left","response":"left","rt":589.5,"correct":true,"confidence":6},{"trial_n":79,"n_dots":2.55,"target":"left","response":"right","rt":2276.200000003,"correct":false,"confidence":2},{"trial_n":80,"n_dots":2.65,"target":"right","response":"right","rt":305.70000000298,"correct":true,"confidence":6},{"trial_n":81,"n_dots":2.65,"target":"right","response":"left","rt":314.89999999106,"correct":false,"confidence":4},{"trial_n":82,"n_dots":2.75,"target":"left","response":"left","rt":320.30000001192,"correct":true,"confidence":6},{"trial_n":83,"n_dots":2.75,"target":"left","response":"left","rt":2146.299999997,"correct":true,"confidence":5},{"trial_n":84,"n_dots":2.65,"target":"left","response":"left","rt":552.10000000894,"correct":true,"confidence":3},{"trial_n":85,"n_dots":2.65,"target":"left","response":"left","rt":322.20000000298,"correct":true,"confidence":6},{"trial_n":86,"n_dots":2.55,"target":"left","response":"right","rt":867.29999999702,"correct":false,"confidence":3},{"trial_n":87,"n_dots":2.65,"target":"left","response":"left","rt":167.20000000298,"correct":true,"confidence":6},{"trial_n":88,"n_dots":2.65,"target":"right","response":"right","rt":790.29999999702,"correct":true,"confidence":2},{"trial_n":89,"n_dots":2.55,"target":"right","response":"left","rt":386.20000000298,"correct":false,"confidence":5},{"trial_n":90,"n_dots":2.65,"target":"right","response":"left","rt":608.70000000298,"correct":false,"confidence":3},{"trial_n":91,"n_dots":2.75,"target":"left","response":"left","rt":221.40000000596,"correct":true,"confidence":6},{"trial_n":92,"n_dots":2.75,"target":"left","response":"left","rt":791.10000000894,"correct":true,"confidence":4},{"trial_n":93,"n_dots":2.65,"target":"left","response":"left","rt":720.30000001192,"correct":true,"confidence":4},{"trial_n":94,"n_dots":2.65,"target":"left","response":"right","rt":299.79999999702,"correct":false,"confidence":3},{"trial_n":95,"n_dots":2.75,"target":"left","response":"left","rt":775.20000000298,"correct":true,"confidence":5},{"trial_n":96,"n_dots":2.75,"target":"left","response":"left","rt":1048.099999994,"correct":true,"confidence":3},{"trial_n":97,"n_dots":2.65,"target":"right","response":"right","rt":504.10000000894,"correct":true,"confidence":2},{"trial_n":98,"n_dots":2.65,"target":"right","response":"right","rt":1721.8999999911,"correct":true,"confidence":2},{"trial_n":99,"n_dots":2.55,"target":"left","response":"right","rt":1440.400000006,"correct":false,"confidence":1},{"trial_n":100,"n_dots":2.65,"target":"right","response":"left","rt":1762.1000000089,"correct":false,"confidence":1},{"trial_n":101,"n_dots":2.75,"target":"right","response":"right","rt":459.20000000298,"correct":true,"confidence":5},{"trial_n":102,"n_dots":2.75,"target":"right","response":"right","rt":490.5,"correct":true,"confidence":5},{"trial_n":103,"n_dots":2.65,"target":"left","response":"left","rt":582.09999999404,"correct":true,"confidence":3},{"trial_n":104,"n_dots":2.65,"target":"left","response":"left","rt":571.10000000894,"correct":true,"confidence":5},{"trial_n":105,"n_dots":2.55,"target":"left","response":"left","rt":586.10000000894,"correct":true,"confidence":4},{"trial_n":106,"n_dots":2.55,"target":"left","response":"left","rt":450.19999998808,"correct":true,"confidence":5},{"trial_n":107,"n_dots":2.45,"target":"right","response":"right","rt":335.40000000596,"correct":true,"confidence":4},{"trial_n":108,"n_dots":2.45,"target":"right","response":"right","rt":650.39999999106,"correct":true,"confidence":3},{"trial_n":109,"n_dots":2.35,"target":"right","response":"left","rt":688.10000000894,"correct":false,"confidence":2},{"trial_n":110,"n_dots":2.45,"target":"left","response":"left","rt":1281,"correct":true,"confidence":6},{"trial_n":111,"n_dots":2.45,"target":"right","response":"left","rt":2808.400000006,"correct":false,"confidence":5},{"trial_n":112,"n_dots":2.55,"target":"left","response":"left","rt":559.79999999702,"correct":true,"confidence":3},{"trial_n":113,"n_dots":2.55,"target":"right","response":"left","rt":445.19999998808,"correct":false,"confidence":2},{"trial_n":114,"n_dots":2.65,"target":"right","response":"right","rt":376,"correct":true,"confidence":4},{"trial_n":115,"n_dots":2.65,"target":"right","response":"right","rt":455.90000000596,"correct":true,"confidence":5},{"trial_n":116,"n_dots":2.55,"target":"right","response":"right","rt":759.5,"correct":true,"confidence":4},{"trial_n":117,"n_dots":2.55,"target":"right","response":"right","rt":548.09999999404,"correct":true,"confidence":3},{"trial_n":118,"n_dots":2.45,"target":"right","response":"right","rt":523.40000000596,"correct":true,"confidence":4},{"trial_n":119,"n_dots":2.45,"target":"left","response":"left","rt":342.19999998808,"correct":true,"confidence":5},{"trial_n":120,"n_dots":2.35,"target":"right","response":"right","rt":1807.900000006,"correct":true,"confidence":4},{"trial_n":121,"n_dots":2.35,"target":"left","response":"left","rt":1046.299999997,"correct":true,"confidence":2},{"trial_n":122,"n_dots":2.25,"target":"left","response":"left","rt":358.29999999702,"correct":true,"confidence":4},{"trial_n":123,"n_dots":2.25,"target":"right","response":"right","rt":352.90000000596,"correct":true,"confidence":4},{"trial_n":124,"n_dots":2.15,"target":"left","response":"left","rt":335.5,"correct":true,"confidence":5},{"trial_n":125,"n_dots":2.15,"target":"right","response":"left","rt":1633.400000006,"correct":false,"confidence":4},{"trial_n":126,"n_dots":2.25,"target":"right","response":"right","rt":738.60000000894,"correct":true,"confidence":1},{"trial_n":127,"n_dots":2.25,"target":"right","response":"left","rt":930.89999999106,"correct":false,"confidence":3},{"trial_n":128,"n_dots":2.35,"target":"right","response":"left","rt":1256.1999999881,"correct":false,"confidence":2},{"trial_n":129,"n_dots":2.45,"target":"right","response":"right","rt":898.10000000894,"correct":true,"confidence":3},{"trial_n":130,"n_dots":2.45,"target":"right","response":"right","rt":460.20000000298,"correct":true,"confidence":5},{"trial_n":131,"n_dots":2.35,"target":"left","response":"left","rt":1069.900000006,"correct":true,"confidence":4},{"trial_n":132,"n_dots":2.35,"target":"right","response":"left","rt":666.20000000298,"correct":false,"confidence":4},{"trial_n":133,"n_dots":2.45,"target":"left","response":"left","rt":1062.8000000119,"correct":true,"confidence":3},{"trial_n":134,"n_dots":2.45,"target":"right","response":"right","rt":928.39999999106,"correct":true,"confidence":1},{"trial_n":135,"n_dots":2.35,"target":"left","response":"right","rt":1014.799999997,"correct":false,"confidence":5},{"trial_n":136,"n_dots":2.45,"target":"right","response":"right","rt":665.70000000298,"correct":true,"confidence":2},{"trial_n":137,"n_dots":2.45,"target":"left","response":"left","rt":2444.299999997,"correct":true,"confidence":1},{"trial_n":138,"n_dots":2.35,"target":"left","response":"left","rt":968.40000000596,"correct":true,"confidence":4},{"trial_n":139,"n_dots":2.35,"target":"right","response":"right","rt":652.20000000298,"correct":true,"confidence":3},{"trial_n":140,"n_dots":2.25,"target":"left","response":"left","rt":374.20000000298,"correct":true,"confidence":6},{"trial_n":141,"n_dots":2.25,"target":"right","response":"right","rt":988.40000000596,"correct":true,"confidence":2},{"trial_n":142,"n_dots":2.15,"target":"left","response":"right","rt":1354.3000000119,"correct":false,"confidence":4},{"trial_n":143,"n_dots":2.25,"target":"left","response":"right","rt":1057,"correct":false,"confidence":4},{"trial_n":144,"n_dots":2.35,"target":"left","response":"left","rt":803.20000000298,"correct":true,"confidence":3},{"trial_n":145,"n_dots":2.35,"target":"left","response":"right","rt":2361.700000003,"correct":false,"confidence":5},{"trial_n":146,"n_dots":2.45,"target":"right","response":"right","rt":435.5,"correct":true,"confidence":3},{"trial_n":147,"n_dots":2.45,"target":"left","response":"left","rt":559,"correct":true,"confidence":4},{"trial_n":148,"n_dots":2.35,"target":"left","response":"right","rt":559.30000001192,"correct":false,"confidence":4},{"trial_n":149,"n_dots":2.45,"target":"left","response":"left","rt":394,"correct":true,"confidence":3},{"trial_n":150,"n_dots":2.45,"target":"right","response":"left","rt":1014.599999994,"correct":false,"confidence":4},{"trial_n":151,"n_dots":2.55,"target":"left","response":"left","rt":611.89999999106,"correct":true,"confidence":4},{"trial_n":152,"n_dots":2.55,"target":"left","response":"right","rt":441.60000000894,"correct":false,"confidence":3},{"trial_n":153,"n_dots":2.65,"target":"right","response":"right","rt":291.70000000298,"correct":true,"confidence":1},{"trial_n":154,"n_dots":2.65,"target":"right","response":"right","rt":367.79999999702,"correct":true,"confidence":5},{"trial_n":155,"n_dots":2.55,"target":"left","response":"left","rt":814,"correct":true,"confidence":2},{"trial_n":156,"n_dots":2.55,"target":"right","response":"right","rt":402.80000001192,"correct":true,"confidence":4},{"trial_n":157,"n_dots":2.45,"target":"right","response":"right","rt":358.89999999106,"correct":true,"confidence":4},{"trial_n":158,"n_dots":2.45,"target":"left","response":"left","rt":506.89999999106,"correct":true,"confidence":1},{"trial_n":159,"n_dots":2.35,"target":"right","response":"right","rt":416.20000000298,"correct":true,"confidence":3},{"trial_n":160,"n_dots":2.35,"target":"right","response":"right","rt":629,"correct":true,"confidence":2},{"trial_n":161,"n_dots":2.25,"target":"right","response":"right","rt":7419.799999997,"correct":true,"confidence":2},{"trial_n":162,"n_dots":2.25,"target":"left","response":"right","rt":830.70000000298,"correct":false,"confidence":3},{"trial_n":163,"n_dots":2.35,"target":"left","response":"left","rt":870.19999998808,"correct":true,"confidence":2},{"trial_n":164,"n_dots":2.35,"target":"right","response":"right","rt":402.40000000596,"correct":true,"confidence":4},{"trial_n":165,"n_dots":2.25,"target":"left","response":"right","rt":1131.099999994,"correct":false,"confidence":3},{"trial_n":166,"n_dots":2.35,"target":"left","response":"right","rt":821,"correct":false,"confidence":3},{"trial_n":167,"n_dots":2.45,"target":"left","response":"left","rt":322.5,"correct":true,"confidence":4},{"trial_n":168,"n_dots":2.45,"target":"right","response":"right","rt":257,"correct":true,"confidence":5},{"trial_n":169,"n_dots":2.35,"target":"right","response":"left","rt":1220.599999994,"correct":false,"confidence":2},{"trial_n":170,"n_dots":2.45,"target":"left","response":"right","rt":1392.299999997,"correct":false,"confidence":2},{"trial_n":171,"n_dots":2.55,"target":"left","response":"right","rt":550.70000000298,"correct":false,"confidence":3},{"trial_n":172,"n_dots":2.65,"target":"right","response":"right","rt":13536.900000006,"correct":true,"confidence":2},{"trial_n":173,"n_dots":2.65,"target":"right","response":"right","rt":383.09999999404,"correct":true,"confidence":4},{"trial_n":174,"n_dots":2.55,"target":"right","response":"right","rt":542.40000000596,"correct":true,"confidence":3},{"trial_n":175,"n_dots":2.55,"target":"left","response":"left","rt":429.90000000596,"correct":true,"confidence":5},{"trial_n":176,"n_dots":2.45,"target":"left","response":"left","rt":364.10000000894,"correct":true,"confidence":3},{"trial_n":177,"n_dots":2.45,"target":"right","response":"left","rt":364.70000000298,"correct":false,"confidence":2},{"trial_n":178,"n_dots":2.55,"target":"right","response":"right","rt":337.60000000894,"correct":true,"confidence":6},{"trial_n":179,"n_dots":2.55,"target":"right","response":"right","rt":620.29999999702,"correct":true,"confidence":5},{"trial_n":180,"n_dots":2.45,"target":"left","response":"left","rt":288.20000000298,"correct":true,"confidence":5},{"trial_n":181,"n_dots":2.45,"target":"right","response":"right","rt":594.30000001192,"correct":true,"confidence":2},{"trial_n":182,"n_dots":2.35,"target":"right","response":"right","rt":2204.1000000089,"correct":true,"confidence":1},{"trial_n":183,"n_dots":2.35,"target":"right","response":"left","rt":919.20000000298,"correct":false,"confidence":3},{"trial_n":184,"n_dots":2.45,"target":"right","response":"right","rt":666.70000000298,"correct":true,"confidence":2},{"trial_n":185,"n_dots":2.45,"target":"right","response":"right","rt":368.30000001192,"correct":true,"confidence":1},{"trial_n":186,"n_dots":2.35,"target":"right","response":"left","rt":599.20000000298,"correct":false,"confidence":4},{"trial_n":187,"n_dots":2.45,"target":"right","response":"left","rt":787.80000001192,"correct":false,"confidence":2},{"trial_n":188,"n_dots":2.55,"target":"right","response":"left","rt":488.90000000596,"correct":false,"confidence":5},{"trial_n":189,"n_dots":2.65,"target":"left","response":"left","rt":402.30000001192,"correct":true,"confidence":4},{"trial_n":190,"n_dots":2.65,"target":"right","response":"right","rt":342.90000000596,"correct":true,"confidence":6},{"trial_n":191,"n_dots":2.55,"target":"left","response":"left","rt":580.70000000298,"correct":true,"confidence":4},{"trial_n":192,"n_dots":2.55,"target":"right","response":"right","rt":260.40000000596,"correct":true,"confidence":6},{"trial_n":193,"n_dots":2.45,"target":"left","response":"left","rt":438.20000000298,"correct":true,"confidence":2},{"trial_n":194,"n_dots":2.45,"target":"left","response":"right","rt":370.20000000298,"correct":false,"confidence":5}]