[{"trial_n":1,"n_dots":4.25,"target":"left","response":"left","rt":8998.6999999993,"correct":true,"confidence":-1},{"trial_n":2,"n_dots":4.25,"target":"left","response":"left","rt":1550.8000000007,"correct":true,"confidence":-1},{"trial_n":3,"n_dots":3.85,"target":"right","response":"right","rt":559.80000000075,"correct":true,"confidence":-1},{"trial_n":4,"n_dots":3.85,"target":"right","response":"right","rt":1019.5,"correct":true,"confidence":-1},{"trial_n":5,"n_dots":3.45,"target":"left","response":"left","rt":745.60000000149,"correct":true,"confidence":-1},{"trial_n":6,"n_dots":3.45,"target":"right","response":"right","rt":2917.8000000007,"correct":true,"confidence":-1},{"trial_n":7,"n_dots":3.05,"target":"left","response":"left","rt":293.30000000075,"correct":true,"confidence":-1},{"trial_n":8,"n_dots":3.05,"target":"left","response":"left","rt":1054.0999999978,"correct":true,"confidence":-1},{"trial_n":9,"n_dots":2.85,"target":"left","response":"left","rt":2647.8000000007,"correct":true,"confidence":-1},{"trial_n":10,"n_dots":2.85,"target":"left","response":"left","rt":877.80000000075,"correct":true,"confidence":-1},{"trial_n":11,"n_dots":2.65,"target":"right","response":"right","rt":1275.299999997,"correct":true,"confidence":-1},{"trial_n":12,"n_dots":2.65,"target":"right","response":"right","rt":1959.8000000007,"correct":true,"confidence":-1},{"trial_n":13,"n_dots":2.55,"target":"left","response":"right","rt":2053.1999999993,"correct":false,"confidence":-1},{"trial_n":14,"n_dots":2.65,"target":"right","response":"left","rt":1287.200000003,"correct":false,"confidence":-1},{"trial_n":15,"n_dots":2.75,"target":"left","response":"left","rt":1188.6999999993,"correct":true,"confidence":-1},{"trial_n":16,"n_dots":2.75,"target":"left","response":"left","rt":617.70000000298,"correct":true,"confidence":-1},{"trial_n":17,"n_dots":2.65,"target":"left","response":"left","rt":528.30000000075,"correct":true,"confidence":-1},{"trial_n":18,"n_dots":2.65,"target":"left","response":"left","rt":1277.9000000022,"correct":true,"confidence":-1},{"trial_n":19,"n_dots":2.55,"target":"left","response":"right","rt":686.10000000149,"correct":false,"confidence":-1},{"trial_n":20,"n_dots":2.65,"target":"right","response":"left","rt":452.80000000075,"correct":false,"confidence":-1},{"trial_n":21,"n_dots":2.75,"target":"left","response":"left","rt":332.09999999776,"correct":true,"confidence":-1},{"trial_n":22,"n_dots":2.75,"target":"left","response":"left","rt":298.10000000149,"correct":true,"confidence":-1},{"trial_n":23,"n_dots":2.65,"target":"right","response":"left","rt":547.69999999925,"correct":false,"confidence":-1},{"trial_n":24,"n_dots":2.75,"target":"left","response":"right","rt":565.89999999851,"correct":false,"confidence":-1},{"trial_n":25,"n_dots":2.85,"target":"right","response":"left","rt":382.19999999925,"correct":false,"confidence":-1},{"trial_n":26,"n_dots":2.95,"target":"left","response":"left","rt":350.20000000298,"correct":true,"confidence":-1},{"trial_n":27,"n_dots":2.95,"target":"right","response":"left","rt":1221.3000000007,"correct":false,"confidence":2},{"trial_n":28,"n_dots":3.05,"target":"right","response":"left","rt":801.10000000149,"correct":false,"confidence":4},{"trial_n":29,"n_dots":3.15,"target":"right","response":"left","rt":1432.3999999985,"correct":false,"confidence":5},{"trial_n":30,"n_dots":3.25,"target":"left","response":"left","rt":2491,"correct":true,"confidence":3},{"trial_n":31,"n_dots":3.25,"target":"left","response":"left","rt":3349.5999999978,"correct":true,"confidence":4},{"trial_n":32,"n_dots":3.15,"target":"left","response":"right","rt":940.40000000224,"correct":false,"confidence":4},{"trial_n":33,"n_dots":3.25,"target":"right","response":"left","rt":1307,"correct":false,"confidence":5},{"trial_n":34,"n_dots":3.35,"target":"right","response":"right","rt":1041.6999999993,"correct":true,"confidence":5},{"trial_n":35,"n_dots":3.35,"target":"left","response":"left","rt":1189,"correct":true,"confidence":4},{"trial_n":36,"n_dots":3.25,"target":"right","response":"right","rt":446,"correct":true,"confidence":5},{"trial_n":37,"n_dots":3.25,"target":"left","response":"right","rt":1457.6999999993,"correct":false,"confidence":5},{"trial_n":38,"n_dots":3.35,"target":"right","response":"right","rt":1076.1999999993,"correct":true,"confidence":4},{"trial_n":39,"n_dots":3.35,"target":"right","response":"right","rt":742.10000000149,"correct":true,"confidence":5},{"trial_n":40,"n_dots":3.25,"target":"right","response":"right","rt":1589.3999999985,"correct":true,"confidence":3},{"trial_n":41,"n_dots":3.25,"target":"right","response":"left","rt":530.30000000075,"correct":false,"confidence":4},{"trial_n":42,"n_dots":3.35,"target":"right","response":"right","rt":381.5,"correct":true,"confidence":5},{"trial_n":43,"n_dots":3.35,"target":"left","response":"left","rt":2197.6999999993,"correct":true,"confidence":3},{"trial_n":44,"n_dots":3.25,"target":"left","response":"left","rt":724.30000000075,"correct":true,"confidence":4},{"trial_n":45,"n_dots":3.25,"target":"left","response":"right","rt":1115.8000000007,"correct":false,"confidence":5},{"trial_n":46,"n_dots":3.35,"target":"right","response":"right","rt":482.10000000149,"correct":true,"confidence":4},{"trial_n":47,"n_dots":3.35,"target":"right","response":"right","rt":530.90000000224,"correct":true,"confidence":5},{"trial_n":48,"n_dots":3.25,"target":"right","response":"right","rt":601.5,"correct":true,"confidence":5},{"trial_n":49,"n_dots":3.25,"target":"left","response":"left","rt":532.89999999851,"correct":true,"confidence":4},{"trial_n":50,"n_dots":3.15,"target":"right","response":"right","rt":2263.1000000015,"correct":true,"confidence":4},{"trial_n":51,"n_dots":3.15,"target":"right","response":"right","rt":1057.3000000007,"correct":true,"confidence":5},{"trial_n":52,"n_dots":3.05,"target":"left","response":"left","rt":1979.6000000015,"correct":true,"confidence":4},{"trial_n":53,"n_dots":3.05,"target":"right","response":"left","rt":1160.6000000015,"correct":false,"confidence":4},{"trial_n":54,"n_dots":3.15,"target":"right","response":"right","rt":757.69999999925,"correct":true,"confidence":4},{"trial_n":55,"n_dots":3.15,"target":"right","response":"left","rt":521.30000000075,"correct":false,"confidence":4},{"trial_n":56,"n_dots":3.25,"target":"right","response":"left","rt":2338.299999997,"correct":false,"confidence":5},{"trial_n":57,"n_dots":3.35,"target":"left","response":"left","rt":541.80000000075,"correct":true,"confidence":5},{"trial_n":58,"n_dots":3.35,"target":"left","response":"right","rt":2055.4000000022,"correct":false,"confidence":3},{"trial_n":59,"n_dots":3.45,"target":"right","response":"right","rt":8697.6999999993,"correct":true,"confidence":5},{"trial_n":60,"n_dots":3.45,"target":"left","response":"left","rt":334,"correct":true,"confidence":6},{"trial_n":61,"n_dots":3.35,"target":"right","response":"left","rt":2059.6999999993,"correct":false,"confidence":5},{"trial_n":62,"n_dots":3.45,"target":"right","response":"right","rt":279.60000000149,"correct":true,"confidence":6},{"trial_n":63,"n_dots":3.45,"target":"right","response":"right","rt":1448.1000000015,"correct":true,"confidence":4},{"trial_n":64,"n_dots":3.35,"target":"right","response":"right","rt":1480.3999999985,"correct":true,"confidence":4},{"trial_n":65,"n_dots":3.35,"target":"left","response":"right","rt":2259,"correct":false,"confidence":4},{"trial_n":66,"n_dots":3.45,"target":"left","response":"left","rt":349,"correct":true,"confidence":5},{"trial_n":67,"n_dots":3.45,"target":"right","response":"right","rt":328.5,"correct":true,"confidence":5},{"trial_n":68,"n_dots":3.35,"target":"right","response":"right","rt":846,"correct":true,"confidence":5},{"trial_n":69,"n_dots":3.35,"target":"left","response":"left","rt":355.79999999702,"correct":true,"confidence":5},{"trial_n":70,"n_dots":3.25,"target":"left","response":"left","rt":297.39999999851,"correct":true,"confidence":6},{"trial_n":71,"n_dots":3.25,"target":"right","response":"left","rt":870.90000000224,"correct":false,"confidence":4},{"trial_n":72,"n_dots":3.35,"target":"right","response":"left","rt":1253,"correct":false,"confidence":4},{"trial_n":73,"n_dots":3.45,"target":"left","response":"left","rt":1093.1000000015,"correct":true,"confidence":6},{"trial_n":74,"n_dots":3.45,"target":"left","response":"left","rt":615.09999999776,"correct":true,"confidence":4},{"trial_n":75,"n_dots":3.35,"target":"right","response":"right","rt":1135.3000000007,"correct":true,"confidence":3},{"trial_n":76,"n_dots":3.35,"target":"left","response":"left","rt":923.19999999925,"correct":true,"confidence":5},{"trial_n":77,"n_dots":3.25,"target":"right","response":"left","rt":900.89999999851,"correct":false,"confidence":3},{"trial_n":78,"n_dots":3.35,"target":"left","response":"left","rt":579.79999999702,"correct":true,"confidence":5},{"trial_n":79,"n_dots":3.35,"target":"right","response":"right","rt":202.19999999925,"correct":true,"confidence":6},{"trial_n":80,"n_dots":3.25,"target":"right","response":"left","rt":670.19999999925,"correct":false,"confidence":3},{"trial_n":81,"n_dots":3.35,"target":"left","response":"left","rt":321.10000000149,"correct":true,"confidence":5},{"trial_n":82,"n_dots":3.35,"target":"left","response":"left","rt":337.10000000149,"correct":true,"confidence":5},{"trial_n":83,"n_dots":3.25,"target":"left","response":"left","rt":1023.1999999993,"correct":true,"confidence":4},{"trial_n":84,"n_dots":3.25,"target":"left","response":"left","rt":475.40000000224,"correct":true,"confidence":5},{"trial_n":85,"n_dots":3.15,"target":"left","response":"left","rt":524.39999999851,"correct":true,"confidence":5},{"trial_n":86,"n_dots":3.15,"target":"left","response":"left","rt":256.89999999851,"correct":true,"confidence":6},{"trial_n":87,"n_dots":3.05,"target":"left","response":"left","rt":299.69999999925,"correct":true,"confidence":6},{"trial_n":88,"n_dots":3.05,"target":"right","response":"left","rt":1043.299999997,"correct":false,"confidence":4},{"trial_n":89,"n_dots":3.15,"target":"left","response":"left","rt":738.30000000075,"correct":true,"confidence":4},{"trial_n":90,"n_dots":3.15,"target":"left","response":"left","rt":667.80000000075,"correct":true,"confidence":4},{"trial_n":91,"n_dots":3.05,"target":"right","response":"right","rt":1533.5999999978,"correct":true,"confidence":4},{"trial_n":92,"n_dots":3.05,"target":"left","response":"right","rt":621.19999999925,"correct":false,"confidence":4},{"trial_n":93,"n_dots":3.15,"target":"left","response":"left","rt":357,"correct":true,"confidence":3},{"trial_n":94,"n_dots":3.15,"target":"left","response":"left","rt":426.59999999776,"correct":true,"confidence":5},{"trial_n":95,"n_dots":3.05,"target":"right","response":"left","rt":1337,"correct":false,"confidence":5},{"trial_n":96,"n_dots":3.15,"target":"left","response":"left","rt":269.10000000149,"correct":true,"confidence":5},{"trial_n":97,"n_dots":3.15,"target":"left","response":"left","rt":431.79999999702,"correct":true,"confidence":5},{"trial_n":98,"n_dots":3.05,"target":"right","response":"right","rt":285.20000000298,"correct":true,"confidence":3},{"trial_n":99,"n_dots":3.05,"target":"right","response":"left","rt":278.89999999851,"correct":false,"confidence":4},{"trial_n":100,"n_dots":3.15,"target":"right","response":"right","rt":216.80000000075,"correct":true,"confidence":6},{"trial_n":101,"n_dots":3.15,"target":"right","response":"left","rt":596.19999999925,"correct":false,"confidence":4},{"trial_n":102,"n_dots":3.25,"target":"left","response":"left","rt":333.40000000224,"correct":true,"confidence":5},{"trial_n":103,"n_dots":3.25,"target":"right","response":"right","rt":279.10000000149,"correct":true,"confidence":4},{"trial_n":104,"n_dots":3.15,"target":"left","response":"left","rt":610,"correct":true,"confidence":4},{"trial_n":105,"n_dots":3.15,"target":"right","response":"right","rt":240.69999999925,"correct":true,"confidence":4},{"trial_n":106,"n_dots":3.05,"target":"left","response":"left","rt":335.90000000224,"correct":true,"confidence":4},{"trial_n":107,"n_dots":3.05,"target":"left","response":"right","rt":315.20000000298,"correct":false,"confidence":5},{"trial_n":108,"n_dots":3.15,"target":"right","response":"right","rt":651.60000000149,"correct":true,"confidence":5},{"trial_n":109,"n_dots":3.15,"target":"right","response":"right","rt":459.60000000149,"correct":true,"confidence":6},{"trial_n":110,"n_dots":3.05,"target":"right","response":"right","rt":530.29999999702,"correct":true,"confidence":4},{"trial_n":111,"n_dots":3.05,"target":"right","response":"right","rt":1762.9000000022,"correct":true,"confidence":3},{"trial_n":112,"n_dots":2.95,"target":"left","response":"left","rt":292,"correct":true,"confidence":5},{"trial_n":113,"n_dots":2.95,"target":"right","response":"right","rt":284.5,"correct":true,"confidence":5},{"trial_n":114,"n_dots":2.85,"target":"right","response":"left","rt":1059.5,"correct":false,"confidence":3},{"trial_n":115,"n_dots":2.95,"target":"right","response":"right","rt":693,"correct":true,"confidence":4},{"trial_n":116,"n_dots":2.95,"target":"right","response":"right","rt":737.30000000075,"correct":true,"confidence":5},{"trial_n":117,"n_dots":2.85,"target":"left","response":"right","rt":1958.8000000007,"correct":false,"confidence":3},{"trial_n":118,"n_dots":2.95,"target":"right","response":"right","rt":1225.6000000015,"correct":true,"confidence":3},{"trial_n":119,"n_dots":2.95,"target":"right","response":"right","rt":432.89999999851,"correct":true,"confidence":5},{"trial_n":120,"n_dots":2.85,"target":"left","response":"left","rt":331.69999999925,"correct":true,"confidence":5},{"trial_n":121,"n_dots":2.85,"target":"left","response":"left","rt":1352.0999999978,"correct":true,"confidence":2},{"trial_n":122,"n_dots":2.75,"target":"right","response":"right","rt":656.09999999776,"correct":true,"confidence":3},{"trial_n":123,"n_dots":2.75,"target":"left","response":"left","rt":416.60000000149,"correct":true,"confidence":4},{"trial_n":124,"n_dots":2.65,"target":"right","response":"right","rt":747.40000000224,"correct":true,"confidence":4},{"trial_n":125,"n_dots":2.65,"target":"right","response":"left","rt":343,"correct":false,"confidence":4},{"trial_n":126,"n_dots":2.75,"target":"left","response":"left","rt":579.20000000298,"correct":true,"confidence":4},{"trial_n":127,"n_dots":2.75,"target":"right","response":"left","rt":719.19999999925,"correct":false,"confidence":3},{"trial_n":128,"n_dots":2.85,"target":"right","response":"left","rt":829.39999999851,"correct":false,"confidence":3},{"trial_n":129,"n_dots":2.95,"target":"left","response":"right","rt":648.30000000075,"correct":false,"confidence":4},{"trial_n":130,"n_dots":3.05,"target":"right","response":"right","rt":930.30000000075,"correct":true,"confidence":4},{"trial_n":131,"n_dots":3.05,"target":"right","response":"right","rt":793.20000000298,"correct":true,"confidence":4},{"trial_n":132,"n_dots":2.95,"target":"right","response":"left","rt":807.5,"correct":false,"confidence":4},{"trial_n":133,"n_dots":3.05,"target":"right","response":"right","rt":405.19999999925,"correct":true,"confidence":4},{"trial_n":134,"n_dots":3.05,"target":"left","response":"left","rt":447.59999999776,"correct":true,"confidence":5},{"trial_n":135,"n_dots":2.95,"target":"right","response":"right","rt":334.10000000149,"correct":true,"confidence":4},{"trial_n":136,"n_dots":2.95,"target":"left","response":"left","rt":332.90000000224,"correct":true,"confidence":5},{"trial_n":137,"n_dots":2.85,"target":"left","response":"left","rt":390.20000000298,"correct":true,"confidence":6},{"trial_n":138,"n_dots":2.85,"target":"left","response":"left","rt":324.70000000298,"correct":true,"confidence":6},{"trial_n":139,"n_dots":2.75,"target":"left","response":"left","rt":1432.8000000007,"correct":true,"confidence":5},{"trial_n":140,"n_dots":2.75,"target":"right","response":"left","rt":398.5,"correct":false,"confidence":4},{"trial_n":141,"n_dots":2.85,"target":"left","response":"left","rt":309.40000000224,"correct":true,"confidence":5},{"trial_n":142,"n_dots":2.85,"target":"left","response":"right","rt":294.30000000075,"correct":false,"confidence":4},{"trial_n":143,"n_dots":2.95,"target":"right","response":"left","rt":539.80000000075,"correct":false,"confidence":4},{"trial_n":144,"n_dots":3.05,"target":"left","response":"left","rt":429.19999999925,"correct":true,"confidence":4},{"trial_n":145,"n_dots":3.05,"target":"left","response":"left","rt":395.19999999925,"correct":true,"confidence":5},{"trial_n":146,"n_dots":2.95,"target":"left","response":"left","rt":390.60000000149,"correct":true,"confidence":4},{"trial_n":147,"n_dots":2.95,"target":"right","response":"right","rt":470,"correct":true,"confidence":5},{"trial_n":148,"n_dots":2.85,"target":"right","response":"right","rt":350.80000000075,"correct":true,"confidence":5},{"trial_n":149,"n_dots":2.85,"target":"left","response":"left","rt":810,"correct":true,"confidence":3},{"trial_n":150,"n_dots":2.75,"target":"left","response":"right","rt":442.59999999776,"correct":false,"confidence":5},{"trial_n":151,"n_dots":2.85,"target":"left","response":"left","rt":897,"correct":true,"confidence":4},{"trial_n":152,"n_dots":2.85,"target":"right","response":"left","rt":1008.3999999985,"correct":false,"confidence":3},{"trial_n":153,"n_dots":2.95,"target":"right","response":"right","rt":298,"correct":true,"confidence":5},{"trial_n":154,"n_dots":2.95,"target":"left","response":"left","rt":515.89999999851,"correct":true,"confidence":4},{"trial_n":155,"n_dots":2.85,"target":"left","response":"left","rt":599.19999999925,"correct":true,"confidence":4},{"trial_n":156,"n_dots":2.85,"target":"right","response":"left","rt":939.5,"correct":false,"confidence":3},{"trial_n":157,"n_dots":2.95,"target":"right","response":"right","rt":319.59999999776,"correct":true,"confidence":5},{"trial_n":158,"n_dots":2.95,"target":"left","response":"left","rt":653.29999999702,"correct":true,"confidence":4},{"trial_n":159,"n_dots":2.85,"target":"left","response":"left","rt":308,"correct":true,"confidence":5},{"trial_n":160,"n_dots":2.85,"target":"right","response":"left","rt":324.80000000075,"correct":false,"confidence":5},{"trial_n":161,"n_dots":2.95,"target":"right","response":"left","rt":1420.9000000022,"correct":false,"confidence":4},{"trial_n":162,"n_dots":3.05,"target":"right","response":"left","rt":726.30000000075,"correct":false,"confidence":4},{"trial_n":163,"n_dots":3.15,"target":"left","response":"left","rt":314.19999999925,"correct":true,"confidence":6},{"trial_n":164,"n_dots":3.15,"target":"left","response":"left","rt":323,"correct":true,"confidence":6},{"trial_n":165,"n_dots":3.05,"target":"right","response":"left","rt":1292.5,"correct":false,"confidence":4},{"trial_n":166,"n_dots":3.15,"target":"left","response":"left","rt":1871.200000003,"correct":true,"confidence":3},{"trial_n":167,"n_dots":3.15,"target":"left","response":"left","rt":1840.0999999978,"correct":true,"confidence":4},{"trial_n":168,"n_dots":3.05,"target":"left","response":"left","rt":294,"correct":true,"confidence":4},{"trial_n":169,"n_dots":3.05,"target":"left","response":"left","rt":587.69999999925,"correct":true,"confidence":4},{"trial_n":170,"n_dots":2.95,"target":"right","response":"right","rt":314.79999999702,"correct":true,"confidence":5},{"trial_n":171,"n_dots":2.95,"target":"right","response":"right","rt":951.90000000224,"correct":true,"confidence":4},{"trial_n":172,"n_dots":2.85,"target":"left","response":"left","rt":1569,"correct":true,"confidence":3},{"trial_n":173,"n_dots":2.85,"target":"right","response":"right","rt":302.19999999925,"correct":true,"confidence":5},{"trial_n":174,"n_dots":2.75,"target":"right","response":"right","rt":966.69999999925,"correct":true,"confidence":3},{"trial_n":175,"n_dots":2.75,"target":"left","response":"right","rt":768.69999999925,"correct":false,"confidence":4},{"trial_n":176,"n_dots":2.85,"target":"left","response":"left","rt":404.5,"correct":true,"confidence":4},{"trial_n":177,"n_dots":2.85,"target":"right","response":"left","rt":1172.3999999985,"correct":false,"confidence":4},{"trial_n":178,"n_dots":2.95,"target":"left","response":"left","rt":2335.799999997,"correct":true,"confidence":4},{"trial_n":179,"n_dots":2.95,"target":"right","response":"right","rt":157.19999999925,"correct":true,"confidence":5},{"trial_n":180,"n_dots":2.85,"target":"left","response":"left","rt":29.800000000745,"correct":true,"confidence":4},{"trial_n":181,"n_dots":2.85,"target":"left","response":"left","rt":664.30000000075,"correct":true,"confidence":4},{"trial_n":182,"n_dots":2.75,"target":"left","response":"right","rt":547,"correct":false,"confidence":4},{"trial_n":183,"n_dots":2.85,"target":"right","response":"right","rt":633.29999999702,"correct":true,"confidence":3},{"trial_n":184,"n_dots":2.85,"target":"right","response":"right","rt":519.90000000224,"correct":true,"confidence":3},{"trial_n":185,"n_dots":2.75,"target":"left","response":"left","rt":1860.6000000015,"correct":true,"confidence":3},{"trial_n":186,"n_dots":2.75,"target":"left","response":"left","rt":1620.3999999985,"correct":true,"confidence":2},{"trial_n":187,"n_dots":2.65,"target":"right","response":"right","rt":705.69999999925,"correct":true,"confidence":4},{"trial_n":188,"n_dots":2.65,"target":"right","response":"left","rt":1644.3999999985,"correct":false,"confidence":4},{"trial_n":189,"n_dots":2.75,"target":"right","response":"left","rt":1205.3000000007,"correct":false,"confidence":2},{"trial_n":190,"n_dots":2.85,"target":"left","response":"left","rt":982.39999999851,"correct":true,"confidence":4},{"trial_n":191,"n_dots":2.85,"target":"right","response":"left","rt":675.30000000075,"correct":false,"confidence":3},{"trial_n":192,"n_dots":2.95,"target":"left","response":"left","rt":1107.1000000015,"correct":true,"confidence":3},{"trial_n":193,"n_dots":2.95,"target":"right","response":"left","rt":546.10000000149,"correct":false,"confidence":5},{"trial_n":194,"n_dots":3.05,"target":"right","response":"right","rt":239.20000000298,"correct":true,"confidence":6}]