[{"trial_n":1,"n_dots":4.25,"target":"left","response":"left","rt":10673.300000012,"correct":true,"confidence":-1},{"trial_n":2,"n_dots":4.25,"target":"left","response":"right","rt":367.10000002384,"correct":false,"confidence":-1},{"trial_n":3,"n_dots":4.65,"target":"left","response":"left","rt":703.19999998808,"correct":true,"confidence":-1},{"trial_n":4,"n_dots":4.65,"target":"right","response":"right","rt":302.69999998808,"correct":true,"confidence":-1},{"trial_n":5,"n_dots":4.25,"target":"left","response":"left","rt":427.30000001192,"correct":true,"confidence":-1},{"trial_n":6,"n_dots":4.25,"target":"left","response":"left","rt":448.90000003576,"correct":true,"confidence":-1},{"trial_n":7,"n_dots":3.85,"target":"right","response":"left","rt":490.39999997616,"correct":false,"confidence":-1},{"trial_n":8,"n_dots":4.05,"target":"right","response":"right","rt":390.89999997616,"correct":true,"confidence":-1},{"trial_n":9,"n_dots":4.05,"target":"right","response":"right","rt":620.30000001192,"correct":true,"confidence":-1},{"trial_n":10,"n_dots":3.85,"target":"right","response":"right","rt":308.39999997616,"correct":true,"confidence":-1},{"trial_n":11,"n_dots":3.85,"target":"left","response":"right","rt":1004.8000000119,"correct":false,"confidence":-1},{"trial_n":12,"n_dots":4.05,"target":"left","response":"left","rt":584.5,"correct":true,"confidence":-1},{"trial_n":13,"n_dots":4.05,"target":"right","response":"right","rt":146.30000001192,"correct":true,"confidence":-1},{"trial_n":14,"n_dots":3.95,"target":"left","response":"left","rt":1064.4000000358,"correct":true,"confidence":-1},{"trial_n":15,"n_dots":3.95,"target":"right","response":"right","rt":299.30000001192,"correct":true,"confidence":-1},{"trial_n":16,"n_dots":3.85,"target":"left","response":"right","rt":760.10000002384,"correct":false,"confidence":-1},{"trial_n":17,"n_dots":3.95,"target":"left","response":"left","rt":1864.3999999762,"correct":true,"confidence":-1},{"trial_n":18,"n_dots":3.95,"target":"left","response":"right","rt":1180.3000000119,"correct":false,"confidence":-1},{"trial_n":19,"n_dots":4.05,"target":"left","response":"left","rt":879.69999998808,"correct":true,"confidence":-1},{"trial_n":20,"n_dots":4.05,"target":"left","response":"left","rt":624.39999997616,"correct":true,"confidence":-1},{"trial_n":21,"n_dots":3.95,"target":"left","response":"left","rt":579.90000003576,"correct":true,"confidence":-1},{"trial_n":22,"n_dots":3.95,"target":"right","response":"right","rt":717.80000001192,"correct":true,"confidence":-1},{"trial_n":23,"n_dots":3.85,"target":"left","response":"left","rt":453.70000004768,"correct":true,"confidence":-1},{"trial_n":24,"n_dots":3.85,"target":"left","response":"right","rt":25.599999964237,"correct":false,"confidence":-1},{"trial_n":25,"n_dots":3.95,"target":"right","response":"left","rt":908.20000004768,"correct":false,"confidence":-1},{"trial_n":26,"n_dots":4.05,"target":"left","response":"right","rt":791.89999997616,"correct":false,"confidence":-1},{"trial_n":27,"n_dots":4.15,"target":"left","response":"left","rt":1163,"correct":true,"confidence":4},{"trial_n":28,"n_dots":4.15,"target":"right","response":"left","rt":498.19999998808,"correct":false,"confidence":4},{"trial_n":29,"n_dots":4.25,"target":"right","response":"right","rt":279.30000001192,"correct":true,"confidence":4},{"trial_n":30,"n_dots":4.25,"target":"right","response":"right","rt":620.60000002384,"correct":true,"confidence":5},{"trial_n":31,"n_dots":4.15,"target":"right","response":"right","rt":316.19999998808,"correct":true,"confidence":5},{"trial_n":32,"n_dots":4.15,"target":"left","response":"left","rt":339.69999998808,"correct":true,"confidence":5},{"trial_n":33,"n_dots":4.05,"target":"right","response":"right","rt":477.30000001192,"correct":true,"confidence":3},{"trial_n":34,"n_dots":4.05,"target":"right","response":"right","rt":395.09999996424,"correct":true,"confidence":5},{"trial_n":35,"n_dots":3.95,"target":"left","response":"left","rt":335.80000001192,"correct":true,"confidence":5},{"trial_n":36,"n_dots":3.95,"target":"right","response":"right","rt":519.29999995232,"correct":true,"confidence":3},{"trial_n":37,"n_dots":3.85,"target":"left","response":"left","rt":1405.6999999881,"correct":true,"confidence":3},{"trial_n":38,"n_dots":3.85,"target":"right","response":"right","rt":974.60000002384,"correct":true,"confidence":5},{"trial_n":39,"n_dots":3.75,"target":"right","response":"left","rt":3694.5999999642,"correct":false,"confidence":2},{"trial_n":40,"n_dots":3.85,"target":"left","response":"right","rt":1209.8999999762,"correct":false,"confidence":5},{"trial_n":41,"n_dots":3.95,"target":"left","response":"right","rt":51536.900000036,"correct":false,"confidence":3},{"trial_n":42,"n_dots":4.05,"target":"right","response":"left","rt":1432.9000000358,"correct":false,"confidence":2},{"trial_n":43,"n_dots":4.15,"target":"right","response":"right","rt":928.09999996424,"correct":true,"confidence":4},{"trial_n":44,"n_dots":4.15,"target":"right","response":"right","rt":930.60000002384,"correct":true,"confidence":4},{"trial_n":45,"n_dots":4.05,"target":"right","response":"right","rt":703.89999997616,"correct":true,"confidence":5},{"trial_n":46,"n_dots":4.05,"target":"left","response":"right","rt":1935.8999999762,"correct":false,"confidence":3},{"trial_n":47,"n_dots":4.15,"target":"right","response":"right","rt":1208.6999999881,"correct":true,"confidence":5},{"trial_n":48,"n_dots":4.15,"target":"left","response":"right","rt":2113.5,"correct":false,"confidence":3},{"trial_n":49,"n_dots":4.25,"target":"right","response":"right","rt":521,"correct":true,"confidence":4},{"trial_n":50,"n_dots":4.25,"target":"left","response":"right","rt":296.89999997616,"correct":false,"confidence":4},{"trial_n":51,"n_dots":4.35,"target":"right","response":"right","rt":3852.3999999762,"correct":true,"confidence":4},{"trial_n":52,"n_dots":4.35,"target":"left","response":"left","rt":762.60000002384,"correct":true,"confidence":5},{"trial_n":53,"n_dots":4.25,"target":"left","response":"left","rt":1284.0999999642,"correct":true,"confidence":5},{"trial_n":54,"n_dots":4.25,"target":"right","response":"right","rt":1789.6999999881,"correct":true,"confidence":5},{"trial_n":55,"n_dots":4.15,"target":"left","response":"left","rt":6453.5,"correct":true,"confidence":3},{"trial_n":56,"n_dots":4.15,"target":"right","response":"right","rt":2028.8999999762,"correct":true,"confidence":5},{"trial_n":57,"n_dots":4.05,"target":"right","response":"right","rt":684.69999998808,"correct":true,"confidence":4},{"trial_n":58,"n_dots":4.05,"target":"left","response":"left","rt":976.69999998808,"correct":true,"confidence":3},{"trial_n":59,"n_dots":3.95,"target":"right","response":"right","rt":823.20000004768,"correct":true,"confidence":5},{"trial_n":60,"n_dots":3.95,"target":"right","response":"right","rt":844.20000004768,"correct":true,"confidence":3},{"trial_n":61,"n_dots":3.85,"target":"left","response":"right","rt":933.5,"correct":false,"confidence":5},{"trial_n":62,"n_dots":3.95,"target":"right","response":"right","rt":1098.5,"correct":true,"confidence":3},{"trial_n":63,"n_dots":3.95,"target":"left","response":"left","rt":1468.4000000358,"correct":true,"confidence":3},{"trial_n":64,"n_dots":3.85,"target":"right","response":"right","rt":2036.7999999523,"correct":true,"confidence":5},{"trial_n":65,"n_dots":3.85,"target":"left","response":"left","rt":1870.7000000477,"correct":true,"confidence":3},{"trial_n":66,"n_dots":3.75,"target":"right","response":"right","rt":393.39999997616,"correct":true,"confidence":5},{"trial_n":67,"n_dots":3.75,"target":"right","response":"right","rt":1721.3999999762,"correct":true,"confidence":3},{"trial_n":68,"n_dots":3.65,"target":"right","response":"right","rt":1195.1999999881,"correct":true,"confidence":4},{"trial_n":69,"n_dots":3.65,"target":"left","response":"left","rt":788.80000001192,"correct":true,"confidence":4},{"trial_n":70,"n_dots":3.55,"target":"left","response":"right","rt":1135.7999999523,"correct":false,"confidence":4},{"trial_n":71,"n_dots":3.65,"target":"right","response":"right","rt":926.60000002384,"correct":true,"confidence":3},{"trial_n":72,"n_dots":3.65,"target":"right","response":"right","rt":1047.4000000358,"correct":true,"confidence":4},{"trial_n":73,"n_dots":3.55,"target":"left","response":"left","rt":1562.3999999762,"correct":true,"confidence":2},{"trial_n":74,"n_dots":3.55,"target":"right","response":"right","rt":905.10000002384,"correct":true,"confidence":4},{"trial_n":75,"n_dots":3.45,"target":"left","response":"left","rt":1033.6999999881,"correct":true,"confidence":4},{"trial_n":76,"n_dots":3.45,"target":"right","response":"left","rt":14998.199999988,"correct":false,"confidence":3},{"trial_n":77,"n_dots":3.55,"target":"left","response":"right","rt":1212.6999999881,"correct":false,"confidence":4},{"trial_n":78,"n_dots":3.65,"target":"left","response":"left","rt":1147.1000000238,"correct":true,"confidence":3},{"trial_n":79,"n_dots":3.65,"target":"right","response":"right","rt":1176.5,"correct":true,"confidence":5},{"trial_n":80,"n_dots":3.55,"target":"left","response":"right","rt":1521,"correct":false,"confidence":4},{"trial_n":81,"n_dots":3.65,"target":"right","response":"left","rt":2299.0999999642,"correct":false,"confidence":2},{"trial_n":82,"n_dots":3.75,"target":"right","response":"right","rt":3243.7000000477,"correct":true,"confidence":5},{"trial_n":83,"n_dots":3.75,"target":"left","response":"left","rt":1225.3000000119,"correct":true,"confidence":4},{"trial_n":84,"n_dots":3.65,"target":"right","response":"right","rt":989.19999998808,"correct":true,"confidence":5},{"trial_n":85,"n_dots":3.65,"target":"left","response":"left","rt":4949.5,"correct":true,"confidence":3},{"trial_n":86,"n_dots":3.55,"target":"left","response":"right","rt":735.19999998808,"correct":false,"confidence":5},{"trial_n":87,"n_dots":3.65,"target":"left","response":"left","rt":940.09999996424,"correct":true,"confidence":3},{"trial_n":88,"n_dots":3.65,"target":"left","response":"left","rt":1383,"correct":true,"confidence":4},{"trial_n":89,"n_dots":3.55,"target":"right","response":"right","rt":1271.9000000358,"correct":true,"confidence":4},{"trial_n":90,"n_dots":3.55,"target":"left","response":"right","rt":1094.6999999881,"correct":false,"confidence":3},{"trial_n":91,"n_dots":3.65,"target":"right","response":"right","rt":2401.5,"correct":true,"confidence":3},{"trial_n":92,"n_dots":3.65,"target":"left","response":"right","rt":977.40000003576,"correct":false,"confidence":4},{"trial_n":93,"n_dots":3.75,"target":"left","response":"left","rt":1000.5,"correct":true,"confidence":3},{"trial_n":94,"n_dots":3.75,"target":"right","response":"right","rt":989.39999997616,"correct":true,"confidence":3},{"trial_n":95,"n_dots":3.65,"target":"left","response":"left","rt":1898.2999999523,"correct":true,"confidence":5},{"trial_n":96,"n_dots":3.65,"target":"left","response":"left","rt":2632.8000000119,"correct":true,"confidence":3},{"trial_n":97,"n_dots":3.55,"target":"right","response":"right","rt":1529,"correct":true,"confidence":4},{"trial_n":98,"n_dots":3.55,"target":"left","response":"left","rt":2059.5,"correct":true,"confidence":3},{"trial_n":99,"n_dots":3.45,"target":"left","response":"right","rt":4387.8000000119,"correct":false,"confidence":3},{"trial_n":100,"n_dots":3.55,"target":"right","response":"right","rt":1018.7999999523,"correct":true,"confidence":3},{"trial_n":101,"n_dots":3.55,"target":"right","response":"right","rt":1457.1999999881,"correct":true,"confidence":3},{"trial_n":102,"n_dots":3.45,"target":"left","response":"right","rt":1311.6999999881,"correct":false,"confidence":4},{"trial_n":103,"n_dots":3.55,"target":"left","response":"left","rt":1328.6999999881,"correct":true,"confidence":3},{"trial_n":104,"n_dots":3.55,"target":"left","response":"right","rt":2356,"correct":false,"confidence":4},{"trial_n":105,"n_dots":3.65,"target":"left","response":"right","rt":993.19999998808,"correct":false,"confidence":3},{"trial_n":106,"n_dots":3.75,"target":"right","response":"right","rt":2003.5999999642,"correct":true,"confidence":2},{"trial_n":107,"n_dots":3.75,"target":"left","response":"left","rt":1855.8000000119,"correct":true,"confidence":4},{"trial_n":108,"n_dots":3.65,"target":"right","response":"right","rt":1098.1999999881,"correct":true,"confidence":5},{"trial_n":109,"n_dots":3.65,"target":"right","response":"left","rt":2004.3999999762,"correct":false,"confidence":3},{"trial_n":110,"n_dots":3.75,"target":"left","response":"right","rt":873.60000002384,"correct":false,"confidence":5},{"trial_n":111,"n_dots":3.85,"target":"right","response":"right","rt":495.19999998808,"correct":true,"confidence":3},{"trial_n":112,"n_dots":3.85,"target":"left","response":"right","rt":868.19999998808,"correct":false,"confidence":5},{"trial_n":113,"n_dots":3.95,"target":"right","response":"right","rt":1184.8000000119,"correct":true,"confidence":4},{"trial_n":114,"n_dots":3.95,"target":"right","response":"right","rt":1387,"correct":true,"confidence":5},{"trial_n":115,"n_dots":3.85,"target":"right","response":"left","rt":3602.3999999762,"correct":false,"confidence":3},{"trial_n":116,"n_dots":3.95,"target":"right","response":"right","rt":571.60000002384,"correct":true,"confidence":5},{"trial_n":117,"n_dots":3.95,"target":"right","response":"right","rt":927.80000001192,"correct":true,"confidence":5},{"trial_n":118,"n_dots":3.85,"target":"right","response":"right","rt":607.30000001192,"correct":true,"confidence":5},{"trial_n":119,"n_dots":3.85,"target":"left","response":"left","rt":5204.1000000238,"correct":true,"confidence":3},{"trial_n":120,"n_dots":3.75,"target":"right","response":"right","rt":846.90000003576,"correct":true,"confidence":4},{"trial_n":121,"n_dots":3.75,"target":"left","response":"left","rt":1447,"correct":true,"confidence":5},{"trial_n":122,"n_dots":3.65,"target":"left","response":"right","rt":884.10000002384,"correct":false,"confidence":5},{"trial_n":123,"n_dots":3.75,"target":"left","response":"left","rt":615.69999998808,"correct":true,"confidence":3},{"trial_n":124,"n_dots":3.75,"target":"left","response":"left","rt":830.70000004768,"correct":true,"confidence":5},{"trial_n":125,"n_dots":3.65,"target":"right","response":"right","rt":645.5,"correct":true,"confidence":4},{"trial_n":126,"n_dots":3.65,"target":"left","response":"left","rt":664.79999995232,"correct":true,"confidence":3},{"trial_n":127,"n_dots":3.55,"target":"right","response":"right","rt":673.39999997616,"correct":true,"confidence":5},{"trial_n":128,"n_dots":3.55,"target":"left","response":"left","rt":624.20000004768,"correct":true,"confidence":3},{"trial_n":129,"n_dots":3.45,"target":"left","response":"left","rt":908.80000001192,"correct":true,"confidence":5},{"trial_n":130,"n_dots":3.45,"target":"right","response":"right","rt":286.39999997616,"correct":true,"confidence":3},{"trial_n":131,"n_dots":3.35,"target":"right","response":"right","rt":312.80000001192,"correct":true,"confidence":5},{"trial_n":132,"n_dots":3.35,"target":"right","response":"right","rt":500.89999997616,"correct":true,"confidence":4},{"trial_n":133,"n_dots":3.25,"target":"right","response":"right","rt":634.09999996424,"correct":true,"confidence":4},{"trial_n":134,"n_dots":3.25,"target":"right","response":"right","rt":344.5,"correct":true,"confidence":3},{"trial_n":135,"n_dots":3.15,"target":"right","response":"right","rt":419.19999998808,"correct":true,"confidence":2},{"trial_n":136,"n_dots":3.15,"target":"left","response":"right","rt":1167.8000000119,"correct":false,"confidence":4},{"trial_n":137,"n_dots":3.25,"target":"left","response":"right","rt":4612.4000000358,"correct":false,"confidence":4},{"trial_n":138,"n_dots":3.35,"target":"right","response":"right","rt":932.20000004768,"correct":true,"confidence":3},{"trial_n":139,"n_dots":3.35,"target":"right","response":"right","rt":2416.8999999762,"correct":true,"confidence":5},{"trial_n":140,"n_dots":3.25,"target":"left","response":"left","rt":1105.8000000119,"correct":true,"confidence":3},{"trial_n":141,"n_dots":3.25,"target":"right","response":"right","rt":853.5,"correct":true,"confidence":5},{"trial_n":142,"n_dots":3.15,"target":"right","response":"right","rt":1111.6000000238,"correct":true,"confidence":4},{"trial_n":143,"n_dots":3.15,"target":"left","response":"right","rt":993.90000003576,"correct":false,"confidence":4},{"trial_n":144,"n_dots":3.25,"target":"right","response":"right","rt":473.30000001192,"correct":true,"confidence":3},{"trial_n":145,"n_dots":3.25,"target":"left","response":"right","rt":4321,"correct":false,"confidence":3},{"trial_n":146,"n_dots":3.35,"target":"right","response":"right","rt":498.60000002384,"correct":true,"confidence":5},{"trial_n":147,"n_dots":3.35,"target":"left","response":"left","rt":1534.5999999642,"correct":true,"confidence":3},{"trial_n":148,"n_dots":3.25,"target":"right","response":"right","rt":3454.6000000238,"correct":true,"confidence":3},{"trial_n":149,"n_dots":3.25,"target":"right","response":"right","rt":2635.9000000358,"correct":true,"confidence":3},{"trial_n":150,"n_dots":3.15,"target":"right","response":"right","rt":1154.7999999523,"correct":true,"confidence":5},{"trial_n":151,"n_dots":3.15,"target":"left","response":"left","rt":578.90000003576,"correct":true,"confidence":3},{"trial_n":152,"n_dots":3.05,"target":"right","response":"right","rt":3838.6000000238,"correct":true,"confidence":2},{"trial_n":153,"n_dots":3.05,"target":"right","response":"right","rt":526.09999996424,"correct":true,"confidence":4},{"trial_n":154,"n_dots":2.95,"target":"left","response":"right","rt":308.19999998808,"correct":false,"confidence":3},{"trial_n":155,"n_dots":3.05,"target":"left","response":"right","rt":388.80000001192,"correct":false,"confidence":5},{"trial_n":156,"n_dots":3.15,"target":"right","response":"right","rt":301.19999998808,"correct":true,"confidence":3},{"trial_n":157,"n_dots":3.15,"target":"right","response":"right","rt":396.5,"correct":true,"confidence":5},{"trial_n":158,"n_dots":3.05,"target":"left","response":"left","rt":859.90000003576,"correct":true,"confidence":3},{"trial_n":159,"n_dots":3.05,"target":"right","response":"right","rt":351.5,"correct":true,"confidence":4},{"trial_n":160,"n_dots":2.95,"target":"left","response":"right","rt":744.89999997616,"correct":false,"confidence":4},{"trial_n":161,"n_dots":3.05,"target":"left","response":"left","rt":650,"correct":true,"confidence":3},{"trial_n":162,"n_dots":3.05,"target":"right","response":"right","rt":682.09999996424,"correct":true,"confidence":5},{"trial_n":163,"n_dots":2.95,"target":"left","response":"right","rt":890.90000003576,"correct":false,"confidence":3},{"trial_n":164,"n_dots":3.05,"target":"right","response":"right","rt":932.5,"correct":true,"confidence":3},{"trial_n":165,"n_dots":3.05,"target":"left","response":"right","rt":6588.6999999881,"correct":false,"confidence":5},{"trial_n":166,"n_dots":3.15,"target":"left","response":"left","rt":822.40000003576,"correct":true,"confidence":4},{"trial_n":167,"n_dots":3.15,"target":"left","response":"left","rt":2390.5,"correct":true,"confidence":3},{"trial_n":168,"n_dots":3.05,"target":"right","response":"right","rt":410,"correct":true,"confidence":4},{"trial_n":169,"n_dots":3.05,"target":"right","response":"right","rt":454.60000002384,"correct":true,"confidence":5},{"trial_n":170,"n_dots":2.95,"target":"left","response":"left","rt":1004.5999999642,"correct":true,"confidence":3},{"trial_n":171,"n_dots":2.95,"target":"left","response":"right","rt":1142,"correct":false,"confidence":4},{"trial_n":172,"n_dots":3.05,"target":"left","response":"right","rt":411.39999997616,"correct":false,"confidence":5},{"trial_n":173,"n_dots":3.15,"target":"right","response":"right","rt":387.60000002384,"correct":true,"confidence":3},{"trial_n":174,"n_dots":3.15,"target":"right","response":"right","rt":3055.4000000358,"correct":true,"confidence":2},{"trial_n":175,"n_dots":3.05,"target":"left","response":"right","rt":143.60000002384,"correct":false,"confidence":4},{"trial_n":176,"n_dots":3.15,"target":"left","response":"left","rt":315,"correct":true,"confidence":2},{"trial_n":177,"n_dots":3.15,"target":"right","response":"right","rt":343.19999998808,"correct":true,"confidence":4},{"trial_n":178,"n_dots":3.05,"target":"left","response":"right","rt":462.09999996424,"correct":false,"confidence":5},{"trial_n":179,"n_dots":3.15,"target":"right","response":"right","rt":840.39999997616,"correct":true,"confidence":3},{"trial_n":180,"n_dots":3.15,"target":"right","response":"left","rt":315.19999998808,"correct":false,"confidence":2},{"trial_n":181,"n_dots":3.25,"target":"right","response":"left","rt":440.39999997616,"correct":false,"confidence":4},{"trial_n":182,"n_dots":3.35,"target":"right","response":"left","rt":514.19999998808,"correct":false,"confidence":5},{"trial_n":183,"n_dots":3.45,"target":"left","response":"left","rt":435.20000004768,"correct":true,"confidence":5},{"trial_n":184,"n_dots":3.45,"target":"right","response":"right","rt":836.5,"correct":true,"confidence":2},{"trial_n":185,"n_dots":3.35,"target":"left","response":"right","rt":295.40000003576,"correct":false,"confidence":4},{"trial_n":186,"n_dots":3.45,"target":"left","response":"left","rt":530.5,"correct":true,"confidence":5},{"trial_n":187,"n_dots":3.45,"target":"left","response":"left","rt":378.5,"correct":true,"confidence":4},{"trial_n":188,"n_dots":3.35,"target":"left","response":"right","rt":1032.8000000119,"correct":false,"confidence":5},{"trial_n":189,"n_dots":3.45,"target":"right","response":"right","rt":632.09999996424,"correct":true,"confidence":5},{"trial_n":190,"n_dots":3.45,"target":"left","response":"left","rt":219.10000002384,"correct":true,"confidence":3},{"trial_n":191,"n_dots":3.35,"target":"right","response":"right","rt":3342.5999999642,"correct":true,"confidence":4},{"trial_n":192,"n_dots":3.35,"target":"left","response":"right","rt":458.59999996424,"correct":false,"confidence":4},{"trial_n":193,"n_dots":3.45,"target":"right","response":"right","rt":733.5,"correct":true,"confidence":2},{"trial_n":194,"n_dots":3.45,"target":"left","response":"left","rt":436.09999996424,"correct":true,"confidence":4}]