[{"trial_n":1,"n_dots":4.25,"target":"right","response":"left","rt":8041.3999999985,"correct":false,"confidence":-1},{"trial_n":2,"n_dots":4.25,"target":"right","response":"right","rt":688.40000000224,"correct":true,"confidence":-1},{"trial_n":3,"n_dots":4.25,"target":"right","response":"right","rt":457.09999999776,"correct":true,"confidence":-1},{"trial_n":4,"n_dots":3.85,"target":"left","response":"left","rt":399,"correct":true,"confidence":-1},{"trial_n":5,"n_dots":3.85,"target":"left","response":"left","rt":738.69999999925,"correct":true,"confidence":-1},{"trial_n":6,"n_dots":3.45,"target":"left","response":"left","rt":422,"correct":true,"confidence":-1},{"trial_n":7,"n_dots":3.45,"target":"right","response":"right","rt":994.09999999776,"correct":true,"confidence":-1},{"trial_n":8,"n_dots":3.25,"target":"left","response":"left","rt":352.19999999925,"correct":true,"confidence":-1},{"trial_n":9,"n_dots":3.25,"target":"right","response":"right","rt":749.39999999851,"correct":true,"confidence":-1},{"trial_n":10,"n_dots":3.05,"target":"right","response":"left","rt":792,"correct":false,"confidence":-1},{"trial_n":11,"n_dots":3.25,"target":"right","response":"right","rt":601.29999999702,"correct":true,"confidence":-1},{"trial_n":12,"n_dots":3.25,"target":"left","response":"left","rt":499.39999999851,"correct":true,"confidence":-1},{"trial_n":13,"n_dots":3.15,"target":"left","response":"left","rt":426.30000000075,"correct":true,"confidence":-1},{"trial_n":14,"n_dots":3.15,"target":"right","response":"right","rt":482.39999999851,"correct":true,"confidence":-1},{"trial_n":15,"n_dots":3.05,"target":"left","response":"left","rt":621.39999999851,"correct":true,"confidence":-1},{"trial_n":16,"n_dots":3.05,"target":"right","response":"right","rt":527.30000000075,"correct":true,"confidence":-1},{"trial_n":17,"n_dots":2.95,"target":"right","response":"left","rt":455.70000000298,"correct":false,"confidence":-1},{"trial_n":18,"n_dots":3.05,"target":"right","response":"left","rt":868.30000000075,"correct":false,"confidence":-1},{"trial_n":19,"n_dots":3.15,"target":"left","response":"left","rt":394.5,"correct":true,"confidence":-1},{"trial_n":20,"n_dots":3.15,"target":"right","response":"right","rt":470.39999999851,"correct":true,"confidence":-1},{"trial_n":21,"n_dots":3.05,"target":"left","response":"left","rt":178.5,"correct":true,"confidence":-1},{"trial_n":22,"n_dots":3.05,"target":"left","response":"left","rt":587.79999999702,"correct":true,"confidence":-1},{"trial_n":23,"n_dots":2.95,"target":"right","response":"left","rt":333.19999999925,"correct":false,"confidence":-1},{"trial_n":24,"n_dots":3.05,"target":"right","response":"right","rt":995,"correct":true,"confidence":-1},{"trial_n":25,"n_dots":3.05,"target":"left","response":"left","rt":405.39999999851,"correct":true,"confidence":-1},{"trial_n":26,"n_dots":2.95,"target":"left","response":"left","rt":1339.3000000007,"correct":true,"confidence":-1},{"trial_n":27,"n_dots":2.95,"target":"left","response":"left","rt":455.30000000075,"correct":true,"confidence":6},{"trial_n":28,"n_dots":2.85,"target":"left","response":"left","rt":480.80000000075,"correct":true,"confidence":6},{"trial_n":29,"n_dots":2.85,"target":"right","response":"right","rt":834.80000000075,"correct":true,"confidence":4},{"trial_n":30,"n_dots":2.75,"target":"right","response":"right","rt":729.30000000075,"correct":true,"confidence":5},{"trial_n":31,"n_dots":2.75,"target":"right","response":"right","rt":1417.1999999993,"correct":true,"confidence":5},{"trial_n":32,"n_dots":2.65,"target":"left","response":"left","rt":633.89999999851,"correct":true,"confidence":6},{"trial_n":33,"n_dots":2.65,"target":"left","response":"left","rt":705.5,"correct":true,"confidence":6},{"trial_n":34,"n_dots":2.55,"target":"right","response":"left","rt":725.30000000075,"correct":false,"confidence":3},{"trial_n":35,"n_dots":2.65,"target":"right","response":"right","rt":752.40000000224,"correct":true,"confidence":3},{"trial_n":36,"n_dots":2.65,"target":"right","response":"left","rt":1803.8000000007,"correct":false,"confidence":2},{"trial_n":37,"n_dots":2.75,"target":"right","response":"left","rt":1226.1000000015,"correct":false,"confidence":2},{"trial_n":38,"n_dots":2.85,"target":"right","response":"left","rt":1349.5,"correct":false,"confidence":2},{"trial_n":39,"n_dots":2.95,"target":"right","response":"left","rt":819.09999999776,"correct":false,"confidence":4},{"trial_n":40,"n_dots":3.05,"target":"left","response":"left","rt":654.90000000224,"correct":true,"confidence":5},{"trial_n":41,"n_dots":3.05,"target":"right","response":"right","rt":2531.5999999978,"correct":true,"confidence":4},{"trial_n":42,"n_dots":2.95,"target":"left","response":"left","rt":1632.700000003,"correct":true,"confidence":2},{"trial_n":43,"n_dots":2.95,"target":"left","response":"left","rt":584.80000000075,"correct":true,"confidence":5},{"trial_n":44,"n_dots":2.85,"target":"left","response":"left","rt":572.20000000298,"correct":true,"confidence":6},{"trial_n":45,"n_dots":2.85,"target":"right","response":"left","rt":649.80000000075,"correct":false,"confidence":5},{"trial_n":46,"n_dots":2.95,"target":"left","response":"left","rt":1441.8000000007,"correct":true,"confidence":6},{"trial_n":47,"n_dots":2.95,"target":"left","response":"left","rt":553.5,"correct":true,"confidence":6},{"trial_n":48,"n_dots":2.85,"target":"right","response":"right","rt":802.89999999851,"correct":true,"confidence":4},{"trial_n":49,"n_dots":2.85,"target":"left","response":"left","rt":1446.5999999978,"correct":true,"confidence":2},{"trial_n":50,"n_dots":2.75,"target":"right","response":"right","rt":958.60000000149,"correct":true,"confidence":4},{"trial_n":51,"n_dots":2.75,"target":"right","response":"left","rt":729.5,"correct":false,"confidence":4},{"trial_n":52,"n_dots":2.85,"target":"right","response":"right","rt":557.30000000075,"correct":true,"confidence":5},{"trial_n":53,"n_dots":2.85,"target":"right","response":"right","rt":1587.8000000007,"correct":true,"confidence":4},{"trial_n":54,"n_dots":2.75,"target":"left","response":"left","rt":614.69999999925,"correct":true,"confidence":3},{"trial_n":55,"n_dots":2.75,"target":"right","response":"left","rt":1486.8999999985,"correct":false,"confidence":1},{"trial_n":56,"n_dots":2.85,"target":"right","response":"right","rt":879.10000000149,"correct":true,"confidence":4},{"trial_n":57,"n_dots":2.85,"target":"left","response":"left","rt":456.40000000224,"correct":true,"confidence":6},{"trial_n":58,"n_dots":2.75,"target":"right","response":"right","rt":1258.8000000007,"correct":true,"confidence":3},{"trial_n":59,"n_dots":2.75,"target":"left","response":"left","rt":501.80000000075,"correct":true,"confidence":4},{"trial_n":60,"n_dots":2.65,"target":"left","response":"left","rt":1144.1000000015,"correct":true,"confidence":5},{"trial_n":61,"n_dots":2.65,"target":"right","response":"left","rt":1254.3999999985,"correct":false,"confidence":1},{"trial_n":62,"n_dots":2.75,"target":"left","response":"left","rt":1056.5,"correct":true,"confidence":2},{"trial_n":63,"n_dots":2.75,"target":"left","response":"left","rt":1030.6000000015,"correct":true,"confidence":2},{"trial_n":64,"n_dots":2.65,"target":"right","response":"left","rt":909.80000000075,"correct":false,"confidence":2},{"trial_n":65,"n_dots":2.75,"target":"right","response":"right","rt":565,"correct":true,"confidence":3},{"trial_n":66,"n_dots":2.75,"target":"right","response":"left","rt":757.39999999851,"correct":false,"confidence":2},{"trial_n":67,"n_dots":2.85,"target":"left","response":"left","rt":659.29999999702,"correct":true,"confidence":3},{"trial_n":68,"n_dots":2.85,"target":"left","response":"left","rt":706.5,"correct":true,"confidence":3},{"trial_n":69,"n_dots":2.75,"target":"left","response":"left","rt":1035.6999999993,"correct":true,"confidence":4},{"trial_n":70,"n_dots":2.75,"target":"left","response":"left","rt":788.39999999851,"correct":true,"confidence":3},{"trial_n":71,"n_dots":2.65,"target":"left","response":"left","rt":1076.8999999985,"correct":true,"confidence":3},{"trial_n":72,"n_dots":2.65,"target":"right","response":"right","rt":760.59999999776,"correct":true,"confidence":2},{"trial_n":73,"n_dots":2.55,"target":"left","response":"left","rt":624.79999999702,"correct":true,"confidence":5},{"trial_n":74,"n_dots":2.55,"target":"left","response":"right","rt":1402.299999997,"correct":false,"confidence":2},{"trial_n":75,"n_dots":2.65,"target":"right","response":"right","rt":644.70000000298,"correct":true,"confidence":4},{"trial_n":76,"n_dots":2.65,"target":"right","response":"right","rt":820.5,"correct":true,"confidence":3},{"trial_n":77,"n_dots":2.55,"target":"right","response":"right","rt":539,"correct":true,"confidence":3},{"trial_n":78,"n_dots":2.55,"target":"right","response":"right","rt":1049.3000000007,"correct":true,"confidence":3},{"trial_n":79,"n_dots":2.45,"target":"right","response":"right","rt":1559,"correct":true,"confidence":2},{"trial_n":80,"n_dots":2.45,"target":"right","response":"left","rt":602.60000000149,"correct":false,"confidence":4},{"trial_n":81,"n_dots":2.55,"target":"left","response":"right","rt":626.89999999851,"correct":false,"confidence":6},{"trial_n":82,"n_dots":2.65,"target":"right","response":"right","rt":2281.5,"correct":true,"confidence":1},{"trial_n":83,"n_dots":2.65,"target":"right","response":"right","rt":1928.0999999978,"correct":true,"confidence":1},{"trial_n":84,"n_dots":2.55,"target":"right","response":"right","rt":753.29999999702,"correct":true,"confidence":2},{"trial_n":85,"n_dots":2.55,"target":"right","response":"left","rt":693.40000000224,"correct":false,"confidence":4},{"trial_n":86,"n_dots":2.65,"target":"left","response":"left","rt":594,"correct":true,"confidence":5},{"trial_n":87,"n_dots":2.65,"target":"left","response":"left","rt":804.40000000224,"correct":true,"confidence":5},{"trial_n":88,"n_dots":2.55,"target":"right","response":"right","rt":656.39999999851,"correct":true,"confidence":4},{"trial_n":89,"n_dots":2.55,"target":"right","response":"left","rt":713.60000000149,"correct":false,"confidence":4},{"trial_n":90,"n_dots":2.65,"target":"left","response":"right","rt":579.39999999851,"correct":false,"confidence":1},{"trial_n":91,"n_dots":2.75,"target":"right","response":"right","rt":728.89999999851,"correct":true,"confidence":3},{"trial_n":92,"n_dots":2.75,"target":"right","response":"right","rt":532.89999999851,"correct":true,"confidence":5},{"trial_n":93,"n_dots":2.65,"target":"left","response":"left","rt":574,"correct":true,"confidence":3},{"trial_n":94,"n_dots":2.65,"target":"right","response":"right","rt":2333.6000000015,"correct":true,"confidence":2},{"trial_n":95,"n_dots":2.55,"target":"left","response":"left","rt":472.90000000224,"correct":true,"confidence":3},{"trial_n":96,"n_dots":2.55,"target":"right","response":"right","rt":1733.5,"correct":true,"confidence":2},{"trial_n":97,"n_dots":2.45,"target":"right","response":"right","rt":1313.3000000007,"correct":true,"confidence":2},{"trial_n":98,"n_dots":2.45,"target":"right","response":"left","rt":701.10000000149,"correct":false,"confidence":3},{"trial_n":99,"n_dots":2.55,"target":"right","response":"right","rt":655.19999999925,"correct":true,"confidence":5},{"trial_n":100,"n_dots":2.55,"target":"left","response":"left","rt":1133.1999999993,"correct":true,"confidence":3},{"trial_n":101,"n_dots":2.45,"target":"right","response":"right","rt":670.39999999851,"correct":true,"confidence":3},{"trial_n":102,"n_dots":2.45,"target":"right","response":"right","rt":733,"correct":true,"confidence":4},{"trial_n":103,"n_dots":2.35,"target":"right","response":"right","rt":663.5,"correct":true,"confidence":4},{"trial_n":104,"n_dots":2.35,"target":"left","response":"right","rt":1418.3999999985,"correct":false,"confidence":2},{"trial_n":105,"n_dots":2.45,"target":"left","response":"left","rt":541.59999999776,"correct":true,"confidence":5},{"trial_n":106,"n_dots":2.45,"target":"left","response":"right","rt":619.19999999925,"correct":false,"confidence":6},{"trial_n":107,"n_dots":2.55,"target":"right","response":"left","rt":759.59999999776,"correct":false,"confidence":6},{"trial_n":108,"n_dots":2.65,"target":"right","response":"right","rt":485.20000000298,"correct":true,"confidence":6},{"trial_n":109,"n_dots":2.65,"target":"left","response":"right","rt":640.80000000075,"correct":false,"confidence":5},{"trial_n":110,"n_dots":2.75,"target":"right","response":"right","rt":639.60000000149,"correct":true,"confidence":5},{"trial_n":111,"n_dots":2.75,"target":"left","response":"right","rt":2332.6999999993,"correct":false,"confidence":3},{"trial_n":112,"n_dots":2.85,"target":"left","response":"left","rt":1426.4000000022,"correct":true,"confidence":2},{"trial_n":113,"n_dots":2.85,"target":"left","response":"left","rt":544.89999999851,"correct":true,"confidence":5},{"trial_n":114,"n_dots":2.75,"target":"right","response":"left","rt":1619.1999999993,"correct":false,"confidence":4},{"trial_n":115,"n_dots":2.85,"target":"right","response":"right","rt":1441.6000000015,"correct":true,"confidence":3},{"trial_n":116,"n_dots":2.85,"target":"right","response":"left","rt":1317.3000000007,"correct":false,"confidence":2},{"trial_n":117,"n_dots":2.95,"target":"left","response":"left","rt":617.69999999925,"correct":true,"confidence":5},{"trial_n":118,"n_dots":2.95,"target":"right","response":"right","rt":1328.3000000007,"correct":true,"confidence":4},{"trial_n":119,"n_dots":2.85,"target":"right","response":"right","rt":494.20000000298,"correct":true,"confidence":4},{"trial_n":120,"n_dots":2.85,"target":"right","response":"left","rt":1210.9000000022,"correct":false,"confidence":3},{"trial_n":121,"n_dots":2.95,"target":"left","response":"left","rt":632.19999999925,"correct":true,"confidence":4},{"trial_n":122,"n_dots":2.95,"target":"left","response":"left","rt":857.19999999925,"correct":true,"confidence":4},{"trial_n":123,"n_dots":2.85,"target":"left","response":"left","rt":775.80000000075,"correct":true,"confidence":5},{"trial_n":124,"n_dots":2.85,"target":"right","response":"right","rt":1436,"correct":true,"confidence":3},{"trial_n":125,"n_dots":2.75,"target":"right","response":"left","rt":783.30000000075,"correct":false,"confidence":2},{"trial_n":126,"n_dots":2.85,"target":"left","response":"left","rt":686.40000000224,"correct":true,"confidence":1},{"trial_n":127,"n_dots":2.85,"target":"left","response":"left","rt":464.29999999702,"correct":true,"confidence":5},{"trial_n":128,"n_dots":2.75,"target":"left","response":"left","rt":956.89999999851,"correct":true,"confidence":3},{"trial_n":129,"n_dots":2.75,"target":"right","response":"right","rt":1225.6999999993,"correct":true,"confidence":5},{"trial_n":130,"n_dots":2.65,"target":"left","response":"left","rt":664.79999999702,"correct":true,"confidence":5},{"trial_n":131,"n_dots":2.65,"target":"right","response":"right","rt":1688.3999999985,"correct":true,"confidence":2},{"trial_n":132,"n_dots":2.55,"target":"left","response":"left","rt":727.60000000149,"correct":true,"confidence":5},{"trial_n":133,"n_dots":2.55,"target":"left","response":"left","rt":1312.5,"correct":true,"confidence":1},{"trial_n":134,"n_dots":2.45,"target":"left","response":"left","rt":1745,"correct":true,"confidence":1},{"trial_n":135,"n_dots":2.45,"target":"left","response":"right","rt":973.30000000075,"correct":false,"confidence":1},{"trial_n":136,"n_dots":2.55,"target":"right","response":"right","rt":1908.1000000015,"correct":true,"confidence":1},{"trial_n":137,"n_dots":2.55,"target":"left","response":"left","rt":499.90000000224,"correct":true,"confidence":2},{"trial_n":138,"n_dots":2.45,"target":"left","response":"right","rt":1308.5999999978,"correct":false,"confidence":2},{"trial_n":139,"n_dots":2.55,"target":"left","response":"right","rt":1292.8000000007,"correct":false,"confidence":2},{"trial_n":140,"n_dots":2.65,"target":"right","response":"right","rt":683.60000000149,"correct":true,"confidence":4},{"trial_n":141,"n_dots":2.65,"target":"left","response":"left","rt":894,"correct":true,"confidence":5},{"trial_n":142,"n_dots":2.55,"target":"left","response":"left","rt":491,"correct":true,"confidence":6},{"trial_n":143,"n_dots":2.55,"target":"left","response":"right","rt":717.30000000075,"correct":false,"confidence":4},{"trial_n":144,"n_dots":2.65,"target":"right","response":"left","rt":678.59999999776,"correct":false,"confidence":3},{"trial_n":145,"n_dots":2.75,"target":"left","response":"left","rt":909.40000000224,"correct":true,"confidence":2},{"trial_n":146,"n_dots":2.75,"target":"right","response":"right","rt":1449.6999999993,"correct":true,"confidence":2},{"trial_n":147,"n_dots":2.65,"target":"left","response":"left","rt":566.39999999851,"correct":true,"confidence":4},{"trial_n":148,"n_dots":2.65,"target":"left","response":"left","rt":1716.6999999993,"correct":true,"confidence":3},{"trial_n":149,"n_dots":2.55,"target":"right","response":"right","rt":724.89999999851,"correct":true,"confidence":3},{"trial_n":150,"n_dots":2.55,"target":"left","response":"left","rt":761.5,"correct":true,"confidence":3},{"trial_n":151,"n_dots":2.45,"target":"right","response":"right","rt":648.20000000298,"correct":true,"confidence":5},{"trial_n":152,"n_dots":2.45,"target":"left","response":"left","rt":1204,"correct":true,"confidence":5},{"trial_n":153,"n_dots":2.35,"target":"left","response":"left","rt":1405.3999999985,"correct":true,"confidence":3},{"trial_n":154,"n_dots":2.35,"target":"right","response":"left","rt":757.69999999925,"correct":false,"confidence":2},{"trial_n":155,"n_dots":2.45,"target":"left","response":"right","rt":879.5,"correct":false,"confidence":2},{"trial_n":156,"n_dots":2.55,"target":"left","response":"right","rt":1010.299999997,"correct":false,"confidence":2},{"trial_n":157,"n_dots":2.65,"target":"left","response":"right","rt":881,"correct":false,"confidence":2},{"trial_n":158,"n_dots":2.75,"target":"left","response":"left","rt":689.5,"correct":true,"confidence":4},{"trial_n":159,"n_dots":2.75,"target":"left","response":"left","rt":641.39999999851,"correct":true,"confidence":4},{"trial_n":160,"n_dots":2.65,"target":"left","response":"right","rt":1616.700000003,"correct":false,"confidence":2},{"trial_n":161,"n_dots":2.75,"target":"left","response":"left","rt":772.5,"correct":true,"confidence":3},{"trial_n":162,"n_dots":2.75,"target":"right","response":"right","rt":656,"correct":true,"confidence":3},{"trial_n":163,"n_dots":2.65,"target":"right","response":"right","rt":1325.3000000007,"correct":true,"confidence":3},{"trial_n":164,"n_dots":2.65,"target":"left","response":"left","rt":591.69999999925,"correct":true,"confidence":3},{"trial_n":165,"n_dots":2.55,"target":"left","response":"right","rt":752.80000000075,"correct":false,"confidence":3},{"trial_n":166,"n_dots":2.65,"target":"right","response":"left","rt":1588.1999999993,"correct":false,"confidence":1},{"trial_n":167,"n_dots":2.75,"target":"right","response":"right","rt":486.80000000075,"correct":true,"confidence":6},{"trial_n":168,"n_dots":2.75,"target":"left","response":"left","rt":1200.1999999993,"correct":true,"confidence":2},{"trial_n":169,"n_dots":2.65,"target":"left","response":"left","rt":1856,"correct":true,"confidence":2},{"trial_n":170,"n_dots":2.65,"target":"left","response":"left","rt":694.89999999851,"correct":true,"confidence":5},{"trial_n":171,"n_dots":2.55,"target":"right","response":"right","rt":647.40000000224,"correct":true,"confidence":5},{"trial_n":172,"n_dots":2.55,"target":"right","response":"right","rt":923.40000000224,"correct":true,"confidence":5},{"trial_n":173,"n_dots":2.45,"target":"right","response":"right","rt":1590,"correct":true,"confidence":3},{"trial_n":174,"n_dots":2.45,"target":"left","response":"left","rt":2995.3000000007,"correct":true,"confidence":2},{"trial_n":175,"n_dots":2.35,"target":"right","response":"right","rt":1210.6999999993,"correct":true,"confidence":4},{"trial_n":176,"n_dots":2.35,"target":"right","response":"right","rt":1099.6999999993,"correct":true,"confidence":2},{"trial_n":177,"n_dots":2.25,"target":"right","response":"right","rt":482.09999999776,"correct":true,"confidence":6},{"trial_n":178,"n_dots":2.25,"target":"left","response":"left","rt":1835.3000000007,"correct":true,"confidence":2},{"trial_n":179,"n_dots":2.15,"target":"left","response":"left","rt":1565.6000000015,"correct":true,"confidence":2},{"trial_n":180,"n_dots":2.15,"target":"left","response":"right","rt":2474.700000003,"correct":false,"confidence":1},{"trial_n":181,"n_dots":2.25,"target":"left","response":"left","rt":644.19999999925,"correct":true,"confidence":4},{"trial_n":182,"n_dots":2.25,"target":"right","response":"right","rt":466,"correct":true,"confidence":6},{"trial_n":183,"n_dots":2.15,"target":"left","response":"left","rt":670.60000000149,"correct":true,"confidence":5},{"trial_n":184,"n_dots":2.15,"target":"right","response":"right","rt":1179.9000000022,"correct":true,"confidence":4},{"trial_n":185,"n_dots":2.05,"target":"right","response":"right","rt":783.79999999702,"correct":true,"confidence":4},{"trial_n":186,"n_dots":2.05,"target":"right","response":"right","rt":1107.8999999985,"correct":true,"confidence":3},{"trial_n":187,"n_dots":1.95,"target":"left","response":"right","rt":1020.8000000007,"correct":false,"confidence":3},{"trial_n":188,"n_dots":2.05,"target":"left","response":"right","rt":484.90000000224,"correct":false,"confidence":3},{"trial_n":189,"n_dots":2.15,"target":"left","response":"right","rt":2419.299999997,"correct":false,"confidence":2},{"trial_n":190,"n_dots":2.25,"target":"right","response":"right","rt":458.5,"correct":true,"confidence":4},{"trial_n":191,"n_dots":2.25,"target":"left","response":"left","rt":418.30000000075,"correct":true,"confidence":5},{"trial_n":192,"n_dots":2.15,"target":"right","response":"right","rt":1622.0999999978,"correct":true,"confidence":3},{"trial_n":193,"n_dots":2.15,"target":"left","response":"left","rt":574.69999999925,"correct":true,"confidence":4},{"trial_n":194,"n_dots":2.05,"target":"right","response":"left","rt":1313.799999997,"correct":false,"confidence":2}]