[{"trial_n":1,"n_dots":4.25,"target":"left","response":"right","rt":1128.4000000954,"correct":false,"confidence":-1},{"trial_n":2,"n_dots":4.25,"target":"right","response":"left","rt":603.20000004768,"correct":false,"confidence":-1},{"trial_n":3,"n_dots":4.65,"target":"left","response":"left","rt":313.29999995232,"correct":true,"confidence":-1},{"trial_n":4,"n_dots":4.65,"target":"left","response":"left","rt":225.89999997616,"correct":true,"confidence":-1},{"trial_n":5,"n_dots":4.25,"target":"right","response":"right","rt":444.39999997616,"correct":true,"confidence":-1},{"trial_n":6,"n_dots":4.25,"target":"left","response":"right","rt":420.5,"correct":false,"confidence":-1},{"trial_n":7,"n_dots":4.65,"target":"right","response":"right","rt":239.60000002384,"correct":true,"confidence":-1},{"trial_n":8,"n_dots":4.65,"target":"right","response":"right","rt":159.90000009537,"correct":true,"confidence":-1},{"trial_n":9,"n_dots":4.45,"target":"left","response":"right","rt":143.20000004768,"correct":false,"confidence":-1},{"trial_n":10,"n_dots":4.65,"target":"right","response":"right","rt":8.6999999284744,"correct":true,"confidence":-1},{"trial_n":11,"n_dots":4.65,"target":"right","response":"right","rt":151.40000009537,"correct":true,"confidence":-1},{"trial_n":12,"n_dots":4.45,"target":"right","response":"right","rt":153.79999995232,"correct":true,"confidence":-1},{"trial_n":13,"n_dots":4.45,"target":"left","response":"right","rt":510.89999997616,"correct":false,"confidence":-1},{"trial_n":14,"n_dots":4.55,"target":"left","response":"left","rt":884.80000007153,"correct":true,"confidence":-1},{"trial_n":15,"n_dots":4.55,"target":"left","response":"left","rt":237,"correct":true,"confidence":-1},{"trial_n":16,"n_dots":4.45,"target":"right","response":"right","rt":323.60000002384,"correct":true,"confidence":-1},{"trial_n":17,"n_dots":4.45,"target":"right","response":"right","rt":408.19999992847,"correct":true,"confidence":-1},{"trial_n":18,"n_dots":4.35,"target":"right","response":"right","rt":300.5,"correct":true,"confidence":-1},{"trial_n":19,"n_dots":4.35,"target":"right","response":"right","rt":318.69999992847,"correct":true,"confidence":-1},{"trial_n":20,"n_dots":4.25,"target":"left","response":"right","rt":340.29999995232,"correct":false,"confidence":-1},{"trial_n":21,"n_dots":4.35,"target":"left","response":"left","rt":498.89999997616,"correct":true,"confidence":-1},{"trial_n":22,"n_dots":4.35,"target":"left","response":"left","rt":394.70000004768,"correct":true,"confidence":-1},{"trial_n":23,"n_dots":4.25,"target":"left","response":"left","rt":213.79999995232,"correct":true,"confidence":-1},{"trial_n":24,"n_dots":4.25,"target":"right","response":"right","rt":444.29999995232,"correct":true,"confidence":-1},{"trial_n":25,"n_dots":4.15,"target":"left","response":"left","rt":458.59999990463,"correct":true,"confidence":-1},{"trial_n":26,"n_dots":4.15,"target":"right","response":"left","rt":500.30000007153,"correct":false,"confidence":-1},{"trial_n":27,"n_dots":4.25,"target":"right","response":"right","rt":266.20000004768,"correct":true,"confidence":5},{"trial_n":28,"n_dots":4.25,"target":"right","response":"right","rt":475.89999997616,"correct":true,"confidence":3},{"trial_n":29,"n_dots":4.15,"target":"left","response":"left","rt":375.29999995232,"correct":true,"confidence":3},{"trial_n":30,"n_dots":4.15,"target":"right","response":"right","rt":490.39999997616,"correct":true,"confidence":3},{"trial_n":31,"n_dots":4.05,"target":"left","response":"left","rt":592,"correct":true,"confidence":5},{"trial_n":32,"n_dots":4.05,"target":"right","response":"right","rt":618.20000004768,"correct":true,"confidence":1},{"trial_n":33,"n_dots":3.95,"target":"right","response":"right","rt":307.70000004768,"correct":true,"confidence":4},{"trial_n":34,"n_dots":3.95,"target":"left","response":"left","rt":469.40000009537,"correct":true,"confidence":3},{"trial_n":35,"n_dots":3.85,"target":"right","response":"right","rt":533.39999997616,"correct":true,"confidence":1},{"trial_n":36,"n_dots":3.85,"target":"left","response":"left","rt":691.89999997616,"correct":true,"confidence":1},{"trial_n":37,"n_dots":3.75,"target":"right","response":"right","rt":1039.8999999762,"correct":true,"confidence":2},{"trial_n":38,"n_dots":3.75,"target":"right","response":"right","rt":452.89999997616,"correct":true,"confidence":2},{"trial_n":39,"n_dots":3.65,"target":"right","response":"right","rt":638.30000007153,"correct":true,"confidence":1},{"trial_n":40,"n_dots":3.65,"target":"left","response":"right","rt":502.20000004768,"correct":false,"confidence":1},{"trial_n":41,"n_dots":3.75,"target":"right","response":"right","rt":641,"correct":true,"confidence":1},{"trial_n":42,"n_dots":3.75,"target":"right","response":"right","rt":553.79999995232,"correct":true,"confidence":1},{"trial_n":43,"n_dots":3.65,"target":"right","response":"right","rt":609.29999995232,"correct":true,"confidence":1},{"trial_n":44,"n_dots":3.65,"target":"left","response":"left","rt":551.60000002384,"correct":true,"confidence":1},{"trial_n":45,"n_dots":3.55,"target":"right","response":"right","rt":612.39999997616,"correct":true,"confidence":1},{"trial_n":46,"n_dots":3.55,"target":"left","response":"right","rt":368.5,"correct":false,"confidence":2},{"trial_n":47,"n_dots":3.65,"target":"left","response":"left","rt":545.5,"correct":true,"confidence":2},{"trial_n":48,"n_dots":3.65,"target":"right","response":"right","rt":806,"correct":true,"confidence":2},{"trial_n":49,"n_dots":3.55,"target":"right","response":"right","rt":404.70000004768,"correct":true,"confidence":2},{"trial_n":50,"n_dots":3.55,"target":"left","response":"left","rt":718,"correct":true,"confidence":1},{"trial_n":51,"n_dots":3.45,"target":"right","response":"right","rt":400.29999995232,"correct":true,"confidence":1},{"trial_n":52,"n_dots":3.45,"target":"right","response":"left","rt":490.70000004768,"correct":false,"confidence":1},{"trial_n":53,"n_dots":3.55,"target":"right","response":"right","rt":383.80000007153,"correct":true,"confidence":1},{"trial_n":54,"n_dots":3.55,"target":"left","response":"left","rt":584.89999997616,"correct":true,"confidence":1},{"trial_n":55,"n_dots":3.45,"target":"right","response":"right","rt":572,"correct":true,"confidence":1},{"trial_n":56,"n_dots":3.45,"target":"left","response":"left","rt":331.30000007153,"correct":true,"confidence":1},{"trial_n":57,"n_dots":3.35,"target":"left","response":"left","rt":2751.5,"correct":true,"confidence":1},{"trial_n":58,"n_dots":3.35,"target":"right","response":"right","rt":561.79999995232,"correct":true,"confidence":1},{"trial_n":59,"n_dots":3.25,"target":"right","response":"right","rt":569.39999997616,"correct":true,"confidence":1},{"trial_n":60,"n_dots":3.25,"target":"left","response":"left","rt":1082.3999999762,"correct":true,"confidence":1},{"trial_n":61,"n_dots":3.15,"target":"left","response":"left","rt":519.90000009537,"correct":true,"confidence":1},{"trial_n":62,"n_dots":3.15,"target":"left","response":"left","rt":549.09999990463,"correct":true,"confidence":1},{"trial_n":63,"n_dots":3.05,"target":"left","response":"left","rt":360.89999997616,"correct":true,"confidence":2},{"trial_n":64,"n_dots":3.05,"target":"right","response":"left","rt":588.70000004768,"correct":false,"confidence":1},{"trial_n":65,"n_dots":3.15,"target":"right","response":"left","rt":503.29999995232,"correct":false,"confidence":1},{"trial_n":66,"n_dots":3.25,"target":"right","response":"left","rt":460.09999990463,"correct":false,"confidence":1},{"trial_n":67,"n_dots":3.35,"target":"left","response":"left","rt":394.60000002384,"correct":true,"confidence":1},{"trial_n":68,"n_dots":3.35,"target":"right","response":"left","rt":590.20000004768,"correct":false,"confidence":1},{"trial_n":69,"n_dots":3.45,"target":"left","response":"left","rt":574.10000002384,"correct":true,"confidence":1},{"trial_n":70,"n_dots":3.45,"target":"right","response":"right","rt":648.90000009537,"correct":true,"confidence":1},{"trial_n":71,"n_dots":3.35,"target":"left","response":"left","rt":738.80000007153,"correct":true,"confidence":1},{"trial_n":72,"n_dots":3.35,"target":"left","response":"left","rt":407.5,"correct":true,"confidence":1},{"trial_n":73,"n_dots":3.25,"target":"right","response":"right","rt":371,"correct":true,"confidence":1},{"trial_n":74,"n_dots":3.25,"target":"right","response":"left","rt":684.70000004768,"correct":false,"confidence":1},{"trial_n":75,"n_dots":3.35,"target":"left","response":"left","rt":400.69999992847,"correct":true,"confidence":1},{"trial_n":76,"n_dots":3.35,"target":"left","response":"left","rt":284.29999995232,"correct":true,"confidence":1},{"trial_n":77,"n_dots":3.25,"target":"left","response":"left","rt":363.79999995232,"correct":true,"confidence":1},{"trial_n":78,"n_dots":3.25,"target":"left","response":"left","rt":230.79999995232,"correct":true,"confidence":1},{"trial_n":79,"n_dots":3.15,"target":"right","response":"left","rt":616.39999997616,"correct":false,"confidence":1},{"trial_n":80,"n_dots":3.25,"target":"right","response":"right","rt":319,"correct":true,"confidence":1},{"trial_n":81,"n_dots":3.25,"target":"left","response":"right","rt":231.70000004768,"correct":false,"confidence":1},{"trial_n":82,"n_dots":3.35,"target":"right","response":"right","rt":246.59999990463,"correct":true,"confidence":2},{"trial_n":83,"n_dots":3.35,"target":"right","response":"right","rt":449.39999997616,"correct":true,"confidence":1},{"trial_n":84,"n_dots":3.25,"target":"right","response":"right","rt":360.10000002384,"correct":true,"confidence":1},{"trial_n":85,"n_dots":3.25,"target":"right","response":"right","rt":377,"correct":true,"confidence":2},{"trial_n":86,"n_dots":3.15,"target":"right","response":"right","rt":645.19999992847,"correct":true,"confidence":2},{"trial_n":87,"n_dots":3.15,"target":"left","response":"left","rt":659.19999992847,"correct":true,"confidence":1},{"trial_n":88,"n_dots":3.05,"target":"left","response":"right","rt":686.39999997616,"correct":false,"confidence":1},{"trial_n":89,"n_dots":3.15,"target":"left","response":"left","rt":499.39999997616,"correct":true,"confidence":1},{"trial_n":90,"n_dots":3.15,"target":"right","response":"right","rt":560,"correct":true,"confidence":1},{"trial_n":91,"n_dots":3.05,"target":"right","response":"left","rt":673.80000007153,"correct":false,"confidence":1},{"trial_n":92,"n_dots":3.15,"target":"right","response":"right","rt":767.79999995232,"correct":true,"confidence":1},{"trial_n":93,"n_dots":3.15,"target":"left","response":"right","rt":576.80000007153,"correct":false,"confidence":1},{"trial_n":94,"n_dots":3.25,"target":"left","response":"left","rt":706.19999992847,"correct":true,"confidence":1},{"trial_n":95,"n_dots":3.25,"target":"left","response":"left","rt":359.19999992847,"correct":true,"confidence":1},{"trial_n":96,"n_dots":3.15,"target":"left","response":"left","rt":439.40000009537,"correct":true,"confidence":1},{"trial_n":97,"n_dots":3.15,"target":"left","response":"left","rt":401.60000002384,"correct":true,"confidence":1},{"trial_n":98,"n_dots":3.05,"target":"left","response":"right","rt":499.19999992847,"correct":false,"confidence":1},{"trial_n":99,"n_dots":3.15,"target":"right","response":"right","rt":392.29999995232,"correct":true,"confidence":1},{"trial_n":100,"n_dots":3.15,"target":"left","response":"right","rt":545.10000002384,"correct":false,"confidence":1},{"trial_n":101,"n_dots":3.25,"target":"right","response":"right","rt":381.29999995232,"correct":true,"confidence":1},{"trial_n":102,"n_dots":3.25,"target":"right","response":"right","rt":334.80000007153,"correct":true,"confidence":1},{"trial_n":103,"n_dots":3.15,"target":"left","response":"left","rt":600.60000002384,"correct":true,"confidence":1},{"trial_n":104,"n_dots":3.15,"target":"right","response":"right","rt":384,"correct":true,"confidence":2},{"trial_n":105,"n_dots":3.05,"target":"left","response":"left","rt":545.70000004768,"correct":true,"confidence":1},{"trial_n":106,"n_dots":3.05,"target":"right","response":"right","rt":528.79999995232,"correct":true,"confidence":1},{"trial_n":107,"n_dots":2.95,"target":"left","response":"left","rt":223.89999997616,"correct":true,"confidence":1},{"trial_n":108,"n_dots":2.95,"target":"left","response":"left","rt":210.29999995232,"correct":true,"confidence":2},{"trial_n":109,"n_dots":2.85,"target":"left","response":"left","rt":502.79999995232,"correct":true,"confidence":1},{"trial_n":110,"n_dots":2.85,"target":"right","response":"left","rt":369.20000004768,"correct":false,"confidence":1},{"trial_n":111,"n_dots":2.95,"target":"right","response":"right","rt":402.39999997616,"correct":true,"confidence":1},{"trial_n":112,"n_dots":2.95,"target":"left","response":"left","rt":373.10000002384,"correct":true,"confidence":1},{"trial_n":113,"n_dots":2.85,"target":"right","response":"left","rt":561,"correct":false,"confidence":1},{"trial_n":114,"n_dots":2.95,"target":"right","response":"right","rt":365.89999997616,"correct":true,"confidence":1},{"trial_n":115,"n_dots":2.95,"target":"left","response":"left","rt":424.39999997616,"correct":true,"confidence":1},{"trial_n":116,"n_dots":2.85,"target":"left","response":"left","rt":457.5,"correct":true,"confidence":1},{"trial_n":117,"n_dots":2.85,"target":"left","response":"right","rt":406.79999995232,"correct":false,"confidence":1},{"trial_n":118,"n_dots":2.95,"target":"left","response":"left","rt":581.10000002384,"correct":true,"confidence":1},{"trial_n":119,"n_dots":2.95,"target":"right","response":"right","rt":431.79999995232,"correct":true,"confidence":1},{"trial_n":120,"n_dots":2.85,"target":"right","response":"right","rt":480.20000004768,"correct":true,"confidence":1},{"trial_n":121,"n_dots":2.85,"target":"left","response":"left","rt":861.60000002384,"correct":true,"confidence":1},{"trial_n":122,"n_dots":2.75,"target":"right","response":"right","rt":468.19999992847,"correct":true,"confidence":1},{"trial_n":123,"n_dots":2.75,"target":"right","response":"right","rt":324.39999997616,"correct":true,"confidence":1},{"trial_n":124,"n_dots":2.65,"target":"right","response":"right","rt":375.39999997616,"correct":true,"confidence":1},{"trial_n":125,"n_dots":2.65,"target":"left","response":"left","rt":401.69999992847,"correct":true,"confidence":1},{"trial_n":126,"n_dots":2.55,"target":"left","response":"right","rt":385.69999992847,"correct":false,"confidence":1},{"trial_n":127,"n_dots":2.65,"target":"right","response":"left","rt":424.19999992847,"correct":false,"confidence":1},{"trial_n":128,"n_dots":2.75,"target":"left","response":"right","rt":264.60000002384,"correct":false,"confidence":1},{"trial_n":129,"n_dots":2.85,"target":"right","response":"right","rt":473.19999992847,"correct":true,"confidence":1},{"trial_n":130,"n_dots":2.85,"target":"left","response":"right","rt":402.80000007153,"correct":false,"confidence":1},{"trial_n":131,"n_dots":2.95,"target":"left","response":"right","rt":2214,"correct":false,"confidence":1},{"trial_n":132,"n_dots":3.05,"target":"left","response":"left","rt":353.10000002384,"correct":true,"confidence":2},{"trial_n":133,"n_dots":3.05,"target":"right","response":"right","rt":516.19999992847,"correct":true,"confidence":1},{"trial_n":134,"n_dots":2.95,"target":"right","response":"right","rt":390,"correct":true,"confidence":1},{"trial_n":135,"n_dots":2.95,"target":"right","response":"right","rt":425.70000004768,"correct":true,"confidence":1},{"trial_n":136,"n_dots":2.85,"target":"left","response":"left","rt":356.70000004768,"correct":true,"confidence":1},{"trial_n":137,"n_dots":2.85,"target":"right","response":"right","rt":957.10000002384,"correct":true,"confidence":1},{"trial_n":138,"n_dots":2.75,"target":"right","response":"right","rt":293.20000004768,"correct":true,"confidence":1},{"trial_n":139,"n_dots":2.75,"target":"right","response":"left","rt":522.5,"correct":false,"confidence":1},{"trial_n":140,"n_dots":2.85,"target":"right","response":"left","rt":489.29999995232,"correct":false,"confidence":1},{"trial_n":141,"n_dots":2.95,"target":"left","response":"left","rt":559.30000007153,"correct":true,"confidence":1},{"trial_n":142,"n_dots":2.95,"target":"right","response":"right","rt":695.10000002384,"correct":true,"confidence":1},{"trial_n":143,"n_dots":2.85,"target":"right","response":"left","rt":330.30000007153,"correct":false,"confidence":1},{"trial_n":144,"n_dots":2.95,"target":"left","response":"left","rt":459.5,"correct":true,"confidence":1},{"trial_n":145,"n_dots":2.95,"target":"left","response":"left","rt":916.29999995232,"correct":true,"confidence":1},{"trial_n":146,"n_dots":2.85,"target":"left","response":"left","rt":418.89999997616,"correct":true,"confidence":1},{"trial_n":147,"n_dots":2.85,"target":"left","response":"left","rt":376.90000009537,"correct":true,"confidence":1},{"trial_n":148,"n_dots":2.75,"target":"right","response":"left","rt":717.39999997616,"correct":false,"confidence":1},{"trial_n":149,"n_dots":2.85,"target":"left","response":"left","rt":766.5,"correct":true,"confidence":1},{"trial_n":150,"n_dots":2.85,"target":"left","response":"right","rt":333,"correct":false,"confidence":1},{"trial_n":151,"n_dots":2.95,"target":"left","response":"right","rt":377.20000004768,"correct":false,"confidence":1},{"trial_n":152,"n_dots":3.05,"target":"right","response":"right","rt":416,"correct":true,"confidence":1},{"trial_n":153,"n_dots":3.05,"target":"left","response":"left","rt":482.39999997616,"correct":true,"confidence":1},{"trial_n":154,"n_dots":2.95,"target":"right","response":"right","rt":432.39999997616,"correct":true,"confidence":1},{"trial_n":155,"n_dots":2.95,"target":"left","response":"right","rt":956.70000004768,"correct":false,"confidence":1},{"trial_n":156,"n_dots":3.05,"target":"right","response":"right","rt":438.10000002384,"correct":true,"confidence":1},{"trial_n":157,"n_dots":3.05,"target":"right","response":"left","rt":572.70000004768,"correct":false,"confidence":1},{"trial_n":158,"n_dots":3.15,"target":"right","response":"right","rt":502.80000007153,"correct":true,"confidence":1},{"trial_n":159,"n_dots":3.15,"target":"right","response":"right","rt":475.20000004768,"correct":true,"confidence":1},{"trial_n":160,"n_dots":3.05,"target":"left","response":"left","rt":436.70000004768,"correct":true,"confidence":1},{"trial_n":161,"n_dots":3.05,"target":"left","response":"left","rt":666.80000007153,"correct":true,"confidence":1},{"trial_n":162,"n_dots":2.95,"target":"right","response":"right","rt":336.20000004768,"correct":true,"confidence":1},{"trial_n":163,"n_dots":2.95,"target":"left","response":"left","rt":516.09999990463,"correct":true,"confidence":1},{"trial_n":164,"n_dots":2.85,"target":"left","response":"left","rt":548.89999997616,"correct":true,"confidence":1},{"trial_n":165,"n_dots":2.85,"target":"left","response":"left","rt":776,"correct":true,"confidence":1},{"trial_n":166,"n_dots":2.75,"target":"right","response":"right","rt":409.10000002384,"correct":true,"confidence":1},{"trial_n":167,"n_dots":2.75,"target":"right","response":"right","rt":543.80000007153,"correct":true,"confidence":1},{"trial_n":168,"n_dots":2.65,"target":"right","response":"right","rt":532.39999997616,"correct":true,"confidence":1},{"trial_n":169,"n_dots":2.65,"target":"left","response":"left","rt":771.69999992847,"correct":true,"confidence":1},{"trial_n":170,"n_dots":2.55,"target":"right","response":"right","rt":313,"correct":true,"confidence":1},{"trial_n":171,"n_dots":2.55,"target":"left","response":"right","rt":359.5,"correct":false,"confidence":1},{"trial_n":172,"n_dots":2.65,"target":"left","response":"right","rt":405.5,"correct":false,"confidence":1},{"trial_n":173,"n_dots":2.75,"target":"right","response":"right","rt":304.5,"correct":true,"confidence":1},{"trial_n":174,"n_dots":2.75,"target":"left","response":"right","rt":362.69999992847,"correct":false,"confidence":1},{"trial_n":175,"n_dots":2.85,"target":"left","response":"right","rt":353.20000004768,"correct":false,"confidence":1},{"trial_n":176,"n_dots":2.95,"target":"left","response":"right","rt":391.29999995232,"correct":false,"confidence":1},{"trial_n":177,"n_dots":3.05,"target":"left","response":"left","rt":749.20000004768,"correct":true,"confidence":1},{"trial_n":178,"n_dots":3.05,"target":"left","response":"left","rt":702.10000002384,"correct":true,"confidence":1},{"trial_n":179,"n_dots":2.95,"target":"left","response":"right","rt":647.40000009537,"correct":false,"confidence":1},{"trial_n":180,"n_dots":3.05,"target":"right","response":"right","rt":395.89999997616,"correct":true,"confidence":1},{"trial_n":181,"n_dots":3.05,"target":"right","response":"right","rt":513.70000004768,"correct":true,"confidence":1},{"trial_n":182,"n_dots":2.95,"target":"right","response":"right","rt":361.5,"correct":true,"confidence":1},{"trial_n":183,"n_dots":2.95,"target":"left","response":"right","rt":537.60000002384,"correct":false,"confidence":1},{"trial_n":184,"n_dots":3.05,"target":"right","response":"right","rt":450.19999992847,"correct":true,"confidence":1},{"trial_n":185,"n_dots":3.05,"target":"right","response":"right","rt":259.59999990463,"correct":true,"confidence":1},{"trial_n":186,"n_dots":2.95,"target":"left","response":"right","rt":626.70000004768,"correct":false,"confidence":1},{"trial_n":187,"n_dots":3.05,"target":"right","response":"right","rt":296.20000004768,"correct":true,"confidence":1},{"trial_n":188,"n_dots":3.05,"target":"left","response":"right","rt":906.79999995232,"correct":false,"confidence":1},{"trial_n":189,"n_dots":3.15,"target":"left","response":"right","rt":445.30000007153,"correct":false,"confidence":1},{"trial_n":190,"n_dots":3.25,"target":"left","response":"left","rt":773.70000004768,"correct":true,"confidence":1},{"trial_n":191,"n_dots":3.25,"target":"left","response":"left","rt":420.89999997616,"correct":true,"confidence":1},{"trial_n":192,"n_dots":3.15,"target":"left","response":"right","rt":448.59999990463,"correct":false,"confidence":1},{"trial_n":193,"n_dots":3.25,"target":"right","response":"right","rt":219.5,"correct":true,"confidence":1},{"trial_n":194,"n_dots":3.25,"target":"right","response":"right","rt":232.5,"correct":true,"confidence":2}]