[{"trial_n":1,"n_dots":4.25,"target":"left","response":"left","rt":1233,"correct":true,"confidence":-1},{"trial_n":2,"n_dots":4.25,"target":"right","response":"right","rt":314,"correct":true,"confidence":-1},{"trial_n":3,"n_dots":3.85,"target":"left","response":"left","rt":283,"correct":true,"confidence":-1},{"trial_n":4,"n_dots":3.85,"target":"left","response":"left","rt":263,"correct":true,"confidence":-1},{"trial_n":5,"n_dots":3.45,"target":"right","response":"right","rt":297,"correct":true,"confidence":-1},{"trial_n":6,"n_dots":3.45,"target":"right","response":"left","rt":262,"correct":false,"confidence":-1},{"trial_n":7,"n_dots":3.85,"target":"right","response":"right","rt":276,"correct":true,"confidence":-1},{"trial_n":8,"n_dots":3.85,"target":"left","response":"left","rt":266,"correct":true,"confidence":-1},{"trial_n":9,"n_dots":3.65,"target":"right","response":"right","rt":287,"correct":true,"confidence":-1},{"trial_n":10,"n_dots":3.65,"target":"left","response":"left","rt":243,"correct":true,"confidence":-1},{"trial_n":11,"n_dots":3.45,"target":"left","response":"right","rt":279,"correct":false,"confidence":-1},{"trial_n":12,"n_dots":3.65,"target":"left","response":"left","rt":83,"correct":true,"confidence":-1},{"trial_n":13,"n_dots":3.65,"target":"left","response":"left","rt":120,"correct":true,"confidence":-1},{"trial_n":14,"n_dots":3.55,"target":"right","response":"right","rt":279,"correct":true,"confidence":-1},{"trial_n":15,"n_dots":3.55,"target":"right","response":"right","rt":262,"correct":true,"confidence":-1},{"trial_n":16,"n_dots":3.45,"target":"right","response":"right","rt":256,"correct":true,"confidence":-1},{"trial_n":17,"n_dots":3.45,"target":"left","response":"left","rt":274,"correct":true,"confidence":-1},{"trial_n":18,"n_dots":3.35,"target":"right","response":"right","rt":207,"correct":true,"confidence":-1},{"trial_n":19,"n_dots":3.35,"target":"left","response":"right","rt":273,"correct":false,"confidence":-1},{"trial_n":20,"n_dots":3.45,"target":"left","response":"left","rt":528,"correct":true,"confidence":-1},{"trial_n":21,"n_dots":3.45,"target":"left","response":"left","rt":401,"correct":true,"confidence":-1},{"trial_n":22,"n_dots":3.35,"target":"left","response":"left","rt":283,"correct":true,"confidence":-1},{"trial_n":23,"n_dots":3.35,"target":"left","response":"right","rt":567,"correct":false,"confidence":-1},{"trial_n":24,"n_dots":3.45,"target":"right","response":"right","rt":322,"correct":true,"confidence":-1},{"trial_n":25,"n_dots":3.45,"target":"left","response":"left","rt":232,"correct":true,"confidence":-1},{"trial_n":26,"n_dots":3.35,"target":"left","response":"left","rt":329,"correct":true,"confidence":-1},{"trial_n":27,"n_dots":3.35,"target":"right","response":"left","rt":348,"correct":false,"confidence":4},{"trial_n":28,"n_dots":3.45,"target":"left","response":"right","rt":388,"correct":false,"confidence":4},{"trial_n":29,"n_dots":3.55,"target":"left","response":"left","rt":245,"correct":true,"confidence":4},{"trial_n":30,"n_dots":3.55,"target":"left","response":"left","rt":80,"correct":true,"confidence":5},{"trial_n":31,"n_dots":3.45,"target":"right","response":"right","rt":231,"correct":true,"confidence":5},{"trial_n":32,"n_dots":3.45,"target":"right","response":"right","rt":261,"correct":true,"confidence":5},{"trial_n":33,"n_dots":3.35,"target":"right","response":"right","rt":352,"correct":true,"confidence":6},{"trial_n":34,"n_dots":3.35,"target":"right","response":"right","rt":716,"correct":true,"confidence":6},{"trial_n":35,"n_dots":3.25,"target":"left","response":"left","rt":408,"correct":true,"confidence":4},{"trial_n":36,"n_dots":3.25,"target":"left","response":"right","rt":423,"correct":false,"confidence":5},{"trial_n":37,"n_dots":3.35,"target":"left","response":"left","rt":270,"correct":true,"confidence":4},{"trial_n":38,"n_dots":3.35,"target":"right","response":"right","rt":262,"correct":true,"confidence":5},{"trial_n":39,"n_dots":3.25,"target":"left","response":"left","rt":357,"correct":true,"confidence":4},{"trial_n":40,"n_dots":3.25,"target":"right","response":"right","rt":305,"correct":true,"confidence":5},{"trial_n":41,"n_dots":3.15,"target":"left","response":"left","rt":275,"correct":true,"confidence":5},{"trial_n":42,"n_dots":3.15,"target":"left","response":"right","rt":360,"correct":false,"confidence":6},{"trial_n":43,"n_dots":3.25,"target":"right","response":"right","rt":388,"correct":true,"confidence":5},{"trial_n":44,"n_dots":3.25,"target":"right","response":"right","rt":295,"correct":true,"confidence":6},{"trial_n":45,"n_dots":3.15,"target":"left","response":"left","rt":447,"correct":true,"confidence":5},{"trial_n":46,"n_dots":3.15,"target":"right","response":"right","rt":568,"correct":true,"confidence":5},{"trial_n":47,"n_dots":3.05,"target":"right","response":"right","rt":2324,"correct":true,"confidence":5},{"trial_n":48,"n_dots":3.05,"target":"right","response":"right","rt":683,"correct":true,"confidence":5},{"trial_n":49,"n_dots":2.95,"target":"left","response":"left","rt":499,"correct":true,"confidence":5},{"trial_n":50,"n_dots":2.95,"target":"left","response":"right","rt":838,"correct":false,"confidence":5},{"trial_n":51,"n_dots":3.05,"target":"right","response":"left","rt":762,"correct":false,"confidence":4},{"trial_n":52,"n_dots":3.15,"target":"left","response":"right","rt":455,"correct":false,"confidence":5},{"trial_n":53,"n_dots":3.25,"target":"left","response":"left","rt":671,"correct":true,"confidence":5},{"trial_n":54,"n_dots":3.25,"target":"right","response":"right","rt":817,"correct":true,"confidence":5},{"trial_n":55,"n_dots":3.15,"target":"right","response":"right","rt":521,"correct":true,"confidence":6},{"trial_n":56,"n_dots":3.15,"target":"left","response":"right","rt":388,"correct":false,"confidence":5},{"trial_n":57,"n_dots":3.25,"target":"left","response":"right","rt":277,"correct":false,"confidence":5},{"trial_n":58,"n_dots":3.35,"target":"right","response":"right","rt":250,"correct":true,"confidence":6},{"trial_n":59,"n_dots":3.35,"target":"left","response":"left","rt":528,"correct":true,"confidence":6},{"trial_n":60,"n_dots":3.25,"target":"right","response":"right","rt":286,"correct":true,"confidence":5},{"trial_n":61,"n_dots":3.25,"target":"right","response":"right","rt":486,"correct":true,"confidence":6},{"trial_n":62,"n_dots":3.15,"target":"left","response":"right","rt":1037,"correct":false,"confidence":6},{"trial_n":63,"n_dots":3.25,"target":"right","response":"right","rt":544,"correct":true,"confidence":6},{"trial_n":64,"n_dots":3.25,"target":"right","response":"left","rt":1716,"correct":false,"confidence":6},{"trial_n":65,"n_dots":3.35,"target":"left","response":"left","rt":534,"correct":true,"confidence":6},{"trial_n":66,"n_dots":3.35,"target":"left","response":"left","rt":582,"correct":true,"confidence":6},{"trial_n":67,"n_dots":3.25,"target":"right","response":"left","rt":634,"correct":false,"confidence":6},{"trial_n":68,"n_dots":3.35,"target":"right","response":"left","rt":1067,"correct":false,"confidence":6},{"trial_n":69,"n_dots":3.45,"target":"left","response":"right","rt":1914,"correct":false,"confidence":5},{"trial_n":70,"n_dots":3.55,"target":"right","response":"right","rt":230,"correct":true,"confidence":6},{"trial_n":71,"n_dots":3.55,"target":"right","response":"right","rt":184,"correct":true,"confidence":6},{"trial_n":72,"n_dots":3.45,"target":"right","response":"right","rt":306,"correct":true,"confidence":5},{"trial_n":73,"n_dots":3.45,"target":"right","response":"right","rt":158,"correct":true,"confidence":6},{"trial_n":74,"n_dots":3.35,"target":"left","response":"left","rt":452,"correct":true,"confidence":6},{"trial_n":75,"n_dots":3.35,"target":"right","response":"right","rt":373,"correct":true,"confidence":6},{"trial_n":76,"n_dots":3.25,"target":"left","response":"left","rt":239,"correct":true,"confidence":4},{"trial_n":77,"n_dots":3.25,"target":"left","response":"left","rt":314,"correct":true,"confidence":6},{"trial_n":78,"n_dots":3.15,"target":"right","response":"right","rt":218,"correct":true,"confidence":6},{"trial_n":79,"n_dots":3.15,"target":"left","response":"left","rt":299,"correct":true,"confidence":6},{"trial_n":80,"n_dots":3.05,"target":"right","response":"right","rt":700,"correct":true,"confidence":6},{"trial_n":81,"n_dots":3.05,"target":"left","response":"left","rt":314,"correct":true,"confidence":5},{"trial_n":82,"n_dots":2.95,"target":"right","response":"right","rt":190,"correct":true,"confidence":6},{"trial_n":83,"n_dots":2.95,"target":"left","response":"left","rt":103,"correct":true,"confidence":6},{"trial_n":84,"n_dots":2.85,"target":"left","response":"left","rt":89,"correct":true,"confidence":6},{"trial_n":85,"n_dots":2.85,"target":"left","response":"left","rt":312,"correct":true,"confidence":6},{"trial_n":86,"n_dots":2.75,"target":"left","response":"left","rt":592,"correct":true,"confidence":5},{"trial_n":87,"n_dots":2.75,"target":"left","response":"left","rt":1480,"correct":true,"confidence":6},{"trial_n":88,"n_dots":2.65,"target":"left","response":"left","rt":79,"correct":true,"confidence":4},{"trial_n":89,"n_dots":2.65,"target":"right","response":"right","rt":252,"correct":true,"confidence":6},{"trial_n":90,"n_dots":2.55,"target":"left","response":"left","rt":408,"correct":true,"confidence":6},{"trial_n":91,"n_dots":2.55,"target":"right","response":"left","rt":605,"correct":false,"confidence":6},{"trial_n":92,"n_dots":2.65,"target":"left","response":"left","rt":359,"correct":true,"confidence":6},{"trial_n":93,"n_dots":2.65,"target":"left","response":"right","rt":1289,"correct":false,"confidence":6},{"trial_n":94,"n_dots":2.75,"target":"right","response":"right","rt":270,"correct":true,"confidence":6},{"trial_n":95,"n_dots":2.75,"target":"right","response":"left","rt":298,"correct":false,"confidence":4},{"trial_n":96,"n_dots":2.85,"target":"left","response":"left","rt":98,"correct":true,"confidence":6},{"trial_n":97,"n_dots":2.85,"target":"left","response":"left","rt":325,"correct":true,"confidence":6},{"trial_n":98,"n_dots":2.75,"target":"right","response":"left","rt":390,"correct":false,"confidence":6},{"trial_n":99,"n_dots":2.85,"target":"right","response":"right","rt":461,"correct":true,"confidence":5},{"trial_n":100,"n_dots":2.85,"target":"left","response":"left","rt":188,"correct":true,"confidence":6},{"trial_n":101,"n_dots":2.75,"target":"left","response":"left","rt":442,"correct":true,"confidence":6},{"trial_n":102,"n_dots":2.75,"target":"right","response":"right","rt":35,"correct":true,"confidence":6},{"trial_n":103,"n_dots":2.65,"target":"left","response":"left","rt":368,"correct":true,"confidence":6},{"trial_n":104,"n_dots":2.65,"target":"left","response":"left","rt":555,"correct":true,"confidence":6},{"trial_n":105,"n_dots":2.55,"target":"right","response":"left","rt":545,"correct":false,"confidence":6},{"trial_n":106,"n_dots":2.65,"target":"left","response":"right","rt":1472,"correct":false,"confidence":6},{"trial_n":107,"n_dots":2.75,"target":"left","response":"left","rt":365,"correct":true,"confidence":6},{"trial_n":108,"n_dots":2.75,"target":"left","response":"right","rt":491,"correct":false,"confidence":6},{"trial_n":109,"n_dots":2.85,"target":"right","response":"right","rt":626,"correct":true,"confidence":6},{"trial_n":110,"n_dots":2.85,"target":"right","response":"right","rt":536,"correct":true,"confidence":5},{"trial_n":111,"n_dots":2.75,"target":"right","response":"right","rt":490,"correct":true,"confidence":5},{"trial_n":112,"n_dots":2.75,"target":"left","response":"left","rt":242,"correct":true,"confidence":6},{"trial_n":113,"n_dots":2.65,"target":"right","response":"right","rt":489,"correct":true,"confidence":6},{"trial_n":114,"n_dots":2.65,"target":"right","response":"right","rt":382,"correct":true,"confidence":5},{"trial_n":115,"n_dots":2.55,"target":"left","response":"left","rt":274,"correct":true,"confidence":6},{"trial_n":116,"n_dots":2.55,"target":"right","response":"left","rt":333,"correct":false,"confidence":5},{"trial_n":117,"n_dots":2.65,"target":"right","response":"right","rt":295,"correct":true,"confidence":6},{"trial_n":118,"n_dots":2.65,"target":"left","response":"left","rt":431,"correct":true,"confidence":5},{"trial_n":119,"n_dots":2.55,"target":"left","response":"right","rt":315,"correct":false,"confidence":6},{"trial_n":120,"n_dots":2.65,"target":"right","response":"left","rt":751,"correct":false,"confidence":5},{"trial_n":121,"n_dots":2.75,"target":"left","response":"right","rt":317,"correct":false,"confidence":6},{"trial_n":122,"n_dots":2.85,"target":"right","response":"right","rt":341,"correct":true,"confidence":6},{"trial_n":123,"n_dots":2.85,"target":"right","response":"left","rt":315,"correct":false,"confidence":6},{"trial_n":124,"n_dots":2.95,"target":"left","response":"left","rt":534,"correct":true,"confidence":5},{"trial_n":125,"n_dots":2.95,"target":"right","response":"right","rt":276,"correct":true,"confidence":6},{"trial_n":126,"n_dots":2.85,"target":"right","response":"left","rt":802,"correct":false,"confidence":5},{"trial_n":127,"n_dots":2.95,"target":"left","response":"right","rt":239,"correct":false,"confidence":6},{"trial_n":128,"n_dots":3.05,"target":"right","response":"left","rt":287,"correct":false,"confidence":4},{"trial_n":129,"n_dots":3.15,"target":"left","response":"left","rt":468,"correct":true,"confidence":6},{"trial_n":130,"n_dots":3.15,"target":"left","response":"left","rt":312,"correct":true,"confidence":5},{"trial_n":131,"n_dots":3.05,"target":"right","response":"right","rt":440,"correct":true,"confidence":6},{"trial_n":132,"n_dots":3.05,"target":"right","response":"right","rt":361,"correct":true,"confidence":6},{"trial_n":133,"n_dots":2.95,"target":"left","response":"left","rt":234,"correct":true,"confidence":6},{"trial_n":134,"n_dots":2.95,"target":"right","response":"right","rt":277,"correct":true,"confidence":6},{"trial_n":135,"n_dots":2.85,"target":"right","response":"right","rt":378,"correct":true,"confidence":6},{"trial_n":136,"n_dots":2.85,"target":"right","response":"right","rt":426,"correct":true,"confidence":6},{"trial_n":137,"n_dots":2.75,"target":"right","response":"right","rt":346,"correct":true,"confidence":6},{"trial_n":138,"n_dots":2.75,"target":"left","response":"left","rt":141,"correct":true,"confidence":6},{"trial_n":139,"n_dots":2.65,"target":"left","response":"right","rt":321,"correct":false,"confidence":6},{"trial_n":140,"n_dots":2.75,"target":"left","response":"left","rt":317,"correct":true,"confidence":6},{"trial_n":141,"n_dots":2.75,"target":"left","response":"right","rt":352,"correct":false,"confidence":6},{"trial_n":142,"n_dots":2.85,"target":"left","response":"left","rt":286,"correct":true,"confidence":6},{"trial_n":143,"n_dots":2.85,"target":"left","response":"left","rt":1062,"correct":true,"confidence":6},{"trial_n":144,"n_dots":2.75,"target":"right","response":"right","rt":448,"correct":true,"confidence":5},{"trial_n":145,"n_dots":2.75,"target":"right","response":"right","rt":1076,"correct":true,"confidence":6},{"trial_n":146,"n_dots":2.65,"target":"right","response":"left","rt":1030,"correct":false,"confidence":5},{"trial_n":147,"n_dots":2.75,"target":"right","response":"right","rt":129,"correct":true,"confidence":6},{"trial_n":148,"n_dots":2.75,"target":"right","response":"right","rt":594,"correct":true,"confidence":5},{"trial_n":149,"n_dots":2.65,"target":"left","response":"right","rt":1009,"correct":false,"confidence":5},{"trial_n":150,"n_dots":2.75,"target":"right","response":"right","rt":359,"correct":true,"confidence":6},{"trial_n":151,"n_dots":2.75,"target":"right","response":"left","rt":314,"correct":false,"confidence":4},{"trial_n":152,"n_dots":2.85,"target":"left","response":"left","rt":695,"correct":true,"confidence":5},{"trial_n":153,"n_dots":2.85,"target":"right","response":"right","rt":737,"correct":true,"confidence":4},{"trial_n":154,"n_dots":2.75,"target":"left","response":"left","rt":316,"correct":true,"confidence":6},{"trial_n":155,"n_dots":2.75,"target":"left","response":"left","rt":523,"correct":true,"confidence":6},{"trial_n":156,"n_dots":2.65,"target":"left","response":"left","rt":613,"correct":true,"confidence":6},{"trial_n":157,"n_dots":2.65,"target":"right","response":"right","rt":287,"correct":true,"confidence":6},{"trial_n":158,"n_dots":2.55,"target":"left","response":"left","rt":-10,"correct":true,"confidence":5},{"trial_n":159,"n_dots":2.55,"target":"right","response":"right","rt":51,"correct":true,"confidence":6},{"trial_n":160,"n_dots":2.45,"target":"left","response":"left","rt":367,"correct":true,"confidence":5},{"trial_n":161,"n_dots":2.45,"target":"right","response":"right","rt":273,"correct":true,"confidence":6},{"trial_n":162,"n_dots":2.35,"target":"right","response":"left","rt":2673,"correct":false,"confidence":6},{"trial_n":163,"n_dots":2.45,"target":"right","response":"left","rt":608,"correct":false,"confidence":6},{"trial_n":164,"n_dots":2.55,"target":"right","response":"right","rt":319,"correct":true,"confidence":6},{"trial_n":165,"n_dots":2.55,"target":"right","response":"left","rt":373,"correct":false,"confidence":6},{"trial_n":166,"n_dots":2.65,"target":"left","response":"right","rt":371,"correct":false,"confidence":6},{"trial_n":167,"n_dots":2.75,"target":"right","response":"left","rt":595,"correct":false,"confidence":6},{"trial_n":168,"n_dots":2.85,"target":"left","response":"left","rt":620,"correct":true,"confidence":6},{"trial_n":169,"n_dots":2.85,"target":"left","response":"left","rt":472,"correct":true,"confidence":6},{"trial_n":170,"n_dots":2.75,"target":"right","response":"left","rt":491,"correct":false,"confidence":6},{"trial_n":171,"n_dots":2.85,"target":"left","response":"right","rt":738,"correct":false,"confidence":6},{"trial_n":172,"n_dots":2.95,"target":"left","response":"left","rt":392,"correct":true,"confidence":6},{"trial_n":173,"n_dots":2.95,"target":"left","response":"right","rt":378,"correct":false,"confidence":6},{"trial_n":174,"n_dots":3.05,"target":"right","response":"right","rt":371,"correct":true,"confidence":6},{"trial_n":175,"n_dots":3.05,"target":"left","response":"left","rt":368,"correct":true,"confidence":6},{"trial_n":176,"n_dots":2.95,"target":"right","response":"right","rt":113,"correct":true,"confidence":6},{"trial_n":177,"n_dots":2.95,"target":"right","response":"right","rt":603,"correct":true,"confidence":6},{"trial_n":178,"n_dots":2.85,"target":"left","response":"left","rt":293,"correct":true,"confidence":6},{"trial_n":179,"n_dots":2.85,"target":"left","response":"left","rt":418,"correct":true,"confidence":6},{"trial_n":180,"n_dots":2.75,"target":"left","response":"right","rt":648,"correct":false,"confidence":6},{"trial_n":181,"n_dots":2.85,"target":"left","response":"left","rt":259,"correct":true,"confidence":4},{"trial_n":182,"n_dots":2.85,"target":"right","response":"right","rt":263,"correct":true,"confidence":6},{"trial_n":183,"n_dots":2.75,"target":"left","response":"left","rt":342,"correct":true,"confidence":6},{"trial_n":184,"n_dots":2.75,"target":"right","response":"right","rt":322,"correct":true,"confidence":6},{"trial_n":185,"n_dots":2.65,"target":"right","response":"right","rt":348,"correct":true,"confidence":6},{"trial_n":186,"n_dots":2.65,"target":"right","response":"left","rt":502,"correct":false,"confidence":6},{"trial_n":187,"n_dots":2.75,"target":"right","response":"right","rt":250,"correct":true,"confidence":5},{"trial_n":188,"n_dots":2.75,"target":"right","response":"right","rt":338,"correct":true,"confidence":6},{"trial_n":189,"n_dots":2.65,"target":"right","response":"left","rt":444,"correct":false,"confidence":5},{"trial_n":190,"n_dots":2.75,"target":"left","response":"left","rt":659,"correct":true,"confidence":6},{"trial_n":191,"n_dots":2.75,"target":"right","response":"right","rt":335,"correct":true,"confidence":5},{"trial_n":192,"n_dots":2.65,"target":"right","response":"right","rt":662,"correct":true,"confidence":6},{"trial_n":193,"n_dots":2.65,"target":"right","response":"right","rt":330,"correct":true,"confidence":5},{"trial_n":194,"n_dots":2.55,"target":"left","response":"left","rt":250,"correct":true,"confidence":6}]