[{"trial_n":1,"n_dots":4.25,"target":"right","response":"right","rt":5895.400000006,"correct":true,"confidence":-1},{"trial_n":2,"n_dots":4.25,"target":"left","response":"left","rt":1166.5,"correct":true,"confidence":-1},{"trial_n":3,"n_dots":3.85,"target":"right","response":"right","rt":369.80000000447,"correct":true,"confidence":-1},{"trial_n":4,"n_dots":3.85,"target":"right","response":"right","rt":559.10000000149,"correct":true,"confidence":-1},{"trial_n":5,"n_dots":3.45,"target":"right","response":"right","rt":902,"correct":true,"confidence":-1},{"trial_n":6,"n_dots":3.45,"target":"left","response":"left","rt":369.29999999702,"correct":true,"confidence":-1},{"trial_n":7,"n_dots":3.05,"target":"right","response":"left","rt":368.20000000298,"correct":false,"confidence":-1},{"trial_n":8,"n_dots":3.25,"target":"right","response":"right","rt":379.70000000298,"correct":true,"confidence":-1},{"trial_n":9,"n_dots":3.25,"target":"right","response":"right","rt":583.20000000298,"correct":true,"confidence":-1},{"trial_n":10,"n_dots":3.05,"target":"right","response":"right","rt":236.90000000596,"correct":true,"confidence":-1},{"trial_n":11,"n_dots":3.05,"target":"right","response":"right","rt":392.20000000298,"correct":true,"confidence":-1},{"trial_n":12,"n_dots":2.85,"target":"right","response":"left","rt":159.5,"correct":false,"confidence":-1},{"trial_n":13,"n_dots":2.95,"target":"right","response":"left","rt":780.5,"correct":false,"confidence":-1},{"trial_n":14,"n_dots":3.05,"target":"left","response":"right","rt":604.40000000596,"correct":false,"confidence":-1},{"trial_n":15,"n_dots":3.15,"target":"right","response":"left","rt":377.79999999702,"correct":false,"confidence":-1},{"trial_n":16,"n_dots":3.25,"target":"right","response":"right","rt":424.30000000447,"correct":true,"confidence":-1},{"trial_n":17,"n_dots":3.25,"target":"left","response":"left","rt":489.89999999851,"correct":true,"confidence":-1},{"trial_n":18,"n_dots":3.15,"target":"left","response":"left","rt":549.59999999404,"correct":true,"confidence":-1},{"trial_n":19,"n_dots":3.15,"target":"left","response":"left","rt":716.5,"correct":true,"confidence":-1},{"trial_n":20,"n_dots":3.05,"target":"left","response":"left","rt":571.5,"correct":true,"confidence":-1},{"trial_n":21,"n_dots":3.05,"target":"left","response":"left","rt":1172,"correct":true,"confidence":-1},{"trial_n":22,"n_dots":2.95,"target":"right","response":"left","rt":780.39999999851,"correct":false,"confidence":-1},{"trial_n":23,"n_dots":3.05,"target":"right","response":"right","rt":408.39999999851,"correct":true,"confidence":-1},{"trial_n":24,"n_dots":3.05,"target":"right","response":"right","rt":778.60000000149,"correct":true,"confidence":-1},{"trial_n":25,"n_dots":2.95,"target":"left","response":"left","rt":359.10000000149,"correct":true,"confidence":-1},{"trial_n":26,"n_dots":2.95,"target":"left","response":"left","rt":570.19999999553,"correct":true,"confidence":-1},{"trial_n":27,"n_dots":2.85,"target":"left","response":"left","rt":408.39999999851,"correct":true,"confidence":5},{"trial_n":28,"n_dots":2.85,"target":"right","response":"left","rt":1751,"correct":false,"confidence":5},{"trial_n":29,"n_dots":2.95,"target":"left","response":"left","rt":1615.299999997,"correct":true,"confidence":4},{"trial_n":30,"n_dots":2.95,"target":"left","response":"left","rt":1388.5,"correct":true,"confidence":5},{"trial_n":31,"n_dots":2.85,"target":"right","response":"left","rt":1292.599999994,"correct":false,"confidence":3},{"trial_n":32,"n_dots":2.95,"target":"left","response":"left","rt":782.10000000149,"correct":true,"confidence":5},{"trial_n":33,"n_dots":2.95,"target":"right","response":"left","rt":876.70000000298,"correct":false,"confidence":5},{"trial_n":34,"n_dots":3.05,"target":"left","response":"left","rt":531.5,"correct":true,"confidence":5},{"trial_n":35,"n_dots":3.05,"target":"right","response":"right","rt":2388.6000000015,"correct":true,"confidence":2},{"trial_n":36,"n_dots":2.95,"target":"right","response":"left","rt":1624.1000000015,"correct":false,"confidence":3},{"trial_n":37,"n_dots":3.05,"target":"right","response":"right","rt":1085.5,"correct":true,"confidence":3},{"trial_n":38,"n_dots":3.05,"target":"left","response":"left","rt":741.70000000298,"correct":true,"confidence":3},{"trial_n":39,"n_dots":2.95,"target":"right","response":"right","rt":651.80000000447,"correct":true,"confidence":4},{"trial_n":40,"n_dots":2.95,"target":"left","response":"left","rt":616.10000000149,"correct":true,"confidence":6},{"trial_n":41,"n_dots":2.85,"target":"right","response":"left","rt":2337.8999999985,"correct":false,"confidence":2},{"trial_n":42,"n_dots":2.95,"target":"left","response":"left","rt":551.59999999404,"correct":true,"confidence":6},{"trial_n":43,"n_dots":2.95,"target":"left","response":"left","rt":1008.700000003,"correct":true,"confidence":3},{"trial_n":44,"n_dots":2.85,"target":"right","response":"left","rt":817.39999999851,"correct":false,"confidence":2},{"trial_n":45,"n_dots":2.95,"target":"right","response":"left","rt":1149.8999999985,"correct":false,"confidence":2},{"trial_n":46,"n_dots":3.05,"target":"left","response":"left","rt":916.79999999702,"correct":true,"confidence":4},{"trial_n":47,"n_dots":3.05,"target":"left","response":"right","rt":1217.099999994,"correct":false,"confidence":3},{"trial_n":48,"n_dots":3.15,"target":"right","response":"right","rt":1135.3000000045,"correct":true,"confidence":4},{"trial_n":49,"n_dots":3.15,"target":"right","response":"left","rt":1006,"correct":false,"confidence":3},{"trial_n":50,"n_dots":3.25,"target":"left","response":"left","rt":1531.3999999985,"correct":true,"confidence":2},{"trial_n":51,"n_dots":3.25,"target":"left","response":"left","rt":1120.5,"correct":true,"confidence":3},{"trial_n":52,"n_dots":3.15,"target":"right","response":"right","rt":701.60000000149,"correct":true,"confidence":5},{"trial_n":53,"n_dots":3.15,"target":"left","response":"left","rt":866.69999999553,"correct":true,"confidence":5},{"trial_n":54,"n_dots":3.05,"target":"left","response":"left","rt":584.40000000596,"correct":true,"confidence":5},{"trial_n":55,"n_dots":3.05,"target":"right","response":"right","rt":2194.299999997,"correct":true,"confidence":1},{"trial_n":56,"n_dots":2.95,"target":"left","response":"left","rt":1140.5,"correct":true,"confidence":3},{"trial_n":57,"n_dots":2.95,"target":"left","response":"left","rt":523.59999999404,"correct":true,"confidence":4},{"trial_n":58,"n_dots":2.85,"target":"left","response":"right","rt":913.09999999404,"correct":false,"confidence":3},{"trial_n":59,"n_dots":2.95,"target":"right","response":"left","rt":4382.3999999985,"correct":false,"confidence":1},{"trial_n":60,"n_dots":3.05,"target":"right","response":"right","rt":782.69999999553,"correct":true,"confidence":5},{"trial_n":61,"n_dots":3.05,"target":"right","response":"left","rt":1532.799999997,"correct":false,"confidence":2},{"trial_n":62,"n_dots":3.15,"target":"right","response":"left","rt":1151.6999999955,"correct":false,"confidence":2},{"trial_n":63,"n_dots":3.25,"target":"right","response":"left","rt":797.79999999702,"correct":false,"confidence":3},{"trial_n":64,"n_dots":3.35,"target":"right","response":"left","rt":2649.6999999955,"correct":false,"confidence":1},{"trial_n":65,"n_dots":3.45,"target":"left","response":"left","rt":525.89999999851,"correct":true,"confidence":4},{"trial_n":66,"n_dots":3.45,"target":"right","response":"right","rt":702.39999999851,"correct":true,"confidence":4},{"trial_n":67,"n_dots":3.35,"target":"left","response":"left","rt":694,"correct":true,"confidence":6},{"trial_n":68,"n_dots":3.35,"target":"left","response":"left","rt":515,"correct":true,"confidence":6},{"trial_n":69,"n_dots":3.25,"target":"right","response":"right","rt":830.79999999702,"correct":true,"confidence":5},{"trial_n":70,"n_dots":3.25,"target":"right","response":"left","rt":1746.5,"correct":false,"confidence":3},{"trial_n":71,"n_dots":3.35,"target":"left","response":"left","rt":551.5,"correct":true,"confidence":5},{"trial_n":72,"n_dots":3.35,"target":"left","response":"left","rt":660.20000000298,"correct":true,"confidence":4},{"trial_n":73,"n_dots":3.25,"target":"left","response":"left","rt":525.89999999851,"correct":true,"confidence":5},{"trial_n":74,"n_dots":3.25,"target":"left","response":"left","rt":624.09999999404,"correct":true,"confidence":4},{"trial_n":75,"n_dots":3.15,"target":"right","response":"right","rt":669.89999999851,"correct":true,"confidence":5},{"trial_n":76,"n_dots":3.15,"target":"left","response":"left","rt":959.10000000149,"correct":true,"confidence":3},{"trial_n":77,"n_dots":3.05,"target":"right","response":"left","rt":741.20000000298,"correct":false,"confidence":4},{"trial_n":78,"n_dots":3.15,"target":"right","response":"left","rt":850.70000000298,"correct":false,"confidence":2},{"trial_n":79,"n_dots":3.25,"target":"left","response":"left","rt":995,"correct":true,"confidence":4},{"trial_n":80,"n_dots":3.25,"target":"left","response":"left","rt":719.79999999702,"correct":true,"confidence":4},{"trial_n":81,"n_dots":3.15,"target":"right","response":"left","rt":699.10000000149,"correct":false,"confidence":2},{"trial_n":82,"n_dots":3.25,"target":"left","response":"left","rt":682.69999999553,"correct":true,"confidence":4},{"trial_n":83,"n_dots":3.25,"target":"left","response":"left","rt":713,"correct":true,"confidence":5},{"trial_n":84,"n_dots":3.15,"target":"right","response":"right","rt":1507.5,"correct":true,"confidence":4},{"trial_n":85,"n_dots":3.15,"target":"right","response":"right","rt":1591.6000000015,"correct":true,"confidence":2},{"trial_n":86,"n_dots":3.05,"target":"right","response":"right","rt":2179.200000003,"correct":true,"confidence":1},{"trial_n":87,"n_dots":3.05,"target":"left","response":"left","rt":896.29999999702,"correct":true,"confidence":4},{"trial_n":88,"n_dots":2.95,"target":"left","response":"left","rt":643.20000000298,"correct":true,"confidence":6},{"trial_n":89,"n_dots":2.95,"target":"right","response":"right","rt":1327.3000000045,"correct":true,"confidence":3},{"trial_n":90,"n_dots":2.85,"target":"right","response":"left","rt":865.29999999702,"correct":false,"confidence":2},{"trial_n":91,"n_dots":2.95,"target":"right","response":"right","rt":2187.1000000015,"correct":true,"confidence":2},{"trial_n":92,"n_dots":2.95,"target":"right","response":"right","rt":1640.8999999985,"correct":true,"confidence":1},{"trial_n":93,"n_dots":2.85,"target":"right","response":"left","rt":1063,"correct":false,"confidence":3},{"trial_n":94,"n_dots":2.95,"target":"right","response":"left","rt":1783.200000003,"correct":false,"confidence":1},{"trial_n":95,"n_dots":3.05,"target":"right","response":"left","rt":1736.5,"correct":false,"confidence":1},{"trial_n":96,"n_dots":3.15,"target":"right","response":"left","rt":714.19999999553,"correct":false,"confidence":4},{"trial_n":97,"n_dots":3.25,"target":"right","response":"left","rt":1046.8999999985,"correct":false,"confidence":3},{"trial_n":98,"n_dots":3.35,"target":"left","response":"left","rt":818.89999999851,"correct":true,"confidence":5},{"trial_n":99,"n_dots":3.35,"target":"left","response":"left","rt":718.10000000149,"correct":true,"confidence":5},{"trial_n":100,"n_dots":3.25,"target":"left","response":"left","rt":778.5,"correct":true,"confidence":6},{"trial_n":101,"n_dots":3.25,"target":"left","response":"left","rt":884.10000000149,"correct":true,"confidence":6},{"trial_n":102,"n_dots":3.15,"target":"right","response":"right","rt":2501.6999999955,"correct":true,"confidence":2},{"trial_n":103,"n_dots":3.15,"target":"right","response":"left","rt":2176.200000003,"correct":false,"confidence":2},{"trial_n":104,"n_dots":3.25,"target":"right","response":"left","rt":1252.299999997,"correct":false,"confidence":2},{"trial_n":105,"n_dots":3.35,"target":"left","response":"left","rt":486.29999999702,"correct":true,"confidence":4},{"trial_n":106,"n_dots":3.35,"target":"left","response":"left","rt":960.30000000447,"correct":true,"confidence":4},{"trial_n":107,"n_dots":3.25,"target":"right","response":"left","rt":2070.3999999985,"correct":false,"confidence":1},{"trial_n":108,"n_dots":3.35,"target":"left","response":"left","rt":1047.6000000015,"correct":true,"confidence":4},{"trial_n":109,"n_dots":3.35,"target":"right","response":"right","rt":2372.1000000015,"correct":true,"confidence":1},{"trial_n":110,"n_dots":3.25,"target":"left","response":"left","rt":930.79999999702,"correct":true,"confidence":4},{"trial_n":111,"n_dots":3.25,"target":"right","response":"right","rt":1742.3999999985,"correct":true,"confidence":1},{"trial_n":112,"n_dots":3.15,"target":"right","response":"right","rt":1937.5,"correct":true,"confidence":1},{"trial_n":113,"n_dots":3.15,"target":"right","response":"right","rt":825.5,"correct":true,"confidence":3},{"trial_n":114,"n_dots":3.05,"target":"right","response":"right","rt":1822.099999994,"correct":true,"confidence":1},{"trial_n":115,"n_dots":3.05,"target":"left","response":"left","rt":849,"correct":true,"confidence":2},{"trial_n":116,"n_dots":2.95,"target":"left","response":"left","rt":953.90000000596,"correct":true,"confidence":4},{"trial_n":117,"n_dots":2.95,"target":"left","response":"left","rt":1224,"correct":true,"confidence":5},{"trial_n":118,"n_dots":2.85,"target":"right","response":"right","rt":1077.5,"correct":true,"confidence":4},{"trial_n":119,"n_dots":2.85,"target":"left","response":"left","rt":1371.3999999985,"correct":true,"confidence":3},{"trial_n":120,"n_dots":2.75,"target":"left","response":"right","rt":1795,"correct":false,"confidence":1},{"trial_n":121,"n_dots":2.85,"target":"left","response":"left","rt":633.5,"correct":true,"confidence":5},{"trial_n":122,"n_dots":2.85,"target":"left","response":"left","rt":777.69999999553,"correct":true,"confidence":6},{"trial_n":123,"n_dots":2.75,"target":"left","response":"left","rt":1001,"correct":true,"confidence":4},{"trial_n":124,"n_dots":2.75,"target":"left","response":"left","rt":1658.6000000015,"correct":true,"confidence":3},{"trial_n":125,"n_dots":2.65,"target":"right","response":"right","rt":1242.6000000015,"correct":true,"confidence":2},{"trial_n":126,"n_dots":2.65,"target":"right","response":"left","rt":879.60000000149,"correct":false,"confidence":2},{"trial_n":127,"n_dots":2.75,"target":"left","response":"left","rt":927.89999999851,"correct":true,"confidence":2},{"trial_n":128,"n_dots":2.75,"target":"left","response":"right","rt":1087,"correct":false,"confidence":1},{"trial_n":129,"n_dots":2.85,"target":"right","response":"left","rt":1020.3000000045,"correct":false,"confidence":3},{"trial_n":130,"n_dots":2.95,"target":"left","response":"left","rt":530.89999999851,"correct":true,"confidence":4},{"trial_n":131,"n_dots":2.95,"target":"left","response":"right","rt":1057.700000003,"correct":false,"confidence":2},{"trial_n":132,"n_dots":3.05,"target":"left","response":"left","rt":453.70000000298,"correct":true,"confidence":6},{"trial_n":133,"n_dots":3.05,"target":"left","response":"right","rt":2827.200000003,"correct":false,"confidence":2},{"trial_n":134,"n_dots":3.15,"target":"left","response":"left","rt":563.80000000447,"correct":true,"confidence":4},{"trial_n":135,"n_dots":3.15,"target":"left","response":"left","rt":1222.8999999985,"correct":true,"confidence":2},{"trial_n":136,"n_dots":3.05,"target":"left","response":"right","rt":1031,"correct":false,"confidence":4},{"trial_n":137,"n_dots":3.15,"target":"left","response":"left","rt":790,"correct":true,"confidence":6},{"trial_n":138,"n_dots":3.15,"target":"left","response":"left","rt":1412.3000000045,"correct":true,"confidence":6},{"trial_n":139,"n_dots":3.05,"target":"right","response":"left","rt":1528.6999999955,"correct":false,"confidence":2},{"trial_n":140,"n_dots":3.15,"target":"right","response":"left","rt":968.30000000447,"correct":false,"confidence":2},{"trial_n":141,"n_dots":3.25,"target":"left","response":"left","rt":823.40000000596,"correct":true,"confidence":6},{"trial_n":142,"n_dots":3.25,"target":"left","response":"left","rt":981.80000000447,"correct":true,"confidence":6},{"trial_n":143,"n_dots":3.15,"target":"right","response":"right","rt":1102.200000003,"correct":true,"confidence":4},{"trial_n":144,"n_dots":3.15,"target":"left","response":"left","rt":846.70000000298,"correct":true,"confidence":4},{"trial_n":145,"n_dots":3.05,"target":"right","response":"left","rt":1150.3999999985,"correct":false,"confidence":3},{"trial_n":146,"n_dots":3.15,"target":"left","response":"left","rt":514.39999999851,"correct":true,"confidence":6},{"trial_n":147,"n_dots":3.15,"target":"left","response":"left","rt":682.5,"correct":true,"confidence":6},{"trial_n":148,"n_dots":3.05,"target":"left","response":"left","rt":417.70000000298,"correct":true,"confidence":6},{"trial_n":149,"n_dots":3.05,"target":"right","response":"right","rt":1661.3999999985,"correct":true,"confidence":2},{"trial_n":150,"n_dots":2.95,"target":"right","response":"left","rt":870.29999999702,"correct":false,"confidence":5},{"trial_n":151,"n_dots":3.05,"target":"right","response":"right","rt":1228,"correct":true,"confidence":2},{"trial_n":152,"n_dots":3.05,"target":"right","response":"left","rt":900.59999999404,"correct":false,"confidence":4},{"trial_n":153,"n_dots":3.15,"target":"right","response":"left","rt":2536.3999999985,"correct":false,"confidence":2},{"trial_n":154,"n_dots":3.25,"target":"right","response":"right","rt":899.39999999851,"correct":true,"confidence":3},{"trial_n":155,"n_dots":3.25,"target":"left","response":"left","rt":802.70000000298,"correct":true,"confidence":5},{"trial_n":156,"n_dots":3.15,"target":"left","response":"left","rt":1390.900000006,"correct":true,"confidence":2},{"trial_n":157,"n_dots":3.15,"target":"left","response":"left","rt":719.30000000447,"correct":true,"confidence":3},{"trial_n":158,"n_dots":3.05,"target":"right","response":"right","rt":846.39999999851,"correct":true,"confidence":4},{"trial_n":159,"n_dots":3.05,"target":"right","response":"right","rt":1432.6000000015,"correct":true,"confidence":2},{"trial_n":160,"n_dots":2.95,"target":"left","response":"left","rt":892.69999999553,"correct":true,"confidence":4},{"trial_n":161,"n_dots":2.95,"target":"right","response":"right","rt":471.69999999553,"correct":true,"confidence":6},{"trial_n":162,"n_dots":2.85,"target":"left","response":"left","rt":926.20000000298,"correct":true,"confidence":6},{"trial_n":163,"n_dots":2.85,"target":"right","response":"right","rt":1539,"correct":true,"confidence":2},{"trial_n":164,"n_dots":2.75,"target":"right","response":"right","rt":655.30000000447,"correct":true,"confidence":5},{"trial_n":165,"n_dots":2.75,"target":"left","response":"left","rt":1171,"correct":true,"confidence":3},{"trial_n":166,"n_dots":2.65,"target":"right","response":"right","rt":1505,"correct":true,"confidence":2},{"trial_n":167,"n_dots":2.65,"target":"left","response":"left","rt":1832.299999997,"correct":true,"confidence":2},{"trial_n":168,"n_dots":2.55,"target":"right","response":"right","rt":674.60000000149,"correct":true,"confidence":4},{"trial_n":169,"n_dots":2.55,"target":"left","response":"left","rt":897.70000000298,"correct":true,"confidence":5},{"trial_n":170,"n_dots":2.45,"target":"right","response":"right","rt":766.5,"correct":true,"confidence":6},{"trial_n":171,"n_dots":2.45,"target":"right","response":"right","rt":734.40000000596,"correct":true,"confidence":5},{"trial_n":172,"n_dots":2.35,"target":"left","response":"left","rt":3662.599999994,"correct":true,"confidence":3},{"trial_n":173,"n_dots":2.35,"target":"left","response":"left","rt":750.79999999702,"correct":true,"confidence":6},{"trial_n":174,"n_dots":2.25,"target":"left","response":"left","rt":1378.8999999985,"correct":true,"confidence":3},{"trial_n":175,"n_dots":2.25,"target":"left","response":"left","rt":613.90000000596,"correct":true,"confidence":5},{"trial_n":176,"n_dots":2.15,"target":"right","response":"right","rt":768,"correct":true,"confidence":4},{"trial_n":177,"n_dots":2.15,"target":"left","response":"left","rt":677.60000000149,"correct":true,"confidence":5},{"trial_n":178,"n_dots":2.05,"target":"left","response":"left","rt":1082.3999999985,"correct":true,"confidence":5},{"trial_n":179,"n_dots":2.05,"target":"left","response":"left","rt":1367.799999997,"correct":true,"confidence":6},{"trial_n":180,"n_dots":1.95,"target":"right","response":"left","rt":1777.099999994,"correct":false,"confidence":6},{"trial_n":181,"n_dots":2.05,"target":"right","response":"left","rt":1075,"correct":false,"confidence":6},{"trial_n":182,"n_dots":2.15,"target":"right","response":"right","rt":897.10000000149,"correct":true,"confidence":6},{"trial_n":183,"n_dots":2.15,"target":"left","response":"left","rt":1679.700000003,"correct":true,"confidence":3},{"trial_n":184,"n_dots":2.05,"target":"left","response":"left","rt":1760.700000003,"correct":true,"confidence":2},{"trial_n":185,"n_dots":2.05,"target":"left","response":"left","rt":3355.799999997,"correct":true,"confidence":3},{"trial_n":186,"n_dots":1.95,"target":"right","response":"left","rt":1295,"correct":false,"confidence":3},{"trial_n":187,"n_dots":2.05,"target":"left","response":"left","rt":2159.1000000015,"correct":true,"confidence":1},{"trial_n":188,"n_dots":2.05,"target":"left","response":"left","rt":728.30000000447,"correct":true,"confidence":4},{"trial_n":189,"n_dots":1.95,"target":"right","response":"left","rt":471.30000000447,"correct":false,"confidence":4},{"trial_n":190,"n_dots":2.05,"target":"left","response":"left","rt":1124.1000000015,"correct":true,"confidence":4},{"trial_n":191,"n_dots":2.05,"target":"right","response":"right","rt":4895.3999999985,"correct":true,"confidence":1},{"trial_n":192,"n_dots":1.95,"target":"right","response":"left","rt":609.80000000447,"correct":false,"confidence":3},{"trial_n":193,"n_dots":2.05,"target":"right","response":"left","rt":415.90000000596,"correct":false,"confidence":3},{"trial_n":194,"n_dots":2.15,"target":"right","response":"left","rt":355.30000000447,"correct":false,"confidence":5}]