[{"trial_n":1,"n_dots":4.25,"target":"right","response":"left","rt":6632.5,"correct":false,"confidence":-1},{"trial_n":2,"n_dots":4.25,"target":"left","response":"left","rt":1077.400000006,"correct":true,"confidence":-1},{"trial_n":3,"n_dots":4.25,"target":"left","response":"left","rt":700.10000000149,"correct":true,"confidence":-1},{"trial_n":4,"n_dots":3.85,"target":"left","response":"right","rt":543.70000000298,"correct":false,"confidence":-1},{"trial_n":5,"n_dots":4.25,"target":"left","response":"left","rt":550.69999999553,"correct":true,"confidence":-1},{"trial_n":6,"n_dots":4.25,"target":"left","response":"left","rt":512.59999999404,"correct":true,"confidence":-1},{"trial_n":7,"n_dots":3.85,"target":"left","response":"left","rt":545.80000000447,"correct":true,"confidence":-1},{"trial_n":8,"n_dots":3.85,"target":"left","response":"right","rt":446.19999999553,"correct":false,"confidence":-1},{"trial_n":9,"n_dots":4.05,"target":"right","response":"right","rt":496.60000000149,"correct":true,"confidence":-1},{"trial_n":10,"n_dots":4.05,"target":"left","response":"left","rt":409.39999999851,"correct":true,"confidence":-1},{"trial_n":11,"n_dots":3.85,"target":"right","response":"right","rt":540.89999999851,"correct":true,"confidence":-1},{"trial_n":12,"n_dots":3.85,"target":"left","response":"left","rt":354.59999999404,"correct":true,"confidence":-1},{"trial_n":13,"n_dots":3.75,"target":"left","response":"left","rt":383,"correct":true,"confidence":-1},{"trial_n":14,"n_dots":3.75,"target":"left","response":"left","rt":327.70000000298,"correct":true,"confidence":-1},{"trial_n":15,"n_dots":3.65,"target":"left","response":"left","rt":410.89999999851,"correct":true,"confidence":-1},{"trial_n":16,"n_dots":3.65,"target":"left","response":"left","rt":419.79999999702,"correct":true,"confidence":-1},{"trial_n":17,"n_dots":3.55,"target":"left","response":"left","rt":535.89999999851,"correct":true,"confidence":-1},{"trial_n":18,"n_dots":3.55,"target":"left","response":"left","rt":357.79999999702,"correct":true,"confidence":-1},{"trial_n":19,"n_dots":3.45,"target":"right","response":"right","rt":465.39999999851,"correct":true,"confidence":-1},{"trial_n":20,"n_dots":3.45,"target":"right","response":"right","rt":462.40000000596,"correct":true,"confidence":-1},{"trial_n":21,"n_dots":3.35,"target":"left","response":"left","rt":619.30000000447,"correct":true,"confidence":-1},{"trial_n":22,"n_dots":3.35,"target":"right","response":"right","rt":355.30000000447,"correct":true,"confidence":-1},{"trial_n":23,"n_dots":3.25,"target":"right","response":"right","rt":413.5,"correct":true,"confidence":-1},{"trial_n":24,"n_dots":3.25,"target":"right","response":"right","rt":622.60000000149,"correct":true,"confidence":-1},{"trial_n":25,"n_dots":3.15,"target":"left","response":"left","rt":376.60000000149,"correct":true,"confidence":-1},{"trial_n":26,"n_dots":3.15,"target":"left","response":"left","rt":387.10000000149,"correct":true,"confidence":-1},{"trial_n":27,"n_dots":3.05,"target":"right","response":"right","rt":482.39999999851,"correct":true,"confidence":4},{"trial_n":28,"n_dots":3.05,"target":"left","response":"left","rt":419.29999999702,"correct":true,"confidence":6},{"trial_n":29,"n_dots":2.95,"target":"right","response":"right","rt":622.79999999702,"correct":true,"confidence":3},{"trial_n":30,"n_dots":2.95,"target":"left","response":"left","rt":422.10000000149,"correct":true,"confidence":6},{"trial_n":31,"n_dots":2.85,"target":"left","response":"right","rt":313.79999999702,"correct":false,"confidence":6},{"trial_n":32,"n_dots":2.95,"target":"left","response":"left","rt":1206.8999999985,"correct":true,"confidence":6},{"trial_n":33,"n_dots":2.95,"target":"right","response":"left","rt":3475.6999999955,"correct":false,"confidence":2},{"trial_n":34,"n_dots":3.05,"target":"right","response":"right","rt":585.19999999553,"correct":true,"confidence":6},{"trial_n":35,"n_dots":3.05,"target":"left","response":"left","rt":508.39999999851,"correct":true,"confidence":5},{"trial_n":36,"n_dots":2.95,"target":"right","response":"left","rt":426.5,"correct":false,"confidence":5},{"trial_n":37,"n_dots":3.05,"target":"left","response":"right","rt":730.80000000447,"correct":false,"confidence":4},{"trial_n":38,"n_dots":3.15,"target":"right","response":"right","rt":746,"correct":true,"confidence":4},{"trial_n":39,"n_dots":3.15,"target":"left","response":"left","rt":600.30000000447,"correct":true,"confidence":3},{"trial_n":40,"n_dots":3.05,"target":"left","response":"left","rt":548.20000000298,"correct":true,"confidence":5},{"trial_n":41,"n_dots":3.05,"target":"right","response":"left","rt":503.5,"correct":false,"confidence":5},{"trial_n":42,"n_dots":3.15,"target":"left","response":"left","rt":556.59999999404,"correct":true,"confidence":3},{"trial_n":43,"n_dots":3.15,"target":"left","response":"right","rt":337,"correct":false,"confidence":5},{"trial_n":44,"n_dots":3.25,"target":"right","response":"right","rt":420.5,"correct":true,"confidence":6},{"trial_n":45,"n_dots":3.25,"target":"left","response":"left","rt":497.19999999553,"correct":true,"confidence":4},{"trial_n":46,"n_dots":3.15,"target":"left","response":"right","rt":454.69999999553,"correct":false,"confidence":5},{"trial_n":47,"n_dots":3.25,"target":"right","response":"left","rt":1788.099999994,"correct":false,"confidence":2},{"trial_n":48,"n_dots":3.35,"target":"left","response":"left","rt":601.89999999851,"correct":true,"confidence":5},{"trial_n":49,"n_dots":3.35,"target":"left","response":"left","rt":380.70000000298,"correct":true,"confidence":5},{"trial_n":50,"n_dots":3.25,"target":"left","response":"left","rt":554.90000000596,"correct":true,"confidence":4},{"trial_n":51,"n_dots":3.25,"target":"left","response":"left","rt":432.39999999851,"correct":true,"confidence":5},{"trial_n":52,"n_dots":3.15,"target":"right","response":"right","rt":476,"correct":true,"confidence":4},{"trial_n":53,"n_dots":3.15,"target":"left","response":"left","rt":238.80000000447,"correct":true,"confidence":5},{"trial_n":54,"n_dots":3.05,"target":"right","response":"right","rt":91.39999999851,"correct":true,"confidence":5},{"trial_n":55,"n_dots":3.05,"target":"right","response":"left","rt":906.39999999851,"correct":false,"confidence":2},{"trial_n":56,"n_dots":3.15,"target":"left","response":"left","rt":525.10000000149,"correct":true,"confidence":4},{"trial_n":57,"n_dots":3.15,"target":"right","response":"right","rt":525.10000000149,"correct":true,"confidence":5},{"trial_n":58,"n_dots":3.05,"target":"right","response":"right","rt":613.20000000298,"correct":true,"confidence":4},{"trial_n":59,"n_dots":3.05,"target":"right","response":"left","rt":785.5,"correct":false,"confidence":4},{"trial_n":60,"n_dots":3.15,"target":"right","response":"right","rt":82.89999999851,"correct":true,"confidence":6},{"trial_n":61,"n_dots":3.15,"target":"right","response":"right","rt":127.70000000298,"correct":true,"confidence":4},{"trial_n":62,"n_dots":3.05,"target":"right","response":"right","rt":950.10000000149,"correct":true,"confidence":4},{"trial_n":63,"n_dots":3.05,"target":"right","response":"right","rt":509.89999999851,"correct":true,"confidence":5},{"trial_n":64,"n_dots":2.95,"target":"left","response":"left","rt":551.29999999702,"correct":true,"confidence":6},{"trial_n":65,"n_dots":2.95,"target":"left","response":"left","rt":395.29999999702,"correct":true,"confidence":5},{"trial_n":66,"n_dots":2.85,"target":"left","response":"left","rt":415.29999999702,"correct":true,"confidence":4},{"trial_n":67,"n_dots":2.85,"target":"right","response":"right","rt":413.30000000447,"correct":true,"confidence":5},{"trial_n":68,"n_dots":2.75,"target":"left","response":"left","rt":365.19999999553,"correct":true,"confidence":5},{"trial_n":69,"n_dots":2.75,"target":"right","response":"right","rt":604.60000000149,"correct":true,"confidence":4},{"trial_n":70,"n_dots":2.65,"target":"left","response":"left","rt":342.39999999851,"correct":true,"confidence":6},{"trial_n":71,"n_dots":2.65,"target":"right","response":"left","rt":634.19999999553,"correct":false,"confidence":4},{"trial_n":72,"n_dots":2.75,"target":"left","response":"left","rt":241.79999999702,"correct":true,"confidence":6},{"trial_n":73,"n_dots":2.75,"target":"left","response":"left","rt":522,"correct":true,"confidence":4},{"trial_n":74,"n_dots":2.65,"target":"left","response":"left","rt":394.89999999851,"correct":true,"confidence":5},{"trial_n":75,"n_dots":2.65,"target":"right","response":"right","rt":89.79999999702,"correct":true,"confidence":6},{"trial_n":76,"n_dots":2.55,"target":"right","response":"right","rt":1215.1999999955,"correct":true,"confidence":6},{"trial_n":77,"n_dots":2.55,"target":"right","response":"right","rt":13.80000000447,"correct":true,"confidence":6},{"trial_n":78,"n_dots":2.45,"target":"right","response":"right","rt":622.60000000149,"correct":true,"confidence":5},{"trial_n":79,"n_dots":2.45,"target":"left","response":"left","rt":682.79999999702,"correct":true,"confidence":2},{"trial_n":80,"n_dots":2.35,"target":"left","response":"left","rt":579.39999999851,"correct":true,"confidence":4},{"trial_n":81,"n_dots":2.35,"target":"right","response":"left","rt":170.89999999851,"correct":false,"confidence":5},{"trial_n":82,"n_dots":2.45,"target":"left","response":"left","rt":419.39999999851,"correct":true,"confidence":5},{"trial_n":83,"n_dots":2.45,"target":"left","response":"left","rt":205.79999999702,"correct":true,"confidence":6},{"trial_n":84,"n_dots":2.35,"target":"left","response":"left","rt":477.79999999702,"correct":true,"confidence":5},{"trial_n":85,"n_dots":2.35,"target":"left","response":"left","rt":443.40000000596,"correct":true,"confidence":3},{"trial_n":86,"n_dots":2.25,"target":"left","response":"left","rt":1499.700000003,"correct":true,"confidence":2},{"trial_n":87,"n_dots":2.25,"target":"left","response":"right","rt":515.19999999553,"correct":false,"confidence":4},{"trial_n":88,"n_dots":2.35,"target":"right","response":"left","rt":1066.1000000015,"correct":false,"confidence":2},{"trial_n":89,"n_dots":2.45,"target":"left","response":"left","rt":97.69999999553,"correct":true,"confidence":6},{"trial_n":90,"n_dots":2.45,"target":"right","response":"right","rt":407.69999999553,"correct":true,"confidence":6},{"trial_n":91,"n_dots":2.35,"target":"right","response":"left","rt":1094.799999997,"correct":false,"confidence":4},{"trial_n":92,"n_dots":2.45,"target":"left","response":"right","rt":578.5,"correct":false,"confidence":5},{"trial_n":93,"n_dots":2.55,"target":"right","response":"left","rt":517.80000000447,"correct":false,"confidence":5},{"trial_n":94,"n_dots":2.65,"target":"right","response":"left","rt":318.70000000298,"correct":false,"confidence":5},{"trial_n":95,"n_dots":2.75,"target":"left","response":"left","rt":524.30000000447,"correct":true,"confidence":6},{"trial_n":96,"n_dots":2.75,"target":"right","response":"right","rt":456.70000000298,"correct":true,"confidence":4},{"trial_n":97,"n_dots":2.65,"target":"right","response":"left","rt":508.40000000596,"correct":false,"confidence":2},{"trial_n":98,"n_dots":2.75,"target":"right","response":"right","rt":492.69999999553,"correct":true,"confidence":5},{"trial_n":99,"n_dots":2.75,"target":"right","response":"right","rt":170,"correct":true,"confidence":6},{"trial_n":100,"n_dots":2.65,"target":"right","response":"left","rt":445.10000000149,"correct":false,"confidence":4},{"trial_n":101,"n_dots":2.75,"target":"right","response":"right","rt":454.90000000596,"correct":true,"confidence":5},{"trial_n":102,"n_dots":2.75,"target":"right","response":"left","rt":156.09999999404,"correct":false,"confidence":6},{"trial_n":103,"n_dots":2.85,"target":"left","response":"left","rt":408,"correct":true,"confidence":3},{"trial_n":104,"n_dots":2.85,"target":"left","response":"right","rt":475.60000000149,"correct":false,"confidence":3},{"trial_n":105,"n_dots":2.95,"target":"right","response":"right","rt":445,"correct":true,"confidence":6},{"trial_n":106,"n_dots":2.95,"target":"right","response":"right","rt":237.5,"correct":true,"confidence":4},{"trial_n":107,"n_dots":2.85,"target":"right","response":"right","rt":495.80000000447,"correct":true,"confidence":5},{"trial_n":108,"n_dots":2.85,"target":"right","response":"left","rt":614.79999999702,"correct":false,"confidence":6},{"trial_n":109,"n_dots":2.95,"target":"right","response":"right","rt":539.5,"correct":true,"confidence":4},{"trial_n":110,"n_dots":2.95,"target":"left","response":"left","rt":371.69999999553,"correct":true,"confidence":6},{"trial_n":111,"n_dots":2.85,"target":"left","response":"right","rt":366.69999999553,"correct":false,"confidence":5},{"trial_n":112,"n_dots":2.95,"target":"right","response":"right","rt":838.69999999553,"correct":true,"confidence":6},{"trial_n":113,"n_dots":2.95,"target":"right","response":"right","rt":455.29999999702,"correct":true,"confidence":6},{"trial_n":114,"n_dots":2.85,"target":"left","response":"right","rt":579.29999999702,"correct":false,"confidence":4},{"trial_n":115,"n_dots":2.95,"target":"right","response":"right","rt":926.60000000149,"correct":true,"confidence":3},{"trial_n":116,"n_dots":2.95,"target":"left","response":"left","rt":443.80000000447,"correct":true,"confidence":6},{"trial_n":117,"n_dots":2.85,"target":"right","response":"right","rt":737.5,"correct":true,"confidence":5},{"trial_n":118,"n_dots":2.85,"target":"right","response":"right","rt":727.30000000447,"correct":true,"confidence":4},{"trial_n":119,"n_dots":2.75,"target":"left","response":"left","rt":771.60000000149,"correct":true,"confidence":4},{"trial_n":120,"n_dots":2.75,"target":"left","response":"left","rt":730.80000000447,"correct":true,"confidence":5},{"trial_n":121,"n_dots":2.65,"target":"left","response":"right","rt":567,"correct":false,"confidence":3},{"trial_n":122,"n_dots":2.75,"target":"left","response":"left","rt":51.80000000447,"correct":true,"confidence":5},{"trial_n":123,"n_dots":2.75,"target":"right","response":"right","rt":392.10000000149,"correct":true,"confidence":4},{"trial_n":124,"n_dots":2.65,"target":"right","response":"right","rt":662,"correct":true,"confidence":5},{"trial_n":125,"n_dots":2.65,"target":"right","response":"right","rt":518,"correct":true,"confidence":6},{"trial_n":126,"n_dots":2.55,"target":"right","response":"right","rt":531.90000000596,"correct":true,"confidence":6},{"trial_n":127,"n_dots":2.55,"target":"left","response":"left","rt":365.70000000298,"correct":true,"confidence":6},{"trial_n":128,"n_dots":2.45,"target":"left","response":"left","rt":198.5,"correct":true,"confidence":4},{"trial_n":129,"n_dots":2.45,"target":"left","response":"left","rt":854.39999999851,"correct":true,"confidence":4},{"trial_n":130,"n_dots":2.35,"target":"left","response":"right","rt":1672.900000006,"correct":false,"confidence":5},{"trial_n":131,"n_dots":2.45,"target":"right","response":"right","rt":218.30000000447,"correct":true,"confidence":5},{"trial_n":132,"n_dots":2.45,"target":"right","response":"left","rt":428,"correct":false,"confidence":5},{"trial_n":133,"n_dots":2.55,"target":"left","response":"left","rt":1133.799999997,"correct":true,"confidence":2},{"trial_n":134,"n_dots":2.55,"target":"right","response":"right","rt":422.89999999851,"correct":true,"confidence":6},{"trial_n":135,"n_dots":2.45,"target":"left","response":"left","rt":995.70000000298,"correct":true,"confidence":5},{"trial_n":136,"n_dots":2.45,"target":"right","response":"right","rt":350.69999999553,"correct":true,"confidence":4},{"trial_n":137,"n_dots":2.35,"target":"right","response":"left","rt":789.80000000447,"correct":false,"confidence":1},{"trial_n":138,"n_dots":2.45,"target":"left","response":"left","rt":249.90000000596,"correct":true,"confidence":3},{"trial_n":139,"n_dots":2.45,"target":"left","response":"right","rt":652,"correct":false,"confidence":4},{"trial_n":140,"n_dots":2.55,"target":"left","response":"left","rt":470.20000000298,"correct":true,"confidence":5},{"trial_n":141,"n_dots":2.55,"target":"right","response":"right","rt":780.89999999851,"correct":true,"confidence":2},{"trial_n":142,"n_dots":2.45,"target":"left","response":"left","rt":487.80000000447,"correct":true,"confidence":3},{"trial_n":143,"n_dots":2.45,"target":"left","response":"right","rt":847.5,"correct":false,"confidence":3},{"trial_n":144,"n_dots":2.55,"target":"right","response":"right","rt":411.20000000298,"correct":true,"confidence":4},{"trial_n":145,"n_dots":2.55,"target":"left","response":"left","rt":427,"correct":true,"confidence":4},{"trial_n":146,"n_dots":2.45,"target":"left","response":"left","rt":786,"correct":true,"confidence":5},{"trial_n":147,"n_dots":2.45,"target":"left","response":"right","rt":179.90000000596,"correct":false,"confidence":5},{"trial_n":148,"n_dots":2.55,"target":"right","response":"right","rt":184,"correct":true,"confidence":6},{"trial_n":149,"n_dots":2.55,"target":"right","response":"right","rt":323.39999999851,"correct":true,"confidence":6},{"trial_n":150,"n_dots":2.45,"target":"right","response":"left","rt":1022.1000000015,"correct":false,"confidence":3},{"trial_n":151,"n_dots":2.55,"target":"left","response":"left","rt":476.5,"correct":true,"confidence":5},{"trial_n":152,"n_dots":2.55,"target":"right","response":"right","rt":580.40000000596,"correct":true,"confidence":4},{"trial_n":153,"n_dots":2.45,"target":"right","response":"left","rt":242.10000000149,"correct":false,"confidence":6},{"trial_n":154,"n_dots":2.55,"target":"left","response":"left","rt":567.5,"correct":true,"confidence":5},{"trial_n":155,"n_dots":2.55,"target":"right","response":"right","rt":225.79999999702,"correct":true,"confidence":5},{"trial_n":156,"n_dots":2.45,"target":"left","response":"left","rt":580.29999999702,"correct":true,"confidence":6},{"trial_n":157,"n_dots":2.45,"target":"right","response":"right","rt":498,"correct":true,"confidence":6},{"trial_n":158,"n_dots":2.35,"target":"right","response":"left","rt":392,"correct":false,"confidence":5},{"trial_n":159,"n_dots":2.45,"target":"right","response":"right","rt":364.5,"correct":true,"confidence":4},{"trial_n":160,"n_dots":2.45,"target":"right","response":"left","rt":646.20000000298,"correct":false,"confidence":5},{"trial_n":161,"n_dots":2.55,"target":"left","response":"left","rt":1232,"correct":true,"confidence":5},{"trial_n":162,"n_dots":2.55,"target":"left","response":"left","rt":953.39999999851,"correct":true,"confidence":6},{"trial_n":163,"n_dots":2.45,"target":"right","response":"left","rt":451,"correct":false,"confidence":2},{"trial_n":164,"n_dots":2.55,"target":"right","response":"left","rt":1562.5,"correct":false,"confidence":2},{"trial_n":165,"n_dots":2.65,"target":"left","response":"right","rt":173.79999999702,"correct":false,"confidence":1},{"trial_n":166,"n_dots":2.75,"target":"right","response":"right","rt":2324.8999999985,"correct":true,"confidence":2},{"trial_n":167,"n_dots":2.75,"target":"left","response":"left","rt":319.89999999851,"correct":true,"confidence":6},{"trial_n":168,"n_dots":2.65,"target":"right","response":"right","rt":445.29999999702,"correct":true,"confidence":6},{"trial_n":169,"n_dots":2.65,"target":"right","response":"left","rt":433.79999999702,"correct":false,"confidence":4},{"trial_n":170,"n_dots":2.75,"target":"left","response":"right","rt":1881.1000000015,"correct":false,"confidence":4},{"trial_n":171,"n_dots":2.85,"target":"right","response":"right","rt":433.20000000298,"correct":true,"confidence":6},{"trial_n":172,"n_dots":2.85,"target":"right","response":"right","rt":337.60000000149,"correct":true,"confidence":6},{"trial_n":173,"n_dots":2.75,"target":"left","response":"left","rt":422.10000000149,"correct":true,"confidence":6},{"trial_n":174,"n_dots":2.75,"target":"left","response":"right","rt":434.19999999553,"correct":false,"confidence":1},{"trial_n":175,"n_dots":2.85,"target":"left","response":"left","rt":475.30000000447,"correct":true,"confidence":4},{"trial_n":176,"n_dots":2.85,"target":"left","response":"left","rt":589.30000000447,"correct":true,"confidence":5},{"trial_n":177,"n_dots":2.75,"target":"left","response":"left","rt":394,"correct":true,"confidence":6},{"trial_n":178,"n_dots":2.75,"target":"right","response":"right","rt":1084.1000000015,"correct":true,"confidence":2},{"trial_n":179,"n_dots":2.65,"target":"right","response":"right","rt":461.80000000447,"correct":true,"confidence":5},{"trial_n":180,"n_dots":2.65,"target":"left","response":"left","rt":890.5,"correct":true,"confidence":4},{"trial_n":181,"n_dots":2.55,"target":"left","response":"left","rt":632.10000000149,"correct":true,"confidence":4},{"trial_n":182,"n_dots":2.55,"target":"left","response":"left","rt":227.20000000298,"correct":true,"confidence":5},{"trial_n":183,"n_dots":2.45,"target":"right","response":"left","rt":404,"correct":false,"confidence":5},{"trial_n":184,"n_dots":2.55,"target":"right","response":"left","rt":461.70000000298,"correct":false,"confidence":5},{"trial_n":185,"n_dots":2.65,"target":"left","response":"left","rt":446.79999999702,"correct":true,"confidence":6},{"trial_n":186,"n_dots":2.65,"target":"right","response":"right","rt":931.39999999851,"correct":true,"confidence":5},{"trial_n":187,"n_dots":2.55,"target":"right","response":"left","rt":260,"correct":false,"confidence":3},{"trial_n":188,"n_dots":2.65,"target":"right","response":"right","rt":452.60000000149,"correct":true,"confidence":2},{"trial_n":189,"n_dots":2.65,"target":"right","response":"right","rt":582.09999999404,"correct":true,"confidence":6},{"trial_n":190,"n_dots":2.55,"target":"right","response":"right","rt":383.10000000149,"correct":true,"confidence":6},{"trial_n":191,"n_dots":2.55,"target":"left","response":"right","rt":668.39999999851,"correct":false,"confidence":4},{"trial_n":192,"n_dots":2.65,"target":"right","response":"right","rt":697.89999999851,"correct":true,"confidence":4},{"trial_n":193,"n_dots":2.65,"target":"right","response":"right","rt":582.5,"correct":true,"confidence":6},{"trial_n":194,"n_dots":2.55,"target":"right","response":"right","rt":512.19999999553,"correct":true,"confidence":5}]