[{"trial_n":1,"n_dots":4.25,"target":"left","response":"left","rt":15465,"correct":true,"confidence":-1},{"trial_n":2,"n_dots":4.25,"target":"right","response":"left","rt":2650.5999999996,"correct":false,"confidence":-1},{"trial_n":3,"n_dots":4.65,"target":"left","response":"left","rt":1134.7999999998,"correct":true,"confidence":-1},{"trial_n":4,"n_dots":4.65,"target":"left","response":"left","rt":975.09999999963,"correct":true,"confidence":-1},{"trial_n":5,"n_dots":4.25,"target":"right","response":"right","rt":1066.5999999996,"correct":true,"confidence":-1},{"trial_n":6,"n_dots":4.25,"target":"right","response":"right","rt":871.29999999981,"correct":true,"confidence":-1},{"trial_n":7,"n_dots":3.85,"target":"right","response":"left","rt":808.09999999963,"correct":false,"confidence":-1},{"trial_n":8,"n_dots":4.05,"target":"right","response":"left","rt":952.70000000019,"correct":false,"confidence":-1},{"trial_n":9,"n_dots":4.25,"target":"right","response":"right","rt":735.60000000056,"correct":true,"confidence":-1},{"trial_n":10,"n_dots":4.25,"target":"left","response":"left","rt":844.20000000019,"correct":true,"confidence":-1},{"trial_n":11,"n_dots":4.05,"target":"right","response":"left","rt":1201.9000000004,"correct":false,"confidence":-1},{"trial_n":12,"n_dots":4.25,"target":"left","response":"left","rt":640,"correct":true,"confidence":-1},{"trial_n":13,"n_dots":4.25,"target":"right","response":"right","rt":797.70000000019,"correct":true,"confidence":-1},{"trial_n":14,"n_dots":4.15,"target":"right","response":"right","rt":714.5,"correct":true,"confidence":-1},{"trial_n":15,"n_dots":4.15,"target":"left","response":"left","rt":725.20000000019,"correct":true,"confidence":-1},{"trial_n":16,"n_dots":4.05,"target":"right","response":"right","rt":1007.0999999996,"correct":true,"confidence":-1},{"trial_n":17,"n_dots":4.05,"target":"left","response":"left","rt":705.09999999963,"correct":true,"confidence":-1},{"trial_n":18,"n_dots":3.95,"target":"right","response":"left","rt":859.5,"correct":false,"confidence":-1},{"trial_n":19,"n_dots":4.05,"target":"left","response":"left","rt":719.29999999981,"correct":true,"confidence":-1},{"trial_n":20,"n_dots":4.05,"target":"left","response":"left","rt":680.20000000019,"correct":true,"confidence":-1},{"trial_n":21,"n_dots":3.95,"target":"right","response":"right","rt":666.80000000075,"correct":true,"confidence":-1},{"trial_n":22,"n_dots":3.95,"target":"right","response":"right","rt":666.80000000075,"correct":true,"confidence":-1},{"trial_n":23,"n_dots":3.85,"target":"right","response":"right","rt":790.20000000019,"correct":true,"confidence":-1},{"trial_n":24,"n_dots":3.85,"target":"left","response":"left","rt":634,"correct":true,"confidence":-1},{"trial_n":25,"n_dots":3.75,"target":"left","response":"left","rt":544.30000000075,"correct":true,"confidence":-1},{"trial_n":26,"n_dots":3.75,"target":"right","response":"left","rt":594.90000000037,"correct":false,"confidence":-1},{"trial_n":27,"n_dots":3.85,"target":"right","response":"left","rt":1048.1000000006,"correct":false,"confidence":4},{"trial_n":28,"n_dots":3.95,"target":"left","response":"left","rt":870.89999999944,"correct":true,"confidence":5},{"trial_n":29,"n_dots":3.95,"target":"left","response":"left","rt":773.89999999944,"correct":true,"confidence":6},{"trial_n":30,"n_dots":3.85,"target":"left","response":"left","rt":1521.2999999998,"correct":true,"confidence":4},{"trial_n":31,"n_dots":3.85,"target":"right","response":"right","rt":1126.5,"correct":true,"confidence":3},{"trial_n":32,"n_dots":3.75,"target":"left","response":"left","rt":878.10000000056,"correct":true,"confidence":4},{"trial_n":33,"n_dots":3.75,"target":"right","response":"left","rt":1769.2000000002,"correct":false,"confidence":3},{"trial_n":34,"n_dots":3.85,"target":"right","response":"right","rt":742.39999999944,"correct":true,"confidence":4},{"trial_n":35,"n_dots":3.85,"target":"right","response":"right","rt":923.29999999981,"correct":true,"confidence":3},{"trial_n":36,"n_dots":3.75,"target":"left","response":"left","rt":1077.7999999998,"correct":true,"confidence":3},{"trial_n":37,"n_dots":3.75,"target":"left","response":"left","rt":760.29999999981,"correct":true,"confidence":5},{"trial_n":38,"n_dots":3.65,"target":"left","response":"left","rt":796,"correct":true,"confidence":5},{"trial_n":39,"n_dots":3.65,"target":"right","response":"right","rt":825.5,"correct":true,"confidence":4},{"trial_n":40,"n_dots":3.55,"target":"right","response":"left","rt":741.79999999981,"correct":false,"confidence":3},{"trial_n":41,"n_dots":3.65,"target":"left","response":"left","rt":682.60000000056,"correct":true,"confidence":6},{"trial_n":42,"n_dots":3.65,"target":"right","response":"right","rt":753,"correct":true,"confidence":3},{"trial_n":43,"n_dots":3.55,"target":"right","response":"right","rt":575,"correct":true,"confidence":4},{"trial_n":44,"n_dots":3.55,"target":"right","response":"right","rt":1012.2999999998,"correct":true,"confidence":3},{"trial_n":45,"n_dots":3.45,"target":"right","response":"right","rt":871.20000000019,"correct":true,"confidence":4},{"trial_n":46,"n_dots":3.45,"target":"left","response":"left","rt":615.09999999963,"correct":true,"confidence":5},{"trial_n":47,"n_dots":3.35,"target":"right","response":"right","rt":540.40000000037,"correct":true,"confidence":6},{"trial_n":48,"n_dots":3.35,"target":"left","response":"left","rt":626.79999999981,"correct":true,"confidence":5},{"trial_n":49,"n_dots":3.25,"target":"left","response":"left","rt":1273,"correct":true,"confidence":3},{"trial_n":50,"n_dots":3.25,"target":"right","response":"right","rt":527.29999999981,"correct":true,"confidence":4},{"trial_n":51,"n_dots":3.15,"target":"left","response":"right","rt":893.89999999944,"correct":false,"confidence":4},{"trial_n":52,"n_dots":3.25,"target":"left","response":"left","rt":528,"correct":true,"confidence":4},{"trial_n":53,"n_dots":3.25,"target":"right","response":"right","rt":636.70000000019,"correct":true,"confidence":3},{"trial_n":54,"n_dots":3.15,"target":"left","response":"left","rt":495.90000000037,"correct":true,"confidence":5},{"trial_n":55,"n_dots":3.15,"target":"left","response":"left","rt":1336,"correct":true,"confidence":4},{"trial_n":56,"n_dots":3.05,"target":"right","response":"right","rt":635.69999999925,"correct":true,"confidence":4},{"trial_n":57,"n_dots":3.05,"target":"left","response":"left","rt":576,"correct":true,"confidence":6},{"trial_n":58,"n_dots":2.95,"target":"left","response":"left","rt":751.20000000019,"correct":true,"confidence":5},{"trial_n":59,"n_dots":2.95,"target":"right","response":"left","rt":13390.5,"correct":false,"confidence":1},{"trial_n":60,"n_dots":3.05,"target":"left","response":"left","rt":535,"correct":true,"confidence":3},{"trial_n":61,"n_dots":3.05,"target":"left","response":"left","rt":707,"correct":true,"confidence":4},{"trial_n":62,"n_dots":2.95,"target":"right","response":"right","rt":859.60000000056,"correct":true,"confidence":3},{"trial_n":63,"n_dots":2.95,"target":"left","response":"right","rt":684.09999999963,"correct":false,"confidence":3},{"trial_n":64,"n_dots":3.05,"target":"right","response":"left","rt":692.59999999963,"correct":false,"confidence":3},{"trial_n":65,"n_dots":3.15,"target":"right","response":"right","rt":455.59999999963,"correct":true,"confidence":6},{"trial_n":66,"n_dots":3.15,"target":"left","response":"right","rt":649.89999999944,"correct":false,"confidence":4},{"trial_n":67,"n_dots":3.25,"target":"right","response":"right","rt":523.59999999963,"correct":true,"confidence":3},{"trial_n":68,"n_dots":3.25,"target":"right","response":"right","rt":789.20000000019,"correct":true,"confidence":5},{"trial_n":69,"n_dots":3.15,"target":"right","response":"right","rt":384.09999999963,"correct":true,"confidence":6},{"trial_n":70,"n_dots":3.15,"target":"left","response":"left","rt":616.39999999944,"correct":true,"confidence":4},{"trial_n":71,"n_dots":3.05,"target":"right","response":"right","rt":834.29999999981,"correct":true,"confidence":2},{"trial_n":72,"n_dots":3.05,"target":"right","response":"right","rt":852.29999999981,"correct":true,"confidence":3},{"trial_n":73,"n_dots":2.95,"target":"right","response":"right","rt":473.79999999981,"correct":true,"confidence":6},{"trial_n":74,"n_dots":2.95,"target":"right","response":"right","rt":881.39999999944,"correct":true,"confidence":4},{"trial_n":75,"n_dots":2.85,"target":"left","response":"left","rt":669.79999999981,"correct":true,"confidence":1},{"trial_n":76,"n_dots":2.85,"target":"left","response":"left","rt":1040.2000000002,"correct":true,"confidence":5},{"trial_n":77,"n_dots":2.75,"target":"left","response":"right","rt":1238.4000000004,"correct":false,"confidence":3},{"trial_n":78,"n_dots":2.85,"target":"left","response":"right","rt":789.5,"correct":false,"confidence":3},{"trial_n":79,"n_dots":2.95,"target":"right","response":"left","rt":3941840,"correct":false,"confidence":1},{"trial_n":80,"n_dots":3.05,"target":"right","response":"left","rt":795.89999999851,"correct":false,"confidence":2},{"trial_n":81,"n_dots":3.15,"target":"right","response":"left","rt":606.5,"correct":false,"confidence":3},{"trial_n":82,"n_dots":3.25,"target":"right","response":"right","rt":615.79999999888,"correct":true,"confidence":4},{"trial_n":83,"n_dots":3.25,"target":"left","response":"left","rt":660.59999999963,"correct":true,"confidence":5},{"trial_n":84,"n_dots":3.15,"target":"right","response":"left","rt":772,"correct":false,"confidence":3},{"trial_n":85,"n_dots":3.25,"target":"left","response":"left","rt":5945.5,"correct":true,"confidence":1},{"trial_n":86,"n_dots":3.25,"target":"left","response":"left","rt":682.90000000037,"correct":true,"confidence":6},{"trial_n":87,"n_dots":3.15,"target":"right","response":"left","rt":517.89999999851,"correct":false,"confidence":4},{"trial_n":88,"n_dots":3.25,"target":"left","response":"left","rt":659.40000000037,"correct":true,"confidence":3},{"trial_n":89,"n_dots":3.25,"target":"right","response":"right","rt":993.90000000037,"correct":true,"confidence":3},{"trial_n":90,"n_dots":3.15,"target":"right","response":"right","rt":1027.4000000004,"correct":true,"confidence":3},{"trial_n":91,"n_dots":3.15,"target":"left","response":"left","rt":566.09999999963,"correct":true,"confidence":3},{"trial_n":92,"n_dots":3.05,"target":"right","response":"right","rt":735.40000000037,"correct":true,"confidence":3},{"trial_n":93,"n_dots":3.05,"target":"left","response":"left","rt":485.90000000037,"correct":true,"confidence":5},{"trial_n":94,"n_dots":2.95,"target":"left","response":"right","rt":1043.0999999996,"correct":false,"confidence":3},{"trial_n":95,"n_dots":3.05,"target":"left","response":"left","rt":557.30000000075,"correct":true,"confidence":4},{"trial_n":96,"n_dots":3.05,"target":"right","response":"right","rt":607.90000000037,"correct":true,"confidence":4},{"trial_n":97,"n_dots":2.95,"target":"left","response":"left","rt":455.5,"correct":true,"confidence":5},{"trial_n":98,"n_dots":2.95,"target":"right","response":"right","rt":685.59999999963,"correct":true,"confidence":3},{"trial_n":99,"n_dots":2.85,"target":"left","response":"left","rt":435.5,"correct":true,"confidence":3},{"trial_n":100,"n_dots":2.85,"target":"left","response":"left","rt":668.19999999925,"correct":true,"confidence":3},{"trial_n":101,"n_dots":2.75,"target":"right","response":"right","rt":597,"correct":true,"confidence":4},{"trial_n":102,"n_dots":2.75,"target":"left","response":"right","rt":681.5,"correct":false,"confidence":4},{"trial_n":103,"n_dots":2.85,"target":"left","response":"right","rt":767.40000000037,"correct":false,"confidence":3},{"trial_n":104,"n_dots":2.95,"target":"left","response":"left","rt":519.09999999963,"correct":true,"confidence":4},{"trial_n":105,"n_dots":2.95,"target":"left","response":"left","rt":354.09999999963,"correct":true,"confidence":6},{"trial_n":106,"n_dots":2.85,"target":"left","response":"right","rt":66044.5,"correct":false,"confidence":2},{"trial_n":107,"n_dots":2.95,"target":"left","response":"left","rt":356.80000000075,"correct":true,"confidence":6},{"trial_n":108,"n_dots":2.95,"target":"right","response":"left","rt":478,"correct":false,"confidence":4},{"trial_n":109,"n_dots":3.05,"target":"right","response":"right","rt":572.80000000075,"correct":true,"confidence":4},{"trial_n":110,"n_dots":3.05,"target":"right","response":"right","rt":659.80000000075,"correct":true,"confidence":4},{"trial_n":111,"n_dots":2.95,"target":"left","response":"left","rt":396.70000000112,"correct":true,"confidence":4},{"trial_n":112,"n_dots":2.95,"target":"left","response":"left","rt":501.40000000037,"correct":true,"confidence":5},{"trial_n":113,"n_dots":2.85,"target":"right","response":"right","rt":582.10000000149,"correct":true,"confidence":4},{"trial_n":114,"n_dots":2.85,"target":"left","response":"right","rt":746.40000000037,"correct":false,"confidence":4},{"trial_n":115,"n_dots":2.95,"target":"left","response":"left","rt":456.90000000037,"correct":true,"confidence":3},{"trial_n":116,"n_dots":2.95,"target":"left","response":"left","rt":673.69999999925,"correct":true,"confidence":4},{"trial_n":117,"n_dots":2.85,"target":"right","response":"left","rt":560,"correct":false,"confidence":4},{"trial_n":118,"n_dots":2.95,"target":"right","response":"right","rt":403.10000000149,"correct":true,"confidence":5},{"trial_n":119,"n_dots":2.95,"target":"left","response":"left","rt":537.10000000149,"correct":true,"confidence":4},{"trial_n":120,"n_dots":2.85,"target":"right","response":"left","rt":592,"correct":false,"confidence":4},{"trial_n":121,"n_dots":2.95,"target":"right","response":"right","rt":661.40000000037,"correct":true,"confidence":4},{"trial_n":122,"n_dots":2.95,"target":"left","response":"left","rt":465.69999999925,"correct":true,"confidence":4},{"trial_n":123,"n_dots":2.85,"target":"left","response":"left","rt":373.59999999963,"correct":true,"confidence":5},{"trial_n":124,"n_dots":2.85,"target":"left","response":"right","rt":369.5,"correct":false,"confidence":3},{"trial_n":125,"n_dots":2.95,"target":"left","response":"left","rt":302.69999999925,"correct":true,"confidence":5},{"trial_n":126,"n_dots":2.95,"target":"right","response":"right","rt":454.29999999888,"correct":true,"confidence":4},{"trial_n":127,"n_dots":2.85,"target":"left","response":"left","rt":440.29999999888,"correct":true,"confidence":1},{"trial_n":128,"n_dots":2.85,"target":"left","response":"left","rt":534.19999999925,"correct":true,"confidence":4},{"trial_n":129,"n_dots":2.75,"target":"left","response":"left","rt":636.29999999888,"correct":true,"confidence":4},{"trial_n":130,"n_dots":2.75,"target":"left","response":"left","rt":515.5,"correct":true,"confidence":4},{"trial_n":131,"n_dots":2.65,"target":"right","response":"right","rt":502,"correct":true,"confidence":4},{"trial_n":132,"n_dots":2.65,"target":"left","response":"left","rt":494.19999999925,"correct":true,"confidence":4},{"trial_n":133,"n_dots":2.55,"target":"left","response":"left","rt":497.09999999963,"correct":true,"confidence":3},{"trial_n":134,"n_dots":2.55,"target":"left","response":"left","rt":520,"correct":true,"confidence":3},{"trial_n":135,"n_dots":2.45,"target":"right","response":"right","rt":614,"correct":true,"confidence":5},{"trial_n":136,"n_dots":2.45,"target":"right","response":"right","rt":654.80000000075,"correct":true,"confidence":5},{"trial_n":137,"n_dots":2.35,"target":"right","response":"left","rt":540.79999999888,"correct":false,"confidence":4},{"trial_n":138,"n_dots":2.45,"target":"right","response":"left","rt":613.19999999925,"correct":false,"confidence":4},{"trial_n":139,"n_dots":2.55,"target":"right","response":"left","rt":359.5,"correct":false,"confidence":4},{"trial_n":140,"n_dots":2.65,"target":"right","response":"left","rt":577,"correct":false,"confidence":4},{"trial_n":141,"n_dots":2.75,"target":"left","response":"left","rt":684.29999999888,"correct":true,"confidence":4},{"trial_n":142,"n_dots":2.75,"target":"right","response":"right","rt":374.19999999925,"correct":true,"confidence":4},{"trial_n":143,"n_dots":2.65,"target":"left","response":"left","rt":389.90000000037,"correct":true,"confidence":5},{"trial_n":144,"n_dots":2.65,"target":"right","response":"right","rt":763.90000000037,"correct":true,"confidence":2},{"trial_n":145,"n_dots":2.55,"target":"right","response":"right","rt":553.19999999925,"correct":true,"confidence":3},{"trial_n":146,"n_dots":2.55,"target":"left","response":"left","rt":464.29999999888,"correct":true,"confidence":5},{"trial_n":147,"n_dots":2.45,"target":"right","response":"right","rt":532.09999999963,"correct":true,"confidence":5},{"trial_n":148,"n_dots":2.45,"target":"left","response":"left","rt":524.30000000075,"correct":true,"confidence":5},{"trial_n":149,"n_dots":2.35,"target":"left","response":"left","rt":486.09999999963,"correct":true,"confidence":4},{"trial_n":150,"n_dots":2.35,"target":"left","response":"right","rt":614.40000000037,"correct":false,"confidence":3},{"trial_n":151,"n_dots":2.45,"target":"left","response":"left","rt":688.19999999925,"correct":true,"confidence":4},{"trial_n":152,"n_dots":2.45,"target":"right","response":"right","rt":932.09999999963,"correct":true,"confidence":6},{"trial_n":153,"n_dots":2.35,"target":"left","response":"left","rt":1669.2000000011,"correct":true,"confidence":4},{"trial_n":154,"n_dots":2.35,"target":"right","response":"right","rt":747.69999999925,"correct":true,"confidence":4},{"trial_n":155,"n_dots":2.25,"target":"right","response":"left","rt":3853.5,"correct":false,"confidence":2},{"trial_n":156,"n_dots":2.35,"target":"left","response":"left","rt":405.5,"correct":true,"confidence":4},{"trial_n":157,"n_dots":2.35,"target":"right","response":"left","rt":404.40000000037,"correct":false,"confidence":5},{"trial_n":158,"n_dots":2.45,"target":"right","response":"left","rt":910.90000000037,"correct":false,"confidence":3},{"trial_n":159,"n_dots":2.55,"target":"left","response":"left","rt":7729.1999999993,"correct":true,"confidence":1},{"trial_n":160,"n_dots":2.55,"target":"right","response":"left","rt":580.09999999963,"correct":false,"confidence":3},{"trial_n":161,"n_dots":2.65,"target":"left","response":"left","rt":321.30000000075,"correct":true,"confidence":5},{"trial_n":162,"n_dots":2.65,"target":"right","response":"left","rt":435.09999999963,"correct":false,"confidence":5},{"trial_n":163,"n_dots":2.75,"target":"left","response":"left","rt":491,"correct":true,"confidence":4},{"trial_n":164,"n_dots":2.75,"target":"right","response":"right","rt":328,"correct":true,"confidence":4},{"trial_n":165,"n_dots":2.65,"target":"left","response":"right","rt":303.80000000075,"correct":false,"confidence":5},{"trial_n":166,"n_dots":2.75,"target":"right","response":"right","rt":347.30000000075,"correct":true,"confidence":6},{"trial_n":167,"n_dots":2.75,"target":"right","response":"right","rt":469.69999999925,"correct":true,"confidence":6},{"trial_n":168,"n_dots":2.65,"target":"right","response":"right","rt":1317.1000000015,"correct":true,"confidence":3},{"trial_n":169,"n_dots":2.65,"target":"left","response":"left","rt":960.90000000037,"correct":true,"confidence":4},{"trial_n":170,"n_dots":2.55,"target":"right","response":"right","rt":536.5,"correct":true,"confidence":4},{"trial_n":171,"n_dots":2.55,"target":"right","response":"right","rt":620.90000000037,"correct":true,"confidence":4},{"trial_n":172,"n_dots":2.45,"target":"right","response":"right","rt":453.19999999925,"correct":true,"confidence":4},{"trial_n":173,"n_dots":2.45,"target":"left","response":"right","rt":954.80000000075,"correct":false,"confidence":3},{"trial_n":174,"n_dots":2.55,"target":"right","response":"left","rt":1185.9000000004,"correct":false,"confidence":3},{"trial_n":175,"n_dots":2.65,"target":"left","response":"right","rt":899.90000000037,"correct":false,"confidence":3},{"trial_n":176,"n_dots":2.75,"target":"right","response":"right","rt":433,"correct":true,"confidence":3},{"trial_n":177,"n_dots":2.75,"target":"left","response":"right","rt":384.69999999925,"correct":false,"confidence":2},{"trial_n":178,"n_dots":2.85,"target":"right","response":"right","rt":595.90000000037,"correct":true,"confidence":4},{"trial_n":179,"n_dots":2.85,"target":"right","response":"left","rt":694.70000000112,"correct":false,"confidence":3},{"trial_n":180,"n_dots":2.95,"target":"right","response":"right","rt":573.09999999963,"correct":true,"confidence":4},{"trial_n":181,"n_dots":2.95,"target":"right","response":"right","rt":447.59999999963,"correct":true,"confidence":4},{"trial_n":182,"n_dots":2.85,"target":"right","response":"right","rt":698.30000000075,"correct":true,"confidence":4},{"trial_n":183,"n_dots":2.85,"target":"left","response":"right","rt":238.90000000037,"correct":false,"confidence":4},{"trial_n":184,"n_dots":2.95,"target":"left","response":"right","rt":996.59999999963,"correct":false,"confidence":3},{"trial_n":185,"n_dots":3.05,"target":"right","response":"right","rt":389.70000000112,"correct":true,"confidence":4},{"trial_n":186,"n_dots":3.05,"target":"left","response":"left","rt":506,"correct":true,"confidence":4},{"trial_n":187,"n_dots":2.95,"target":"left","response":"left","rt":509,"correct":true,"confidence":3},{"trial_n":188,"n_dots":2.95,"target":"right","response":"right","rt":609.09999999963,"correct":true,"confidence":5},{"trial_n":189,"n_dots":2.85,"target":"left","response":"right","rt":569.29999999888,"correct":false,"confidence":4},{"trial_n":190,"n_dots":2.95,"target":"left","response":"left","rt":528.39999999851,"correct":true,"confidence":4},{"trial_n":191,"n_dots":2.95,"target":"right","response":"right","rt":390.19999999925,"correct":true,"confidence":3},{"trial_n":192,"n_dots":2.85,"target":"left","response":"right","rt":523.90000000037,"correct":false,"confidence":4},{"trial_n":193,"n_dots":2.95,"target":"left","response":"left","rt":700.90000000037,"correct":true,"confidence":3},{"trial_n":194,"n_dots":2.95,"target":"left","response":"left","rt":975.90000000037,"correct":true,"confidence":6}]