[{"trial_n":1,"n_dots":4.25,"target":"left","response":"right","rt":2866.7999999523,"correct":false,"confidence":-1},{"trial_n":2,"n_dots":4.25,"target":"right","response":"left","rt":439.79999995232,"correct":false,"confidence":-1},{"trial_n":3,"n_dots":4.65,"target":"right","response":"right","rt":311.39999985695,"correct":true,"confidence":-1},{"trial_n":4,"n_dots":4.65,"target":"right","response":"right","rt":4442.9000000954,"correct":true,"confidence":-1},{"trial_n":5,"n_dots":4.25,"target":"left","response":"left","rt":408.90000009537,"correct":true,"confidence":-1},{"trial_n":6,"n_dots":4.25,"target":"left","response":"left","rt":870.29999995232,"correct":true,"confidence":-1},{"trial_n":7,"n_dots":3.85,"target":"right","response":"left","rt":3255.4000000954,"correct":false,"confidence":-1},{"trial_n":8,"n_dots":4.05,"target":"left","response":"left","rt":40,"correct":true,"confidence":-1},{"trial_n":9,"n_dots":4.05,"target":"right","response":"right","rt":70.600000143051,"correct":true,"confidence":-1},{"trial_n":10,"n_dots":3.85,"target":"left","response":"left","rt":1249.8000001907,"correct":true,"confidence":-1},{"trial_n":11,"n_dots":3.85,"target":"left","response":"left","rt":30.099999904633,"correct":true,"confidence":-1},{"trial_n":12,"n_dots":3.65,"target":"right","response":"right","rt":68.700000047684,"correct":true,"confidence":-1},{"trial_n":13,"n_dots":3.65,"target":"right","response":"right","rt":294.59999990463,"correct":true,"confidence":-1},{"trial_n":14,"n_dots":3.55,"target":"right","response":"right","rt":177.29999995232,"correct":true,"confidence":-1},{"trial_n":15,"n_dots":3.55,"target":"left","response":"left","rt":232.29999995232,"correct":true,"confidence":-1},{"trial_n":16,"n_dots":3.45,"target":"left","response":"left","rt":207.09999990463,"correct":true,"confidence":-1},{"trial_n":17,"n_dots":3.45,"target":"left","response":"left","rt":136.40000009537,"correct":true,"confidence":-1},{"trial_n":18,"n_dots":3.35,"target":"right","response":"right","rt":409,"correct":true,"confidence":-1},{"trial_n":19,"n_dots":3.35,"target":"right","response":"left","rt":1358.4000000954,"correct":false,"confidence":-1},{"trial_n":20,"n_dots":3.45,"target":"left","response":"left","rt":196.39999985695,"correct":true,"confidence":-1},{"trial_n":21,"n_dots":3.45,"target":"left","response":"left","rt":23.5,"correct":true,"confidence":-1},{"trial_n":22,"n_dots":3.35,"target":"left","response":"left","rt":78.5,"correct":true,"confidence":-1},{"trial_n":23,"n_dots":3.35,"target":"left","response":"left","rt":698.39999985695,"correct":true,"confidence":-1},{"trial_n":24,"n_dots":3.25,"target":"left","response":"left","rt":286.5,"correct":true,"confidence":-1},{"trial_n":25,"n_dots":3.25,"target":"right","response":"right","rt":47.5,"correct":true,"confidence":-1},{"trial_n":26,"n_dots":3.15,"target":"right","response":"right","rt":732.5,"correct":true,"confidence":-1},{"trial_n":27,"n_dots":3.15,"target":"right","response":"right","rt":807.5,"correct":true,"confidence":6},{"trial_n":28,"n_dots":3.05,"target":"right","response":"right","rt":98.299999952316,"correct":true,"confidence":6},{"trial_n":29,"n_dots":3.05,"target":"right","response":"right","rt":475.40000009537,"correct":true,"confidence":6},{"trial_n":30,"n_dots":2.95,"target":"left","response":"left","rt":1564.9000000954,"correct":true,"confidence":4},{"trial_n":31,"n_dots":2.95,"target":"left","response":"right","rt":1217.5,"correct":false,"confidence":5},{"trial_n":32,"n_dots":3.05,"target":"left","response":"left","rt":509.70000004768,"correct":true,"confidence":3},{"trial_n":33,"n_dots":3.05,"target":"right","response":"right","rt":156.30000019073,"correct":true,"confidence":6},{"trial_n":34,"n_dots":2.95,"target":"right","response":"right","rt":192.89999985695,"correct":true,"confidence":6},{"trial_n":35,"n_dots":2.95,"target":"right","response":"right","rt":426.29999995232,"correct":true,"confidence":5},{"trial_n":36,"n_dots":2.85,"target":"left","response":"left","rt":799.79999995232,"correct":true,"confidence":6},{"trial_n":37,"n_dots":2.85,"target":"left","response":"left","rt":337.60000014305,"correct":true,"confidence":5},{"trial_n":38,"n_dots":2.75,"target":"left","response":"right","rt":428.5,"correct":false,"confidence":5},{"trial_n":39,"n_dots":2.85,"target":"left","response":"left","rt":29.400000095367,"correct":true,"confidence":6},{"trial_n":40,"n_dots":2.85,"target":"left","response":"right","rt":170.29999995232,"correct":false,"confidence":5},{"trial_n":41,"n_dots":2.95,"target":"right","response":"left","rt":636.09999990463,"correct":false,"confidence":5},{"trial_n":42,"n_dots":3.05,"target":"left","response":"left","rt":8.5,"correct":true,"confidence":6},{"trial_n":43,"n_dots":3.05,"target":"right","response":"right","rt":478.20000004768,"correct":true,"confidence":6},{"trial_n":44,"n_dots":2.95,"target":"left","response":"right","rt":454.39999985695,"correct":false,"confidence":3},{"trial_n":45,"n_dots":3.05,"target":"right","response":"left","rt":223.39999985695,"correct":false,"confidence":6},{"trial_n":46,"n_dots":3.15,"target":"left","response":"left","rt":934.20000004768,"correct":true,"confidence":4},{"trial_n":47,"n_dots":3.15,"target":"right","response":"right","rt":577.29999995232,"correct":true,"confidence":6},{"trial_n":48,"n_dots":3.05,"target":"right","response":"left","rt":541.5,"correct":false,"confidence":5},{"trial_n":49,"n_dots":3.15,"target":"left","response":"left","rt":570.29999995232,"correct":true,"confidence":5},{"trial_n":50,"n_dots":3.15,"target":"right","response":"right","rt":256.30000019073,"correct":true,"confidence":5},{"trial_n":51,"n_dots":3.05,"target":"left","response":"left","rt":363.20000004768,"correct":true,"confidence":6},{"trial_n":52,"n_dots":3.05,"target":"left","response":"left","rt":394,"correct":true,"confidence":5},{"trial_n":53,"n_dots":2.95,"target":"left","response":"left","rt":373.29999995232,"correct":true,"confidence":6},{"trial_n":54,"n_dots":2.95,"target":"right","response":"right","rt":475.40000009537,"correct":true,"confidence":5},{"trial_n":55,"n_dots":2.85,"target":"right","response":"right","rt":152,"correct":true,"confidence":4},{"trial_n":56,"n_dots":2.85,"target":"right","response":"left","rt":605.59999990463,"correct":false,"confidence":4},{"trial_n":57,"n_dots":2.95,"target":"right","response":"right","rt":770.20000004768,"correct":true,"confidence":3},{"trial_n":58,"n_dots":2.95,"target":"left","response":"left","rt":250.90000009537,"correct":true,"confidence":4},{"trial_n":59,"n_dots":2.85,"target":"right","response":"right","rt":658.39999985695,"correct":true,"confidence":5},{"trial_n":60,"n_dots":2.85,"target":"right","response":"right","rt":338.40000009537,"correct":true,"confidence":5},{"trial_n":61,"n_dots":2.75,"target":"right","response":"right","rt":113.90000009537,"correct":true,"confidence":5},{"trial_n":62,"n_dots":2.75,"target":"left","response":"right","rt":261.90000009537,"correct":false,"confidence":4},{"trial_n":63,"n_dots":2.85,"target":"left","response":"right","rt":571.79999995232,"correct":false,"confidence":3},{"trial_n":64,"n_dots":2.95,"target":"left","response":"left","rt":511.69999980927,"correct":true,"confidence":4},{"trial_n":65,"n_dots":2.95,"target":"left","response":"left","rt":142.39999985695,"correct":true,"confidence":2},{"trial_n":66,"n_dots":2.85,"target":"left","response":"left","rt":602.89999985695,"correct":true,"confidence":4},{"trial_n":67,"n_dots":2.85,"target":"left","response":"right","rt":171.70000004768,"correct":false,"confidence":4},{"trial_n":68,"n_dots":2.95,"target":"left","response":"right","rt":499.20000004768,"correct":false,"confidence":5},{"trial_n":69,"n_dots":3.05,"target":"right","response":"right","rt":112,"correct":true,"confidence":4},{"trial_n":70,"n_dots":3.05,"target":"left","response":"left","rt":743.59999990463,"correct":true,"confidence":4},{"trial_n":71,"n_dots":2.95,"target":"right","response":"right","rt":416.70000004768,"correct":true,"confidence":4},{"trial_n":72,"n_dots":2.95,"target":"right","response":"right","rt":83,"correct":true,"confidence":4},{"trial_n":73,"n_dots":2.85,"target":"right","response":"left","rt":536.09999990463,"correct":false,"confidence":4},{"trial_n":74,"n_dots":2.95,"target":"left","response":"left","rt":223.59999990463,"correct":true,"confidence":4},{"trial_n":75,"n_dots":2.95,"target":"left","response":"left","rt":150.29999995232,"correct":true,"confidence":4},{"trial_n":76,"n_dots":2.85,"target":"left","response":"left","rt":11.900000095367,"correct":true,"confidence":4},{"trial_n":77,"n_dots":2.85,"target":"right","response":"right","rt":806.90000009537,"correct":true,"confidence":4},{"trial_n":78,"n_dots":2.75,"target":"right","response":"right","rt":186.79999995232,"correct":true,"confidence":5},{"trial_n":79,"n_dots":2.75,"target":"left","response":"left","rt":354.39999985695,"correct":true,"confidence":5},{"trial_n":80,"n_dots":2.65,"target":"right","response":"right","rt":269.20000004768,"correct":true,"confidence":4},{"trial_n":81,"n_dots":2.65,"target":"right","response":"left","rt":738,"correct":false,"confidence":4},{"trial_n":82,"n_dots":2.75,"target":"right","response":"right","rt":1289.1000001431,"correct":true,"confidence":5},{"trial_n":83,"n_dots":2.75,"target":"left","response":"left","rt":307.5,"correct":true,"confidence":4},{"trial_n":84,"n_dots":2.65,"target":"left","response":"left","rt":781.29999995232,"correct":true,"confidence":4},{"trial_n":85,"n_dots":2.65,"target":"right","response":"right","rt":337.09999990463,"correct":true,"confidence":5},{"trial_n":86,"n_dots":2.55,"target":"right","response":"right","rt":33.299999952316,"correct":true,"confidence":4},{"trial_n":87,"n_dots":2.55,"target":"right","response":"right","rt":26.799999952316,"correct":true,"confidence":4},{"trial_n":88,"n_dots":2.45,"target":"left","response":"right","rt":188.30000019073,"correct":false,"confidence":4},{"trial_n":89,"n_dots":2.55,"target":"right","response":"left","rt":802.79999995232,"correct":false,"confidence":5},{"trial_n":90,"n_dots":2.65,"target":"left","response":"right","rt":16,"correct":false,"confidence":4},{"trial_n":91,"n_dots":2.75,"target":"left","response":"left","rt":204.29999995232,"correct":true,"confidence":5},{"trial_n":92,"n_dots":2.75,"target":"right","response":"right","rt":387,"correct":true,"confidence":5},{"trial_n":93,"n_dots":2.65,"target":"left","response":"right","rt":659.09999990463,"correct":false,"confidence":5},{"trial_n":94,"n_dots":2.75,"target":"right","response":"left","rt":377.5,"correct":false,"confidence":5},{"trial_n":95,"n_dots":2.85,"target":"right","response":"right","rt":30803.099999905,"correct":true,"confidence":1},{"trial_n":96,"n_dots":2.85,"target":"left","response":"left","rt":878.79999995232,"correct":true,"confidence":4},{"trial_n":97,"n_dots":2.75,"target":"right","response":"right","rt":421.20000004768,"correct":true,"confidence":4},{"trial_n":98,"n_dots":2.75,"target":"right","response":"right","rt":36.699999809265,"correct":true,"confidence":4},{"trial_n":99,"n_dots":2.65,"target":"left","response":"left","rt":146,"correct":true,"confidence":4},{"trial_n":100,"n_dots":2.65,"target":"left","response":"right","rt":451.5,"correct":false,"confidence":3},{"trial_n":101,"n_dots":2.75,"target":"right","response":"right","rt":100.5,"correct":true,"confidence":5},{"trial_n":102,"n_dots":2.75,"target":"left","response":"left","rt":343.80000019073,"correct":true,"confidence":4},{"trial_n":103,"n_dots":2.65,"target":"left","response":"left","rt":1375.2999999523,"correct":true,"confidence":5},{"trial_n":104,"n_dots":2.65,"target":"right","response":"right","rt":140,"correct":true,"confidence":3},{"trial_n":105,"n_dots":2.55,"target":"right","response":"right","rt":367.40000009537,"correct":true,"confidence":4},{"trial_n":106,"n_dots":2.55,"target":"right","response":"right","rt":186.5,"correct":true,"confidence":4},{"trial_n":107,"n_dots":2.45,"target":"left","response":"right","rt":309.59999990463,"correct":false,"confidence":4},{"trial_n":108,"n_dots":2.55,"target":"left","response":"left","rt":5230,"correct":true,"confidence":6},{"trial_n":109,"n_dots":2.55,"target":"right","response":"left","rt":256,"correct":false,"confidence":1},{"trial_n":110,"n_dots":2.65,"target":"left","response":"left","rt":261.5,"correct":true,"confidence":1},{"trial_n":111,"n_dots":2.65,"target":"right","response":"right","rt":108.69999980927,"correct":true,"confidence":4},{"trial_n":112,"n_dots":2.55,"target":"right","response":"right","rt":93.5,"correct":true,"confidence":5},{"trial_n":113,"n_dots":2.55,"target":"right","response":"right","rt":408.60000014305,"correct":true,"confidence":3},{"trial_n":114,"n_dots":2.45,"target":"left","response":"right","rt":1189.6000001431,"correct":false,"confidence":4},{"trial_n":115,"n_dots":2.55,"target":"left","response":"right","rt":636.89999985695,"correct":false,"confidence":5},{"trial_n":116,"n_dots":2.65,"target":"left","response":"left","rt":874.79999995232,"correct":true,"confidence":4},{"trial_n":117,"n_dots":2.65,"target":"right","response":"right","rt":1623.8999998569,"correct":true,"confidence":4},{"trial_n":118,"n_dots":2.55,"target":"right","response":"right","rt":112.40000009537,"correct":true,"confidence":4},{"trial_n":119,"n_dots":2.55,"target":"left","response":"left","rt":317.59999990463,"correct":true,"confidence":4},{"trial_n":120,"n_dots":2.45,"target":"right","response":"right","rt":785.29999995232,"correct":true,"confidence":4},{"trial_n":121,"n_dots":2.45,"target":"right","response":"right","rt":198.29999995232,"correct":true,"confidence":4},{"trial_n":122,"n_dots":2.35,"target":"right","response":"left","rt":488,"correct":false,"confidence":4},{"trial_n":123,"n_dots":2.45,"target":"left","response":"right","rt":433.59999990463,"correct":false,"confidence":4},{"trial_n":124,"n_dots":2.55,"target":"left","response":"left","rt":118.80000019073,"correct":true,"confidence":4},{"trial_n":125,"n_dots":2.55,"target":"right","response":"left","rt":555.79999995232,"correct":false,"confidence":4},{"trial_n":126,"n_dots":2.65,"target":"right","response":"left","rt":603.60000014305,"correct":false,"confidence":4},{"trial_n":127,"n_dots":2.75,"target":"right","response":"right","rt":323.19999980927,"correct":true,"confidence":4},{"trial_n":128,"n_dots":2.75,"target":"left","response":"right","rt":1909.5,"correct":false,"confidence":4},{"trial_n":129,"n_dots":2.85,"target":"right","response":"right","rt":1561.4000000954,"correct":true,"confidence":4},{"trial_n":130,"n_dots":2.85,"target":"right","response":"right","rt":659.5,"correct":true,"confidence":4},{"trial_n":131,"n_dots":2.75,"target":"left","response":"left","rt":256.79999995232,"correct":true,"confidence":4},{"trial_n":132,"n_dots":2.75,"target":"right","response":"right","rt":377.5,"correct":true,"confidence":4},{"trial_n":133,"n_dots":2.65,"target":"right","response":"right","rt":735,"correct":true,"confidence":1},{"trial_n":134,"n_dots":2.65,"target":"right","response":"right","rt":513.80000019073,"correct":true,"confidence":4},{"trial_n":135,"n_dots":2.55,"target":"left","response":"right","rt":690.5,"correct":false,"confidence":1},{"trial_n":136,"n_dots":2.65,"target":"left","response":"right","rt":318.20000004768,"correct":false,"confidence":4},{"trial_n":137,"n_dots":2.75,"target":"left","response":"right","rt":819.70000004768,"correct":false,"confidence":4},{"trial_n":138,"n_dots":2.85,"target":"left","response":"left","rt":202.5,"correct":true,"confidence":4},{"trial_n":139,"n_dots":2.85,"target":"left","response":"left","rt":632.79999995232,"correct":true,"confidence":4},{"trial_n":140,"n_dots":2.75,"target":"right","response":"right","rt":644,"correct":true,"confidence":4},{"trial_n":141,"n_dots":2.75,"target":"left","response":"left","rt":662.79999995232,"correct":true,"confidence":4},{"trial_n":142,"n_dots":2.65,"target":"right","response":"left","rt":615.5,"correct":false,"confidence":4},{"trial_n":143,"n_dots":2.75,"target":"left","response":"left","rt":540,"correct":true,"confidence":4},{"trial_n":144,"n_dots":2.75,"target":"right","response":"left","rt":384.20000004768,"correct":false,"confidence":4},{"trial_n":145,"n_dots":2.85,"target":"right","response":"left","rt":448.09999990463,"correct":false,"confidence":4},{"trial_n":146,"n_dots":2.95,"target":"right","response":"right","rt":732.90000009537,"correct":true,"confidence":4},{"trial_n":147,"n_dots":2.95,"target":"left","response":"left","rt":739.39999985695,"correct":true,"confidence":4},{"trial_n":148,"n_dots":2.85,"target":"right","response":"right","rt":29.299999952316,"correct":true,"confidence":4},{"trial_n":149,"n_dots":2.85,"target":"right","response":"left","rt":644.79999995232,"correct":false,"confidence":4},{"trial_n":150,"n_dots":2.95,"target":"left","response":"left","rt":353.70000004768,"correct":true,"confidence":4},{"trial_n":151,"n_dots":2.95,"target":"right","response":"right","rt":334.80000019073,"correct":true,"confidence":4},{"trial_n":152,"n_dots":2.85,"target":"right","response":"right","rt":434.70000004768,"correct":true,"confidence":4},{"trial_n":153,"n_dots":2.85,"target":"left","response":"left","rt":781.5,"correct":true,"confidence":4},{"trial_n":154,"n_dots":2.75,"target":"right","response":"left","rt":303.20000004768,"correct":false,"confidence":4},{"trial_n":155,"n_dots":2.85,"target":"right","response":"right","rt":392.90000009537,"correct":true,"confidence":4},{"trial_n":156,"n_dots":2.85,"target":"right","response":"left","rt":629.69999980927,"correct":false,"confidence":4},{"trial_n":157,"n_dots":2.95,"target":"left","response":"left","rt":920.69999980927,"correct":true,"confidence":1},{"trial_n":158,"n_dots":2.95,"target":"left","response":"left","rt":318.40000009537,"correct":true,"confidence":4},{"trial_n":159,"n_dots":2.85,"target":"left","response":"left","rt":426.59999990463,"correct":true,"confidence":4},{"trial_n":160,"n_dots":2.85,"target":"left","response":"left","rt":197.39999985695,"correct":true,"confidence":4},{"trial_n":161,"n_dots":2.75,"target":"left","response":"left","rt":810,"correct":true,"confidence":4},{"trial_n":162,"n_dots":2.75,"target":"left","response":"left","rt":939.89999985695,"correct":true,"confidence":4},{"trial_n":163,"n_dots":2.65,"target":"left","response":"left","rt":546,"correct":true,"confidence":4},{"trial_n":164,"n_dots":2.65,"target":"left","response":"left","rt":782.20000004768,"correct":true,"confidence":4},{"trial_n":165,"n_dots":2.55,"target":"right","response":"right","rt":1422.6999998093,"correct":true,"confidence":4},{"trial_n":166,"n_dots":2.55,"target":"right","response":"right","rt":186.5,"correct":true,"confidence":5},{"trial_n":167,"n_dots":2.45,"target":"left","response":"left","rt":350.59999990463,"correct":true,"confidence":5},{"trial_n":168,"n_dots":2.45,"target":"right","response":"right","rt":630.79999995232,"correct":true,"confidence":3},{"trial_n":169,"n_dots":2.35,"target":"left","response":"right","rt":499.59999990463,"correct":false,"confidence":4},{"trial_n":170,"n_dots":2.45,"target":"left","response":"right","rt":334.29999995232,"correct":false,"confidence":4},{"trial_n":171,"n_dots":2.55,"target":"right","response":"left","rt":637.70000004768,"correct":false,"confidence":4},{"trial_n":172,"n_dots":2.65,"target":"left","response":"left","rt":1197.5,"correct":true,"confidence":4},{"trial_n":173,"n_dots":2.65,"target":"right","response":"right","rt":260.40000009537,"correct":true,"confidence":5},{"trial_n":174,"n_dots":2.55,"target":"left","response":"right","rt":541.40000009537,"correct":false,"confidence":4},{"trial_n":175,"n_dots":2.65,"target":"right","response":"right","rt":71.799999952316,"correct":true,"confidence":4},{"trial_n":176,"n_dots":2.65,"target":"left","response":"left","rt":31.200000047684,"correct":true,"confidence":4},{"trial_n":177,"n_dots":2.55,"target":"right","response":"right","rt":40.5,"correct":true,"confidence":4},{"trial_n":178,"n_dots":2.55,"target":"right","response":"right","rt":560.89999985695,"correct":true,"confidence":5},{"trial_n":179,"n_dots":2.45,"target":"right","response":"left","rt":788.20000004768,"correct":false,"confidence":4},{"trial_n":180,"n_dots":2.55,"target":"left","response":"left","rt":1469.0999999046,"correct":true,"confidence":4},{"trial_n":181,"n_dots":2.55,"target":"left","response":"left","rt":351.5,"correct":true,"confidence":3},{"trial_n":182,"n_dots":2.45,"target":"right","response":"right","rt":198.09999990463,"correct":true,"confidence":2},{"trial_n":183,"n_dots":2.45,"target":"left","response":"left","rt":352,"correct":true,"confidence":2},{"trial_n":184,"n_dots":2.35,"target":"right","response":"left","rt":690,"correct":false,"confidence":2},{"trial_n":185,"n_dots":2.45,"target":"left","response":"right","rt":239,"correct":false,"confidence":2},{"trial_n":186,"n_dots":2.55,"target":"right","response":"right","rt":193.40000009537,"correct":true,"confidence":2},{"trial_n":187,"n_dots":2.55,"target":"left","response":"left","rt":919.5,"correct":true,"confidence":4},{"trial_n":188,"n_dots":2.45,"target":"right","response":"right","rt":293.19999980927,"correct":true,"confidence":3},{"trial_n":189,"n_dots":2.45,"target":"left","response":"left","rt":627.19999980927,"correct":true,"confidence":3},{"trial_n":190,"n_dots":2.35,"target":"left","response":"right","rt":127,"correct":false,"confidence":3},{"trial_n":191,"n_dots":2.45,"target":"right","response":"right","rt":264.90000009537,"correct":true,"confidence":3},{"trial_n":192,"n_dots":2.45,"target":"left","response":"left","rt":538.80000019073,"correct":true,"confidence":3},{"trial_n":193,"n_dots":2.35,"target":"right","response":"right","rt":1174.7000000477,"correct":true,"confidence":3},{"trial_n":194,"n_dots":2.35,"target":"left","response":"left","rt":660.90000009537,"correct":true,"confidence":3}]