[{"trial_n":1,"n_dots":4.25,"target":"right","response":"left","rt":14158.699999988,"correct":false,"confidence":-1},{"trial_n":2,"n_dots":4.25,"target":"left","response":"left","rt":1140.5999999642,"correct":true,"confidence":-1},{"trial_n":3,"n_dots":4.25,"target":"left","response":"left","rt":466.5,"correct":true,"confidence":-1},{"trial_n":4,"n_dots":3.85,"target":"left","response":"left","rt":399.80000001192,"correct":true,"confidence":-1},{"trial_n":5,"n_dots":3.85,"target":"left","response":"left","rt":406.70000004768,"correct":true,"confidence":-1},{"trial_n":6,"n_dots":3.45,"target":"right","response":"left","rt":114.39999997616,"correct":false,"confidence":-1},{"trial_n":7,"n_dots":3.85,"target":"right","response":"right","rt":308.40000003576,"correct":true,"confidence":-1},{"trial_n":8,"n_dots":3.85,"target":"right","response":"right","rt":387.5,"correct":true,"confidence":-1},{"trial_n":9,"n_dots":3.65,"target":"left","response":"left","rt":471.60000002384,"correct":true,"confidence":-1},{"trial_n":10,"n_dots":3.65,"target":"right","response":"left","rt":510.79999995232,"correct":false,"confidence":-1},{"trial_n":11,"n_dots":3.85,"target":"left","response":"right","rt":78.699999988079,"correct":false,"confidence":-1},{"trial_n":12,"n_dots":4.05,"target":"left","response":"left","rt":437.19999998808,"correct":true,"confidence":-1},{"trial_n":13,"n_dots":4.05,"target":"left","response":"left","rt":86.799999952316,"correct":true,"confidence":-1},{"trial_n":14,"n_dots":3.95,"target":"right","response":"right","rt":199.29999995232,"correct":true,"confidence":-1},{"trial_n":15,"n_dots":3.95,"target":"right","response":"right","rt":2023.0999999642,"correct":true,"confidence":-1},{"trial_n":16,"n_dots":3.85,"target":"left","response":"right","rt":427,"correct":false,"confidence":-1},{"trial_n":17,"n_dots":3.95,"target":"right","response":"right","rt":44.400000035763,"correct":true,"confidence":-1},{"trial_n":18,"n_dots":3.95,"target":"right","response":"right","rt":398.60000002384,"correct":true,"confidence":-1},{"trial_n":19,"n_dots":3.85,"target":"right","response":"left","rt":681.19999998808,"correct":false,"confidence":-1},{"trial_n":20,"n_dots":3.95,"target":"left","response":"right","rt":222.60000002384,"correct":false,"confidence":-1},{"trial_n":21,"n_dots":4.05,"target":"right","response":"right","rt":130.19999998808,"correct":true,"confidence":-1},{"trial_n":22,"n_dots":4.05,"target":"right","response":"right","rt":463.20000004768,"correct":true,"confidence":-1},{"trial_n":23,"n_dots":3.95,"target":"right","response":"left","rt":722.30000001192,"correct":false,"confidence":-1},{"trial_n":24,"n_dots":4.05,"target":"right","response":"right","rt":867.90000003576,"correct":true,"confidence":-1},{"trial_n":25,"n_dots":4.05,"target":"right","response":"right","rt":611,"correct":true,"confidence":-1},{"trial_n":26,"n_dots":3.95,"target":"left","response":"left","rt":251.69999998808,"correct":true,"confidence":-1},{"trial_n":27,"n_dots":3.95,"target":"left","response":"left","rt":1606.5999999642,"correct":true,"confidence":3},{"trial_n":28,"n_dots":3.85,"target":"left","response":"left","rt":937.29999995232,"correct":true,"confidence":4},{"trial_n":29,"n_dots":3.85,"target":"right","response":"right","rt":767.70000004768,"correct":true,"confidence":5},{"trial_n":30,"n_dots":3.75,"target":"right","response":"left","rt":695,"correct":false,"confidence":4},{"trial_n":31,"n_dots":3.85,"target":"left","response":"left","rt":593.59999996424,"correct":true,"confidence":5},{"trial_n":32,"n_dots":3.85,"target":"right","response":"right","rt":776.30000001192,"correct":true,"confidence":4},{"trial_n":33,"n_dots":3.75,"target":"left","response":"left","rt":659.69999998808,"correct":true,"confidence":5},{"trial_n":34,"n_dots":3.75,"target":"right","response":"right","rt":590.89999997616,"correct":true,"confidence":4},{"trial_n":35,"n_dots":3.65,"target":"left","response":"left","rt":193.10000002384,"correct":true,"confidence":5},{"trial_n":36,"n_dots":3.65,"target":"right","response":"right","rt":554.80000001192,"correct":true,"confidence":4},{"trial_n":37,"n_dots":3.55,"target":"right","response":"right","rt":991.19999998808,"correct":true,"confidence":4},{"trial_n":38,"n_dots":3.55,"target":"right","response":"right","rt":1118.6999999881,"correct":true,"confidence":4},{"trial_n":39,"n_dots":3.45,"target":"left","response":"right","rt":2666.5,"correct":false,"confidence":3},{"trial_n":40,"n_dots":3.55,"target":"left","response":"left","rt":2518.5,"correct":true,"confidence":3},{"trial_n":41,"n_dots":3.55,"target":"right","response":"right","rt":726.10000002384,"correct":true,"confidence":4},{"trial_n":42,"n_dots":3.45,"target":"left","response":"left","rt":736.19999998808,"correct":true,"confidence":2},{"trial_n":43,"n_dots":3.45,"target":"right","response":"right","rt":274.30000001192,"correct":true,"confidence":2},{"trial_n":44,"n_dots":3.35,"target":"right","response":"right","rt":539,"correct":true,"confidence":3},{"trial_n":45,"n_dots":3.35,"target":"right","response":"right","rt":289.30000001192,"correct":true,"confidence":3},{"trial_n":46,"n_dots":3.25,"target":"left","response":"right","rt":746.80000001192,"correct":false,"confidence":3},{"trial_n":47,"n_dots":3.35,"target":"left","response":"left","rt":556.10000002384,"correct":true,"confidence":3},{"trial_n":48,"n_dots":3.35,"target":"left","response":"left","rt":559.90000003576,"correct":true,"confidence":3},{"trial_n":49,"n_dots":3.25,"target":"right","response":"right","rt":555,"correct":true,"confidence":3},{"trial_n":50,"n_dots":3.25,"target":"left","response":"right","rt":1510.3000000119,"correct":false,"confidence":1},{"trial_n":51,"n_dots":3.35,"target":"left","response":"left","rt":546.29999995232,"correct":true,"confidence":4},{"trial_n":52,"n_dots":3.35,"target":"left","response":"left","rt":584.20000004768,"correct":true,"confidence":4},{"trial_n":53,"n_dots":3.25,"target":"right","response":"left","rt":539.90000003576,"correct":false,"confidence":4},{"trial_n":54,"n_dots":3.35,"target":"left","response":"left","rt":630.39999997616,"correct":true,"confidence":3},{"trial_n":55,"n_dots":3.35,"target":"left","response":"left","rt":799.5,"correct":true,"confidence":4},{"trial_n":56,"n_dots":3.25,"target":"left","response":"left","rt":1079.5,"correct":true,"confidence":4},{"trial_n":57,"n_dots":3.25,"target":"left","response":"left","rt":1182.3000000119,"correct":true,"confidence":1},{"trial_n":58,"n_dots":3.15,"target":"left","response":"right","rt":642.19999998808,"correct":false,"confidence":3},{"trial_n":59,"n_dots":3.25,"target":"right","response":"right","rt":441.59999996424,"correct":true,"confidence":4},{"trial_n":60,"n_dots":3.25,"target":"left","response":"left","rt":1063.3000000119,"correct":true,"confidence":4},{"trial_n":61,"n_dots":3.15,"target":"left","response":"right","rt":869.70000004768,"correct":false,"confidence":3},{"trial_n":62,"n_dots":3.25,"target":"right","response":"right","rt":810.40000003576,"correct":true,"confidence":3},{"trial_n":63,"n_dots":3.25,"target":"right","response":"left","rt":701.30000001192,"correct":false,"confidence":4},{"trial_n":64,"n_dots":3.35,"target":"left","response":"left","rt":760,"correct":true,"confidence":4},{"trial_n":65,"n_dots":3.35,"target":"left","response":"right","rt":596.80000001192,"correct":false,"confidence":3},{"trial_n":66,"n_dots":3.45,"target":"left","response":"left","rt":888.40000003576,"correct":true,"confidence":3},{"trial_n":67,"n_dots":3.45,"target":"right","response":"left","rt":984,"correct":false,"confidence":3},{"trial_n":68,"n_dots":3.55,"target":"left","response":"left","rt":880,"correct":true,"confidence":3},{"trial_n":69,"n_dots":3.55,"target":"right","response":"right","rt":605.5,"correct":true,"confidence":3},{"trial_n":70,"n_dots":3.45,"target":"right","response":"right","rt":223.69999998808,"correct":true,"confidence":3},{"trial_n":71,"n_dots":3.45,"target":"left","response":"left","rt":949.60000002384,"correct":true,"confidence":3},{"trial_n":72,"n_dots":3.35,"target":"left","response":"right","rt":471.10000002384,"correct":false,"confidence":3},{"trial_n":73,"n_dots":3.45,"target":"left","response":"right","rt":1602.3000000119,"correct":false,"confidence":3},{"trial_n":74,"n_dots":3.55,"target":"left","response":"right","rt":715.30000001192,"correct":false,"confidence":3},{"trial_n":75,"n_dots":3.65,"target":"left","response":"left","rt":832.5,"correct":true,"confidence":3},{"trial_n":76,"n_dots":3.65,"target":"left","response":"left","rt":774.79999995232,"correct":true,"confidence":3},{"trial_n":77,"n_dots":3.55,"target":"right","response":"right","rt":916.69999998808,"correct":true,"confidence":3},{"trial_n":78,"n_dots":3.55,"target":"left","response":"left","rt":693,"correct":true,"confidence":3},{"trial_n":79,"n_dots":3.45,"target":"left","response":"right","rt":630,"correct":false,"confidence":3},{"trial_n":80,"n_dots":3.55,"target":"right","response":"right","rt":396,"correct":true,"confidence":3},{"trial_n":81,"n_dots":3.55,"target":"right","response":"right","rt":320.30000001192,"correct":true,"confidence":3},{"trial_n":82,"n_dots":3.45,"target":"right","response":"right","rt":866.10000002384,"correct":true,"confidence":4},{"trial_n":83,"n_dots":3.45,"target":"right","response":"right","rt":731.80000001192,"correct":true,"confidence":3},{"trial_n":84,"n_dots":3.35,"target":"left","response":"left","rt":732.39999997616,"correct":true,"confidence":4},{"trial_n":85,"n_dots":3.35,"target":"right","response":"left","rt":720.90000003576,"correct":false,"confidence":4},{"trial_n":86,"n_dots":3.45,"target":"right","response":"right","rt":593.70000004768,"correct":true,"confidence":3},{"trial_n":87,"n_dots":3.45,"target":"left","response":"left","rt":703.39999997616,"correct":true,"confidence":4},{"trial_n":88,"n_dots":3.35,"target":"left","response":"left","rt":678.69999998808,"correct":true,"confidence":4},{"trial_n":89,"n_dots":3.35,"target":"left","response":"left","rt":571.09999996424,"correct":true,"confidence":4},{"trial_n":90,"n_dots":3.25,"target":"right","response":"right","rt":1991.2000000477,"correct":true,"confidence":3},{"trial_n":91,"n_dots":3.25,"target":"left","response":"left","rt":665.59999996424,"correct":true,"confidence":4},{"trial_n":92,"n_dots":3.15,"target":"left","response":"left","rt":735.5,"correct":true,"confidence":4},{"trial_n":93,"n_dots":3.15,"target":"right","response":"right","rt":494.19999998808,"correct":true,"confidence":4},{"trial_n":94,"n_dots":3.05,"target":"right","response":"left","rt":687.19999998808,"correct":false,"confidence":4},{"trial_n":95,"n_dots":3.15,"target":"left","response":"left","rt":725.19999998808,"correct":true,"confidence":5},{"trial_n":96,"n_dots":3.15,"target":"right","response":"left","rt":706.79999995232,"correct":false,"confidence":5},{"trial_n":97,"n_dots":3.25,"target":"left","response":"right","rt":1356.3999999762,"correct":false,"confidence":4},{"trial_n":98,"n_dots":3.35,"target":"left","response":"right","rt":2969.5,"correct":false,"confidence":3},{"trial_n":99,"n_dots":3.45,"target":"left","response":"left","rt":663.59999996424,"correct":true,"confidence":3},{"trial_n":100,"n_dots":3.45,"target":"left","response":"left","rt":747.69999998808,"correct":true,"confidence":4},{"trial_n":101,"n_dots":3.35,"target":"right","response":"right","rt":572.5,"correct":true,"confidence":3},{"trial_n":102,"n_dots":3.35,"target":"right","response":"right","rt":513.80000001192,"correct":true,"confidence":4},{"trial_n":103,"n_dots":3.25,"target":"left","response":"left","rt":577.89999997616,"correct":true,"confidence":3},{"trial_n":104,"n_dots":3.25,"target":"right","response":"right","rt":370,"correct":true,"confidence":3},{"trial_n":105,"n_dots":3.15,"target":"left","response":"right","rt":532.30000001192,"correct":false,"confidence":3},{"trial_n":106,"n_dots":3.25,"target":"right","response":"left","rt":2012.3999999762,"correct":false,"confidence":3},{"trial_n":107,"n_dots":3.35,"target":"left","response":"left","rt":1662.6000000238,"correct":true,"confidence":3},{"trial_n":108,"n_dots":3.35,"target":"right","response":"right","rt":463.59999996424,"correct":true,"confidence":4},{"trial_n":109,"n_dots":3.25,"target":"right","response":"right","rt":570.20000004768,"correct":true,"confidence":4},{"trial_n":110,"n_dots":3.25,"target":"right","response":"right","rt":507.5,"correct":true,"confidence":3},{"trial_n":111,"n_dots":3.15,"target":"right","response":"left","rt":618.20000004768,"correct":false,"confidence":3},{"trial_n":112,"n_dots":3.25,"target":"right","response":"right","rt":441.39999997616,"correct":true,"confidence":3},{"trial_n":113,"n_dots":3.25,"target":"left","response":"left","rt":693.5,"correct":true,"confidence":4},{"trial_n":114,"n_dots":3.15,"target":"left","response":"right","rt":690.69999998808,"correct":false,"confidence":3},{"trial_n":115,"n_dots":3.25,"target":"left","response":"left","rt":530.80000001192,"correct":true,"confidence":4},{"trial_n":116,"n_dots":3.25,"target":"right","response":"right","rt":482.60000002384,"correct":true,"confidence":4},{"trial_n":117,"n_dots":3.15,"target":"right","response":"left","rt":718.70000004768,"correct":false,"confidence":3},{"trial_n":118,"n_dots":3.25,"target":"right","response":"right","rt":584.5,"correct":true,"confidence":3},{"trial_n":119,"n_dots":3.25,"target":"left","response":"left","rt":1308.4000000358,"correct":true,"confidence":3},{"trial_n":120,"n_dots":3.15,"target":"right","response":"right","rt":587.69999998808,"correct":true,"confidence":3},{"trial_n":121,"n_dots":3.15,"target":"left","response":"left","rt":1182.8000000119,"correct":true,"confidence":3},{"trial_n":122,"n_dots":3.05,"target":"right","response":"left","rt":798.30000001192,"correct":false,"confidence":3},{"trial_n":123,"n_dots":3.15,"target":"right","response":"right","rt":1030.5999999642,"correct":true,"confidence":3},{"trial_n":124,"n_dots":3.15,"target":"left","response":"left","rt":508.40000003576,"correct":true,"confidence":3},{"trial_n":125,"n_dots":3.05,"target":"left","response":"left","rt":515.40000003576,"correct":true,"confidence":3},{"trial_n":126,"n_dots":3.05,"target":"right","response":"left","rt":846.30000001192,"correct":false,"confidence":3},{"trial_n":127,"n_dots":3.15,"target":"right","response":"right","rt":697.89999997616,"correct":true,"confidence":3},{"trial_n":128,"n_dots":3.15,"target":"left","response":"left","rt":100.80000001192,"correct":true,"confidence":3},{"trial_n":129,"n_dots":3.05,"target":"right","response":"right","rt":441.79999995232,"correct":true,"confidence":3},{"trial_n":130,"n_dots":3.05,"target":"right","response":"right","rt":265.5,"correct":true,"confidence":3},{"trial_n":131,"n_dots":2.95,"target":"right","response":"right","rt":1310.6000000238,"correct":true,"confidence":3},{"trial_n":132,"n_dots":2.95,"target":"right","response":"right","rt":553.19999998808,"correct":true,"confidence":3},{"trial_n":133,"n_dots":2.85,"target":"right","response":"left","rt":2658.8000000119,"correct":false,"confidence":3},{"trial_n":134,"n_dots":2.95,"target":"right","response":"left","rt":1051.7000000477,"correct":false,"confidence":3},{"trial_n":135,"n_dots":3.05,"target":"right","response":"right","rt":1438.5999999642,"correct":true,"confidence":3},{"trial_n":136,"n_dots":3.05,"target":"right","response":"left","rt":295.30000001192,"correct":false,"confidence":3},{"trial_n":137,"n_dots":3.15,"target":"left","response":"left","rt":388.29999995232,"correct":true,"confidence":3},{"trial_n":138,"n_dots":3.15,"target":"left","response":"left","rt":256.20000004768,"correct":true,"confidence":3},{"trial_n":139,"n_dots":3.05,"target":"right","response":"left","rt":558,"correct":false,"confidence":4},{"trial_n":140,"n_dots":3.15,"target":"right","response":"left","rt":749.39999997616,"correct":false,"confidence":3},{"trial_n":141,"n_dots":3.25,"target":"right","response":"right","rt":620.59999996424,"correct":true,"confidence":3},{"trial_n":142,"n_dots":3.25,"target":"right","response":"left","rt":2178.9000000358,"correct":false,"confidence":2},{"trial_n":143,"n_dots":3.35,"target":"left","response":"left","rt":345.40000003576,"correct":true,"confidence":4},{"trial_n":144,"n_dots":3.35,"target":"left","response":"left","rt":782.69999998808,"correct":true,"confidence":3},{"trial_n":145,"n_dots":3.25,"target":"left","response":"left","rt":486.40000003576,"correct":true,"confidence":3},{"trial_n":146,"n_dots":3.25,"target":"left","response":"left","rt":545.10000002384,"correct":true,"confidence":4},{"trial_n":147,"n_dots":3.15,"target":"left","response":"left","rt":911.30000001192,"correct":true,"confidence":3},{"trial_n":148,"n_dots":3.15,"target":"right","response":"right","rt":1182.6000000238,"correct":true,"confidence":3},{"trial_n":149,"n_dots":3.05,"target":"right","response":"right","rt":734.39999997616,"correct":true,"confidence":4},{"trial_n":150,"n_dots":3.05,"target":"right","response":"left","rt":740,"correct":false,"confidence":3},{"trial_n":151,"n_dots":3.15,"target":"left","response":"right","rt":689.80000001192,"correct":false,"confidence":2},{"trial_n":152,"n_dots":3.25,"target":"right","response":"left","rt":720.10000002384,"correct":false,"confidence":4},{"trial_n":153,"n_dots":3.35,"target":"right","response":"right","rt":1036.5999999642,"correct":true,"confidence":3},{"trial_n":154,"n_dots":3.35,"target":"right","response":"right","rt":681.40000003576,"correct":true,"confidence":3},{"trial_n":155,"n_dots":3.25,"target":"left","response":"left","rt":731.80000001192,"correct":true,"confidence":4},{"trial_n":156,"n_dots":3.25,"target":"right","response":"left","rt":457.29999995232,"correct":false,"confidence":3},{"trial_n":157,"n_dots":3.35,"target":"left","response":"left","rt":513.30000001192,"correct":true,"confidence":3},{"trial_n":158,"n_dots":3.35,"target":"right","response":"left","rt":2233.1999999881,"correct":false,"confidence":2},{"trial_n":159,"n_dots":3.45,"target":"left","response":"left","rt":2310.3000000119,"correct":true,"confidence":3},{"trial_n":160,"n_dots":3.45,"target":"left","response":"left","rt":1754.3999999762,"correct":true,"confidence":3},{"trial_n":161,"n_dots":3.35,"target":"left","response":"left","rt":453.39999997616,"correct":true,"confidence":3},{"trial_n":162,"n_dots":3.35,"target":"left","response":"left","rt":476.5,"correct":true,"confidence":3},{"trial_n":163,"n_dots":3.25,"target":"left","response":"right","rt":724.39999997616,"correct":false,"confidence":3},{"trial_n":164,"n_dots":3.35,"target":"left","response":"left","rt":512.80000001192,"correct":true,"confidence":3},{"trial_n":165,"n_dots":3.35,"target":"right","response":"left","rt":374.89999997616,"correct":false,"confidence":3},{"trial_n":166,"n_dots":3.45,"target":"right","response":"right","rt":933.70000004768,"correct":true,"confidence":3},{"trial_n":167,"n_dots":3.45,"target":"right","response":"right","rt":1117.5,"correct":true,"confidence":5},{"trial_n":168,"n_dots":3.35,"target":"left","response":"left","rt":797.80000001192,"correct":true,"confidence":3},{"trial_n":169,"n_dots":3.35,"target":"left","response":"right","rt":781.39999997616,"correct":false,"confidence":3},{"trial_n":170,"n_dots":3.45,"target":"left","response":"left","rt":760.09999996424,"correct":true,"confidence":3},{"trial_n":171,"n_dots":3.45,"target":"left","response":"left","rt":696.19999998808,"correct":true,"confidence":2},{"trial_n":172,"n_dots":3.35,"target":"right","response":"right","rt":1633.0999999642,"correct":true,"confidence":3},{"trial_n":173,"n_dots":3.35,"target":"left","response":"left","rt":964.10000002384,"correct":true,"confidence":3},{"trial_n":174,"n_dots":3.25,"target":"left","response":"left","rt":774.89999997616,"correct":true,"confidence":2},{"trial_n":175,"n_dots":3.25,"target":"right","response":"right","rt":871.60000002384,"correct":true,"confidence":2},{"trial_n":176,"n_dots":3.15,"target":"left","response":"left","rt":696.09999996424,"correct":true,"confidence":2},{"trial_n":177,"n_dots":3.15,"target":"left","response":"right","rt":1775.4000000358,"correct":false,"confidence":2},{"trial_n":178,"n_dots":3.25,"target":"right","response":"left","rt":1277.7000000477,"correct":false,"confidence":3},{"trial_n":179,"n_dots":3.35,"target":"left","response":"left","rt":1175,"correct":true,"confidence":4},{"trial_n":180,"n_dots":3.35,"target":"left","response":"left","rt":667.80000001192,"correct":true,"confidence":4},{"trial_n":181,"n_dots":3.25,"target":"right","response":"left","rt":1425.5,"correct":false,"confidence":4},{"trial_n":182,"n_dots":3.35,"target":"right","response":"right","rt":1287.7000000477,"correct":true,"confidence":3},{"trial_n":183,"n_dots":3.35,"target":"right","response":"left","rt":744.30000001192,"correct":false,"confidence":3},{"trial_n":184,"n_dots":3.45,"target":"left","response":"left","rt":746.80000001192,"correct":true,"confidence":4},{"trial_n":185,"n_dots":3.45,"target":"left","response":"left","rt":586.59999996424,"correct":true,"confidence":5},{"trial_n":186,"n_dots":3.35,"target":"left","response":"left","rt":1048.6999999881,"correct":true,"confidence":6},{"trial_n":187,"n_dots":3.35,"target":"left","response":"left","rt":265.80000001192,"correct":true,"confidence":6},{"trial_n":188,"n_dots":3.25,"target":"right","response":"left","rt":777.5,"correct":false,"confidence":5},{"trial_n":189,"n_dots":3.35,"target":"right","response":"right","rt":1002.1999999881,"correct":true,"confidence":4},{"trial_n":190,"n_dots":3.35,"target":"right","response":"right","rt":634.69999998808,"correct":true,"confidence":5},{"trial_n":191,"n_dots":3.25,"target":"right","response":"right","rt":541.89999997616,"correct":true,"confidence":5},{"trial_n":192,"n_dots":3.25,"target":"right","response":"right","rt":524,"correct":true,"confidence":5},{"trial_n":193,"n_dots":3.15,"target":"right","response":"right","rt":1779.3000000119,"correct":true,"confidence":5},{"trial_n":194,"n_dots":3.15,"target":"left","response":"left","rt":727.30000001192,"correct":true,"confidence":5}]