[{"trial_n":1,"n_dots":4.25,"target":"right","response":"left","rt":3982.1000000015,"correct":false,"confidence":-1},{"trial_n":2,"n_dots":4.25,"target":"right","response":"right","rt":606.90000000224,"correct":true,"confidence":-1},{"trial_n":3,"n_dots":4.25,"target":"left","response":"left","rt":396.60000000149,"correct":true,"confidence":-1},{"trial_n":4,"n_dots":3.85,"target":"right","response":"right","rt":412.5,"correct":true,"confidence":-1},{"trial_n":5,"n_dots":3.85,"target":"right","response":"right","rt":288.30000000075,"correct":true,"confidence":-1},{"trial_n":6,"n_dots":3.45,"target":"left","response":"left","rt":277.60000000149,"correct":true,"confidence":-1},{"trial_n":7,"n_dots":3.45,"target":"left","response":"left","rt":545.90000000224,"correct":true,"confidence":-1},{"trial_n":8,"n_dots":3.25,"target":"right","response":"right","rt":272.59999999776,"correct":true,"confidence":-1},{"trial_n":9,"n_dots":3.25,"target":"left","response":"left","rt":487.69999999925,"correct":true,"confidence":-1},{"trial_n":10,"n_dots":3.05,"target":"left","response":"left","rt":963.19999999925,"correct":true,"confidence":-1},{"trial_n":11,"n_dots":3.05,"target":"right","response":"right","rt":301.39999999851,"correct":true,"confidence":-1},{"trial_n":12,"n_dots":2.85,"target":"right","response":"right","rt":292.30000000075,"correct":true,"confidence":-1},{"trial_n":13,"n_dots":2.85,"target":"left","response":"right","rt":506.69999999925,"correct":false,"confidence":-1},{"trial_n":14,"n_dots":2.95,"target":"left","response":"right","rt":511.90000000224,"correct":false,"confidence":-1},{"trial_n":15,"n_dots":3.05,"target":"right","response":"right","rt":457.60000000149,"correct":true,"confidence":-1},{"trial_n":16,"n_dots":3.05,"target":"left","response":"right","rt":645.19999999925,"correct":false,"confidence":-1},{"trial_n":17,"n_dots":3.15,"target":"right","response":"right","rt":455.70000000298,"correct":true,"confidence":-1},{"trial_n":18,"n_dots":3.15,"target":"right","response":"left","rt":344.39999999851,"correct":false,"confidence":-1},{"trial_n":19,"n_dots":3.25,"target":"left","response":"left","rt":428.10000000149,"correct":true,"confidence":-1},{"trial_n":20,"n_dots":3.25,"target":"left","response":"left","rt":365.10000000149,"correct":true,"confidence":-1},{"trial_n":21,"n_dots":3.15,"target":"right","response":"right","rt":400.29999999702,"correct":true,"confidence":-1},{"trial_n":22,"n_dots":3.15,"target":"right","response":"right","rt":500.60000000149,"correct":true,"confidence":-1},{"trial_n":23,"n_dots":3.05,"target":"right","response":"right","rt":358.39999999851,"correct":true,"confidence":-1},{"trial_n":24,"n_dots":3.05,"target":"left","response":"right","rt":344.30000000075,"correct":false,"confidence":-1},{"trial_n":25,"n_dots":3.15,"target":"left","response":"right","rt":256.69999999925,"correct":false,"confidence":-1},{"trial_n":26,"n_dots":3.25,"target":"right","response":"right","rt":378.19999999925,"correct":true,"confidence":-1},{"trial_n":27,"n_dots":3.25,"target":"left","response":"left","rt":741.5,"correct":true,"confidence":4},{"trial_n":28,"n_dots":3.15,"target":"right","response":"right","rt":346,"correct":true,"confidence":4},{"trial_n":29,"n_dots":3.15,"target":"left","response":"left","rt":328.80000000075,"correct":true,"confidence":5},{"trial_n":30,"n_dots":3.05,"target":"left","response":"left","rt":882.89999999851,"correct":true,"confidence":4},{"trial_n":31,"n_dots":3.05,"target":"left","response":"left","rt":652.19999999925,"correct":true,"confidence":4},{"trial_n":32,"n_dots":2.95,"target":"right","response":"right","rt":810.30000000075,"correct":true,"confidence":4},{"trial_n":33,"n_dots":2.95,"target":"left","response":"left","rt":513.30000000075,"correct":true,"confidence":5},{"trial_n":34,"n_dots":2.85,"target":"left","response":"right","rt":633.30000000075,"correct":false,"confidence":5},{"trial_n":35,"n_dots":2.95,"target":"right","response":"right","rt":323,"correct":true,"confidence":5},{"trial_n":36,"n_dots":2.95,"target":"left","response":"right","rt":614.5,"correct":false,"confidence":4},{"trial_n":37,"n_dots":3.05,"target":"right","response":"right","rt":579,"correct":true,"confidence":5},{"trial_n":38,"n_dots":3.05,"target":"right","response":"right","rt":591.70000000298,"correct":true,"confidence":3},{"trial_n":39,"n_dots":2.95,"target":"right","response":"right","rt":701.80000000447,"correct":true,"confidence":4},{"trial_n":40,"n_dots":2.95,"target":"left","response":"left","rt":599.60000000149,"correct":true,"confidence":5},{"trial_n":41,"n_dots":2.85,"target":"left","response":"left","rt":561,"correct":true,"confidence":4},{"trial_n":42,"n_dots":2.85,"target":"left","response":"right","rt":394,"correct":false,"confidence":4},{"trial_n":43,"n_dots":2.95,"target":"right","response":"right","rt":440,"correct":true,"confidence":4},{"trial_n":44,"n_dots":2.95,"target":"left","response":"left","rt":311.40000000596,"correct":true,"confidence":4},{"trial_n":45,"n_dots":2.85,"target":"right","response":"left","rt":460.29999999702,"correct":false,"confidence":3},{"trial_n":46,"n_dots":2.95,"target":"right","response":"left","rt":837.89999999851,"correct":false,"confidence":4},{"trial_n":47,"n_dots":3.05,"target":"right","response":"right","rt":312.39999999851,"correct":true,"confidence":3},{"trial_n":48,"n_dots":3.05,"target":"left","response":"left","rt":542.30000000447,"correct":true,"confidence":3},{"trial_n":49,"n_dots":2.95,"target":"right","response":"left","rt":356,"correct":false,"confidence":4},{"trial_n":50,"n_dots":3.05,"target":"left","response":"left","rt":2295.1000000015,"correct":true,"confidence":3},{"trial_n":51,"n_dots":3.05,"target":"right","response":"left","rt":614.59999999404,"correct":false,"confidence":4},{"trial_n":52,"n_dots":3.15,"target":"right","response":"left","rt":936.10000000149,"correct":false,"confidence":4},{"trial_n":53,"n_dots":3.25,"target":"left","response":"left","rt":621.30000000447,"correct":true,"confidence":4},{"trial_n":54,"n_dots":3.25,"target":"right","response":"right","rt":488.39999999851,"correct":true,"confidence":4},{"trial_n":55,"n_dots":3.15,"target":"right","response":"left","rt":893.70000000298,"correct":false,"confidence":3},{"trial_n":56,"n_dots":3.25,"target":"left","response":"right","rt":1471.200000003,"correct":false,"confidence":3},{"trial_n":57,"n_dots":3.35,"target":"right","response":"right","rt":459.10000000149,"correct":true,"confidence":4},{"trial_n":58,"n_dots":3.35,"target":"left","response":"left","rt":558.70000000298,"correct":true,"confidence":4},{"trial_n":59,"n_dots":3.25,"target":"right","response":"right","rt":1107.799999997,"correct":true,"confidence":4},{"trial_n":60,"n_dots":3.25,"target":"left","response":"left","rt":2901.8000000045,"correct":true,"confidence":3},{"trial_n":61,"n_dots":3.15,"target":"left","response":"left","rt":991.80000000447,"correct":true,"confidence":4},{"trial_n":62,"n_dots":3.15,"target":"left","response":"left","rt":440.59999999404,"correct":true,"confidence":3},{"trial_n":63,"n_dots":3.05,"target":"left","response":"left","rt":380.10000000149,"correct":true,"confidence":3},{"trial_n":64,"n_dots":3.05,"target":"right","response":"right","rt":458,"correct":true,"confidence":3},{"trial_n":65,"n_dots":2.95,"target":"left","response":"left","rt":804.70000000298,"correct":true,"confidence":4},{"trial_n":66,"n_dots":2.95,"target":"left","response":"left","rt":350.40000000596,"correct":true,"confidence":4},{"trial_n":67,"n_dots":2.85,"target":"left","response":"left","rt":438,"correct":true,"confidence":3},{"trial_n":68,"n_dots":2.85,"target":"left","response":"right","rt":339.89999999851,"correct":false,"confidence":3},{"trial_n":69,"n_dots":2.95,"target":"left","response":"left","rt":310,"correct":true,"confidence":4},{"trial_n":70,"n_dots":2.95,"target":"left","response":"left","rt":326.5,"correct":true,"confidence":4},{"trial_n":71,"n_dots":2.85,"target":"left","response":"left","rt":1954.8999999985,"correct":true,"confidence":3},{"trial_n":72,"n_dots":2.85,"target":"left","response":"right","rt":971.5,"correct":false,"confidence":3},{"trial_n":73,"n_dots":2.95,"target":"right","response":"right","rt":358.10000000149,"correct":true,"confidence":3},{"trial_n":74,"n_dots":2.95,"target":"right","response":"right","rt":460.70000000298,"correct":true,"confidence":3},{"trial_n":75,"n_dots":2.85,"target":"left","response":"left","rt":329.09999999404,"correct":true,"confidence":3},{"trial_n":76,"n_dots":2.85,"target":"left","response":"right","rt":390.80000000447,"correct":false,"confidence":3},{"trial_n":77,"n_dots":2.95,"target":"right","response":"right","rt":376.20000000298,"correct":true,"confidence":3},{"trial_n":78,"n_dots":2.95,"target":"right","response":"left","rt":736,"correct":false,"confidence":4},{"trial_n":79,"n_dots":3.05,"target":"left","response":"left","rt":415.90000000596,"correct":true,"confidence":4},{"trial_n":80,"n_dots":3.05,"target":"right","response":"right","rt":587.79999999702,"correct":true,"confidence":3},{"trial_n":81,"n_dots":2.95,"target":"left","response":"right","rt":467,"correct":false,"confidence":3},{"trial_n":82,"n_dots":3.05,"target":"right","response":"right","rt":577.39999999851,"correct":true,"confidence":4},{"trial_n":83,"n_dots":3.05,"target":"left","response":"left","rt":533.60000000149,"correct":true,"confidence":3},{"trial_n":84,"n_dots":2.95,"target":"left","response":"left","rt":1198.200000003,"correct":true,"confidence":3},{"trial_n":85,"n_dots":2.95,"target":"right","response":"left","rt":3512.6000000015,"correct":false,"confidence":3},{"trial_n":86,"n_dots":3.05,"target":"right","response":"right","rt":377.89999999851,"correct":true,"confidence":3},{"trial_n":87,"n_dots":3.05,"target":"right","response":"right","rt":305.39999999851,"correct":true,"confidence":4},{"trial_n":88,"n_dots":2.95,"target":"right","response":"left","rt":47007.299999997,"correct":false,"confidence":3},{"trial_n":89,"n_dots":3.05,"target":"left","response":"right","rt":402.19999999553,"correct":false,"confidence":3},{"trial_n":90,"n_dots":3.15,"target":"left","response":"left","rt":237.39999999851,"correct":true,"confidence":4},{"trial_n":91,"n_dots":3.15,"target":"right","response":"right","rt":598.10000000149,"correct":true,"confidence":3},{"trial_n":92,"n_dots":3.05,"target":"left","response":"left","rt":307.19999999553,"correct":true,"confidence":3},{"trial_n":93,"n_dots":3.05,"target":"right","response":"right","rt":283.89999999851,"correct":true,"confidence":3},{"trial_n":94,"n_dots":2.95,"target":"left","response":"right","rt":756.40000000596,"correct":false,"confidence":3},{"trial_n":95,"n_dots":3.05,"target":"left","response":"left","rt":143.79999999702,"correct":true,"confidence":3},{"trial_n":96,"n_dots":3.05,"target":"left","response":"left","rt":295.5,"correct":true,"confidence":3},{"trial_n":97,"n_dots":2.95,"target":"right","response":"right","rt":295.89999999851,"correct":true,"confidence":3},{"trial_n":98,"n_dots":2.95,"target":"right","response":"left","rt":494.5,"correct":false,"confidence":2},{"trial_n":99,"n_dots":3.05,"target":"right","response":"right","rt":558,"correct":true,"confidence":3},{"trial_n":100,"n_dots":3.05,"target":"right","response":"right","rt":438.80000000447,"correct":true,"confidence":3},{"trial_n":101,"n_dots":2.95,"target":"left","response":"left","rt":309.69999999553,"correct":true,"confidence":4},{"trial_n":102,"n_dots":2.95,"target":"left","response":"right","rt":1013,"correct":false,"confidence":4},{"trial_n":103,"n_dots":3.05,"target":"left","response":"right","rt":1238.8999999985,"correct":false,"confidence":4},{"trial_n":104,"n_dots":3.15,"target":"right","response":"left","rt":465.20000000298,"correct":false,"confidence":4},{"trial_n":105,"n_dots":3.25,"target":"right","response":"left","rt":878.70000000298,"correct":false,"confidence":3},{"trial_n":106,"n_dots":3.35,"target":"left","response":"left","rt":588,"correct":true,"confidence":3},{"trial_n":107,"n_dots":3.35,"target":"right","response":"right","rt":695.30000000447,"correct":true,"confidence":3},{"trial_n":108,"n_dots":3.25,"target":"right","response":"right","rt":244.60000000149,"correct":true,"confidence":3},{"trial_n":109,"n_dots":3.25,"target":"right","response":"right","rt":1134.299999997,"correct":true,"confidence":3},{"trial_n":110,"n_dots":3.15,"target":"left","response":"left","rt":124.39999999851,"correct":true,"confidence":4},{"trial_n":111,"n_dots":3.15,"target":"right","response":"left","rt":1009.8999999985,"correct":false,"confidence":3},{"trial_n":112,"n_dots":3.25,"target":"right","response":"left","rt":467.60000000149,"correct":false,"confidence":3},{"trial_n":113,"n_dots":3.35,"target":"right","response":"left","rt":623.39999999851,"correct":false,"confidence":3},{"trial_n":114,"n_dots":3.45,"target":"left","response":"left","rt":954.5,"correct":true,"confidence":3},{"trial_n":115,"n_dots":3.45,"target":"right","response":"left","rt":2486.799999997,"correct":false,"confidence":3},{"trial_n":116,"n_dots":3.55,"target":"right","response":"left","rt":769.20000000298,"correct":false,"confidence":3},{"trial_n":117,"n_dots":3.65,"target":"right","response":"right","rt":1226.8999999985,"correct":true,"confidence":4},{"trial_n":118,"n_dots":3.65,"target":"left","response":"left","rt":596.5,"correct":true,"confidence":4},{"trial_n":119,"n_dots":3.55,"target":"left","response":"left","rt":427.20000000298,"correct":true,"confidence":4},{"trial_n":120,"n_dots":3.55,"target":"left","response":"left","rt":1054.5,"correct":true,"confidence":4},{"trial_n":121,"n_dots":3.45,"target":"left","response":"left","rt":388.79999999702,"correct":true,"confidence":4},{"trial_n":122,"n_dots":3.45,"target":"right","response":"right","rt":399.5,"correct":true,"confidence":4},{"trial_n":123,"n_dots":3.35,"target":"right","response":"left","rt":947,"correct":false,"confidence":4},{"trial_n":124,"n_dots":3.45,"target":"left","response":"left","rt":437.09999999404,"correct":true,"confidence":4},{"trial_n":125,"n_dots":3.45,"target":"left","response":"left","rt":748.5,"correct":true,"confidence":4},{"trial_n":126,"n_dots":3.35,"target":"right","response":"left","rt":1422.200000003,"correct":false,"confidence":4},{"trial_n":127,"n_dots":3.45,"target":"right","response":"left","rt":355.20000000298,"correct":false,"confidence":3},{"trial_n":128,"n_dots":3.55,"target":"right","response":"right","rt":1845.700000003,"correct":true,"confidence":3},{"trial_n":129,"n_dots":3.55,"target":"right","response":"right","rt":494,"correct":true,"confidence":3},{"trial_n":130,"n_dots":3.45,"target":"right","response":"right","rt":256.70000000298,"correct":true,"confidence":4},{"trial_n":131,"n_dots":3.45,"target":"left","response":"left","rt":323.39999999851,"correct":true,"confidence":4},{"trial_n":132,"n_dots":3.35,"target":"right","response":"right","rt":187,"correct":true,"confidence":4},{"trial_n":133,"n_dots":3.35,"target":"left","response":"right","rt":322.19999999553,"correct":false,"confidence":4},{"trial_n":134,"n_dots":3.45,"target":"left","response":"left","rt":4453.3999999985,"correct":true,"confidence":4},{"trial_n":135,"n_dots":3.45,"target":"left","response":"left","rt":2247.6000000015,"correct":true,"confidence":3},{"trial_n":136,"n_dots":3.35,"target":"right","response":"right","rt":1690.8999999985,"correct":true,"confidence":4},{"trial_n":137,"n_dots":3.35,"target":"left","response":"left","rt":784.5,"correct":true,"confidence":4},{"trial_n":138,"n_dots":3.25,"target":"left","response":"left","rt":310.80000000447,"correct":true,"confidence":4},{"trial_n":139,"n_dots":3.25,"target":"left","response":"left","rt":637.59999999404,"correct":true,"confidence":4},{"trial_n":140,"n_dots":3.15,"target":"right","response":"right","rt":272.20000000298,"correct":true,"confidence":3},{"trial_n":141,"n_dots":3.15,"target":"left","response":"left","rt":256.19999999553,"correct":true,"confidence":3},{"trial_n":142,"n_dots":3.05,"target":"left","response":"left","rt":29,"correct":true,"confidence":3},{"trial_n":143,"n_dots":3.05,"target":"left","response":"left","rt":211.70000000298,"correct":true,"confidence":3},{"trial_n":144,"n_dots":2.95,"target":"left","response":"left","rt":329.60000000149,"correct":true,"confidence":3},{"trial_n":145,"n_dots":2.95,"target":"right","response":"left","rt":296.39999999851,"correct":false,"confidence":3},{"trial_n":146,"n_dots":3.05,"target":"left","response":"left","rt":322,"correct":true,"confidence":3},{"trial_n":147,"n_dots":3.05,"target":"right","response":"right","rt":938.5,"correct":true,"confidence":4},{"trial_n":148,"n_dots":2.95,"target":"left","response":"right","rt":344.70000000298,"correct":false,"confidence":4},{"trial_n":149,"n_dots":3.05,"target":"left","response":"left","rt":492,"correct":true,"confidence":3},{"trial_n":150,"n_dots":3.05,"target":"left","response":"right","rt":597.80000000447,"correct":false,"confidence":3},{"trial_n":151,"n_dots":3.15,"target":"right","response":"right","rt":-1.6000000014901,"correct":true,"confidence":3},{"trial_n":152,"n_dots":3.15,"target":"right","response":"left","rt":546.20000000298,"correct":false,"confidence":3},{"trial_n":153,"n_dots":3.25,"target":"right","response":"left","rt":7127.200000003,"correct":false,"confidence":2},{"trial_n":154,"n_dots":3.35,"target":"right","response":"left","rt":474.10000000149,"correct":false,"confidence":2},{"trial_n":155,"n_dots":3.45,"target":"left","response":"left","rt":645.10000000149,"correct":true,"confidence":2},{"trial_n":156,"n_dots":3.45,"target":"left","response":"left","rt":277.79999999702,"correct":true,"confidence":2},{"trial_n":157,"n_dots":3.35,"target":"right","response":"left","rt":334.30000000447,"correct":false,"confidence":2},{"trial_n":158,"n_dots":3.45,"target":"left","response":"left","rt":13.80000000447,"correct":true,"confidence":2},{"trial_n":159,"n_dots":3.45,"target":"left","response":"left","rt":113.79999999702,"correct":true,"confidence":2},{"trial_n":160,"n_dots":3.35,"target":"right","response":"right","rt":1008.799999997,"correct":true,"confidence":2},{"trial_n":161,"n_dots":3.35,"target":"right","response":"right","rt":443.79999999702,"correct":true,"confidence":1},{"trial_n":162,"n_dots":3.25,"target":"right","response":"right","rt":1107.1000000015,"correct":true,"confidence":2},{"trial_n":163,"n_dots":3.25,"target":"right","response":"right","rt":871.69999999553,"correct":true,"confidence":2},{"trial_n":164,"n_dots":3.15,"target":"left","response":"left","rt":410.79999999702,"correct":true,"confidence":2},{"trial_n":165,"n_dots":3.15,"target":"right","response":"right","rt":414,"correct":true,"confidence":2},{"trial_n":166,"n_dots":3.05,"target":"left","response":"right","rt":145.5,"correct":false,"confidence":2},{"trial_n":167,"n_dots":3.15,"target":"right","response":"right","rt":256.30000000447,"correct":true,"confidence":3},{"trial_n":168,"n_dots":3.15,"target":"right","response":"right","rt":307.39999999851,"correct":true,"confidence":3},{"trial_n":169,"n_dots":3.05,"target":"left","response":"left","rt":398.89999999851,"correct":true,"confidence":3},{"trial_n":170,"n_dots":3.05,"target":"right","response":"right","rt":897.60000000149,"correct":true,"confidence":2},{"trial_n":171,"n_dots":2.95,"target":"left","response":"left","rt":2533.3999999985,"correct":true,"confidence":2},{"trial_n":172,"n_dots":2.95,"target":"left","response":"right","rt":461,"correct":false,"confidence":3},{"trial_n":173,"n_dots":3.05,"target":"left","response":"left","rt":408.29999999702,"correct":true,"confidence":1},{"trial_n":174,"n_dots":3.05,"target":"right","response":"right","rt":510.70000000298,"correct":true,"confidence":3},{"trial_n":175,"n_dots":2.95,"target":"left","response":"left","rt":1241.5,"correct":true,"confidence":3},{"trial_n":176,"n_dots":2.95,"target":"right","response":"right","rt":470.30000000447,"correct":true,"confidence":4},{"trial_n":177,"n_dots":2.85,"target":"left","response":"left","rt":622.80000000447,"correct":true,"confidence":2},{"trial_n":178,"n_dots":2.85,"target":"right","response":"right","rt":267.60000000149,"correct":true,"confidence":2},{"trial_n":179,"n_dots":2.75,"target":"right","response":"right","rt":253.20000000298,"correct":true,"confidence":3},{"trial_n":180,"n_dots":2.75,"target":"right","response":"right","rt":956.10000000149,"correct":true,"confidence":3},{"trial_n":181,"n_dots":2.65,"target":"right","response":"right","rt":841.30000000447,"correct":true,"confidence":3},{"trial_n":182,"n_dots":2.65,"target":"right","response":"right","rt":405.10000000149,"correct":true,"confidence":3},{"trial_n":183,"n_dots":2.55,"target":"left","response":"right","rt":1300.700000003,"correct":false,"confidence":3},{"trial_n":184,"n_dots":2.65,"target":"right","response":"right","rt":257.79999999702,"correct":true,"confidence":3},{"trial_n":185,"n_dots":2.65,"target":"left","response":"left","rt":391.19999999553,"correct":true,"confidence":3},{"trial_n":186,"n_dots":2.55,"target":"left","response":"right","rt":627.20000000298,"correct":false,"confidence":3},{"trial_n":187,"n_dots":2.65,"target":"right","response":"right","rt":422.39999999851,"correct":true,"confidence":3},{"trial_n":188,"n_dots":2.65,"target":"right","response":"right","rt":1058.3999999985,"correct":true,"confidence":2},{"trial_n":189,"n_dots":2.55,"target":"left","response":"left","rt":520.60000000149,"correct":true,"confidence":2},{"trial_n":190,"n_dots":2.55,"target":"right","response":"right","rt":339.39999999851,"correct":true,"confidence":3},{"trial_n":191,"n_dots":2.45,"target":"left","response":"right","rt":666.60000000149,"correct":false,"confidence":3},{"trial_n":192,"n_dots":2.55,"target":"right","response":"left","rt":1701.3000000045,"correct":false,"confidence":3},{"trial_n":193,"n_dots":2.65,"target":"left","response":"left","rt":428.10000000149,"correct":true,"confidence":3},{"trial_n":194,"n_dots":2.65,"target":"right","response":"right","rt":203.39999999851,"correct":true,"confidence":3}]